PE IR       SPECTRUM    SPECTRUM    ASCII       PEDS        1.60        
  -1
BZ6DA0~1.ASC
17/04/07
16:05:54.00
17/04/07
16:05:54.00
tln
$BZ1503107-1_t0035$<tbV0>[10.4,-5.2,8.0,0.0,27,1,0]
370.000000
64









2002,4.07    
MIRTGS : RIGHTBACK : INTERNAL 2
MIR : ON : INTERNAL 2
OPTKBR

0.200000
8
8.000000
FILLER
RATIO
SPECTRUM
UNLOCKED 256

DOUBLE
64
COMBINED
1
0
0


1.000000
RATIO


1
0
TRUE
51149
0
LEFT NOT FITTED RIGHT NOT FITTED 0
NONE
NONE
15600
12.000000
4.427000
51148
TRUE
1 0 8 72 0 0 0 0 

15798.010000






#HDR
-1
-1
#GR
CM-1
%T
0.00002384185791015625
0.0
5000.000000
-1.000000
4631
8
86.330652
53.544378
#DATA
5000.000000	65.274691 
4999.000000	65.159964 
4998.000000	65.021896 
4997.000000	64.871048 
4996.000000	64.719939 
4995.000000	64.581966 
4994.000000	64.469933 
4993.000000	64.394116 
4992.000000	64.361691 
4991.000000	64.375758 
4990.000000	64.434289 
4989.000000	64.529538 
4988.000000	64.649558 
4987.000000	64.779210 
4986.000000	64.902734 
4985.000000	65.005421 
4984.000000	65.076899 
4983.000000	65.112209 
4982.000000	65.111947 
4981.000000	65.080881 
4980.000000	65.026760 
4979.000000	64.957451 
4978.000000	64.880371 
4977.000000	64.799952 
4976.000000	64.717745 
4975.000000	64.632248 
4974.000000	64.542007 
4973.000000	64.445400 
4972.000000	64.341998 
4971.000000	64.233469 
4970.000000	64.123201 
4969.000000	64.017009 
4968.000000	63.921332 
4967.000000	63.843297 
4966.000000	63.788390 
4965.000000	63.760280 
4964.000000	63.759112 
4963.000000	63.782382 
4962.000000	63.824582 
4961.000000	63.878703 
4960.000000	63.936614 
4959.000000	63.991165 
4958.000000	64.037013 
4957.000000	64.071798 
4956.000000	64.096212 
4955.000000	64.113259 
4954.000000	64.127707 
4953.000000	64.144897 
4952.000000	64.170122 
4951.000000	64.207482 
4950.000000	64.259910 
4949.000000	64.329767 
4948.000000	64.417648 
4947.000000	64.523506 
4946.000000	64.644074 
4945.000000	64.772987 
4944.000000	64.899706 
4943.000000	65.011572 
4942.000000	65.095043 
4941.000000	65.137696 
4940.000000	65.132141 
4939.000000	65.078997 
4938.000000	64.986824 
4937.000000	64.871191 
4936.000000	64.751815 
4935.000000	64.649248 
4934.000000	64.579987 
4933.000000	64.553236 
4932.000000	64.569377 
4931.000000	64.620637 
4930.000000	64.693951 
4929.000000	64.774775 
4928.000000	64.849829 
4927.000000	64.909672 
4926.000000	64.949274 
4925.000000	64.967656 
4924.000000	64.965391 
4923.000000	64.943981 
4922.000000	64.904284 
4921.000000	64.847612 
4920.000000	64.776086 
4919.000000	64.694094 
4918.000000	64.609384 
4917.000000	64.532589 
4916.000000	64.475870 
4915.000000	64.450597 
4914.000000	64.464688 
4913.000000	64.520359 
4912.000000	64.612579 
4911.000000	64.729881 
4910.000000	64.856529 
4909.000000	64.975047 
4908.000000	65.069413 
4907.000000	65.127778 
4906.000000	65.144157 
4905.000000	65.118908 
4904.000000	65.057873 
4903.000000	64.971160 
4902.000000	64.870977 
4901.000000	64.770269 
4900.000000	64.680743 
4899.000000	64.612126 
4898.000000	64.570879 
4897.000000	64.559888 
4896.000000	64.578270 
4895.000000	64.621210 
4894.000000	64.681816 
4893.000000	64.751195 
4892.000000	64.821553 
4891.000000	64.886689 
4890.000000	64.943718 
4889.000000	64.993214 
4888.000000	65.037822 
4887.000000	65.080738 
4886.000000	65.123653 
4885.000000	65.166091 
4884.000000	65.204215 
4883.000000	65.232276 
4882.000000	65.243411 
4881.000000	65.232753 
4880.000000	65.198063 
4879.000000	65.141677 
4878.000000	65.068840 
4877.000000	64.986991 
4876.000000	64.903688 
4875.000000	64.825391 
4874.000000	64.755749 
4873.000000	64.696192 
4872.000000	64.647102 
4871.000000	64.609169 
4870.000000	64.584517 
4869.000000	64.577078 
4868.000000	64.590835 
4867.000000	64.629101 
4866.000000	64.691472 
4865.000000	64.774298 
4864.000000	64.869737 
4863.000000	64.968085 
4862.000000	65.058827 
4861.000000	65.133333 
4860.000000	65.186667 
4859.000000	65.217900 
4858.000000	65.230178 
4857.000000	65.228652 
4856.000000	65.219044 
4855.000000	65.205383 
4854.000000	65.189599 
4853.000000	65.170907 
4852.000000	65.147256 
4851.000000	65.116405 
4850.000000	65.077853 
4849.000000	65.033197 
4848.000000	64.986324 
4847.000000	64.942622 
4846.000000	64.907479 
4845.000000	64.884686 
4844.000000	64.875507 
4843.000000	64.878296 
4842.000000	64.888763 
4841.000000	64.900302 
4840.000000	64.905977 
4839.000000	64.899778 
4838.000000	64.879131 
4837.000000	64.845037 
4836.000000	64.803147 
4835.000000	64.762043 
4834.000000	64.731884 
4833.000000	64.721608 
4832.000000	64.737105 
4831.000000	64.779543 
4830.000000	64.844894 
4829.000000	64.925050 
4828.000000	65.009069 
4827.000000	65.085554 
4826.000000	65.144681 
4825.000000	65.180110 
4824.000000	65.189743 
4823.000000	65.175580 
4822.000000	65.143179 
4821.000000	65.100073 
4820.000000	65.054368 
4819.000000	65.013003 
4818.000000	64.981269 
4817.000000	64.961767 
4816.000000	64.954948 
4815.000000	64.959311 
4814.000000	64.971923 
4813.000000	64.989781 
4812.000000	65.010023 
4811.000000	65.031599 
4810.000000	65.054583 
4809.000000	65.081238 
4808.000000	65.114617 
4807.000000	65.157914 
4806.000000	65.213274 
4805.000000	65.280270 
4804.000000	65.356230 
4803.000000	65.435123 
4802.000000	65.508937 
4801.000000	65.568614 
4800.000000	65.606260 
4799.000000	65.616583 
4798.000000	65.598416 
4797.000000	65.554594 
4796.000000	65.491509 
4795.000000	65.417432 
4794.000000	65.340995 
4793.000000	65.269374 
4792.000000	65.207099 
4791.000000	65.155696 
4790.000000	65.114140 
4789.000000	65.080189 
4788.000000	65.051960 
4787.000000	65.028309 
4786.000000	65.010118 
4785.000000	64.999079 
4784.000000	64.998531 
4783.000000	65.010905 
4782.000000	65.038180 
4781.000000	65.080142 
4780.000000	65.134572 
4779.000000	65.197873 
4778.000000	65.265011 
4777.000000	65.330386 
4776.000000	65.387845 
4775.000000	65.431833 
4774.000000	65.457439 
4773.000000	65.460991 
4772.000000	65.441346 
4771.000000	65.400481 
4770.000000	65.343761 
4769.000000	65.279293 
4768.000000	65.217232 
4767.000000	65.168094 
4766.000000	65.140795 
4765.000000	65.140748 
4764.000000	65.168714 
4763.000000	65.220451 
4762.000000	65.288138 
4761.000000	65.361928 
4760.000000	65.431690 
4759.000000	65.489077 
4758.000000	65.529036 
4757.000000	65.550231 
4756.000000	65.554523 
4755.000000	65.545892 
4754.000000	65.528988 
4753.000000	65.507936 
4752.000000	65.486025 
4751.000000	65.465068 
4750.000000	65.446186 
4749.000000	65.429544 
4748.000000	65.415549 
4747.000000	65.404129 
4746.000000	65.395331 
4745.000000	65.388560 
4744.000000	65.382695 
4743.000000	65.376234 
4742.000000	65.367650 
4741.000000	65.356111 
4740.000000	65.342020 
4739.000000	65.327453 
4738.000000	65.315890 
4737.000000	65.311431 
4736.000000	65.317606 
4735.000000	65.336322 
4734.000000	65.366744 
4733.000000	65.405011 
4732.000000	65.444731 
4731.000000	65.478301 
4730.000000	65.498471 
4729.000000	65.500569 
4728.000000	65.483474 
4727.000000	65.449476 
4726.000000	65.403890 
4725.000000	65.353441 
4724.000000	65.305376 
4723.000000	65.265250 
4722.000000	65.237283 
4721.000000	65.223908 
4720.000000	65.226411 
4719.000000	65.245580 
4718.000000	65.281224 
4717.000000	65.332078 
4716.000000	65.395450 
4715.000000	65.466904 
4714.000000	65.540671 
4713.000000	65.610170 
4712.000000	65.668940 
4711.000000	65.711498 
4710.000000	65.734577 
4709.000000	65.737462 
4708.000000	65.721988 
4707.000000	65.691876 
4706.000000	65.652203 
4705.000000	65.608072 
4704.000000	65.564155 
4703.000000	65.523767 
4702.000000	65.489530 
4701.000000	65.462517 
4700.000000	65.443277 
4699.000000	65.431356 
4698.000000	65.425515 
4697.000000	65.424323 
4696.000000	65.425705 
4695.000000	65.428519 
4694.000000	65.432214 
4693.000000	65.437507 
4692.000000	65.445971 
4691.000000	65.459036 
4690.000000	65.477013 
4689.000000	65.498399 
4688.000000	65.519571 
4687.000000	65.535354 
4686.000000	65.539884 
4685.000000	65.528225 
4684.000000	65.497589 
4683.000000	65.448331 
4682.000000	65.383934 
4681.000000	65.309810 
4680.000000	65.232086 
4679.000000	65.156292 
4678.000000	65.086269 
4677.000000	65.023541 
4676.000000	64.968180 
4675.000000	64.919662 
4674.000000	64.878177 
4673.000000	64.845299 
4672.000000	64.823961 
4671.000000	64.817309 
4670.000000	64.827895 
4669.000000	64.855527 
4668.000000	64.897370 
4667.000000	64.947199 
4666.000000	64.997529 
4665.000000	65.040707 
4664.000000	65.071630 
4663.000000	65.088462 
4662.000000	65.093326 
4661.000000	65.091204 
4660.000000	65.087604 
4659.000000	65.086531 
4658.000000	65.089011 
4657.000000	65.092492 
4656.000000	65.091800 
4655.000000	65.080904 
4654.000000	65.055823 
4653.000000	65.015935 
4652.000000	64.964914 
4651.000000	64.909672 
4650.000000	64.858722 
4649.000000	64.819598 
4648.000000	64.795947 
4647.000000	64.787149 
4646.000000	64.788126 
4645.000000	64.791893 
4644.000000	64.791631 
4643.000000	64.783191 
4642.000000	64.766740 
4641.000000	64.746427 
4640.000000	64.728522 
4639.000000	64.719581 
4638.000000	64.723420 
4637.000000	64.740633 
4636.000000	64.768004 
4635.000000	64.799880 
4634.000000	64.829850 
4633.000000	64.852976 
4632.000000	64.867043 
4631.000000	64.872574 
4630.000000	64.872360 
4629.000000	64.870095 
4628.000000	64.869117 
4627.000000	64.871001 
4626.000000	64.875292 
4625.000000	64.879631 
4624.000000	64.880657 
4623.000000	64.875841 
4622.000000	64.863753 
4621.000000	64.844775 
4620.000000	64.821052 
4619.000000	64.795279 
4618.000000	64.770650 
4617.000000	64.749526 
4616.000000	64.733672 
4615.000000	64.724040 
4614.000000	64.720916 
4613.000000	64.724373 
4612.000000	64.734053 
4611.000000	64.749717 
4610.000000	64.770102 
4609.000000	64.792776 
4608.000000	64.813971 
4607.000000	64.829206 
4606.000000	64.833402 
4605.000000	64.822387 
4604.000000	64.793992 
4603.000000	64.749169 
4602.000000	64.692568 
4601.000000	64.631962 
4600.000000	64.576888 
4599.000000	64.536046 
4598.000000	64.515686 
4597.000000	64.517331 
4596.000000	64.537692 
4595.000000	64.569115 
4594.000000	64.601349 
4593.000000	64.624214 
4592.000000	64.629769 
4591.000000	64.614772 
4590.000000	64.580821 
4589.000000	64.534878 
4588.000000	64.486122 
4587.000000	64.445471 
4586.000000	64.422440 
4585.000000	64.423704 
4584.000000	64.451575 
4583.000000	64.503812 
4582.000000	64.574217 
4581.000000	64.653658 
4580.000000	64.732193 
4579.000000	64.799976 
4578.000000	64.849066 
4577.000000	64.874577 
4576.000000	64.875483 
4575.000000	64.854168 
4574.000000	64.815902 
4573.000000	64.768266 
4572.000000	64.719414 
4571.000000	64.677333 
4570.000000	64.647531 
4569.000000	64.633059 
4568.000000	64.633297 
4567.000000	64.644742 
4566.000000	64.661264 
4565.000000	64.675927 
4564.000000	64.682006 
4563.000000	64.674592 
4562.000000	64.651322 
4561.000000	64.612388 
4560.000000	64.560604 
4559.000000	64.500427 
4558.000000	64.437603 
4557.000000	64.377403 
4556.000000	64.325475 
4555.000000	64.286565 
4554.000000	64.265203 
4553.000000	64.264726 
4552.000000	64.287996 
4551.000000	64.336514 
4550.000000	64.409351 
4549.000000	64.502334 
4548.000000	64.607882 
4547.000000	64.715409 
4546.000000	64.812374 
4545.000000	64.886403 
4544.000000	64.927911 
4543.000000	64.931774 
4542.000000	64.899301 
4541.000000	64.837336 
4540.000000	64.756441 
4539.000000	64.668869 
4538.000000	64.586377 
4537.000000	64.518094 
4536.000000	64.469456 
4535.000000	64.441800 
4534.000000	64.433908 
4533.000000	64.441657 
4532.000000	64.460086 
4531.000000	64.483189 
4530.000000	64.505076 
4529.000000	64.519858 
4528.000000	64.522075 
4527.000000	64.507555 
4526.000000	64.473628 
4525.000000	64.420175 
4524.000000	64.349865 
4523.000000	64.268374 
4522.000000	64.183712 
4521.000000	64.104962 
4520.000000	64.040803 
4519.000000	63.997817 
4518.000000	63.979578 
4517.000000	63.986492 
4516.000000	64.016413 
4515.000000	64.064717 
4514.000000	64.126062 
4513.000000	64.195537 
4512.000000	64.269089 
4511.000000	64.342951 
4510.000000	64.413762 
4509.000000	64.478039 
4508.000000	64.532041 
4507.000000	64.571595 
4506.000000	64.592981 
4505.000000	64.594006 
4504.000000	64.574456 
4503.000000	64.537525 
4502.000000	64.488053 
4501.000000	64.432144 
4500.000000	64.375662 
4499.000000	64.323472 
4498.000000	64.278817 
4497.000000	64.243221 
4496.000000	64.216852 
4495.000000	64.199256 
4494.000000	64.189028 
4493.000000	64.184737 
4492.000000	64.184904 
4491.000000	64.188504 
4490.000000	64.194798 
4489.000000	64.202976 
4488.000000	64.213013 
4487.000000	64.223504 
4486.000000	64.231204 
4485.000000	64.230608 
4484.000000	64.215111 
4483.000000	64.178395 
4482.000000	64.116430 
4481.000000	64.029383 
4480.000000	63.922595 
4479.000000	63.806319 
4478.000000	63.693547 
4477.000000	63.598299 
4476.000000	63.532519 
4475.000000	63.504099 
4474.000000	63.514971 
4473.000000	63.561129 
4472.000000	63.633537 
4471.000000	63.719725 
4470.000000	63.806128 
4469.000000	63.881826 
4468.000000	63.940525 
4467.000000	63.979291 
4466.000000	63.999176 
4465.000000	64.004540 
4464.000000	64.002871 
4463.000000	64.001655 
4462.000000	64.007115 
4461.000000	64.031577 
4460.000000	64.084196 
4459.000000	64.157128 
4458.000000	64.235973 
4457.000000	64.309668 
4456.000000	64.370298 
4455.000000	64.413070 
4454.000000	64.440655 
4453.000000	64.463782 
4452.000000	64.495587 
4451.000000	64.547491 
4450.000000	64.623928 
4449.000000	64.719128 
4448.000000	64.820122 
4447.000000	64.908552 
4446.000000	64.974164 
4445.000000	65.018224 
4444.000000	65.060162 
4443.000000	65.133595 
4442.000000	65.263223 
4441.000000	65.458440 
4440.000000	65.701055 
4439.000000	65.963244 
4438.000000	66.198301 
4437.000000	66.389226 
4436.000000	66.570973 
4435.000000	66.850543 
4434.000000	67.389655 
4433.000000	68.365740 
4432.000000	69.934725 
4431.000000	72.149157 
4430.000000	74.932098 
4429.000000	78.047943 
4428.000000	81.132435 
4427.000000	83.771038 
4426.000000	85.580897 
4425.000000	86.330652 
4424.000000	86.013817 
4423.000000	84.843802 
4422.000000	83.226895 
4421.000000	81.606888 
4420.000000	80.358910 
4419.000000	79.667210 
4418.000000	79.490041 
4417.000000	79.596495 
4416.000000	79.655885 
4415.000000	79.356789 
4414.000000	78.507709 
4413.000000	77.066969 
4412.000000	75.157523 
4411.000000	72.988390 
4410.000000	70.814681 
4409.000000	68.866133 
4408.000000	67.307662 
4407.000000	66.220116 
4406.000000	65.592479 
4405.000000	65.352582 
4404.000000	65.385031 
4403.000000	65.556859 
4402.000000	65.754818 
4401.000000	65.896415 
4400.000000	65.947341 
4399.000000	65.890669 
4398.000000	65.745949 
4397.000000	65.541481 
4396.000000	65.313839 
4395.000000	65.085458 
4394.000000	64.876461 
4393.000000	64.705157 
4392.000000	64.581537 
4391.000000	64.510154 
4390.000000	64.483642 
4389.000000	64.484667 
4388.000000	64.495849 
4387.000000	64.504313 
4386.000000	64.498710 
4385.000000	64.472675 
4384.000000	64.428758 
4383.000000	64.376115 
4382.000000	64.323759 
4381.000000	64.278745 
4380.000000	64.246344 
4379.000000	64.227962 
4378.000000	64.215612 
4377.000000	64.199805 
4376.000000	64.180684 
4375.000000	64.161729 
4374.000000	64.146208 
4373.000000	64.137625 
4372.000000	64.137077 
4371.000000	64.142799 
4370.000000	64.149665 
4369.000000	64.151215 
4368.000000	64.141607 
4367.000000	64.117002 
4366.000000	64.076852 
4365.000000	64.024782 
4364.000000	63.967943 
4363.000000	63.915276 
4362.000000	63.874959 
4361.000000	63.853716 
4360.000000	63.854622 
4359.000000	63.876152 
4358.000000	63.912248 
4357.000000	63.953828 
4356.000000	63.990736 
4355.000000	64.013957 
4354.000000	64.017701 
4353.000000	64.000129 
4352.000000	63.964080 
4351.000000	63.915371 
4350.000000	63.862371 
4349.000000	63.813447 
4348.000000	63.776540 
4347.000000	63.757109 
4346.000000	63.758516 
4345.000000	63.781690 
4344.000000	63.825869 
4343.000000	63.888740 
4342.000000	63.967227 
4341.000000	64.057493 
4340.000000	64.154529 
4339.000000	64.252281 
4338.000000	64.343428 
4337.000000	64.420127 
4336.000000	64.474558 
4335.000000	64.500164 
4334.000000	64.493560 
4333.000000	64.455533 
4332.000000	64.391469 
4331.000000	64.310789 
4330.000000	64.226031 
4329.000000	64.150094 
4328.000000	64.094233 
4327.000000	64.065241 
4326.000000	64.064884 
4325.000000	64.089179 
4324.000000	64.129924 
4323.000000	64.176630 
4322.000000	64.218807 
4321.000000	64.248728 
4320.000000	64.262485 
4319.000000	64.260888 
4318.000000	64.248204 
4317.000000	64.230799 
4316.000000	64.214324 
4315.000000	64.203166 
4314.000000	64.198970 
4313.000000	64.201831 
4312.000000	64.211153 
4311.000000	64.226365 
4310.000000	64.247608 
4309.000000	64.275431 
4308.000000	64.310455 
4307.000000	64.351725 
4306.000000	64.396405 
4305.000000	64.439797 
4304.000000	64.476227 
4303.000000	64.500546 
4302.000000	64.509439 
4301.000000	64.502429 
4300.000000	64.481997 
4299.000000	64.453411 
4298.000000	64.423441 
4297.000000	64.398050 
4296.000000	64.381814 
4295.000000	64.377117 
4294.000000	64.384293 
4293.000000	64.402365 
4292.000000	64.429426 
4291.000000	64.463973 
4290.000000	64.503979 
4289.000000	64.547276 
4288.000000	64.590573 
4287.000000	64.629006 
4286.000000	64.657115 
4285.000000	64.669799 
4284.000000	64.663910 
4283.000000	64.639353 
4282.000000	64.599967 
4281.000000	64.553189 
4280.000000	64.508652 
4279.000000	64.476060 
4278.000000	64.463186 
4277.000000	64.474081 
4276.000000	64.507937 
4275.000000	64.559793 
4274.000000	64.621829 
4273.000000	64.685630 
4272.000000	64.744210 
4271.000000	64.793658 
4270.000000	64.833569 
4269.000000	64.866638 
4268.000000	64.896774 
4267.000000	64.927768 
4266.000000	64.961528 
4265.000000	64.997124 
4264.000000	65.031552 
4263.000000	65.059566 
4262.000000	65.075874 
4261.000000	65.075898 
4260.000000	65.057802 
4259.000000	65.022706 
4258.000000	64.975023 
4257.000000	64.921092 
4256.000000	64.868140 
4255.000000	64.822769 
4254.000000	64.789772 
4253.000000	64.771485 
4252.000000	64.767885 
4251.000000	64.777278 
4250.000000	64.796805 
4249.000000	64.823317 
4248.000000	64.853906 
4247.000000	64.885520 
4246.000000	64.915513 
4245.000000	64.940690 
4244.000000	64.958405 
4243.000000	64.966487 
4242.000000	64.964151 
4241.000000	64.952063 
4240.000000	64.932584 
4239.000000	64.910006 
4238.000000	64.889216 
4237.000000	64.874958 
4236.000000	64.870357 
4235.000000	64.876532 
4234.000000	64.892053 
4233.000000	64.913320 
4232.000000	64.935851 
4231.000000	64.955496 
4230.000000	64.969658 
4229.000000	64.977836 
4228.000000	64.981603 
4227.000000	64.983963 
4226.000000	64.988350 
4225.000000	64.997386 
4224.000000	65.012049 
4223.000000	65.031313 
4222.000000	65.052747 
4221.000000	65.073156 
4220.000000	65.089249 
4219.000000	65.098643 
4218.000000	65.100717 
4217.000000	65.096497 
4216.000000	65.088081 
4215.000000	65.078115 
4214.000000	65.069222 
4213.000000	65.062904 
4212.000000	65.059757 
4211.000000	65.058469 
4210.000000	65.057229 
4209.000000	65.053343 
4208.000000	65.044498 
4207.000000	65.029120 
4206.000000	65.007090 
4205.000000	64.979720 
4204.000000	64.949369 
4203.000000	64.919090 
4202.000000	64.892125 
4201.000000	64.871096 
4200.000000	64.857554 
4199.000000	64.851689 
4198.000000	64.852809 
4197.000000	64.859485 
4196.000000	64.870667 
4195.000000	64.885878 
4194.000000	64.905929 
4193.000000	64.933180 
4192.000000	64.971137 
4191.000000	65.022659 
4190.000000	65.088987 
4189.000000	65.168809 
4188.000000	65.257382 
4187.000000	65.346980 
4186.000000	65.428233 
4185.000000	65.492343 
4184.000000	65.533137 
4183.000000	65.548586 
4182.000000	65.541362 
4181.000000	65.517997 
4180.000000	65.487504 
4179.000000	65.459513 
4178.000000	65.441751 
4177.000000	65.438675 
4176.000000	65.451264 
4175.000000	65.477585 
4174.000000	65.513658 
4173.000000	65.554928 
4172.000000	65.597176 
4171.000000	65.637087 
4170.000000	65.671563 
4169.000000	65.697312 
4168.000000	65.710496 
4167.000000	65.706801 
4166.000000	65.682601 
4165.000000	65.635800 
4164.000000	65.567278 
4163.000000	65.480923 
4162.000000	65.383911 
4161.000000	65.285301 
4160.000000	65.194177 
4159.000000	65.118455 
4158.000000	65.063548 
4157.000000	65.032219 
4156.000000	65.023612 
4155.000000	65.035176 
4154.000000	65.063214 
4153.000000	65.104031 
4152.000000	65.154004 
4151.000000	65.210008 
4150.000000	65.268754 
4149.000000	65.326642 
4148.000000	65.379500 
4147.000000	65.423035 
4146.000000	65.453052 
4145.000000	65.466928 
4144.000000	65.463995 
4143.000000	65.445899 
4142.000000	65.416240 
4141.000000	65.380120 
4140.000000	65.342664 
4139.000000	65.308475 
4138.000000	65.280342 
4137.000000	65.259408 
4136.000000	65.244817 
4135.000000	65.234684 
4134.000000	65.226578 
4133.000000	65.218281 
4132.000000	65.208601 
4131.000000	65.196943 
4130.000000	65.184664 
4129.000000	65.173649 
4128.000000	65.167045 
4127.000000	65.167927 
4126.000000	65.179443 
4125.000000	65.204000 
4124.000000	65.242481 
4123.000000	65.293884 
4122.000000	65.354943 
4121.000000	65.420389 
4120.000000	65.483951 
4119.000000	65.539622 
4118.000000	65.582680 
4117.000000	65.610647 
4116.000000	65.624332 
4115.000000	65.626955 
4114.000000	65.623807 
4113.000000	65.619850 
4112.000000	65.618515 
4111.000000	65.619850 
4110.000000	65.621304 
4109.000000	65.617442 
4108.000000	65.602326 
4107.000000	65.570902 
4106.000000	65.521550 
4105.000000	65.456581 
4104.000000	65.381932 
4103.000000	65.306329 
4102.000000	65.238785 
4101.000000	65.187120 
4100.000000	65.155839 
4099.000000	65.145421 
4098.000000	65.152406 
4097.000000	65.170502 
4096.000000	65.192341 
4095.000000	65.210914 
4094.000000	65.221166 
4093.000000	65.220689 
4092.000000	65.209722 
4091.000000	65.190553 
4090.000000	65.166616 
4089.000000	65.142250 
4088.000000	65.121674 
4087.000000	65.108370 
4086.000000	65.104627 
4085.000000	65.111541 
4084.000000	65.128731 
4083.000000	65.154385 
4082.000000	65.185761 
4081.000000	65.219640 
4080.000000	65.252971 
4079.000000	65.283370 
4078.000000	65.309309 
4077.000000	65.330004 
4076.000000	65.345478 
4075.000000	65.356230 
4074.000000	65.362691 
4073.000000	65.364837 
4072.000000	65.362381 
4071.000000	65.355420 
4070.000000	65.344285 
4069.000000	65.329575 
4068.000000	65.312767 
4067.000000	65.296220 
4066.000000	65.282297 
4065.000000	65.272974 
4064.000000	65.269112 
4063.000000	65.270304 
4062.000000	65.274953 
4061.000000	65.280556 
4060.000000	65.284538 
4059.000000	65.284466 
4058.000000	65.278744 
4057.000000	65.266680 
4056.000000	65.248632 
4055.000000	65.225791 
4054.000000	65.199422 
4053.000000	65.171265 
4052.000000	65.142822 
4051.000000	65.116000 
4050.000000	65.092658 
4049.000000	65.075111 
4048.000000	65.065479 
4047.000000	65.065932 
4046.000000	65.078163 
4045.000000	65.102910 
4044.000000	65.139389 
4043.000000	65.185356 
4042.000000	65.236973 
4041.000000	65.289545 
4040.000000	65.338087 
4039.000000	65.377879 
4038.000000	65.405344 
4037.000000	65.418386 
4036.000000	65.416693 
4035.000000	65.401363 
4034.000000	65.374708 
4033.000000	65.340089 
4032.000000	65.301370 
4031.000000	65.262794 
4030.000000	65.228486 
4029.000000	65.202617 
4028.000000	65.188455 
4027.000000	65.188074 
4026.000000	65.201497 
4025.000000	65.227031 
4024.000000	65.260839 
4023.000000	65.297484 
4022.000000	65.330982 
4021.000000	65.355634 
4020.000000	65.367412 
4019.000000	65.364742 
4018.000000	65.348958 
4017.000000	65.323686 
4016.000000	65.294408 
4015.000000	65.267109 
4014.000000	65.246987 
4013.000000	65.237283 
4012.000000	65.238952 
4011.000000	65.250802 
4010.000000	65.269589 
4009.000000	65.291309 
4008.000000	65.311837 
4007.000000	65.328097 
4006.000000	65.338301 
4005.000000	65.342450 
4004.000000	65.342044 
4003.000000	65.339946 
4002.000000	65.339422 
4001.000000	65.343189 
4000.000000	65.353035 
3999.000000	65.368700 
3998.000000	65.388727 
3997.000000	65.409755 
3996.000000	65.427708 
3995.000000	65.438342 
3994.000000	65.438413 
3993.000000	65.426254 
3992.000000	65.402436 
3991.000000	65.369343 
3990.000000	65.330910 
3989.000000	65.291786 
3988.000000	65.256524 
3987.000000	65.228629 
3986.000000	65.210056 
3985.000000	65.201210 
3984.000000	65.201163 
3983.000000	65.207958 
3982.000000	65.219259 
3981.000000	65.232324 
3980.000000	65.244483 
3979.000000	65.253090 
3978.000000	65.256142 
3977.000000	65.252280 
3976.000000	65.241169 
3975.000000	65.223622 
3974.000000	65.201759 
3973.000000	65.178894 
3972.000000	65.158915 
3971.000000	65.145707 
3970.000000	65.142178 
3969.000000	65.149974 
3968.000000	65.168738 
3967.000000	65.196108 
3966.000000	65.228009 
3965.000000	65.259671 
3964.000000	65.285992 
3963.000000	65.302848 
3962.000000	65.307497 
3961.000000	65.298819 
3960.000000	65.277719 
3959.000000	65.246534 
3958.000000	65.208983 
3957.000000	65.169262 
3956.000000	65.131831 
3955.000000	65.100812 
3954.000000	65.079236 
3953.000000	65.068888 
3952.000000	65.069937 
3951.000000	65.080952 
3950.000000	65.099287 
3949.000000	65.121626 
3948.000000	65.144014 
3947.000000	65.163087 
3946.000000	65.175962 
3945.000000	65.180921 
3944.000000	65.177559 
3943.000000	65.166783 
3942.000000	65.150451 
3941.000000	65.131115 
3940.000000	65.111541 
3939.000000	65.094065 
3938.000000	65.080380 
3937.000000	65.071105 
3936.000000	65.065908 
3935.000000	65.063905 
3934.000000	65.063977 
3933.000000	65.065002 
3932.000000	65.066266 
3931.000000	65.067505 
3930.000000	65.068817 
3929.000000	65.070271 
3928.000000	65.071797 
3927.000000	65.072870 
3926.000000	65.072464 
3925.000000	65.069556 
3924.000000	65.063571 
3923.000000	65.054917 
3922.000000	65.045285 
3921.000000	65.037584 
3920.000000	65.035247 
3919.000000	65.041518 
3918.000000	65.058207 
3917.000000	65.085124 
3916.000000	65.119647 
3915.000000	65.157198 
3914.000000	65.192151 
3913.000000	65.219020 
3912.000000	65.233635 
3911.000000	65.234017 
3910.000000	65.220808 
3909.000000	65.197229 
3908.000000	65.167999 
3907.000000	65.138149 
3906.000000	65.112042 
3905.000000	65.092706 
3904.000000	65.081357 
3903.000000	65.077424 
3902.000000	65.079188 
3901.000000	65.084242 
3900.000000	65.090131 
3899.000000	65.094733 
3898.000000	65.096259 
3897.000000	65.093684 
3896.000000	65.086460 
3895.000000	65.074872 
3894.000000	65.059471 
3893.000000	65.041327 
3892.000000	65.021681 
3891.000000	65.002059 
3890.000000	64.983892 
3889.000000	64.968872 
3888.000000	64.958643 
3887.000000	64.954900 
3886.000000	64.959049 
3885.000000	64.972138 
3884.000000	64.994359 
3883.000000	65.025138 
3882.000000	65.062642 
3881.000000	65.104031 
3880.000000	65.145730 
3879.000000	65.183949 
3878.000000	65.215063 
3877.000000	65.236377 
3876.000000	65.246391 
3875.000000	65.245342 
3874.000000	65.234994 
3873.000000	65.218114 
3872.000000	65.197801 
3871.000000	65.177273 
3870.000000	65.158843 
3869.000000	65.143942 
3868.000000	65.132594 
3867.000000	65.124177 
3866.000000	65.117406 
3865.000000	65.111017 
3864.000000	65.104198 
3863.000000	65.096521 
3862.000000	65.088486 
3861.000000	65.081191 
3860.000000	65.076136 
3859.000000	65.074610 
3858.000000	65.077519 
3857.000000	65.085148 
3856.000000	65.096998 
3855.000000	65.111613 
3854.000000	65.127277 
3853.000000	65.142154 
3852.000000	65.154743 
3851.000000	65.163779 
3850.000000	65.168976 
3849.000000	65.170812 
3848.000000	65.170550 
3847.000000	65.169858 
3846.000000	65.170979 
3845.000000	65.176033 
3844.000000	65.187144 
3843.000000	65.205550 
3842.000000	65.231537 
3841.000000	65.263938 
3840.000000	65.300607 
3839.000000	65.338110 
3838.000000	65.372157 
3837.000000	65.398073 
3836.000000	65.412282 
3835.000000	65.412259 
3834.000000	65.397453 
3833.000000	65.369153 
3832.000000	65.330696 
3831.000000	65.286350 
3830.000000	65.240621 
3829.000000	65.197324 
3828.000000	65.159082 
3827.000000	65.127038 
3826.000000	65.101242 
3825.000000	65.080809 
3824.000000	65.064525 
3823.000000	65.051627 
3822.000000	65.041851 
3821.000000	65.035319 
3820.000000	65.032267 
3819.000000	65.032815 
3818.000000	65.036845 
3817.000000	65.043568 
3816.000000	65.052294 
3815.000000	65.062642 
3814.000000	65.075182 
3813.000000	65.091323 
3812.000000	65.113091 
3811.000000	65.142512 
3810.000000	65.181088 
3809.000000	65.228629 
3808.000000	65.283131 
3807.000000	65.341091 
3806.000000	65.397572 
3805.000000	65.447354 
3804.000000	65.485382 
3803.000000	65.508174 
3802.000000	65.513730 
3801.000000	65.502333 
3800.000000	65.475726 
3799.000000	65.436840 
3798.000000	65.389490 
3797.000000	65.338015 
3796.000000	65.286731 
3795.000000	65.239500 
3794.000000	65.199637 
3793.000000	65.169596 
3792.000000	65.150499 
3791.000000	65.141963 
3790.000000	65.142035 
3789.000000	65.147829 
3788.000000	65.156197 
3787.000000	65.164661 
3786.000000	65.171647 
3785.000000	65.176677 
3784.000000	65.180420 
3783.000000	65.183830 
3782.000000	65.187311 
3781.000000	65.190649 
3780.000000	65.192723 
3779.000000	65.191864 
3778.000000	65.186166 
3777.000000	65.174770 
3776.000000	65.158152 
3775.000000	65.138578 
3774.000000	65.119481 
3773.000000	65.105056 
3772.000000	65.099000 
3771.000000	65.103530 
3770.000000	65.118575 
3769.000000	65.141940 
3768.000000	65.169668 
3767.000000	65.196895 
3766.000000	65.218949 
3765.000000	65.232014 
3764.000000	65.233778 
3763.000000	65.224027 
3762.000000	65.204358 
3761.000000	65.177583 
3760.000000	65.147089 
3759.000000	65.116739 
3758.000000	65.089631 
3757.000000	65.067863 
3756.000000	65.052199 
3755.000000	65.042138 
3754.000000	65.036392 
3753.000000	65.033245 
3752.000000	65.031576 
3751.000000	65.030813 
3750.000000	65.031766 
3749.000000	65.036082 
3748.000000	65.045952 
3747.000000	65.063095 
3746.000000	65.087842 
3745.000000	65.118384 
3744.000000	65.150666 
3743.000000	65.179014 
3742.000000	65.197205 
3741.000000	65.200066 
3740.000000	65.185236 
3739.000000	65.154075 
3738.000000	65.111875 
3737.000000	65.066957 
3736.000000	65.028882 
3735.000000	65.006327 
3734.000000	65.005302 
3733.000000	65.027379 
3732.000000	65.069556 
3731.000000	65.124964 
3730.000000	65.184211 
3729.000000	65.237998 
3728.000000	65.278959 
3727.000000	65.303277 
3726.000000	65.310955 
3725.000000	65.305638 
3724.000000	65.292930 
3723.000000	65.278983 
3722.000000	65.268635 
3721.000000	65.264391 
3720.000000	65.266323 
3719.000000	65.272617 
3718.000000	65.280914 
3717.000000	65.289163 
3716.000000	65.296721 
3715.000000	65.304350 
3714.000000	65.314102 
3713.000000	65.328049 
3712.000000	65.347337 
3711.000000	65.371417 
3710.000000	65.398097 
3709.000000	65.423774 
3708.000000	65.444302 
3707.000000	65.456485 
3706.000000	65.458655 
3705.000000	65.451669 
3704.000000	65.438342 
3703.000000	65.422463 
3702.000000	65.407872 
3701.000000	65.397548 
3700.000000	65.392851 
3699.000000	65.393805 
3698.000000	65.398788 
3697.000000	65.405797 
3696.000000	65.412354 
3695.000000	65.416574 
3694.000000	65.416908 
3693.000000	65.412378 
3692.000000	65.402293 
3691.000000	65.386152 
3690.000000	65.363836 
3689.000000	65.335488 
3688.000000	65.301823 
3687.000000	65.264248 
3686.000000	65.224742 
3685.000000	65.185999 
3684.000000	65.150928 
3683.000000	65.122580 
3682.000000	65.103340 
3681.000000	65.094876 
3680.000000	65.097856 
3679.000000	65.112018 
3678.000000	65.136098 
3677.000000	65.168333 
3676.000000	65.206408 
3675.000000	65.247869 
3674.000000	65.289998 
3673.000000	65.330195 
3672.000000	65.366101 
3671.000000	65.395855 
3670.000000	65.418076 
3669.000000	65.432167 
3668.000000	65.438413 
3667.000000	65.437674 
3666.000000	65.431618 
3665.000000	65.421962 
3664.000000	65.410542 
3663.000000	65.398812 
3662.000000	65.387892 
3661.000000	65.378379 
3660.000000	65.370297 
3659.000000	65.363574 
3658.000000	65.358042 
3657.000000	65.353441 
3656.000000	65.349435 
3655.000000	65.345740 
3654.000000	65.342378 
3653.000000	65.338969 
3652.000000	65.335154 
3651.000000	65.330576 
3650.000000	65.324878 
3649.000000	65.317654 
3648.000000	65.308499 
3647.000000	65.296959 
3646.000000	65.282630 
3645.000000	65.265488 
3644.000000	65.245795 
3643.000000	65.224027 
3642.000000	65.201234 
3641.000000	65.179133 
3640.000000	65.159821 
3639.000000	65.145540 
3638.000000	65.138006 
3637.000000	65.138220 
3636.000000	65.146136 
3635.000000	65.160393 
3634.000000	65.178942 
3633.000000	65.199279 
3632.000000	65.219163 
3631.000000	65.237164 
3630.000000	65.252804 
3629.000000	65.266561 
3628.000000	65.279674 
3627.000000	65.293645 
3626.000000	65.309453 
3625.000000	65.327072 
3624.000000	65.345597 
3623.000000	65.363001 
3622.000000	65.376281 
3621.000000	65.382289 
3620.000000	65.378332 
3619.000000	65.363240 
3618.000000	65.337300 
3617.000000	65.302896 
3616.000000	65.263772 
3615.000000	65.225028 
3614.000000	65.191984 
3613.000000	65.169310 
3612.000000	65.160131 
3611.000000	65.165281 
3610.000000	65.183544 
3609.000000	65.211510 
3608.000000	65.244364 
3607.000000	65.277028 
3606.000000	65.305066 
3605.000000	65.325403 
3604.000000	65.336728 
3603.000000	65.339660 
3602.000000	65.336561 
3601.000000	65.330624 
3600.000000	65.325474 
3599.000000	65.324687 
3598.000000	65.331101 
3597.000000	65.346717 
3596.000000	65.372037 
3595.000000	65.406656 
3594.000000	65.448451 
3593.000000	65.494203 
3592.000000	65.539407 
3591.000000	65.579271 
3590.000000	65.608835 
3589.000000	65.624141 
3588.000000	65.622735 
3587.000000	65.604209 
3586.000000	65.570282 
3585.000000	65.524911 
3584.000000	65.472960 
3583.000000	65.419530 
3582.000000	65.368795 
3581.000000	65.323615 
3580.000000	65.285038 
3579.000000	65.252780 
3578.000000	65.225601 
3577.000000	65.202355 
3576.000000	65.182566 
3575.000000	65.166878 
3574.000000	65.156626 
3573.000000	65.153169 
3572.000000	65.157032 
3571.000000	65.167403 
3570.000000	65.181541 
3569.000000	65.195441 
3568.000000	65.204381 
3567.000000	65.204501 
3566.000000	65.193510 
3565.000000	65.171933 
3564.000000	65.142726 
3563.000000	65.110945 
3562.000000	65.082359 
3561.000000	65.062260 
3560.000000	65.054130 
3559.000000	65.059065 
3558.000000	65.075302 
3557.000000	65.099024 
3556.000000	65.125417 
3555.000000	65.149831 
3554.000000	65.168762 
3553.000000	65.180492 
3552.000000	65.185141 
3551.000000	65.184521 
3550.000000	65.181350 
3549.000000	65.178608 
3548.000000	65.178561 
3547.000000	65.182852 
3546.000000	65.191793 
3545.000000	65.204215 
3544.000000	65.217924 
3543.000000	65.230250 
3542.000000	65.238523 
3541.000000	65.240550 
3540.000000	65.235400 
3539.000000	65.223407 
3538.000000	65.206360 
3537.000000	65.186810 
3536.000000	65.167617 
3535.000000	65.151333 
3534.000000	65.139651 
3533.000000	65.133047 
3532.000000	65.130686 
3531.000000	65.131020 
3530.000000	65.131974 
3529.000000	65.131473 
3528.000000	65.128040 
3527.000000	65.121030 
3526.000000	65.110588 
3525.000000	65.097665 
3524.000000	65.083479 
3523.000000	65.069341 
3522.000000	65.056562 
3521.000000	65.046238 
3520.000000	65.039300 
3519.000000	65.036344 
3518.000000	65.038013 
3517.000000	65.044856 
3516.000000	65.057039 
3515.000000	65.074467 
3514.000000	65.096473 
3513.000000	65.121984 
3512.000000	65.149188 
3511.000000	65.176081 
3510.000000	65.200638 
3509.000000	65.221142 
3508.000000	65.236496 
3507.000000	65.246438 
3506.000000	65.251421 
3505.000000	65.252614 
3504.000000	65.251708 
3503.000000	65.250420 
3502.000000	65.250277 
3501.000000	65.252423 
3500.000000	65.257453 
3499.000000	65.265464 
3498.000000	65.276098 
3497.000000	65.288424 
3496.000000	65.300989 
3495.000000	65.312027 
3494.000000	65.319275 
3493.000000	65.320420 
3492.000000	65.313553 
3491.000000	65.297436 
3490.000000	65.271878 
3489.000000	65.238285 
3488.000000	65.199327 
3487.000000	65.158653 
3486.000000	65.120100 
3485.000000	65.087127 
3484.000000	65.062165 
3483.000000	65.046453 
3482.000000	65.039825 
3481.000000	65.040659 
3480.000000	65.046763 
3479.000000	65.055942 
3478.000000	65.066456 
3477.000000	65.076994 
3476.000000	65.087151 
3475.000000	65.097332 
3474.000000	65.108108 
3473.000000	65.119886 
3472.000000	65.132522 
3471.000000	65.144968 
3470.000000	65.155768 
3469.000000	65.163254 
3468.000000	65.166378 
3467.000000	65.165066 
3466.000000	65.160417 
3465.000000	65.154814 
3464.000000	65.151286 
3463.000000	65.152812 
3462.000000	65.161442 
3461.000000	65.177512 
3460.000000	65.199470 
3459.000000	65.224099 
3458.000000	65.247035 
3457.000000	65.263795 
3456.000000	65.270638 
3455.000000	65.265274 
3454.000000	65.247774 
3453.000000	65.220069 
3452.000000	65.185070 
3451.000000	65.146541 
3450.000000	65.108251 
3449.000000	65.073752 
3448.000000	65.046024 
3447.000000	65.027379 
3446.000000	65.019297 
3445.000000	65.022301 
3444.000000	65.036177 
3443.000000	65.059351 
3442.000000	65.089058 
3441.000000	65.121793 
3440.000000	65.153598 
3439.000000	65.180754 
3438.000000	65.200185 
3437.000000	65.209984 
3436.000000	65.209722 
3435.000000	65.200304 
3434.000000	65.184140 
3433.000000	65.164113 
3432.000000	65.143823 
3431.000000	65.126895 
3430.000000	65.116763 
3429.000000	65.116620 
3428.000000	65.128469 
3427.000000	65.153646 
3426.000000	65.191411 
3425.000000	65.239214 
3424.000000	65.292334 
3423.000000	65.344429 
3422.000000	65.388727 
3421.000000	65.418958 
3420.000000	65.430903 
3419.000000	65.423107 
3418.000000	65.397024 
3417.000000	65.356492 
3416.000000	65.307235 
3415.000000	65.255498 
3414.000000	65.207076 
3413.000000	65.166473 
3412.000000	65.136456 
3411.000000	65.117931 
3410.000000	65.110564 
3409.000000	65.113091 
3408.000000	65.123558 
3407.000000	65.140056 
3406.000000	65.160679 
3405.000000	65.183997 
3404.000000	65.208482 
3403.000000	65.233039 
3402.000000	65.256619 
3401.000000	65.278363 
3400.000000	65.297698 
3399.000000	65.313839 
3398.000000	65.326094 
3397.000000	65.333604 
3396.000000	65.335536 
3395.000000	65.331530 
3394.000000	65.322136 
3393.000000	65.308809 
3392.000000	65.293884 
3391.000000	65.280079 
3390.000000	65.270042 
3389.000000	65.265488 
3388.000000	65.266776 
3387.000000	65.272712 
3386.000000	65.280747 
3385.000000	65.287899 
3384.000000	65.291380 
3383.000000	65.289306 
3382.000000	65.281271 
3381.000000	65.268731 
3380.000000	65.254569 
3379.000000	65.242147 
3378.000000	65.234422 
3377.000000	65.233373 
3376.000000	65.239024 
3375.000000	65.249800 
3374.000000	65.262508 
3373.000000	65.273261 
3372.000000	65.278196 
3371.000000	65.274477 
3370.000000	65.260815 
3369.000000	65.237712 
3368.000000	65.207600 
3367.000000	65.174269 
3366.000000	65.142464 
3365.000000	65.116620 
3364.000000	65.100431 
3363.000000	65.096163 
3362.000000	65.104341 
3361.000000	65.123581 
3360.000000	65.151238 
3359.000000	65.183877 
3358.000000	65.217781 
3357.000000	65.249943 
3356.000000	65.278244 
3355.000000	65.301728 
3354.000000	65.320396 
3353.000000	65.335011 
3352.000000	65.346670 
3351.000000	65.356445 
3350.000000	65.365028 
3349.000000	65.372705 
3348.000000	65.379643 
3347.000000	65.385842 
3346.000000	65.391683 
3345.000000	65.397667 
3344.000000	65.404415 
3343.000000	65.412259 
3342.000000	65.421247 
3341.000000	65.430569 
3340.000000	65.438604 
3339.000000	65.443062 
3338.000000	65.441679 
3337.000000	65.432429 
3336.000000	65.414071 
3335.000000	65.386891 
3334.000000	65.352582 
3333.000000	65.314221 
3332.000000	65.275621 
3331.000000	65.240621 
3330.000000	65.212130 
3329.000000	65.191364 
3328.000000	65.177822 
3327.000000	65.169215 
3326.000000	65.162277 
3325.000000	65.153908 
3324.000000	65.141987 
3323.000000	65.125894 
3322.000000	65.106821 
3321.000000	65.087032 
3320.000000	65.069746 
3319.000000	65.057492 
3318.000000	65.052151 
3317.000000	65.054273 
3316.000000	65.063381 
3315.000000	65.078258 
3314.000000	65.097260 
3313.000000	65.118670 
3312.000000	65.140914 
3311.000000	65.162658 
3310.000000	65.182423 
3309.000000	65.198516 
3308.000000	65.209150 
3307.000000	65.212488 
3306.000000	65.207314 
3305.000000	65.193319 
3304.000000	65.171790 
3303.000000	65.145254 
3302.000000	65.117454 
3301.000000	65.092062 
3300.000000	65.072536 
3299.000000	65.060806 
3298.000000	65.056991 
3297.000000	65.059542 
3296.000000	65.065622 
3295.000000	65.072059 
3294.000000	65.075969 
3293.000000	65.075778 
3292.000000	65.071296 
3291.000000	65.064096 
3290.000000	65.056824 
3289.000000	65.052580 
3288.000000	65.053796 
3287.000000	65.061998 
3286.000000	65.077257 
3285.000000	65.098452 
3284.000000	65.123534 
3283.000000	65.150165 
3282.000000	65.176153 
3281.000000	65.199971 
3280.000000	65.220737 
3279.000000	65.238022 
3278.000000	65.251684 
3277.000000	65.261530 
3276.000000	65.267133 
3275.000000	65.267729 
3274.000000	65.262627 
3273.000000	65.251660 
3272.000000	65.235733 
3271.000000	65.217161 
3270.000000	65.199041 
3269.000000	65.185260 
3268.000000	65.178966 
3267.000000	65.181636 
3266.000000	65.192317 
3265.000000	65.207529 
3264.000000	65.222215 
3263.000000	65.230774 
3262.000000	65.228915 
3261.000000	65.214633 
3260.000000	65.189290 
3259.000000	65.157413 
3258.000000	65.125727 
3257.000000	65.101337 
3256.000000	65.090155 
3255.000000	65.095353 
3254.000000	65.116786 
3253.000000	65.150785 
3252.000000	65.191626 
3251.000000	65.232753 
3250.000000	65.268325 
3249.000000	65.294408 
3248.000000	65.309429 
3247.000000	65.314292 
3246.000000	65.311193 
3245.000000	65.303087 
3244.000000	65.292501 
3243.000000	65.281152 
3242.000000	65.269780 
3241.000000	65.257978 
3240.000000	65.245056 
3239.000000	65.229964 
3238.000000	65.212345 
3237.000000	65.192389 
3236.000000	65.170907 
3235.000000	65.149402 
3234.000000	65.129470 
3233.000000	65.112733 
3232.000000	65.100526 
3231.000000	65.093660 
3230.000000	65.092158 
3229.000000	65.095376 
3228.000000	65.102028 
3227.000000	65.110278 
3226.000000	65.118217 
3225.000000	65.123915 
3224.000000	65.125989 
3223.000000	65.123724 
3222.000000	65.117311 
3221.000000	65.107607 
3220.000000	65.095901 
3219.000000	65.083622 
3218.000000	65.071916 
3217.000000	65.061712 
3216.000000	65.053629 
3215.000000	65.047883 
3214.000000	65.044379 
3213.000000	65.043044 
3212.000000	65.043807 
3211.000000	65.046691 
3210.000000	65.051579 
3209.000000	65.058159 
3208.000000	65.065813 
3207.000000	65.073823 
3206.000000	65.081262 
3205.000000	65.087127 
3204.000000	65.090775 
3203.000000	65.092015 
3202.000000	65.091276 
3201.000000	65.089440 
3200.000000	65.087652 
3199.000000	65.087199 
3198.000000	65.089178 
3197.000000	65.094280 
3196.000000	65.102744 
3195.000000	65.114140 
3194.000000	65.127444 
3193.000000	65.141201 
3192.000000	65.153765 
3191.000000	65.163302 
3190.000000	65.168213 
3189.000000	65.167260 
3188.000000	65.159893 
3187.000000	65.146589 
3186.000000	65.128660 
3185.000000	65.108609 
3184.000000	65.089511 
3183.000000	65.074706 
3182.000000	65.067243 
3181.000000	65.069103 
3180.000000	65.080857 
3179.000000	65.101289 
3178.000000	65.127778 
3177.000000	65.156483 
3176.000000	65.183210 
3175.000000	65.204024 
3174.000000	65.216064 
3173.000000	65.218162 
3172.000000	65.210819 
3171.000000	65.196204 
3170.000000	65.177440 
3169.000000	65.158271 
3168.000000	65.141844 
3167.000000	65.130567 
3166.000000	65.125274 
3165.000000	65.125584 
3164.000000	65.129804 
3163.000000	65.135455 
3162.000000	65.139865 
3161.000000	65.140771 
3160.000000	65.136933 
3159.000000	65.128016 
3158.000000	65.114808 
3157.000000	65.098714 
3156.000000	65.081262 
3155.000000	65.063643 
3154.000000	65.046596 
3153.000000	65.030074 
3152.000000	65.013790 
3151.000000	64.997506 
3150.000000	64.981579 
3149.000000	64.966940 
3148.000000	64.955353 
3147.000000	64.948773 
3146.000000	64.948749 
3145.000000	64.955854 
3144.000000	64.969062 
3143.000000	64.986014 
3142.000000	65.003252 
3141.000000	65.017294 
3140.000000	65.025734 
3139.000000	65.028262 
3138.000000	65.026736 
3137.000000	65.024995 
3136.000000	65.027666 
3135.000000	65.038871 
3134.000000	65.061020 
3133.000000	65.093851 
3132.000000	65.134334 
3131.000000	65.177297 
3130.000000	65.216803 
3129.000000	65.247392 
3128.000000	65.265464 
3127.000000	65.269923 
3126.000000	65.262269 
3125.000000	65.245962 
3124.000000	65.225148 
3123.000000	65.203642 
3122.000000	65.184187 
3121.000000	65.168023 
3120.000000	65.155053 
3119.000000	65.144419 
3118.000000	65.135025 
3117.000000	65.126228 
3116.000000	65.117931 
3115.000000	65.110349 
3114.000000	65.104055 
3113.000000	65.099477 
3112.000000	65.096735 
3111.000000	65.095496 
3110.000000	65.095376 
3109.000000	65.095734 
3108.000000	65.096473 
3107.000000	65.097856 
3106.000000	65.100598 
3105.000000	65.105700 
3104.000000	65.114212 
3103.000000	65.126633 
3102.000000	65.142750 
3101.000000	65.161538 
3100.000000	65.181088 
3099.000000	65.199112 
3098.000000	65.212965 
3097.000000	65.220618 
3096.000000	65.220522 
3095.000000	65.212106 
3094.000000	65.195631 
3093.000000	65.172195 
3092.000000	65.143513 
3091.000000	65.111851 
3090.000000	65.079593 
3089.000000	65.049123 
3088.000000	65.022802 
3087.000000	65.002822 
3086.000000	64.990949 
3085.000000	64.988422 
3084.000000	64.995813 
3083.000000	65.012812 
3082.000000	65.038084 
3081.000000	65.069270 
3080.000000	65.103101 
3079.000000	65.135598 
3078.000000	65.162873 
3077.000000	65.181303 
3076.000000	65.188241 
3075.000000	65.182638 
3074.000000	65.165209 
3073.000000	65.138411 
3072.000000	65.106129 
3071.000000	65.072822 
3070.000000	65.043067 
3069.000000	65.020585 
3068.000000	65.007615 
3067.000000	65.004706 
3066.000000	65.010809 
3065.000000	65.023684 
3064.000000	65.040564 
3063.000000	65.059041 
3062.000000	65.077424 
3061.000000	65.094947 
3060.000000	65.111637 
3059.000000	65.127658 
3058.000000	65.142846 
3057.000000	65.156364 
3056.000000	65.166687 
3055.000000	65.171885 
3054.000000	65.170025 
3053.000000	65.160155 
3052.000000	65.142512 
3051.000000	65.118837 
3050.000000	65.092182 
3049.000000	65.066242 
3048.000000	65.044736 
3047.000000	65.030574 
3046.000000	65.025186 
3045.000000	65.028452 
3044.000000	65.038752 
3043.000000	65.053510 
3042.000000	65.069627 
3041.000000	65.084481 
3040.000000	65.095829 
3039.000000	65.102267 
3038.000000	65.103197 
3037.000000	65.098714 
3036.000000	65.089273 
3035.000000	65.075540 
3034.000000	65.058350 
3033.000000	65.038609 
3032.000000	65.017390 
3031.000000	64.995789 
3030.000000	64.974999 
3029.000000	64.956235 
3028.000000	64.940595 
3027.000000	64.929056 
3026.000000	64.922118 
3025.000000	64.920163 
3024.000000	64.923119 
3023.000000	64.930582 
3022.000000	64.941954 
3021.000000	64.956307 
3020.000000	64.972615 
3019.000000	64.989614 
3018.000000	65.005946 
3017.000000	65.020275 
3016.000000	65.031433 
3015.000000	65.038657 
3014.000000	65.041685 
3013.000000	65.040922 
3012.000000	65.037465 
3011.000000	65.032768 
3010.000000	65.028667 
3009.000000	65.026664 
3008.000000	65.027880 
3007.000000	65.032792 
3006.000000	65.041184 
3005.000000	65.052366 
3004.000000	65.065336 
3003.000000	65.079140 
3002.000000	65.093088 
3001.000000	65.106678 
3000.000000	65.119457 
2999.000000	65.131115 
2998.000000	65.141177 
2997.000000	65.148997 
2996.000000	65.153837 
2995.000000	65.154957 
2994.000000	65.151667 
2993.000000	65.143680 
2992.000000	65.131092 
2991.000000	65.114641 
2990.000000	65.095686 
2989.000000	65.076041 
2988.000000	65.057802 
2987.000000	65.043163 
2986.000000	65.034103 
2985.000000	65.032148 
2984.000000	65.038037 
2983.000000	65.051507 
2982.000000	65.071368 
2981.000000	65.095520 
2980.000000	65.121150 
2979.000000	65.145301 
2978.000000	65.165257 
2977.000000	65.178990 
2976.000000	65.185451 
2975.000000	65.184640 
2974.000000	65.177345 
2973.000000	65.164923 
2972.000000	65.148830 
2971.000000	65.130472 
2970.000000	65.110898 
2969.000000	65.091037 
2968.000000	65.071606 
2967.000000	65.053272 
2966.000000	65.036797 
2965.000000	65.023207 
2964.000000	65.013432 
2963.000000	65.008425 
2962.000000	65.008568 
2961.000000	65.013885 
2960.000000	65.023636 
2959.000000	65.036511 
2958.000000	65.050697 
2957.000000	65.064311 
2956.000000	65.075755 
2955.000000	65.083789 
2954.000000	65.087771 
2953.000000	65.087723 
2952.000000	65.084266 
2951.000000	65.078449 
2950.000000	65.071201 
2949.000000	65.063452 
2948.000000	65.055656 
2947.000000	65.048122 
2946.000000	65.040922 
2945.000000	65.033864 
2944.000000	65.026855 
2943.000000	65.020084 
2942.000000	65.014076 
2941.000000	65.009546 
2940.000000	65.007615 
2939.000000	65.009236 
2938.000000	65.015363 
2937.000000	65.026283 
2936.000000	65.041828 
2935.000000	65.060949 
2934.000000	65.082216 
2933.000000	65.103960 
2932.000000	65.124678 
2931.000000	65.143322 
2930.000000	65.159535 
2929.000000	65.173602 
2928.000000	65.186357 
2927.000000	65.198612 
2926.000000	65.210986 
2925.000000	65.223264 
2924.000000	65.234398 
2923.000000	65.242671 
2922.000000	65.246009 
2921.000000	65.242576 
2920.000000	65.231537 
2919.000000	65.212917 
2918.000000	65.188288 
2917.000000	65.159821 
2916.000000	65.130186 
2915.000000	65.101504 
2914.000000	65.075016 
2913.000000	65.051460 
2912.000000	65.030646 
2911.000000	65.012669 
2910.000000	64.997649 
2909.000000	64.986443 
2908.000000	64.980506 
2907.000000	64.981436 
2906.000000	64.990305 
2905.000000	65.007185 
2904.000000	65.030622 
2903.000000	65.057754 
2902.000000	65.084552 
2901.000000	65.107035 
2900.000000	65.122056 
2899.000000	65.128016 
2898.000000	65.125441 
2897.000000	65.116477 
2896.000000	65.104436 
2895.000000	65.093159 
2894.000000	65.085482 
2893.000000	65.083193 
2892.000000	65.086078 
2891.000000	65.092802 
2890.000000	65.100908 
2889.000000	65.107440 
2888.000000	65.109992 
2887.000000	65.106797 
2886.000000	65.097641 
2885.000000	65.083384 
2884.000000	65.066075 
2883.000000	65.048384 
2882.000000	65.033054 
2881.000000	65.022277 
2880.000000	65.017366 
2879.000000	65.018534 
2878.000000	65.024781 
2877.000000	65.034341 
2876.000000	65.044832 
2875.000000	65.053915 
2874.000000	65.059876 
2873.000000	65.061855 
2872.000000	65.060114 
2871.000000	65.055727 
2870.000000	65.050482 
2869.000000	65.046310 
2868.000000	65.044689 
2867.000000	65.046381 
2866.000000	65.051269 
2865.000000	65.058422 
2864.000000	65.066313 
2863.000000	65.073323 
2862.000000	65.077900 
2861.000000	65.079092 
2860.000000	65.076613 
2859.000000	65.070796 
2858.000000	65.062260 
2857.000000	65.052056 
2856.000000	65.041136 
2855.000000	65.030312 
2854.000000	65.020275 
2853.000000	65.011572 
2852.000000	65.004658 
2851.000000	65.000009 
2850.000000	64.997911 
2849.000000	64.998435 
2848.000000	65.001344 
2847.000000	65.006017 
2846.000000	65.011477 
2845.000000	65.016460 
2844.000000	65.019607 
2843.000000	65.019941 
2842.000000	65.016746 
2841.000000	65.009903 
2840.000000	64.999866 
2839.000000	64.987277 
2838.000000	64.973282 
2837.000000	64.959073 
2836.000000	64.946079 
2835.000000	64.935636 
2834.000000	64.929294 
2833.000000	64.928412 
2832.000000	64.934158 
2831.000000	64.947032 
2830.000000	64.966630 
2829.000000	64.991474 
2828.000000	65.018868 
2827.000000	65.045142 
2826.000000	65.066218 
2825.000000	65.078592 
2824.000000	65.079903 
2823.000000	65.069675 
2822.000000	65.049529 
2821.000000	65.022945 
2820.000000	64.994549 
2819.000000	64.969015 
2818.000000	64.950299 
2817.000000	64.940810 
2816.000000	64.941167 
2815.000000	64.950299 
2814.000000	64.966034 
2813.000000	64.985632 
2812.000000	65.006399 
2811.000000	65.026521 
2810.000000	65.044474 
2809.000000	65.059995 
2808.000000	65.072989 
2807.000000	65.084028 
2806.000000	65.093636 
2805.000000	65.102481 
2804.000000	65.111041 
2803.000000	65.119767 
2802.000000	65.129232 
2801.000000	65.139722 
2800.000000	65.151429 
2799.000000	65.164041 
2798.000000	65.176916 
2797.000000	65.189075 
2796.000000	65.199303 
2795.000000	65.206432 
2794.000000	65.209531 
2793.000000	65.208244 
2792.000000	65.202760 
2791.000000	65.193867 
2790.000000	65.182638 
2789.000000	65.170335 
2788.000000	65.158057 
2787.000000	65.146613 
2786.000000	65.136504 
2785.000000	65.127611 
2784.000000	65.119814 
2783.000000	65.112876 
2782.000000	65.107035 
2781.000000	65.102863 
2780.000000	65.101623 
2779.000000	65.104651 
2778.000000	65.113091 
2777.000000	65.127515 
2776.000000	65.147447 
2775.000000	65.171241 
2774.000000	65.196394 
2773.000000	65.219831 
2772.000000	65.238618 
2771.000000	65.250396 
2770.000000	65.254163 
2769.000000	65.250205 
2768.000000	65.240073 
2767.000000	65.226149 
2766.000000	65.211057 
2765.000000	65.197038 
2764.000000	65.185475 
2763.000000	65.176868 
2762.000000	65.170669 
2761.000000	65.165948 
2760.000000	65.161514 
2759.000000	65.156722 
2758.000000	65.151429 
2757.000000	65.146231 
2756.000000	65.142107 
2755.000000	65.140247 
2754.000000	65.141630 
2753.000000	65.146923 
2752.000000	65.155816 
2751.000000	65.167307 
2750.000000	65.179824 
2749.000000	65.191340 
2748.000000	65.200042 
2747.000000	65.204405 
2746.000000	65.203833 
2745.000000	65.198516 
2744.000000	65.189313 
2743.000000	65.177702 
2742.000000	65.165448 
2741.000000	65.154194 
2740.000000	65.145015 
2739.000000	65.138626 
2738.000000	65.134954 
2737.000000	65.133595 
2736.000000	65.133714 
2735.000000	65.134334 
2734.000000	65.134263 
2733.000000	65.132522 
2732.000000	65.128326 
2731.000000	65.121054 
2730.000000	65.110254 
2729.000000	65.095806 
2728.000000	65.078020 
2727.000000	65.057516 
2726.000000	65.035462 
2725.000000	65.013337 
2724.000000	64.992737 
2723.000000	64.975333 
2722.000000	64.962530 
2721.000000	64.955163 
2720.000000	64.953517 
2719.000000	64.957213 
2718.000000	64.965367 
2717.000000	64.976525 
2716.000000	64.989209 
2715.000000	65.002250 
2714.000000	65.014719 
2713.000000	65.026259 
2712.000000	65.037178 
2711.000000	65.048265 
2710.000000	65.060472 
2709.000000	65.074753 
2708.000000	65.091538 
2707.000000	65.110349 
2706.000000	65.130233 
2705.000000	65.149617 
2704.000000	65.166497 
2703.000000	65.178847 
2702.000000	65.185403 
2701.000000	65.185356 
2700.000000	65.178942 
2699.000000	65.166950 
2698.000000	65.151000 
2697.000000	65.132880 
2696.000000	65.114450 
2695.000000	65.097403 
2694.000000	65.083169 
2693.000000	65.072560 
2692.000000	65.065789 
2691.000000	65.062451 
2690.000000	65.061640 
2689.000000	65.061831 
2688.000000	65.061306 
2687.000000	65.058207 
2686.000000	65.051198 
2685.000000	65.039777 
2684.000000	65.024662 
2683.000000	65.007615 
2682.000000	64.991235 
2681.000000	64.978480 
2680.000000	64.971804 
2679.000000	64.972615 
2678.000000	64.980864 
2677.000000	64.995050 
2676.000000	65.012669 
2675.000000	65.030550 
2674.000000	65.045881 
2673.000000	65.056586 
2672.000000	65.061998 
2671.000000	65.062618 
2670.000000	65.060067 
2669.000000	65.056705 
2668.000000	65.054893 
2667.000000	65.056300 
2666.000000	65.061640 
2665.000000	65.070486 
2664.000000	65.081429 
2663.000000	65.092611 
2662.000000	65.102052 
2661.000000	65.108203 
2660.000000	65.110373 
2659.000000	65.108847 
2658.000000	65.104913 
2657.000000	65.100240 
2656.000000	65.096831 
2655.000000	65.096139 
2654.000000	65.098834 
2653.000000	65.104579 
2652.000000	65.112066 
2651.000000	65.119528 
2650.000000	65.125012 
2649.000000	65.126895 
2648.000000	65.124344 
2647.000000	65.117311 
2646.000000	65.106558 
2645.000000	65.093326 
2644.000000	65.078854 
2643.000000	65.064263 
2642.000000	65.050292 
2641.000000	65.037345 
2640.000000	65.025305 
2639.000000	65.014028 
2638.000000	65.003585 
2637.000000	64.994215 
2636.000000	64.986371 
2635.000000	64.980721 
2634.000000	64.977788 
2633.000000	64.977931 
2632.000000	64.980983 
2631.000000	64.986515 
2630.000000	64.993667 
2629.000000	65.001583 
2628.000000	65.009403 
2627.000000	65.016484 
2626.000000	65.022540 
2625.000000	65.027499 
2624.000000	65.031552 
2623.000000	65.034914 
2622.000000	65.037775 
2621.000000	65.040349 
2620.000000	65.042543 
2619.000000	65.044021 
2618.000000	65.044212 
2617.000000	65.042591 
2616.000000	65.038514 
2615.000000	65.031528 
2614.000000	65.021586 
2613.000000	65.009045 
2612.000000	64.994692 
2611.000000	64.979577 
2610.000000	64.965057 
2609.000000	64.952611 
2608.000000	64.943766 
2607.000000	64.939785 
2606.000000	64.941477 
2605.000000	64.949202 
2604.000000	64.962387 
2603.000000	64.979696 
2602.000000	64.999103 
2601.000000	65.018129 
2600.000000	65.034246 
2599.000000	65.045428 
2598.000000	65.050411 
2597.000000	65.049052 
2596.000000	65.042281 
2595.000000	65.032005 
2594.000000	65.020489 
2593.000000	65.009999 
2592.000000	65.002274 
2591.000000	64.998292 
2590.000000	64.998221 
2589.000000	65.001273 
2588.000000	65.006399 
2587.000000	65.012288 
2586.000000	65.018081 
2585.000000	65.023231 
2584.000000	65.027618 
2583.000000	65.031433 
2582.000000	65.034961 
2581.000000	65.038585 
2580.000000	65.042495 
2579.000000	65.046691 
2578.000000	65.050935 
2577.000000	65.054869 
2576.000000	65.058088 
2575.000000	65.060257 
2574.000000	65.061116 
2573.000000	65.060591 
2572.000000	65.058898 
2571.000000	65.056419 
2570.000000	65.053534 
2569.000000	65.050673 
2568.000000	65.048217 
2567.000000	65.046381 
2566.000000	65.045213 
2565.000000	65.044784 
2564.000000	65.045237 
2563.000000	65.046930 
2562.000000	65.050339 
2561.000000	65.056014 
2560.000000	65.064406 
2559.000000	65.075826 
2558.000000	65.089869 
2557.000000	65.105414 
2556.000000	65.120458 
2555.000000	65.132522 
2554.000000	65.139079 
2553.000000	65.138149 
2552.000000	65.128779 
2551.000000	65.111541 
2550.000000	65.088534 
2549.000000	65.062904 
2548.000000	65.038466 
2547.000000	65.018725 
2546.000000	65.006232 
2545.000000	65.001940 
2544.000000	65.005135 
2543.000000	65.013885 
2542.000000	65.025448 
2541.000000	65.037131 
2540.000000	65.046834 
2539.000000	65.053725 
2538.000000	65.058135 
2537.000000	65.061330 
2536.000000	65.064978 
2535.000000	65.070557 
2534.000000	65.078687 
2533.000000	65.089035 
2532.000000	65.100336 
2531.000000	65.110754 
2530.000000	65.118408 
2529.000000	65.121817 
2528.000000	65.120339 
2527.000000	65.114307 
2526.000000	65.104937 
2525.000000	65.094161 
2524.000000	65.084004 
2523.000000	65.076351 
2522.000000	65.072846 
2521.000000	65.074372 
2520.000000	65.081048 
2519.000000	65.092229 
2518.000000	65.106439 
2517.000000	65.121603 
2516.000000	65.135407 
2515.000000	65.145635 
2514.000000	65.150523 
2513.000000	65.149378 
2512.000000	65.142369 
2511.000000	65.130901 
2510.000000	65.117096 
2509.000000	65.103530 
2508.000000	65.092349 
2507.000000	65.085077 
2506.000000	65.081691 
2505.000000	65.081167 
2504.000000	65.081119 
2503.000000	65.078902 
2502.000000	65.072083 
2501.000000	65.059018 
2500.000000	65.039420 
2499.000000	65.014386 
2498.000000	64.986300 
2497.000000	64.958000 
2496.000000	64.932346 
2495.000000	64.911603 
2494.000000	64.896965 
2493.000000	64.888405 
2492.000000	64.884757 
2491.000000	64.884424 
2490.000000	64.885497 
2489.000000	64.886999 
2488.000000	64.888691 
2487.000000	64.891695 
2486.000000	64.897632 
2485.000000	64.908576 
2484.000000	64.926052 
2483.000000	64.950704 
2482.000000	64.981627 
2481.000000	65.016436 
2480.000000	65.051674 
2479.000000	65.083408 
2478.000000	65.108060 
2477.000000	65.123152 
2476.000000	65.127682 
2475.000000	65.122413 
2474.000000	65.109515 
2473.000000	65.091919 
2472.000000	65.072631 
2471.000000	65.054345 
2470.000000	65.038895 
2469.000000	65.027165 
2468.000000	65.018939 
2467.000000	65.013647 
2466.000000	65.010356 
2465.000000	65.007805 
2464.000000	65.004730 
2463.000000	65.000009 
2462.000000	64.992785 
2461.000000	64.982318 
2460.000000	64.968371 
2459.000000	64.951276 
2458.000000	64.931988 
2457.000000	64.912104 
2456.000000	64.893412 
2455.000000	64.877581 
2454.000000	64.865875 
2453.000000	64.858865 
2452.000000	64.856219 
2451.000000	64.856719 
2450.000000	64.858818 
2449.000000	64.860987 
2448.000000	64.862442 
2447.000000	64.863228 
2446.000000	64.864230 
2445.000000	64.866995 
2444.000000	64.873194 
2443.000000	64.883971 
2442.000000	64.899659 
2441.000000	64.919638 
2440.000000	64.942479 
2439.000000	64.966487 
2438.000000	64.990067 
2437.000000	65.012311 
2436.000000	65.033221 
2435.000000	65.053582 
2434.000000	65.074682 
2433.000000	65.097403 
2432.000000	65.122127 
2431.000000	65.147638 
2430.000000	65.171432 
2429.000000	65.189766 
2428.000000	65.199041 
2427.000000	65.196228 
2426.000000	65.180134 
2425.000000	65.151667 
2424.000000	65.114307 
2423.000000	65.073251 
2422.000000	65.034317 
2421.000000	65.002727 
2420.000000	64.982128 
2419.000000	64.973807 
2418.000000	64.976477 
2417.000000	64.986872 
2416.000000	65.000438 
2415.000000	65.012598 
2414.000000	65.019774 
2413.000000	65.019845 
2412.000000	65.012264 
2411.000000	64.997935 
2410.000000	64.978790 
2409.000000	64.956736 
2408.000000	64.933633 
2407.000000	64.911007 
2406.000000	64.890289 
2405.000000	64.872574 
2404.000000	64.859008 
2403.000000	64.850735 
2402.000000	64.848971 
2401.000000	64.854383 
2400.000000	64.867377 
2399.000000	64.887499 
2398.000000	64.913535 
2397.000000	64.943528 
2396.000000	64.975047 
2395.000000	65.005421 
2394.000000	65.032100 
2393.000000	65.053081 
2392.000000	65.066909 
2391.000000	65.072751 
2390.000000	65.070605 
2389.000000	65.061354 
2388.000000	65.046405 
2387.000000	65.027284 
2386.000000	65.005922 
2385.000000	64.983963 
2384.000000	64.962577 
2383.000000	64.942359 
2382.000000	64.923405 
2381.000000	64.905476 
2380.000000	64.888191 
2379.000000	64.871692 
2378.000000	64.856386 
2377.000000	64.843440 
2376.000000	64.834165 
2375.000000	64.829850 
2374.000000	64.831185 
2373.000000	64.838242 
2372.000000	64.849925 
2371.000000	64.864802 
2370.000000	64.880657 
2369.000000	64.895725 
2368.000000	64.908790 
2367.000000	64.919710 
2366.000000	64.929008 
2365.000000	64.937996 
2364.000000	64.948034 
2363.000000	64.960098 
2362.000000	64.974188 
2361.000000	64.989352 
2360.000000	65.003871 
2359.000000	65.015721 
2358.000000	65.023326 
2357.000000	65.025877 
2356.000000	65.023589 
2355.000000	65.018010 
2354.000000	65.011286 
2353.000000	65.005588 
2352.000000	65.002489 
2351.000000	65.002679 
2350.000000	65.005683 
2349.000000	65.009951 
2348.000000	65.013313 
2347.000000	65.013909 
2346.000000	65.010309 
2345.000000	65.001988 
2344.000000	64.989352 
2343.000000	64.973545 
2342.000000	64.956164 
2341.000000	64.938712 
2340.000000	64.922499 
2339.000000	64.908218 
2338.000000	64.896297 
2337.000000	64.887070 
2336.000000	64.880919 
2335.000000	64.878225 
2334.000000	64.879417 
2333.000000	64.884901 
2332.000000	64.894652 
2331.000000	64.908027 
2330.000000	64.924001 
2329.000000	64.941143 
2328.000000	64.957714 
2327.000000	64.972233 
2326.000000	64.983725 
2325.000000	64.991974 
2324.000000	64.997386 
2323.000000	65.001010 
2322.000000	65.004062 
2321.000000	65.007519 
2320.000000	65.012216 
2319.000000	65.018224 
2318.000000	65.025019 
2317.000000	65.031456 
2316.000000	65.036177 
2315.000000	65.037918 
2314.000000	65.035772 
2313.000000	65.029549 
2312.000000	65.019774 
2311.000000	65.007758 
2310.000000	64.995360 
2309.000000	64.984655 
2308.000000	64.977359 
2307.000000	64.974427 
2306.000000	64.975643 
2305.000000	64.979481 
2304.000000	64.983654 
2303.000000	64.985251 
2302.000000	64.981555 
2301.000000	64.970707 
2300.000000	64.952230 
2299.000000	64.927172 
2298.000000	64.898276 
2297.000000	64.868998 
2296.000000	64.843249 
2295.000000	64.824533 
2294.000000	64.815330 
2293.000000	64.816546 
2292.000000	64.827418 
2291.000000	64.845728 
2290.000000	64.868426 
2289.000000	64.891958 
2288.000000	64.913010 
2287.000000	64.929127 
2286.000000	64.938807 
2285.000000	64.941644 
2284.000000	64.938282 
2283.000000	64.930033 
2282.000000	64.918637 
2281.000000	64.905858 
2280.000000	64.893245 
2279.000000	64.881944 
2278.000000	64.872694 
2277.000000	64.865946 
2276.000000	64.861583 
2275.000000	64.859366 
2274.000000	64.858841 
2273.000000	64.859485 
2272.000000	64.860773 
2271.000000	64.862060 
2270.000000	64.862847 
2269.000000	64.862799 
2268.000000	64.861774 
2267.000000	64.859819 
2266.000000	64.857459 
2265.000000	64.855289 
2264.000000	64.853668 
2263.000000	64.853048 
2262.000000	64.853668 
2261.000000	64.855599 
2260.000000	64.858531 
2259.000000	64.862155 
2258.000000	64.866185 
2257.000000	64.870452 
2256.000000	64.875102 
2255.000000	64.880371 
2254.000000	64.886498 
2253.000000	64.893674 
2252.000000	64.901828 
2251.000000	64.910507 
2250.000000	64.918971 
2249.000000	64.926314 
2248.000000	64.931583 
2247.000000	64.934134 
2246.000000	64.933848 
2245.000000	64.931154 
2244.000000	64.927148 
2243.000000	64.923214 
2242.000000	64.920783 
2241.000000	64.921331 
2240.000000	64.925813 
2239.000000	64.934611 
2238.000000	64.947366 
2237.000000	64.963173 
2236.000000	64.980483 
2235.000000	64.997625 
2234.000000	65.012931 
2233.000000	65.024900 
2232.000000	65.032386 
2231.000000	65.034914 
2230.000000	65.032434 
2229.000000	65.025424 
2228.000000	65.014863 
2227.000000	65.001964 
2226.000000	64.988160 
2225.000000	64.974832 
2224.000000	64.963054 
2223.000000	64.953398 
2222.000000	64.945936 
2221.000000	64.940023 
2220.000000	64.934492 
2219.000000	64.927816 
2218.000000	64.918398 
2217.000000	64.905190 
2216.000000	64.887690 
2215.000000	64.866280 
2214.000000	64.842319 
2213.000000	64.817881 
2212.000000	64.795303 
2211.000000	64.777064 
2210.000000	64.765048 
2209.000000	64.760422 
2208.000000	64.763331 
2207.000000	64.773011 
2206.000000	64.788079 
2205.000000	64.806604 
2204.000000	64.826416 
2203.000000	64.845418 
2202.000000	64.861798 
2201.000000	64.874053 
2200.000000	64.881134 
2199.000000	64.882540 
2198.000000	64.878439 
2197.000000	64.869689 
2196.000000	64.857578 
2195.000000	64.843869 
2194.000000	64.830279 
2193.000000	64.818596 
2192.000000	64.810085 
2191.000000	64.805507 
2190.000000	64.804816 
2189.000000	64.807415 
2188.000000	64.812231 
2187.000000	64.818000 
2186.000000	64.823532 
2185.000000	64.827966 
2184.000000	64.830875 
2183.000000	64.832067 
2182.000000	64.831805 
2181.000000	64.830541 
2180.000000	64.828944 
2179.000000	64.827466 
2178.000000	64.826607 
2177.000000	64.826655 
2176.000000	64.827418 
2175.000000	64.828372 
2174.000000	64.828515 
2173.000000	64.826631 
2172.000000	64.821600 
2171.000000	64.812636 
2170.000000	64.799571 
2169.000000	64.783215 
2168.000000	64.765262 
2167.000000	64.748072 
2166.000000	64.734148 
2165.000000	64.725589 
2164.000000	64.723539 
2163.000000	64.727759 
2162.000000	64.736795 
2161.000000	64.748287 
2160.000000	64.759540 
2159.000000	64.768385 
2158.000000	64.773464 
2157.000000	64.774894 
2156.000000	64.773869 
2155.000000	64.772534 
2154.000000	64.772844 
2153.000000	64.776420 
2152.000000	64.783883 
2151.000000	64.794850 
2150.000000	64.807868 
2149.000000	64.820981 
2148.000000	64.832067 
2147.000000	64.839315 
2146.000000	64.841747 
2145.000000	64.838886 
2144.000000	64.830803 
2143.000000	64.818072 
2142.000000	64.801645 
2141.000000	64.782595 
2140.000000	64.762306 
2139.000000	64.742517 
2138.000000	64.725208 
2137.000000	64.712381 
2136.000000	64.705920 
2135.000000	64.706897 
2134.000000	64.715480 
2133.000000	64.730334 
2132.000000	64.749002 
2131.000000	64.768147 
2130.000000	64.784026 
2129.000000	64.793419 
2128.000000	64.794397 
2127.000000	64.786434 
2126.000000	64.771008 
2125.000000	64.751076 
2124.000000	64.730548 
2123.000000	64.713335 
2122.000000	64.702796 
2121.000000	64.701032 
2120.000000	64.708662 
2119.000000	64.724731 
2118.000000	64.747262 
2117.000000	64.773607 
2116.000000	64.801001 
2115.000000	64.826965 
2114.000000	64.849615 
2113.000000	64.867830 
2112.000000	64.880967 
2111.000000	64.889025 
2110.000000	64.892077 
2109.000000	64.890480 
2108.000000	64.884948 
2107.000000	64.876341 
2106.000000	64.865851 
2105.000000	64.854431 
2104.000000	64.843392 
2103.000000	64.833545 
2102.000000	64.825391 
2101.000000	64.818787 
2100.000000	64.813089 
2099.000000	64.807438 
2098.000000	64.801096 
2097.000000	64.793658 
2096.000000	64.785194 
2095.000000	64.776420 
2094.000000	64.768314 
2093.000000	64.761924 
2092.000000	64.757728 
2091.000000	64.755415 
2090.000000	64.753770 
2089.000000	64.750981 
2088.000000	64.745259 
2087.000000	64.735364 
2086.000000	64.721298 
2085.000000	64.704346 
2084.000000	64.687037 
2083.000000	64.672255 
2082.000000	64.662766 
2081.000000	64.660096 
2080.000000	64.664340 
2079.000000	64.674282 
2078.000000	64.687561 
2077.000000	64.701318 
2076.000000	64.712572 
2075.000000	64.718961 
2074.000000	64.718985 
2073.000000	64.712071 
2072.000000	64.698767 
2071.000000	64.680457 
2070.000000	64.659285 
2069.000000	64.637732 
2068.000000	64.618444 
2067.000000	64.603662 
2066.000000	64.595079 
2065.000000	64.593720 
2064.000000	64.599728 
2063.000000	64.612555 
2062.000000	64.631056 
2061.000000	64.653706 
2060.000000	64.678978 
2059.000000	64.705181 
2058.000000	64.730978 
2057.000000	64.755201 
2056.000000	64.776611 
2055.000000	64.793992 
2054.000000	64.806199 
2053.000000	64.812159 
2052.000000	64.811277 
2051.000000	64.803338 
2050.000000	64.789223 
2049.000000	64.770483 
2048.000000	64.749431 
2047.000000	64.728498 
2046.000000	64.710235 
2045.000000	64.696788 
2044.000000	64.689588 
2043.000000	64.689254 
2042.000000	64.695501 
2041.000000	64.707088 
2040.000000	64.722204 
2039.000000	64.738631 
2038.000000	64.754128 
2037.000000	64.766836 
2036.000000	64.775681 
2035.000000	64.780449 
2034.000000	64.781761 
2033.000000	64.781308 
2032.000000	64.781069 
2031.000000	64.783310 
2030.000000	64.789438 
2029.000000	64.800429 
2028.000000	64.815902 
2027.000000	64.834403 
2026.000000	64.853620 
2025.000000	64.871048 
2024.000000	64.884400 
2023.000000	64.892077 
2022.000000	64.893507 
2021.000000	64.889073 
2020.000000	64.880156 
2019.000000	64.868545 
2018.000000	64.856338 
2017.000000	64.845275 
2016.000000	64.836645 
2015.000000	64.831328 
2014.000000	64.829540 
2013.000000	64.830994 
2012.000000	64.834928 
2011.000000	64.840579 
2010.000000	64.846897 
2009.000000	64.852929 
2008.000000	64.857769 
2007.000000	64.860582 
2006.000000	64.860630 
2005.000000	64.857506 
2004.000000	64.851021 
2003.000000	64.841270 
2002.000000	64.828729 
2001.000000	64.814019 
2000.000000	64.798164 
1999.000000	64.782142 
1998.000000	64.767050 
1997.000000	64.753818 
1996.000000	64.743137 
1995.000000	64.735531 
1994.000000	64.731359 
1993.000000	64.730691 
1992.000000	64.733314 
1991.000000	64.738750 
1990.000000	64.746212 
1989.000000	64.754724 
1988.000000	64.763069 
1987.000000	64.770007 
1986.000000	64.774298 
1985.000000	64.775037 
1984.000000	64.771986 
1983.000000	64.765334 
1982.000000	64.756107 
1981.000000	64.745759 
1980.000000	64.736151 
1979.000000	64.729237 
1978.000000	64.726710 
1977.000000	64.729690 
1976.000000	64.738535 
1975.000000	64.752840 
1974.000000	64.771461 
1973.000000	64.792633 
1972.000000	64.814209 
1971.000000	64.833950 
1970.000000	64.849948 
1969.000000	64.860773 
1968.000000	64.865851 
1967.000000	64.865589 
1966.000000	64.861273 
1965.000000	64.854884 
1964.000000	64.848518 
1963.000000	64.843893 
1962.000000	64.842104 
1961.000000	64.843392 
1960.000000	64.847183 
1959.000000	64.852499 
1958.000000	64.858055 
1957.000000	64.862942 
1956.000000	64.866399 
1955.000000	64.867973 
1954.000000	64.867448 
1953.000000	64.864540 
1952.000000	64.858794 
1951.000000	64.849662 
1950.000000	64.836573 
1949.000000	64.819216 
1948.000000	64.797997 
1947.000000	64.773988 
1946.000000	64.749050 
1945.000000	64.725399 
1944.000000	64.705371 
1943.000000	64.690685 
1942.000000	64.682245 
1941.000000	64.679741 
1940.000000	64.681959 
1939.000000	64.686822 
1938.000000	64.692068 
1937.000000	64.695549 
1936.000000	64.695739 
1935.000000	64.692020 
1934.000000	64.684581 
1933.000000	64.674639 
1932.000000	64.664006 
1931.000000	64.654946 
1930.000000	64.649605 
1929.000000	64.649677 
1928.000000	64.655923 
1927.000000	64.668130 
1926.000000	64.684939 
1925.000000	64.703869 
1924.000000	64.722013 
1923.000000	64.736270 
1922.000000	64.744257 
1921.000000	64.744424 
1920.000000	64.736723 
1919.000000	64.722633 
1918.000000	64.704895 
1917.000000	64.686942 
1916.000000	64.672136 
1915.000000	64.663386 
1914.000000	64.662098 
1913.000000	64.668154 
1912.000000	64.679908 
1911.000000	64.694643 
1910.000000	64.709043 
1909.000000	64.720249 
1908.000000	64.726185 
1907.000000	64.725971 
1906.000000	64.719915 
1905.000000	64.709091 
1904.000000	64.695072 
1903.000000	64.679479 
1902.000000	64.663743 
1901.000000	64.649200 
1900.000000	64.637017 
1899.000000	64.628338 
1898.000000	64.624285 
1897.000000	64.625835 
1896.000000	64.633512 
1895.000000	64.647388 
1894.000000	64.666628 
1893.000000	64.689874 
1892.000000	64.714980 
1891.000000	64.739441 
1890.000000	64.760899 
1889.000000	64.777231 
1888.000000	64.787220 
1887.000000	64.790248 
1886.000000	64.786386 
1885.000000	64.776325 
1884.000000	64.761281 
1883.000000	64.742827 
1882.000000	64.722704 
1881.000000	64.702868 
1880.000000	64.685416 
1879.000000	64.672303 
1878.000000	64.665102 
1877.000000	64.664649 
1876.000000	64.670968 
1875.000000	64.682984 
1874.000000	64.698910 
1873.000000	64.716291 
1872.000000	64.732432 
1871.000000	64.744782 
1870.000000	64.751410 
1869.000000	64.751362 
1868.000000	64.744734 
1867.000000	64.732575 
1866.000000	64.716720 
1865.000000	64.699387 
1864.000000	64.682936 
1863.000000	64.669466 
1862.000000	64.660477 
1861.000000	64.656901 
1860.000000	64.658832 
1859.000000	64.665842 
1858.000000	64.676761 
1857.000000	64.690160 
1856.000000	64.704442 
1855.000000	64.718222 
1854.000000	64.730286 
1853.000000	64.739799 
1852.000000	64.746260 
1851.000000	64.749574 
1850.000000	64.750003 
1849.000000	64.747929 
1848.000000	64.744186 
1847.000000	64.739704 
1846.000000	64.735603 
1845.000000	64.732766 
1844.000000	64.732122 
1843.000000	64.734029 
1842.000000	64.738297 
1841.000000	64.744162 
1840.000000	64.750528 
1839.000000	64.756155 
1838.000000	64.759922 
1837.000000	64.761209 
1836.000000	64.760017 
1835.000000	64.757132 
1834.000000	64.753866 
1833.000000	64.751696 
1832.000000	64.751982 
1831.000000	64.755368 
1830.000000	64.761710 
1829.000000	64.770102 
1828.000000	64.779090 
1827.000000	64.786911 
1826.000000	64.792037 
1825.000000	64.793491 
1824.000000	64.791059 
1823.000000	64.785218 
1822.000000	64.776897 
1821.000000	64.767313 
1820.000000	64.757466 
1819.000000	64.748072 
1818.000000	64.739346 
1817.000000	64.731287 
1816.000000	64.723443 
1815.000000	64.715552 
1814.000000	64.707589 
1813.000000	64.699888 
1812.000000	64.693117 
1811.000000	64.688062 
1810.000000	64.685463 
1809.000000	64.685773 
1808.000000	64.688992 
1807.000000	64.694523 
1806.000000	64.701223 
1805.000000	64.707612 
1804.000000	64.712095 
1803.000000	64.713287 
1802.000000	64.710092 
1801.000000	64.702081 
1800.000000	64.689517 
1799.000000	64.673233 
1798.000000	64.654707 
1797.000000	64.635610 
1796.000000	64.617872 
1795.000000	64.603233 
1794.000000	64.593195 
1793.000000	64.588665 
1792.000000	64.589953 
1791.000000	64.596533 
1790.000000	64.607167 
1789.000000	64.619970 
1788.000000	64.632701 
1787.000000	64.643144 
1786.000000	64.649462 
1785.000000	64.650702 
1784.000000	64.646768 
1783.000000	64.638566 
1782.000000	64.627671 
1781.000000	64.615964 
1780.000000	64.605283 
1779.000000	64.596796 
1778.000000	64.590930 
1777.000000	64.587163 
1776.000000	64.584589 
1775.000000	64.581990 
1774.000000	64.578557 
1773.000000	64.574027 
1772.000000	64.568805 
1771.000000	64.563894 
1770.000000	64.560627 
1769.000000	64.560031 
1768.000000	64.562487 
1767.000000	64.567732 
1766.000000	64.574742 
1765.000000	64.582014 
1764.000000	64.587783 
1763.000000	64.590406 
1762.000000	64.588737 
1761.000000	64.582157 
1760.000000	64.570832 
1759.000000	64.555287 
1758.000000	64.536547 
1757.000000	64.515829 
1756.000000	64.494538 
1755.000000	64.474081 
1754.000000	64.455890 
1753.000000	64.441347 
1752.000000	64.431476 
1751.000000	64.426875 
1750.000000	64.427638 
1749.000000	64.433336 
1748.000000	64.442634 
1747.000000	64.453649 
1746.000000	64.463973 
1745.000000	64.471244 
1744.000000	64.473104 
1743.000000	64.467668 
1742.000000	64.453792 
1741.000000	64.431405 
1740.000000	64.401698 
1739.000000	64.367175 
1738.000000	64.331412 
1737.000000	64.298439 
1736.000000	64.272308 
1735.000000	64.256262 
1734.000000	64.252305 
1733.000000	64.260411 
1732.000000	64.278674 
1731.000000	64.303445 
1730.000000	64.330029 
1729.000000	64.353823 
1728.000000	64.370584 
1727.000000	64.378023 
1726.000000	64.375734 
1725.000000	64.365506 
1724.000000	64.350724 
1723.000000	64.335823 
1722.000000	64.325404 
1721.000000	64.323186 
1720.000000	64.331388 
1719.000000	64.350223 
1718.000000	64.378213 
1717.000000	64.411973 
1716.000000	64.447188 
1715.000000	64.479112 
1714.000000	64.503455 
1713.000000	64.517068 
1712.000000	64.518618 
1711.000000	64.508509 
1710.000000	64.489078 
1709.000000	64.463925 
1708.000000	64.437413 
1707.000000	64.414191 
1706.000000	64.397954 
1705.000000	64.391255 
1704.000000	64.394760 
1703.000000	64.407539 
1702.000000	64.427232 
1701.000000	64.450860 
1700.000000	64.475297 
1699.000000	64.497709 
1698.000000	64.516544 
1697.000000	64.531373 
1696.000000	64.542913 
1695.000000	64.552497 
1694.000000	64.561843 
1693.000000	64.572548 
1692.000000	64.585542 
1691.000000	64.600968 
1690.000000	64.617943 
1689.000000	64.634776 
1688.000000	64.649343 
1687.000000	64.659571 
1686.000000	64.663720 
1685.000000	64.661145 
1684.000000	64.652109 
1683.000000	64.637875 
1682.000000	64.620614 
1681.000000	64.602851 
1680.000000	64.586925 
1679.000000	64.574480 
1678.000000	64.566326 
1677.000000	64.562082 
1676.000000	64.560818 
1675.000000	64.561057 
1674.000000	64.561557 
1673.000000	64.561557 
1672.000000	64.561057 
1671.000000	64.560532 
1670.000000	64.560890 
1669.000000	64.562845 
1668.000000	64.566493 
1667.000000	64.571094 
1666.000000	64.575266 
1665.000000	64.576983 
1664.000000	64.574217 
1663.000000	64.565348 
1662.000000	64.549565 
1661.000000	64.527106 
1660.000000	64.499187 
1659.000000	64.467811 
1658.000000	64.435315 
1657.000000	64.403986 
1656.000000	64.375782 
1655.000000	64.352130 
1654.000000	64.334034 
1653.000000	64.321827 
1652.000000	64.315462 
1651.000000	64.314460 
1650.000000	64.318203 
1649.000000	64.325618 
1648.000000	64.335703 
1647.000000	64.347219 
1646.000000	64.359092 
1645.000000	64.370346 
1644.000000	64.380311 
1643.000000	64.388656 
1642.000000	64.395284 
1641.000000	64.400362 
1640.000000	64.404082 
1639.000000	64.406681 
1638.000000	64.408302 
1637.000000	64.409065 
1636.000000	64.409112 
1635.000000	64.408516 
1634.000000	64.407539 
1633.000000	64.406490 
1632.000000	64.405679 
1631.000000	64.405131 
1630.000000	64.404702 
1629.000000	64.404225 
1628.000000	64.403343 
1627.000000	64.401793 
1626.000000	64.399576 
1625.000000	64.397144 
1624.000000	64.395165 
1623.000000	64.394354 
1622.000000	64.395236 
1621.000000	64.398169 
1620.000000	64.402770 
1619.000000	64.408183 
1618.000000	64.413118 
1617.000000	64.416289 
1616.000000	64.416837 
1615.000000	64.414620 
1614.000000	64.410161 
1613.000000	64.404702 
1612.000000	64.399814 
1611.000000	64.397215 
1610.000000	64.398121 
1609.000000	64.403295 
1608.000000	64.412832 
1607.000000	64.426279 
1606.000000	64.442658 
1605.000000	64.460873 
1604.000000	64.479732 
1603.000000	64.498019 
1602.000000	64.514708 
1601.000000	64.528751 
1600.000000	64.539194 
1599.000000	64.545416 
1598.000000	64.547085 
1597.000000	64.544415 
1596.000000	64.537787 
1595.000000	64.528465 
1594.000000	64.517331 
1593.000000	64.505267 
1592.000000	64.492607 
1591.000000	64.479327 
1590.000000	64.465165 
1589.000000	64.449882 
1588.000000	64.433741 
1587.000000	64.417624 
1586.000000	64.402794 
1585.000000	64.390611 
1584.000000	64.382147 
1583.000000	64.377665 
1582.000000	64.376759 
1581.000000	64.378190 
1580.000000	64.380455 
1579.000000	64.382028 
1578.000000	64.381694 
1577.000000	64.379024 
1576.000000	64.374279 
1575.000000	64.368462 
1574.000000	64.363217 
1573.000000	64.360618 
1572.000000	64.362382 
1571.000000	64.369750 
1570.000000	64.383292 
1569.000000	64.402604 
1568.000000	64.426326 
1567.000000	64.452624 
1566.000000	64.479351 
1565.000000	64.504218 
1564.000000	64.525532 
1563.000000	64.541912 
1562.000000	64.552307 
1561.000000	64.556145 
1560.000000	64.553308 
1559.000000	64.543914 
1558.000000	64.528250 
1557.000000	64.506936 
1556.000000	64.481067 
1555.000000	64.452147 
1554.000000	64.422011 
1553.000000	64.392781 
1552.000000	64.366769 
1551.000000	64.345765 
1550.000000	64.331030 
1549.000000	64.322853 
1548.000000	64.320850 
1547.000000	64.323711 
1546.000000	64.329576 
1545.000000	64.336323 
1544.000000	64.342308 
1543.000000	64.346313 
1542.000000	64.348053 
1541.000000	64.347791 
1540.000000	64.346671 
1539.000000	64.345812 
1538.000000	64.346361 
1537.000000	64.349174 
1536.000000	64.354634 
1535.000000	64.362931 
1534.000000	64.373683 
1533.000000	64.386367 
1532.000000	64.400053 
1531.000000	64.413619 
1530.000000	64.425969 
1529.000000	64.435911 
1528.000000	64.442849 
1527.000000	64.446902 
1526.000000	64.448833 
1525.000000	64.450216 
1524.000000	64.452838 
1523.000000	64.458274 
1522.000000	64.467406 
1521.000000	64.480042 
1520.000000	64.494967 
1519.000000	64.510083 
1518.000000	64.523220 
1517.000000	64.532661 
1516.000000	64.537858 
1515.000000	64.539361 
1514.000000	64.538955 
1513.000000	64.538931 
1512.000000	64.541578 
1511.000000	64.548325 
1510.000000	64.559435 
1509.000000	64.573740 
1508.000000	64.589309 
1507.000000	64.603638 
1506.000000	64.614582 
1505.000000	64.620566 
1504.000000	64.620971 
1503.000000	64.615917 
1502.000000	64.605975 
1501.000000	64.591717 
1500.000000	64.573693 
1499.000000	64.552092 
1498.000000	64.527106 
1497.000000	64.499354 
1496.000000	64.470076 
1495.000000	64.441251 
1494.000000	64.415359 
1493.000000	64.394783 
1492.000000	64.381361 
1491.000000	64.375686 
1490.000000	64.377045 
1489.000000	64.383506 
1488.000000	64.392566 
1487.000000	64.401745 
1486.000000	64.409065 
1485.000000	64.413309 
1484.000000	64.414286 
1483.000000	64.412331 
1482.000000	64.408278 
1481.000000	64.402937 
1480.000000	64.396834 
1479.000000	64.390254 
1478.000000	64.383149 
1477.000000	64.375114 
1476.000000	64.365911 
1475.000000	64.355659 
1474.000000	64.344763 
1473.000000	64.334082 
1472.000000	64.324569 
1471.000000	64.317250 
1470.000000	64.312696 
1469.000000	64.310932 
1468.000000	64.311504 
1467.000000	64.313435 
1466.000000	64.315557 
1465.000000	64.316773 
1464.000000	64.316296 
1463.000000	64.314007 
1462.000000	64.310622 
1461.000000	64.307475 
1460.000000	64.306116 
1459.000000	64.307928 
1458.000000	64.313936 
1457.000000	64.324164 
1456.000000	64.337706 
1455.000000	64.353060 
1454.000000	64.368486 
1453.000000	64.382529 
1452.000000	64.394164 
1451.000000	64.403319 
1450.000000	64.410710 
1449.000000	64.417576 
1448.000000	64.425373 
1447.000000	64.435195 
1446.000000	64.447450 
1445.000000	64.461803 
1444.000000	64.477157 
1443.000000	64.491891 
1442.000000	64.503812 
1441.000000	64.511108 
1440.000000	64.512085 
1439.000000	64.505648 
1438.000000	64.491128 
1437.000000	64.468717 
1436.000000	64.439392 
1435.000000	64.405035 
1434.000000	64.368247 
1433.000000	64.332151 
1432.000000	64.299821 
1431.000000	64.274001 
1430.000000	64.256358 
1429.000000	64.247369 
1428.000000	64.246034 
1427.000000	64.250206 
1426.000000	64.257144 
1425.000000	64.264011 
1424.000000	64.268970 
1423.000000	64.271378 
1422.000000	64.271998 
1421.000000	64.272356 
1420.000000	64.274597 
1419.000000	64.280414 
1418.000000	64.290690 
1417.000000	64.305186 
1416.000000	64.322638 
1415.000000	64.341259 
1414.000000	64.359450 
1413.000000	64.375877 
1412.000000	64.389944 
1411.000000	64.401483 
1410.000000	64.410519 
1409.000000	64.416933 
1408.000000	64.420104 
1407.000000	64.419150 
1406.000000	64.413285 
1405.000000	64.402174 
1404.000000	64.386487 
1403.000000	64.367890 
1402.000000	64.349269 
1401.000000	64.333534 
1400.000000	64.323019 
1399.000000	64.318633 
1398.000000	64.319658 
1397.000000	64.323806 
1396.000000	64.327979 
1395.000000	64.329290 
1394.000000	64.325809 
1393.000000	64.317393 
1392.000000	64.305567 
1391.000000	64.293026 
1390.000000	64.282798 
1389.000000	64.277243 
1388.000000	64.277434 
1387.000000	64.282870 
1386.000000	64.291477 
1385.000000	64.300632 
1384.000000	64.307832 
1383.000000	64.311480 
1382.000000	64.311242 
1381.000000	64.308190 
1380.000000	64.304637 
1379.000000	64.302730 
1378.000000	64.304542 
1377.000000	64.311170 
1376.000000	64.322757 
1375.000000	64.338684 
1374.000000	64.357590 
1373.000000	64.377927 
1372.000000	64.398074 
1371.000000	64.416885 
1370.000000	64.433217 
1369.000000	64.445805 
1368.000000	64.453387 
1367.000000	64.454817 
1366.000000	64.449334 
1365.000000	64.436602 
1364.000000	64.417243 
1363.000000	64.392757 
1362.000000	64.365339 
1361.000000	64.337611 
1360.000000	64.312005 
1359.000000	64.290189 
1358.000000	64.273023 
1357.000000	64.260339 
1356.000000	64.251184 
1355.000000	64.244270 
1354.000000	64.238500 
1353.000000	64.233255 
1352.000000	64.228415 
1351.000000	64.224648 
1350.000000	64.222931 
1349.000000	64.224553 
1348.000000	64.230370 
1347.000000	64.241123 
1346.000000	64.257001 
1345.000000	64.277553 
1344.000000	64.301991 
1343.000000	64.328598 
1342.000000	64.355397 
1341.000000	64.379835 
1340.000000	64.399099 
1339.000000	64.410758 
1338.000000	64.413070 
1337.000000	64.405465 
1336.000000	64.388847 
1335.000000	64.365339 
1334.000000	64.337921 
1333.000000	64.310145 
1332.000000	64.285397 
1331.000000	64.266037 
1330.000000	64.253377 
1329.000000	64.247488 
1328.000000	64.247369 
1327.000000	64.251327 
1326.000000	64.257550 
1325.000000	64.264416 
1324.000000	64.271140 
1323.000000	64.277672 
1322.000000	64.284610 
1321.000000	64.292669 
1320.000000	64.302444 
1319.000000	64.314007 
1318.000000	64.326572 
1317.000000	64.338731 
1316.000000	64.348697 
1315.000000	64.354681 
1314.000000	64.355421 
1313.000000	64.350652 
1312.000000	64.340949 
1311.000000	64.327764 
1310.000000	64.313149 
1309.000000	64.299178 
1308.000000	64.287614 
1307.000000	64.279389 
1306.000000	64.274787 
1305.000000	64.273381 
1304.000000	64.274191 
1303.000000	64.276003 
1302.000000	64.277744 
1301.000000	64.278674 
1300.000000	64.278197 
1299.000000	64.276027 
1298.000000	64.272141 
1297.000000	64.266538 
1296.000000	64.259362 
1295.000000	64.250659 
1294.000000	64.240670 
1293.000000	64.229750 
1292.000000	64.218521 
1291.000000	64.207625 
1290.000000	64.197683 
1289.000000	64.189386 
1288.000000	64.183211 
1287.000000	64.179706 
1286.000000	64.179015 
1285.000000	64.181303 
1284.000000	64.186668 
1283.000000	64.195251 
1282.000000	64.206743 
1281.000000	64.220786 
1280.000000	64.236569 
1279.000000	64.252877 
1278.000000	64.268255 
1277.000000	64.281105 
1276.000000	64.290285 
1275.000000	64.295172 
1274.000000	64.296078 
1273.000000	64.294052 
1272.000000	64.290833 
1271.000000	64.288377 
1270.000000	64.288425 
1269.000000	64.292049 
1268.000000	64.299249 
1267.000000	64.309072 
1266.000000	64.319539 
1265.000000	64.328336 
1264.000000	64.333009 
1263.000000	64.331984 
1262.000000	64.324545 
1261.000000	64.311265 
1260.000000	64.293718 
1259.000000	64.274215 
1258.000000	64.255142 
1257.000000	64.238452 
1256.000000	64.225220 
1255.000000	64.215469 
1254.000000	64.208412 
1253.000000	64.202809 
1252.000000	64.197325 
1251.000000	64.190936 
1250.000000	64.183282 
1249.000000	64.174532 
1248.000000	64.165329 
1247.000000	64.156413 
1246.000000	64.148449 
1245.000000	64.141821 
1244.000000	64.136385 
1243.000000	64.131641 
1242.000000	64.126992 
1241.000000	64.121794 
1240.000000	64.115715 
1239.000000	64.108824 
1238.000000	64.101719 
1237.000000	64.095258 
1236.000000	64.090418 
1235.000000	64.087891 
1234.000000	64.087986 
1233.000000	64.090347 
1232.000000	64.094161 
1231.000000	64.098381 
1230.000000	64.101910 
1229.000000	64.104056 
1228.000000	64.104676 
1227.000000	64.104151 
1226.000000	64.103078 
1225.000000	64.102244 
1224.000000	64.102315 
1223.000000	64.103507 
1222.000000	64.105653 
1221.000000	64.108252 
1220.000000	64.110565 
1219.000000	64.111995 
1218.000000	64.112114 
1217.000000	64.110851 
1216.000000	64.108204 
1215.000000	64.104175 
1214.000000	64.098763 
1213.000000	64.091730 
1212.000000	64.082932 
1211.000000	64.072179 
1210.000000	64.059710 
1209.000000	64.046287 
1208.000000	64.033198 
1207.000000	64.022326 
1206.000000	64.015603 
1205.000000	64.014649 
1204.000000	64.020633 
1203.000000	64.033770 
1202.000000	64.053416 
1201.000000	64.077949 
1200.000000	64.105272 
1199.000000	64.132928 
1198.000000	64.158654 
1197.000000	64.180493 
1196.000000	64.196825 
1195.000000	64.206480 
1194.000000	64.208841 
1193.000000	64.204001 
1192.000000	64.192605 
1191.000000	64.175915 
1190.000000	64.155912 
1189.000000	64.135169 
1188.000000	64.116811 
1187.000000	64.103698 
1186.000000	64.098310 
1185.000000	64.101600 
1184.000000	64.113354 
1183.000000	64.131450 
1182.000000	64.152407 
1181.000000	64.171743 
1180.000000	64.184975 
1179.000000	64.188337 
1178.000000	64.179658 
1177.000000	64.158844 
1176.000000	64.127731 
1175.000000	64.090037 
1174.000000	64.050602 
1173.000000	64.014863 
1172.000000	63.987708 
1171.000000	63.973021 
1170.000000	63.972854 
1169.000000	63.987302 
1168.000000	64.014506 
1167.000000	64.050865 
1166.000000	64.091444 
1165.000000	64.130830 
1164.000000	64.163804 
1163.000000	64.186000 
1162.000000	64.194679 
1161.000000	64.188861 
1160.000000	64.169692 
1159.000000	64.139914 
1158.000000	64.103507 
1157.000000	64.065003 
1156.000000	64.028835 
1155.000000	63.998842 
1154.000000	63.977789 
1153.000000	63.967347 
1152.000000	63.967704 
1151.000000	63.978004 
1150.000000	63.996100 
1149.000000	64.019036 
1148.000000	64.043188 
1147.000000	64.064788 
1146.000000	64.080309 
1145.000000	64.087295 
1144.000000	64.084744 
1143.000000	64.073371 
1142.000000	64.055943 
1141.000000	64.036273 
1140.000000	64.019036 
1139.000000	64.008045 
1138.000000	64.005422 
1137.000000	64.010524 
1136.000000	64.020466 
1135.000000	64.030551 
1134.000000	64.036059 
1133.000000	64.033269 
1132.000000	64.020705 
1131.000000	63.999533 
1130.000000	63.972735 
1129.000000	63.944792 
1128.000000	63.919854 
1127.000000	63.901424 
1126.000000	63.891434 
1125.000000	63.890433 
1124.000000	63.897800 
1123.000000	63.911819 
1122.000000	63.930463 
1121.000000	63.951349 
1120.000000	63.972377 
1119.000000	63.991880 
1118.000000	64.008569 
1117.000000	64.021635 
1116.000000	64.030575 
1115.000000	64.035081 
1114.000000	64.035248 
1113.000000	64.031362 
1112.000000	64.024114 
1111.000000	64.014863 
1110.000000	64.005279 
1109.000000	63.997697 
1108.000000	63.994097 
1107.000000	63.995671 
1106.000000	64.002513 
1105.000000	64.013791 
1104.000000	64.027547 
1103.000000	64.041352 
1102.000000	64.052629 
1101.000000	64.059400 
1100.000000	64.060306 
1099.000000	64.054965 
1098.000000	64.043688 
1097.000000	64.027452 
1096.000000	64.007377 
1095.000000	63.984870 
1094.000000	63.961315 
1093.000000	63.938021 
1092.000000	63.916230 
1091.000000	63.897061 
1090.000000	63.881182 
1089.000000	63.868999 
1088.000000	63.860440 
1087.000000	63.855457 
1086.000000	63.853549 
1085.000000	63.854670 
1084.000000	63.859152 
1083.000000	63.868093 
1082.000000	63.882970 
1081.000000	63.905310 
1080.000000	63.936138 
1079.000000	63.975191 
1078.000000	64.020872 
1077.000000	64.069890 
1076.000000	64.117765 
1075.000000	64.159750 
1074.000000	64.191651 
1073.000000	64.210438 
1072.000000	64.215135 
1071.000000	64.206504 
1070.000000	64.187192 
1069.000000	64.160537 
1068.000000	64.130139 
1067.000000	64.099073 
1066.000000	64.069581 
1065.000000	64.043045 
1064.000000	64.020061 
1063.000000	64.001059 
1062.000000	63.986587 
1061.000000	63.977289 
1060.000000	63.973760 
1059.000000	63.976383 
1058.000000	63.985037 
1057.000000	63.998627 
1056.000000	64.015674 
1055.000000	64.033842 
1054.000000	64.050698 
1053.000000	64.064025 
1052.000000	64.072132 
1051.000000	64.074158 
1050.000000	64.070081 
1049.000000	64.060759 
1048.000000	64.047741 
1047.000000	64.032602 
1046.000000	64.017105 
1045.000000	64.002585 
1044.000000	63.990116 
1043.000000	63.980340 
1042.000000	63.973736 
1041.000000	63.970685 
1040.000000	63.971352 
1039.000000	63.975739 
1038.000000	63.983392 
1037.000000	63.993310 
1036.000000	64.004063 
1035.000000	64.014053 
1034.000000	64.021468 
1033.000000	64.024734 
1032.000000	64.023184 
1031.000000	64.016890 
1030.000000	64.006686 
1029.000000	63.993811 
1028.000000	63.979864 
1027.000000	63.966202 
1026.000000	63.953685 
1025.000000	63.942718 
1024.000000	63.933277 
1023.000000	63.925170 
1022.000000	63.918662 
1021.000000	63.914275 
1020.000000	63.912701 
1019.000000	63.914704 
1018.000000	63.920688 
1017.000000	63.930368 
1016.000000	63.942480 
1015.000000	63.955163 
1014.000000	63.966274 
1013.000000	63.974046 
1012.000000	63.977694 
1011.000000	63.977575 
1010.000000	63.975071 
1009.000000	63.972520 
1008.000000	63.972496 
1007.000000	63.977408 
1006.000000	63.988852 
1005.000000	64.007306 
1004.000000	64.032006 
1003.000000	64.061307 
1002.000000	64.092826 
1001.000000	64.124059 
1000.000000	64.152240 
999.000000	 64.175128 
998.000000	 64.190554 
997.000000	 64.197206 
996.000000	 64.194154 
995.000000	 64.181208 
994.000000	 64.158892 
993.000000	 64.128828 
992.000000	 64.093494 
991.000000	 64.056253 
990.000000	 64.020943 
989.000000	 63.991427 
988.000000	 63.971281 
987.000000	 63.963103 
986.000000	 63.968205 
985.000000	 63.986206 
984.000000	 64.014983 
983.000000	 64.050841 
982.000000	 64.089083 
981.000000	 64.124536 
980.000000	 64.152407 
979.000000	 64.169025 
978.000000	 64.172363 
977.000000	 64.162373 
976.000000	 64.140820 
975.000000	 64.111161 
974.000000	 64.077782 
973.000000	 64.045190 
972.000000	 64.017534 
971.000000	 63.997721 
970.000000	 63.987207 
969.000000	 63.985633 
968.000000	 63.991475 
967.000000	 64.001750 
966.000000	 64.012932 
965.000000	 64.021420 
964.000000	 64.024162 
963.000000	 64.019298 
962.000000	 64.006328 
961.000000	 63.986587 
960.000000	 63.962745 
959.000000	 63.938903 
958.000000	 63.919448 
957.000000	 63.908624 
956.000000	 63.909244 
955.000000	 63.922452 
954.000000	 63.947176 
953.000000	 63.980317 
952.000000	 64.017415 
951.000000	 64.053273 
950.000000	 64.083123 
949.000000	 64.103507 
948.000000	 64.112877 
947.000000	 64.111828 
946.000000	 64.102482 
945.000000	 64.088153 
944.000000	 64.072108 
943.000000	 64.057230 
942.000000	 64.045214 
941.000000	 64.036345 
940.000000	 64.029812 
939.000000	 64.024353 
938.000000	 64.018559 
937.000000	 64.011502 
936.000000	 64.003014 
935.000000	 63.993501 
934.000000	 63.984107 
933.000000	 63.976168 
932.000000	 63.970685 
931.000000	 63.967990 
930.000000	 63.967871 
929.000000	 63.969635 
928.000000	 63.972473 
927.000000	 63.975906 
926.000000	 63.980078 
925.000000	 63.985848 
924.000000	 63.994693 
923.000000	 64.008212 
922.000000	 64.027523 
921.000000	 64.052629 
920.000000	 64.082145 
919.000000	 64.113497 
918.000000	 64.143061 
917.000000	 64.167046 
916.000000	 64.182496 
915.000000	 64.187765 
914.000000	 64.183068 
913.000000	 64.170145 
912.000000	 64.152288 
911.000000	 64.132690 
910.000000	 64.113783 
909.000000	 64.096307 
908.000000	 64.079594 
907.000000	 64.061641 
906.000000	 64.040136 
905.000000	 64.013171 
904.000000	 63.980412 
903.000000	 63.943505 
902.000000	 63.906121 
901.000000	 63.872909 
900.000000	 63.848733 
899.000000	 63.837409 
898.000000	 63.841152 
897.000000	 63.859772 
896.000000	 63.891172 
895.000000	 63.931822 
894.000000	 63.977766 
893.000000	 64.025163 
892.000000	 64.071249 
891.000000	 64.114069 
890.000000	 64.152979 
889.000000	 64.187812 
888.000000	 64.219260 
887.000000	 64.248180 
886.000000	 64.275407 
885.000000	 64.301967 
884.000000	 64.328002 
883.000000	 64.353418 
882.000000	 64.376711 
881.000000	 64.395761 
880.000000	 64.407086 
879.000000	 64.406991 
878.000000	 64.391899 
877.000000	 64.359688 
876.000000	 64.310383 
875.000000	 64.246821 
874.000000	 64.174532 
873.000000	 64.101076 
872.000000	 64.034318 
871.000000	 63.981103 
870.000000	 63.945817 
869.000000	 63.929820 
868.000000	 63.930916 
867.000000	 63.944768 
866.000000	 63.965845 
865.000000	 63.989138 
864.000000	 64.010953 
863.000000	 64.029955 
862.000000	 64.046263 
861.000000	 64.061474 
860.000000	 64.077281 
859.000000	 64.094567 
858.000000	 64.112687 
857.000000	 64.129066 
856.000000	 64.140200 
855.000000	 64.141917 
854.000000	 64.131164 
853.000000	 64.106559 
852.000000	 64.069223 
851.000000	 64.022397 
850.000000	 63.970875 
849.000000	 63.920164 
848.000000	 63.875293 
847.000000	 63.839983 
846.000000	 63.816428 
845.000000	 63.805103 
844.000000	 63.805603 
843.000000	 63.816785 
842.000000	 63.837718 
841.000000	 63.866829 
840.000000	 63.902735 
839.000000	 63.943481 
838.000000	 63.986849 
837.000000	 64.029741 
836.000000	 64.068794 
835.000000	 64.100766 
834.000000	 64.123272 
833.000000	 64.135456 
832.000000	 64.137911 
831.000000	 64.132881 
830.000000	 64.123058 
829.000000	 64.111280 
828.000000	 64.099407 
827.000000	 64.088201 
826.000000	 64.076972 
825.000000	 64.064097 
824.000000	 64.047670 
823.000000	 64.026498 
822.000000	 64.000391 
821.000000	 63.970756 
820.000000	 63.940072 
819.000000	 63.911938 
818.000000	 63.890051 
817.000000	 63.878035 
816.000000	 63.878440 
815.000000	 63.892507 
814.000000	 63.919734 
813.000000	 63.958001 
812.000000	 64.003682 
811.000000	 64.052081 
810.000000	 64.098191 
809.000000	 64.137339 
808.000000	 64.165616 
807.000000	 64.180779 
806.000000	 64.182448 
805.000000	 64.172506 
804.000000	 64.154434 
803.000000	 64.133000 
802.000000	 64.113283 
801.000000	 64.099645 
800.000000	 64.094972 
799.000000	 64.100170 
798.000000	 64.114379 
797.000000	 64.134740 
796.000000	 64.157366 
795.000000	 64.177918 
794.000000	 64.192652 
793.000000	 64.198875 
792.000000	 64.195680 
791.000000	 64.183783 
790.000000	 64.165282 
789.000000	 64.143395 
788.000000	 64.121532 
787.000000	 64.102602 
786.000000	 64.088487 
785.000000	 64.079618 
784.000000	 64.075636 
783.000000	 64.075565 
782.000000	 64.078545 
781.000000	 64.084005 
780.000000	 64.091849 
779.000000	 64.102530 
778.000000	 64.116358 
777.000000	 64.133095 
776.000000	 64.150977 
775.000000	 64.167022 
774.000000	 64.176702 
773.000000	 64.174914 
772.000000	 64.157176 
771.000000	 64.121174 
770.000000	 64.067316 
769.000000	 63.999319 
768.000000	 63.924407 
767.000000	 63.852405 
766.000000	 63.793444 
765.000000	 63.756227 
764.000000	 63.746976 
763.000000	 63.767266 
762.000000	 63.813781 
761.000000	 63.878560 
760.000000	 63.950276 
759.000000	 64.016580 
758.000000	 64.065647 
757.000000	 64.089488 
756.000000	 64.084506 
755.000000	 64.053010 
754.000000	 64.002442 
753.000000	 63.943529 
752.000000	 63.887763 
751.000000	 63.844585 
750.000000	 63.820767 
749.000000	 63.816928 
748.000000	 63.828468 
747.000000	 63.845968 
746.000000	 63.858342 
745.000000	 63.854432 
744.000000	 63.825988 
743.000000	 63.768887 
742.000000	 63.684082 
741.000000	 63.576912 
740.000000	 63.455986 
739.000000	 63.330936 
738.000000	 63.210892 
737.000000	 63.103318 
736.000000	 63.013267 
735.000000	 62.942957 
734.000000	 62.892198 
733.000000	 62.858295 
732.000000	 62.838244 
731.000000	 62.827873 
730.000000	 62.825608 
729.000000	 62.830781 
728.000000	 62.846851 
727.000000	 62.878608 
726.000000	 62.933015 
725.000000	 63.015317 
724.000000	 63.128328 
723.000000	 63.270568 
722.000000	 63.434720 
721.000000	 63.607811 
720.000000	 63.772892 
719.000000	 63.912343 
718.000000	 64.010667 
717.000000	 64.057755 
716.000000	 64.050459 
715.000000	 63.992977 
714.000000	 63.895702 
713.000000	 63.772702 
712.000000	 63.638257 
711.000000	 63.504528 
710.000000	 63.380861 
709.000000	 63.273119 
708.000000	 63.184785 
707.000000	 63.118028 
706.000000	 63.073563 
705.000000	 63.053560 
704.000000	 63.059830 
703.000000	 63.096714 
702.000000	 63.167619 
701.000000	 63.276290 
700.000000	 63.423347 
699.000000	 63.605976 
698.000000	 63.816308 
697.000000	 64.041256 
696.000000	 64.263796 
695.000000	 64.464497 
694.000000	 64.625358 
693.000000	 64.730954 
692.000000	 64.771842 
691.000000	 64.744520 
690.000000	 64.652681 
689.000000	 64.504313 
688.000000	 64.310741 
687.000000	 64.083623 
686.000000	 63.834381 
685.000000	 63.573861 
684.000000	 63.313817 
683.000000	 63.067603 
682.000000	 62.850952 
681.000000	 62.681293 
680.000000	 62.575078 
679.000000	 62.542796 
678.000000	 62.587380 
677.000000	 62.699604 
676.000000	 62.862229 
675.000000	 63.050746 
674.000000	 63.240456 
673.000000	 63.409757 
672.000000	 63.544535 
671.000000	 63.639187 
670.000000	 63.695216 
669.000000	 63.718557 
668.000000	 63.715529 
667.000000	 63.690376 
666.000000	 63.643956 
665.000000	 63.574862 
664.000000	 63.482236 
663.000000	 63.368821 
662.000000	 63.243389 
661.000000	 63.121175 
660.000000	 63.021039 
659.000000	 62.961530 
658.000000	 62.956213 
657.000000	 63.009762 
656.000000	 63.115406 
655.000000	 63.256239 
654.000000	 63.408827 
653.000000	 63.548564 
652.000000	 63.654112 
651.000000	 63.712739 
650.000000	 63.721632 
649.000000	 63.689041 
648.000000	 63.630199 
647.000000	 63.564682 
646.000000	 63.510847 
645.000000	 63.483023 
644.000000	 63.489246 
643.000000	 63.530564 
642.000000	 63.602066 
641.000000	 63.695406 
640.000000	 63.801813 
639.000000	 63.913774 
638.000000	 64.025902 
637.000000	 64.135694 
636.000000	 64.242458 
635.000000	 64.346528 
634.000000	 64.447283 
633.000000	 64.541840 
632.000000	 64.624190 
631.000000	 64.687013 
630.000000	 64.722204 
629.000000	 64.722585 
628.000000	 64.683079 
627.000000	 64.603519 
626.000000	 64.488029 
625.000000	 64.345669 
624.000000	 64.188289 
623.000000	 64.028787 
622.000000	 63.879084 
621.000000	 63.749432 
620.000000	 63.646697 
619.000000	 63.573288 
618.000000	 63.528776 
617.000000	 63.510656 
616.000000	 63.515496 
615.000000	 63.539123 
614.000000	 63.577723 
613.000000	 63.626766 
612.000000	 63.682103 
611.000000	 63.738727 
610.000000	 63.793206 
609.000000	 63.843107 
608.000000	 63.888263 
607.000000	 63.930177 
606.000000	 63.972663 
605.000000	 64.020228 
604.000000	 64.076471 
603.000000	 64.142060 
602.000000	 64.214301 
601.000000	 64.286208 
600.000000	 64.347910 
599.000000	 64.387822 
598.000000	 64.396405 
597.000000	 64.367628 
596.000000	 64.301395 
595.000000	 64.203286 
594.000000	 64.083862 
593.000000	 63.956761 
592.000000	 63.836622 
591.000000	 63.736557 
590.000000	 63.665461 
589.000000	 63.627839 
588.000000	 63.624334 
587.000000	 63.651156 
586.000000	 63.701033 
585.000000	 63.764858 
584.000000	 63.833093 
583.000000	 63.897132 
582.000000	 63.949966 
581.000000	 63.986992 
580.000000	 64.005565 
579.000000	 64.006114 
578.000000	 63.990664 
577.000000	 63.962388 
576.000000	 63.923645 
575.000000	 63.876366 
574.000000	 63.820576 
573.000000	 63.755059 
572.000000	 63.677763 
571.000000	 63.587403 
570.000000	 63.484525 
569.000000	 63.372325 
568.000000	 63.257479 
567.000000	 63.148617 
566.000000	 63.056635 
565.000000	 62.991499 
564.000000	 62.962436 
563.000000	 62.974667 
562.000000	 63.030338 
561.000000	 63.127183 
560.000000	 63.258838 
559.000000	 63.415193 
558.000000	 63.583421 
557.000000	 63.749384 
556.000000	 63.898444 
555.000000	 64.017033 
554.000000	 64.094185 
553.000000	 64.122843 
552.000000	 64.101338 
551.000000	 64.033508 
550.000000	 63.928771 
549.000000	 63.800239 
548.000000	 63.662862 
547.000000	 63.530755 
546.000000	 63.416004 
545.000000	 63.327026 
544.000000	 63.268041 
543.000000	 63.239550 
542.000000	 63.239765 
541.000000	 63.265442 
540.000000	 63.312077 
539.000000	 63.375258 
538.000000	 63.449811 
537.000000	 63.530635 
536.000000	 63.611292 
535.000000	 63.685679 
534.000000	 63.747692 
533.000000	 63.792920 
532.000000	 63.819241 
531.000000	 63.826966 
530.000000	 63.819050 
529.000000	 63.799905 
528.000000	 63.774991 
527.000000	 63.748478 
526.000000	 63.722658 
525.000000	 63.699054 
524.000000	 63.678717 
523.000000	 63.662743 
522.000000	 63.652658 
521.000000	 63.650512 
520.000000	 63.658618 
519.000000	 63.678598 
518.000000	 63.711118 
517.000000	 63.754463 
516.000000	 63.805627 
515.000000	 63.860821 
514.000000	 63.916301 
513.000000	 63.968586 
512.000000	 64.015364 
511.000000	 64.056348 
510.000000	 64.092183 
509.000000	 64.124083 
508.000000	 64.152288 
507.000000	 64.176177 
506.000000	 64.193058 
505.000000	 64.199304 
504.000000	 64.190006 
503.000000	 64.160847 
502.000000	 64.108705 
501.000000	 64.033293 
500.000000	 63.937616 
499.000000	 63.828110 
498.000000	 63.714313 
497.000000	 63.607478 
496.000000	 63.519001 
495.000000	 63.458490 
494.000000	 63.431835 
493.000000	 63.440489 
492.000000	 63.480615 
491.000000	 63.544917 
490.000000	 63.623499 
489.000000	 63.707375 
488.000000	 63.788175 
487.000000	 63.861727 
486.000000	 63.928341 
485.000000	 63.991618 
484.000000	 64.056134 
483.000000	 64.125013 
482.000000	 64.198303 
481.000000	 64.271426 
480.000000	 64.335870 
479.000000	 64.381980 
478.000000	 64.402604 
477.000000	 64.395260 
476.000000	 64.363932 
475.000000	 64.317631 
474.000000	 64.268660 
473.000000	 64.228653 
472.000000	 64.205861 
471.000000	 64.204525 
470.000000	 64.224004 
469.000000	 64.260220 
468.000000	 64.306259 
467.000000	 64.353942 
466.000000	 64.394569 
465.000000	 64.421200 
464.000000	 64.428400 
463.000000	 64.412117 
462.000000	 64.370083 
461.000000	 64.302134 
460.000000	 64.210009 
459.000000	 64.098739 
458.000000	 63.974690 
457.000000	 63.845062 
456.000000	 63.717150 
455.000000	 63.598489 
454.000000	 63.495230 
453.000000	 63.411331 
452.000000	 63.348555 
451.000000	 63.306760 
450.000000	 63.283109 
449.000000	 63.272905 
448.000000	 63.268136 
447.000000	 63.258504 
446.000000	 63.232731 
445.000000	 63.181376 
444.000000	 63.098573 
443.000000	 62.985157 
442.000000	 62.852287 
441.000000	 62.720322 
440.000000	 62.615084 
439.000000	 62.561678 
438.000000	 62.579393 
437.000000	 62.673497 
436.000000	 62.836098 
435.000000	 63.042211 
434.000000	 63.250780 
433.000000	 63.414955 
432.000000	 63.496351 
431.000000	 63.471341 
430.000000	 63.333153 
429.000000	 63.098406 
428.000000	 62.801647 
427.000000	 62.490534 
426.000000	 62.219452 
425.000000	 62.030601 
424.000000	 61.939358 
423.000000	 61.944270 
422.000000	 62.033438 
421.000000	 62.183189 
420.000000	 62.363553 
419.000000	 62.558722 
418.000000	 62.770986 
417.000000	 63.013148 
416.000000	 63.300848 
415.000000	 63.647413 
414.000000	 64.048910 
413.000000	 64.489340 
412.000000	 64.925765 
411.000000	 65.291357 
410.000000	 65.495848 
409.000000	 65.460038 
408.000000	 65.115547 
407.000000	 64.416980 
406.000000	 63.362050 
405.000000	 61.987876 
404.000000	 60.397744 
403.000000	 58.729267 
402.000000	 57.180523 
401.000000	 55.964660 
400.000000	 55.306601 
399.000000	 55.387878 
398.000000	 56.329250 
397.000000	 58.149194 
396.000000	 60.763573 
395.000000	 63.974547 
394.000000	 67.533755 
393.000000	 71.173191 
392.000000	 74.648475 
391.000000	 77.757143 
390.000000	 80.339646 
389.000000	 82.266068 
388.000000	 83.427000 
387.000000	 83.716487 
386.000000	 83.063936 
385.000000	 81.433272 
384.000000	 78.841471 
383.000000	 75.382995 
382.000000	 71.287107 
381.000000	 66.886162 
380.000000	 62.577152 
379.000000	 58.773851 
378.000000	 55.848503 
377.000000	 54.067420 
376.000000	 53.544378 
375.000000	 54.223394 
374.000000	 55.875325 
373.000000	 58.151435 
372.000000	 60.698318 
371.000000	 63.108849 
370.000000	 64.913272 

