PE IR       SPECTRUM    SPECTRUM    ASCII       PEDS        1.60        
  -1
BZCBFC~1.ASC
17/04/07
22:00:32.00
17/04/07
22:00:32.00
tln
$BZ1503107-1_t0107$<tbV0>[-5.2,10.4,8.0,0.0,27,1,0]
370.000000
64









2002,4.07    
MIRTGS : RIGHTBACK : INTERNAL 2
MIR : ON : INTERNAL 2
OPTKBR

0.200000
8
8.000000
FILLER
RATIO
SPECTRUM
UNLOCKED 256

DOUBLE
64
COMBINED
1
0
0


1.000000
RATIO


1
0
TRUE
51149
0
LEFT NOT FITTED RIGHT NOT FITTED 0
NONE
NONE
15600
12.000000
4.427000
51148
TRUE
1 0 8 72 0 0 0 0 

15798.010000






#HDR
-1
-1
#GR
CM-1
%T
0.00002384185791015625
0.0
5000.000000
-1.000000
4631
8
87.726044
40.435338
#DATA
5000.000000	64.162564 
4999.000000	64.548635 
4998.000000	64.931726 
4997.000000	65.260148 
4996.000000	65.481567 
4995.000000	65.552687 
4994.000000	65.447664 
4993.000000	65.164732 
4992.000000	64.728116 
4991.000000	64.184713 
4990.000000	63.597702 
4989.000000	63.037061 
4988.000000	62.566137 
4987.000000	62.231922 
4986.000000	62.058472 
4985.000000	62.045764 
4984.000000	62.171053 
4983.000000	62.395787 
4982.000000	62.674903 
4981.000000	62.965583 
4980.000000	63.231587 
4979.000000	63.447546 
4978.000000	63.597321 
4977.000000	63.674426 
4976.000000	63.678908 
4975.000000	63.616251 
4974.000000	63.495254 
4973.000000	63.327598 
4972.000000	63.128995 
4971.000000	62.917685 
4970.000000	62.715601 
4969.000000	62.544369 
4968.000000	62.424492 
4967.000000	62.370300 
4966.000000	62.386465 
4965.000000	62.468814 
4964.000000	62.604188 
4963.000000	62.774801 
4962.000000	62.959051 
4961.000000	63.140535 
4960.000000	63.308548 
4959.000000	63.464951 
4958.000000	63.621211 
4957.000000	63.797044 
4956.000000	64.012312 
4955.000000	64.282917 
4954.000000	64.612245 
4953.000000	64.985680 
4952.000000	65.369749 
4951.000000	65.716791 
4950.000000	65.975046 
4949.000000	66.102719 
4948.000000	66.078186 
4947.000000	65.907835 
4946.000000	65.624547 
4945.000000	65.283107 
4944.000000	64.944911 
4943.000000	64.666867 
4942.000000	64.485001 
4941.000000	64.410042 
4940.000000	64.424443 
4939.000000	64.492821 
4938.000000	64.570188 
4937.000000	64.615416 
4936.000000	64.602494 
4935.000000	64.525151 
4934.000000	64.399147 
4933.000000	64.254927 
4932.000000	64.128279 
4931.000000	64.047574 
4930.000000	64.027833 
4929.000000	64.066076 
4928.000000	64.142870 
4927.000000	64.228200 
4926.000000	64.291954 
4925.000000	64.311981 
4924.000000	64.278388 
4923.000000	64.195418 
4922.000000	64.077401 
4921.000000	63.945579 
4920.000000	63.817858 
4919.000000	63.708996 
4918.000000	63.628029 
4917.000000	63.579583 
4916.000000	63.566756 
4915.000000	63.590621 
4914.000000	63.652110 
4913.000000	63.749241 
4912.000000	63.877654 
4911.000000	64.026451 
4910.000000	64.176893 
4909.000000	64.306139 
4908.000000	64.390587 
4907.000000	64.412236 
4906.000000	64.363050 
4905.000000	64.248061 
4904.000000	64.085030 
4903.000000	63.900136 
4902.000000	63.721895 
4901.000000	63.574647 
4900.000000	63.473486 
4899.000000	63.421845 
4898.000000	63.412451 
4897.000000	63.431549 
4896.000000	63.463473 
4895.000000	63.494491 
4894.000000	63.517022 
4893.000000	63.528275 
4892.000000	63.532328 
4891.000000	63.536119 
4890.000000	63.548755 
4889.000000	63.577675 
4888.000000	63.627147 
4887.000000	63.696765 
4886.000000	63.781499 
4885.000000	63.873624 
4884.000000	63.963389 
4883.000000	64.042091 
4882.000000	64.102602 
4881.000000	64.140629 
4880.000000	64.155554 
4879.000000	64.150261 
4878.000000	64.130067 
4877.000000	64.101457 
4876.000000	64.070558 
4875.000000	64.041876 
4874.000000	64.017820 
4873.000000	63.998627 
4872.000000	63.982701 
4871.000000	63.967752 
4870.000000	63.952517 
4869.000000	63.937211 
4868.000000	63.923025 
4867.000000	63.912367 
4866.000000	63.907647 
4865.000000	63.911128 
4864.000000	63.924169 
4863.000000	63.946294 
4862.000000	63.975429 
4861.000000	64.007067 
4860.000000	64.035272 
4859.000000	64.052987 
4858.000000	64.053463 
4857.000000	64.031481 
4856.000000	63.984465 
4855.000000	63.913941 
4854.000000	63.825416 
4853.000000	63.728547 
4852.000000	63.635516 
4851.000000	63.559198 
4850.000000	63.510537 
4849.000000	63.496327 
4848.000000	63.517785 
4847.000000	63.570189 
4846.000000	63.643932 
4845.000000	63.726687 
4844.000000	63.805866 
4843.000000	63.870930 
4842.000000	63.915276 
4841.000000	63.936638 
4840.000000	63.937354 
4839.000000	63.922071 
4838.000000	63.897538 
4837.000000	63.870501 
4836.000000	63.846993 
4835.000000	63.832092 
4834.000000	63.829088 
4833.000000	63.840150 
4832.000000	63.865637 
4831.000000	63.904666 
4830.000000	63.954877 
4829.000000	64.012241 
4828.000000	64.072275 
4827.000000	64.129924 
4826.000000	64.181685 
4825.000000	64.225697 
4824.000000	64.262962 
4823.000000	64.296579 
4822.000000	64.330220 
4821.000000	64.366555 
4820.000000	64.405989 
4819.000000	64.445924 
4818.000000	64.480590 
4817.000000	64.502215 
4816.000000	64.503455 
4815.000000	64.479470 
4814.000000	64.429974 
4813.000000	64.359736 
4812.000000	64.277839 
4811.000000	64.195919 
4810.000000	64.125514 
4809.000000	64.075756 
4808.000000	64.051008 
4807.000000	64.050722 
4806.000000	64.070153 
4805.000000	64.101982 
4804.000000	64.137983 
4803.000000	64.171576 
4802.000000	64.198350 
4801.000000	64.217257 
4800.000000	64.229011 
4799.000000	64.236831 
4798.000000	64.244532 
4797.000000	64.255952 
4796.000000	64.273500 
4795.000000	64.298009 
4794.000000	64.328312 
4793.000000	64.361262 
4792.000000	64.392542 
4791.000000	64.417529 
4790.000000	64.432573 
4789.000000	64.435315 
4788.000000	64.425706 
4787.000000	64.406347 
4786.000000	64.381670 
4785.000000	64.357256 
4784.000000	64.337897 
4783.000000	64.326572 
4782.000000	64.323425 
4781.000000	64.325761 
4780.000000	64.328742 
4779.000000	64.326405 
4778.000000	64.313530 
4777.000000	64.287686 
4776.000000	64.249610 
4775.000000	64.202857 
4774.000000	64.153361 
4773.000000	64.107704 
4772.000000	64.072060 
4771.000000	64.050626 
4770.000000	64.044952 
4769.000000	64.053678 
4768.000000	64.072918 
4767.000000	64.097285 
4766.000000	64.120578 
4765.000000	64.137029 
4764.000000	64.141893 
4763.000000	64.132165 
4762.000000	64.106225 
4761.000000	64.064788 
4760.000000	64.010286 
4759.000000	63.947486 
4758.000000	63.882303 
4757.000000	63.822007 
4756.000000	63.773846 
4755.000000	63.744497 
4754.000000	63.738799 
4753.000000	63.759112 
4752.000000	63.804435 
4751.000000	63.870644 
4750.000000	63.950896 
4749.000000	64.036941 
4748.000000	64.120173 
4747.000000	64.193272 
4746.000000	64.250850 
4745.000000	64.290452 
4744.000000	64.312529 
4743.000000	64.319825 
4742.000000	64.316558 
4741.000000	64.307212 
4740.000000	64.295411 
4739.000000	64.283323 
4738.000000	64.271283 
4737.000000	64.258122 
4736.000000	64.241719 
4735.000000	64.219760 
4734.000000	64.191055 
4733.000000	64.156031 
4732.000000	64.117312 
4731.000000	64.079308 
4730.000000	64.047574 
4729.000000	64.027118 
4728.000000	64.021492 
4727.000000	64.032220 
4726.000000	64.057826 
4725.000000	64.093995 
4724.000000	64.134359 
4723.000000	64.172077 
4722.000000	64.201045 
4721.000000	64.216971 
4720.000000	64.218235 
4719.000000	64.205956 
4718.000000	64.182996 
4717.000000	64.153146 
4716.000000	64.119768 
4715.000000	64.085268 
4714.000000	64.050674 
4713.000000	64.015936 
4712.000000	63.980436 
4711.000000	63.943719 
4710.000000	63.905668 
4709.000000	63.867259 
4708.000000	63.830065 
4707.000000	63.796949 
4706.000000	63.771510 
4705.000000	63.758182 
4704.000000	63.761019 
4703.000000	63.783025 
4702.000000	63.824939 
4701.000000	63.884949 
4700.000000	63.958334 
4699.000000	64.038372 
4698.000000	64.116978 
4697.000000	64.186835 
4696.000000	64.242196 
4695.000000	64.280796 
4694.000000	64.303803 
4693.000000	64.315772 
4692.000000	64.323186 
4691.000000	64.333271 
4690.000000	64.352154 
4689.000000	64.383339 
4688.000000	64.427137 
4687.000000	64.480447 
4686.000000	64.537525 
4685.000000	64.591312 
4684.000000	64.634823 
4683.000000	64.661526 
4682.000000	64.666891 
4681.000000	64.648771 
4680.000000	64.608263 
4679.000000	64.549732 
4678.000000	64.480447 
4677.000000	64.409852 
4676.000000	64.347600 
4675.000000	64.301943 
4674.000000	64.277982 
4673.000000	64.276719 
4672.000000	64.294910 
4671.000000	64.326429 
4670.000000	64.363384 
4669.000000	64.397716 
4668.000000	64.423012 
4667.000000	64.435768 
4666.000000	64.435386 
4665.000000	64.423394 
4664.000000	64.403295 
4663.000000	64.379215 
4662.000000	64.355278 
4661.000000	64.334559 
4660.000000	64.319252 
4659.000000	64.310646 
4658.000000	64.309000 
4657.000000	64.314055 
4656.000000	64.324688 
4655.000000	64.339256 
4654.000000	64.355254 
4653.000000	64.369750 
4652.000000	64.379930 
4651.000000	64.383554 
4650.000000	64.379644 
4649.000000	64.368224 
4648.000000	64.350366 
4647.000000	64.327502 
4646.000000	64.301347 
4645.000000	64.273524 
4644.000000	64.245200 
4643.000000	64.217305 
4642.000000	64.190673 
4641.000000	64.166474 
4640.000000	64.146280 
4639.000000	64.132046 
4638.000000	64.125585 
4637.000000	64.128494 
4636.000000	64.141678 
4635.000000	64.164853 
4634.000000	64.196228 
4633.000000	64.232778 
4632.000000	64.270687 
4631.000000	64.305925 
4630.000000	64.335274 
4629.000000	64.356899 
4628.000000	64.370894 
4627.000000	64.379024 
4626.000000	64.384531 
4625.000000	64.391279 
4624.000000	64.402508 
4623.000000	64.420390 
4622.000000	64.444541 
4621.000000	64.472675 
4620.000000	64.499998 
4619.000000	64.521193 
4618.000000	64.530706 
4617.000000	64.524006 
4616.000000	64.498615 
4615.000000	64.455270 
4614.000000	64.397573 
4613.000000	64.331150 
4612.000000	64.263153 
4611.000000	64.200830 
4610.000000	64.150357 
4609.000000	64.115691 
4608.000000	64.098072 
4607.000000	64.096069 
4606.000000	64.106178 
4605.000000	64.123916 
4604.000000	64.144158 
4603.000000	64.162373 
4602.000000	64.175081 
4601.000000	64.180541 
4600.000000	64.177799 
4599.000000	64.167118 
4598.000000	64.149641 
4597.000000	64.127731 
4596.000000	64.103913 
4595.000000	64.081859 
4594.000000	64.065980 
4593.000000	64.061379 
4592.000000	64.072871 
4591.000000	64.104342 
4590.000000	64.157485 
4589.000000	64.231133 
4588.000000	64.320874 
4587.000000	64.419555 
4586.000000	64.518308 
4585.000000	64.607691 
4584.000000	64.679479 
4583.000000	64.727282 
4582.000000	64.747691 
4581.000000	64.740157 
4580.000000	64.707183 
4579.000000	64.652895 
4578.000000	64.582514 
4577.000000	64.501786 
4576.000000	64.416384 
4575.000000	64.331388 
4574.000000	64.250898 
4573.000000	64.178323 
4572.000000	64.116287 
4571.000000	64.066314 
4570.000000	64.029169 
4569.000000	64.004445 
4568.000000	63.991403 
4567.000000	63.988685 
4566.000000	63.995122 
4565.000000	64.008998 
4564.000000	64.028620 
4563.000000	64.051604 
4562.000000	64.075255 
4561.000000	64.096164 
4560.000000	64.111256 
4559.000000	64.117956 
4558.000000	64.114928 
4557.000000	64.102077 
4556.000000	64.080858 
4555.000000	64.054083 
4554.000000	64.025115 
4553.000000	63.997125 
4552.000000	63.972759 
4551.000000	63.954305 
4550.000000	63.943314 
4549.000000	63.940811 
4548.000000	63.947939 
4547.000000	63.965654 
4546.000000	63.994598 
4545.000000	64.034700 
4544.000000	64.084386 
4543.000000	64.140462 
4542.000000	64.198088 
4541.000000	64.251899 
4540.000000	64.296579 
4539.000000	64.328336 
4538.000000	64.346098 
4537.000000	64.351058 
4536.000000	64.346694 
4535.000000	64.337134 
4534.000000	64.326548 
4533.000000	64.317345 
4532.000000	64.309811 
4531.000000	64.302206 
4530.000000	64.291930 
4529.000000	64.276742 
4528.000000	64.255976 
4527.000000	64.231228 
4526.000000	64.206314 
4525.000000	64.185762 
4524.000000	64.173460 
4523.000000	64.170932 
4522.000000	64.176607 
4521.000000	64.185714 
4520.000000	64.191460 
4519.000000	64.186573 
4518.000000	64.165306 
4517.000000	64.125132 
4516.000000	64.067578 
4515.000000	63.997554 
4514.000000	63.922858 
4513.000000	63.852071 
4512.000000	63.793420 
4511.000000	63.752388 
4510.000000	63.731789 
4509.000000	63.731813 
4508.000000	63.750481 
4507.000000	63.783979 
4506.000000	63.828134 
4505.000000	63.878655 
4504.000000	63.932061 
4503.000000	63.985252 
4502.000000	64.036059 
4501.000000	64.082288 
4500.000000	64.122796 
4499.000000	64.157152 
4498.000000	64.184713 
4497.000000	64.203953 
4496.000000	64.213299 
4495.000000	64.211130 
4494.000000	64.195966 
4493.000000	64.166879 
4492.000000	64.125180 
4491.000000	64.073944 
4490.000000	64.017033 
4489.000000	63.958930 
4488.000000	63.904142 
4487.000000	63.856625 
4486.000000	63.819575 
4485.000000	63.794469 
4484.000000	63.781905 
4483.000000	63.780260 
4482.000000	63.783049 
4481.000000	63.783812 
4480.000000	63.779044 
4479.000000	63.768768 
4478.000000	63.750576 
4477.000000	63.730740 
4476.000000	63.727641 
4475.000000	63.757896 
4474.000000	63.826918 
4473.000000	63.937330 
4472.000000	64.087629 
4471.000000	64.270520 
4470.000000	64.476847 
4469.000000	64.682745 
4468.000000	64.854907 
4467.000000	64.984226 
4466.000000	65.082454 
4465.000000	65.166211 
4464.000000	65.250539 
4463.000000	65.345311 
4462.000000	65.450882 
4461.000000	65.537691 
4460.000000	65.575146 
4459.000000	65.552139 
4458.000000	65.483736 
4457.000000	65.424561 
4456.000000	65.447926 
4455.000000	65.590143 
4454.000000	65.895342 
4453.000000	66.354966 
4452.000000	67.006587 
4451.000000	67.929840 
4450.000000	69.253253 
4449.000000	71.149802 
4448.000000	73.703074 
4447.000000	76.860547 
4446.000000	80.353403 
4445.000000	83.720421 
4444.000000	86.374545 
4443.000000	87.726044 
4442.000000	87.326765 
4441.000000	84.979248 
4440.000000	80.758380 
4439.000000	75.013709 
4438.000000	68.284130 
4437.000000	61.222839 
4436.000000	54.494261 
4435.000000	48.688554 
4434.000000	44.261002 
4433.000000	41.483139 
4432.000000	40.435338 
4431.000000	41.017508 
4430.000000	42.955160 
4429.000000	45.885181 
4428.000000	49.365878 
4427.000000	52.992105 
4426.000000	56.364870 
4425.000000	59.223723 
4424.000000	61.412405 
4423.000000	62.928676 
4422.000000	63.868212 
4421.000000	64.399552 
4420.000000	64.705371 
4419.000000	64.933037 
4418.000000	65.167617 
4417.000000	65.426659 
4416.000000	65.679240 
4415.000000	65.874385 
4414.000000	65.970897 
4413.000000	65.947842 
4412.000000	65.813994 
4411.000000	65.594387 
4410.000000	65.326666 
4409.000000	65.044140 
4408.000000	64.772200 
4407.000000	64.542889 
4406.000000	64.378166 
4405.000000	64.272379 
4404.000000	64.206051 
4403.000000	64.168310 
4402.000000	64.147710 
4401.000000	64.127612 
4400.000000	64.097309 
4399.000000	64.051294 
4398.000000	63.992047 
4397.000000	63.930344 
4396.000000	63.876986 
4395.000000	63.829827 
4394.000000	63.791108 
4393.000000	63.771510 
4392.000000	63.778948 
4391.000000	63.815212 
4390.000000	63.881516 
4389.000000	63.977408 
4388.000000	64.097046 
4387.000000	64.229822 
4386.000000	64.361929 
4385.000000	64.478874 
4384.000000	64.568233 
4383.000000	64.621853 
4382.000000	64.638161 
4381.000000	64.621591 
4380.000000	64.582085 
4379.000000	64.531540 
4378.000000	64.481592 
4377.000000	64.439845 
4376.000000	64.411616 
4375.000000	64.395952 
4374.000000	64.387464 
4373.000000	64.377093 
4372.000000	64.356279 
4371.000000	64.318060 
4370.000000	64.258980 
4369.000000	64.180850 
4368.000000	64.089751 
4367.000000	63.996505 
4366.000000	63.913798 
4365.000000	63.854575 
4364.000000	63.829016 
4363.000000	63.842630 
4362.000000	63.894939 
4361.000000	63.979244 
4360.000000	64.083886 
4359.000000	64.194607 
4358.000000	64.297556 
4357.000000	64.381170 
4356.000000	64.438462 
4355.000000	64.467477 
4354.000000	64.471197 
4353.000000	64.455676 
4352.000000	64.428758 
4351.000000	64.398431 
4350.000000	64.370965 
4349.000000	64.351511 
4348.000000	64.342260 
4347.000000	64.344000 
4346.000000	64.355349 
4345.000000	64.374589 
4344.000000	64.398837 
4343.000000	64.424872 
4342.000000	64.448976 
4341.000000	64.467406 
4340.000000	64.476776 
4339.000000	64.474439 
4338.000000	64.459085 
4337.000000	64.431262 
4336.000000	64.393043 
4335.000000	64.347887 
4334.000000	64.300036 
4333.000000	64.253997 
4332.000000	64.213538 
4331.000000	64.181542 
4330.000000	64.159655 
4329.000000	64.148855 
4328.000000	64.149904 
4327.000000	64.163470 
4326.000000	64.189743 
4325.000000	64.228343 
4324.000000	64.277648 
4323.000000	64.334416 
4322.000000	64.393210 
4321.000000	64.446949 
4320.000000	64.487671 
4319.000000	64.508247 
4318.000000	64.503884 
4317.000000	64.473676 
4316.000000	64.421486 
4315.000000	64.354944 
4314.000000	64.284300 
4313.000000	64.220118 
4312.000000	64.171338 
4311.000000	64.143085 
4310.000000	64.136075 
4309.000000	64.146971 
4308.000000	64.169788 
4307.000000	64.197969 
4306.000000	64.226317 
4305.000000	64.251685 
4304.000000	64.273643 
4303.000000	64.293766 
4302.000000	64.314770 
4301.000000	64.339017 
4300.000000	64.367580 
4299.000000	64.399933 
4298.000000	64.433765 
4297.000000	64.466333 
4296.000000	64.494085 
4295.000000	64.514899 
4294.000000	64.526510 
4293.000000	64.527773 
4292.000000	64.517188 
4291.000000	64.493489 
4290.000000	64.455175 
4289.000000	64.401173 
4288.000000	64.331674 
4287.000000	64.248776 
4286.000000	64.157199 
4285.000000	64.064145 
4284.000000	63.979005 
4283.000000	63.911795 
4282.000000	63.871860 
4281.000000	63.865852 
4280.000000	63.896417 
4279.000000	63.961172 
4278.000000	64.052557 
4277.000000	64.159107 
4276.000000	64.266538 
4275.000000	64.360833 
4274.000000	64.430475 
4273.000000	64.469099 
4272.000000	64.475512 
4271.000000	64.454507 
4270.000000	64.415264 
4269.000000	64.369082 
4268.000000	64.327573 
4267.000000	64.299201 
4266.000000	64.288759 
4265.000000	64.295649 
4264.000000	64.316082 
4263.000000	64.343285 
4262.000000	64.370298 
4261.000000	64.391398 
4260.000000	64.403653 
4259.000000	64.406585 
4258.000000	64.401745 
4257.000000	64.391565 
4256.000000	64.378356 
4255.000000	64.363574 
4254.000000	64.347457 
4253.000000	64.329624 
4252.000000	64.309239 
4251.000000	64.285874 
4250.000000	64.259886 
4249.000000	64.232134 
4248.000000	64.204287 
4247.000000	64.178276 
4246.000000	64.156484 
4245.000000	64.140510 
4244.000000	64.131951 
4243.000000	64.131999 
4242.000000	64.141869 
4241.000000	64.161968 
4240.000000	64.192152 
4239.000000	64.231276 
4238.000000	64.277267 
4237.000000	64.326834 
4236.000000	64.376115 
4235.000000	64.421129 
4234.000000	64.458227 
4233.000000	64.485073 
4232.000000	64.500260 
4231.000000	64.503645 
4230.000000	64.495491 
4229.000000	64.476323 
4228.000000	64.446330 
4227.000000	64.405584 
4226.000000	64.353966 
4225.000000	64.292025 
4224.000000	64.221549 
4223.000000	64.146065 
4222.000000	64.070749 
4221.000000	64.002251 
4220.000000	63.947367 
4219.000000	63.912296 
4218.000000	63.900947 
4217.000000	63.914656 
4216.000000	63.951492 
4215.000000	64.006686 
4214.000000	64.073348 
4213.000000	64.143753 
4212.000000	64.209842 
4211.000000	64.265108 
4210.000000	64.304733 
4209.000000	64.326572 
4208.000000	64.330697 
4207.000000	64.319682 
4206.000000	64.297795 
4205.000000	64.269804 
4204.000000	64.240646 
4203.000000	64.213871 
4202.000000	64.191627 
4201.000000	64.173793 
4200.000000	64.158678 
4199.000000	64.143252 
4198.000000	64.124631 
4197.000000	64.101028 
4196.000000	64.072585 
4195.000000	64.041757 
4194.000000	64.012932 
4193.000000	63.991141 
4192.000000	63.981008 
4191.000000	63.985133 
4190.000000	64.003944 
4189.000000	64.035153 
4188.000000	64.074730 
4187.000000	64.117884 
4186.000000	64.160442 
4185.000000	64.199590 
4184.000000	64.234590 
4183.000000	64.266133 
4182.000000	64.296412 
4181.000000	64.327788 
4180.000000	64.362072 
4179.000000	64.399528 
4178.000000	64.438724 
4177.000000	64.477157 
4176.000000	64.511418 
4175.000000	64.538455 
4174.000000	64.555597 
4173.000000	64.561629 
4172.000000	64.556741 
4171.000000	64.542460 
4170.000000	64.520978 
4169.000000	64.494442 
4168.000000	64.465188 
4167.000000	64.435052 
4166.000000	64.405298 
4165.000000	64.376616 
4164.000000	64.349508 
4163.000000	64.324355 
4162.000000	64.301514 
4161.000000	64.281725 
4160.000000	64.265513 
4159.000000	64.253687 
4158.000000	64.246940 
4157.000000	64.245748 
4156.000000	64.249920 
4155.000000	64.258575 
4154.000000	64.270257 
4153.000000	64.282822 
4152.000000	64.293336 
4151.000000	64.299082 
4150.000000	64.297866 
4149.000000	64.289021 
4148.000000	64.273357 
4147.000000	64.253568 
4146.000000	64.233756 
4145.000000	64.218974 
4144.000000	64.213895 
4143.000000	64.222049 
4142.000000	64.244627 
4141.000000	64.280200 
4140.000000	64.324808 
4139.000000	64.372372 
4138.000000	64.416003 
4137.000000	64.449286 
4136.000000	64.467716 
4135.000000	64.469552 
4134.000000	64.456152 
4133.000000	64.431357 
4132.000000	64.400267 
4131.000000	64.367818 
4130.000000	64.337563 
4129.000000	64.311242 
4128.000000	64.288783 
4127.000000	64.269208 
4126.000000	64.251518 
4125.000000	64.235782 
4124.000000	64.223241 
4123.000000	64.216399 
4122.000000	64.218235 
4121.000000	64.231133 
4120.000000	64.256548 
4119.000000	64.294219 
4118.000000	64.342236 
4117.000000	64.397192 
4116.000000	64.454841 
4115.000000	64.510560 
4114.000000	64.560127 
4113.000000	64.600062 
4112.000000	64.627790 
4111.000000	64.641666 
4110.000000	64.641284 
4109.000000	64.627289 
4108.000000	64.601612 
4107.000000	64.566993 
4106.000000	64.527392 
4105.000000	64.487051 
4104.000000	64.450454 
4103.000000	64.421415 
4102.000000	64.402747 
4101.000000	64.395594 
4100.000000	64.399600 
4099.000000	64.412927 
4098.000000	64.432621 
4097.000000	64.455485 
4096.000000	64.478540 
4095.000000	64.499402 
4094.000000	64.516425 
4093.000000	64.528822 
4092.000000	64.536356 
4091.000000	64.539003 
4090.000000	64.536762 
4089.000000	64.530372 
4088.000000	64.520883 
4087.000000	64.509820 
4086.000000	64.498829 
4085.000000	64.489912 
4084.000000	64.484786 
4083.000000	64.484238 
4082.000000	64.488196 
4081.000000	64.496254 
4080.000000	64.507102 
4079.000000	64.519238 
4078.000000	64.530611 
4077.000000	64.539384 
4076.000000	64.543676 
4075.000000	64.541912 
4074.000000	64.533042 
4073.000000	64.516401 
4072.000000	64.492416 
4071.000000	64.462876 
4070.000000	64.430475 
4069.000000	64.398479 
4068.000000	64.370083 
4067.000000	64.348101 
4066.000000	64.333510 
4065.000000	64.325118 
4064.000000	64.319801 
4063.000000	64.313364 
4062.000000	64.301490 
4061.000000	64.281082 
4060.000000	64.251399 
4059.000000	64.214277 
4058.000000	64.173364 
4057.000000	64.133214 
4056.000000	64.097809 
4055.000000	64.069533 
4054.000000	64.048290 
4053.000000	64.032006 
4052.000000	64.017128 
4051.000000	64.000558 
4050.000000	63.980269 
4049.000000	63.957047 
4048.000000	63.933730 
4047.000000	63.915634 
4046.000000	63.908529 
4045.000000	63.917684 
4044.000000	63.945651 
4043.000000	63.992381 
4042.000000	64.054679 
4041.000000	64.127135 
4040.000000	64.203333 
4039.000000	64.277195 
4038.000000	64.344191 
4037.000000	64.401912 
4036.000000	64.450192 
4035.000000	64.490413 
4034.000000	64.524745 
4033.000000	64.555478 
4032.000000	64.583754 
4031.000000	64.609575 
4030.000000	64.631199 
4029.000000	64.646673 
4028.000000	64.653635 
4027.000000	64.650917 
4026.000000	64.638090 
4025.000000	64.616823 
4024.000000	64.589548 
4023.000000	64.559221 
4022.000000	64.528608 
4021.000000	64.499998 
4020.000000	64.474749 
4019.000000	64.453411 
4018.000000	64.435791 
4017.000000	64.421391 
4016.000000	64.409565 
4015.000000	64.399647 
4014.000000	64.390802 
4013.000000	64.381980 
4012.000000	64.372110 
4011.000000	64.360404 
4010.000000	64.346265 
4009.000000	64.329719 
4008.000000	64.312386 
4007.000000	64.297056 
4006.000000	64.287066 
4005.000000	64.285445 
4004.000000	64.293885 
4003.000000	64.312076 
4002.000000	64.337110 
4001.000000	64.364457 
4000.000000	64.388632 
3999.000000	64.404988 
3998.000000	64.410877 
3997.000000	64.406442 
3996.000000	64.394283 
3995.000000	64.378929 
3994.000000	64.365577 
3993.000000	64.358496 
3992.000000	64.359831 
3991.000000	64.369010 
3990.000000	64.383649 
3989.000000	64.399528 
3988.000000	64.412236 
3987.000000	64.417839 
3986.000000	64.414143 
3985.000000	64.400434 
3984.000000	64.377689 
3983.000000	64.347743 
3982.000000	64.313006 
3981.000000	64.276409 
3980.000000	64.241123 
3979.000000	64.210343 
3978.000000	64.187145 
3977.000000	64.174151 
3976.000000	64.173245 
3975.000000	64.184951 
3974.000000	64.208388 
3973.000000	64.241099 
3972.000000	64.280009 
3971.000000	64.321422 
3970.000000	64.362454 
3969.000000	64.401078 
3968.000000	64.436697 
3967.000000	64.469671 
3966.000000	64.500951 
3965.000000	64.531254 
3964.000000	64.560317 
3963.000000	64.587020 
3962.000000	64.608788 
3961.000000	64.622592 
3960.000000	64.625334 
3959.000000	64.615201 
3958.000000	64.591407 
3957.000000	64.554738 
3956.000000	64.507031 
3955.000000	64.451003 
3954.000000	64.389538 
3953.000000	64.325618 
3952.000000	64.262294 
3951.000000	64.202857 
3950.000000	64.151072 
3949.000000	64.110970 
3948.000000	64.086627 
3947.000000	64.081406 
3946.000000	64.096951 
3945.000000	64.132690 
3944.000000	64.184546 
3943.000000	64.246201 
3942.000000	64.309597 
3941.000000	64.366888 
3940.000000	64.411425 
3939.000000	64.439868 
3938.000000	64.452719 
3937.000000	64.453911 
3936.000000	64.449596 
3935.000000	64.446139 
3934.000000	64.448356 
3933.000000	64.458036 
3932.000000	64.473748 
3931.000000	64.491438 
3930.000000	64.505815 
3929.000000	64.512276 
3928.000000	64.508533 
3927.000000	64.494943 
3926.000000	64.474487 
3925.000000	64.451646 
3924.000000	64.430975 
3923.000000	64.415502 
3922.000000	64.405584 
3921.000000	64.399099 
3920.000000	64.391899 
3919.000000	64.379334 
3918.000000	64.357399 
3917.000000	64.324355 
3916.000000	64.281272 
3915.000000	64.231705 
3914.000000	64.181494 
3913.000000	64.136743 
3912.000000	64.103317 
3911.000000	64.085173 
3910.000000	64.083957 
3909.000000	64.098763 
3908.000000	64.126420 
3907.000000	64.162492 
3906.000000	64.201951 
3905.000000	64.239954 
3904.000000	64.272665 
3903.000000	64.297628 
3902.000000	64.314055 
3901.000000	64.322543 
3900.000000	64.324569 
3899.000000	64.321851 
3898.000000	64.316058 
3897.000000	64.308118 
3896.000000	64.298129 
3895.000000	64.285087 
3894.000000	64.267611 
3893.000000	64.244532 
3892.000000	64.215350 
3891.000000	64.181160 
3890.000000	64.144635 
3889.000000	64.110326 
3888.000000	64.083504 
3887.000000	64.069604 
3886.000000	64.072823 
3885.000000	64.094877 
3884.000000	64.134216 
3883.000000	64.186191 
3882.000000	64.243674 
3881.000000	64.298725 
3880.000000	64.343857 
3879.000000	64.373993 
3878.000000	64.387416 
3877.000000	64.386153 
3876.000000	64.375138 
3875.000000	64.361095 
3874.000000	64.350438 
3873.000000	64.348196 
3872.000000	64.356541 
3871.000000	64.374589 
3870.000000	64.398241 
3869.000000	64.421939 
3868.000000	64.439702 
3867.000000	64.446711 
3866.000000	64.440631 
3865.000000	64.421844 
3864.000000	64.393782 
3863.000000	64.361953 
3862.000000	64.332890 
3861.000000	64.312791 
3860.000000	64.306020 
3859.000000	64.314770 
3858.000000	64.338278 
3857.000000	64.373159 
3856.000000	64.414191 
3855.000000	64.455413 
3854.000000	64.491486 
3853.000000	64.518761 
3852.000000	64.535665 
3851.000000	64.542317 
3850.000000	64.540362 
3849.000000	64.531946 
3848.000000	64.518570 
3847.000000	64.500641 
3846.000000	64.477705 
3845.000000	64.448857 
3844.000000	64.413452 
3843.000000	64.371895 
3842.000000	64.326047 
3841.000000	64.279437 
3840.000000	64.236545 
3839.000000	64.202475 
3838.000000	64.181685 
3837.000000	64.177417 
3836.000000	64.190459 
3835.000000	64.219474 
3834.000000	64.261126 
3833.000000	64.310646 
3832.000000	64.362549 
3831.000000	64.411330 
3830.000000	64.452266 
3829.000000	64.481949 
3828.000000	64.498543 
3827.000000	64.501833 
3826.000000	64.492917 
3825.000000	64.473962 
3824.000000	64.447903 
3823.000000	64.417576 
3822.000000	64.385485 
3821.000000	64.353513 
3820.000000	64.323139 
3819.000000	64.295363 
3818.000000	64.271306 
3817.000000	64.252305 
3816.000000	64.240097 
3815.000000	64.235997 
3814.000000	64.240860 
3813.000000	64.254403 
3812.000000	64.275240 
3811.000000	64.300346 
3810.000000	64.325761 
3809.000000	64.347004 
3808.000000	64.360189 
3807.000000	64.362430 
3806.000000	64.352917 
3805.000000	64.332723 
3804.000000	64.304971 
3803.000000	64.274096 
3802.000000	64.245128 
3801.000000	64.222478 
3800.000000	64.209556 
3799.000000	64.208316 
3798.000000	64.218926 
3797.000000	64.239883 
3796.000000	64.268636 
3795.000000	64.302206 
3794.000000	64.337658 
3793.000000	64.372634 
3792.000000	64.405918 
3791.000000	64.437246 
3790.000000	64.467310 
3789.000000	64.496970 
3788.000000	64.526724 
3787.000000	64.555954 
3786.000000	64.583182 
3785.000000	64.605760 
3784.000000	64.620780 
3783.000000	64.625620 
3782.000000	64.618945 
3781.000000	64.601111 
3780.000000	64.574480 
3779.000000	64.542698 
3778.000000	64.510297 
3777.000000	64.481329 
3776.000000	64.458703 
3775.000000	64.443373 
3774.000000	64.434409 
3773.000000	64.429306 
3772.000000	64.424872 
3771.000000	64.418029 
3770.000000	64.406895 
3769.000000	64.390969 
3768.000000	64.371132 
3767.000000	64.349246 
3766.000000	64.327597 
3765.000000	64.308381 
3764.000000	64.293527 
3763.000000	64.284038 
3762.000000	64.280104 
3761.000000	64.281415 
3760.000000	64.287233 
3759.000000	64.296364 
3758.000000	64.307212 
3757.000000	64.317917 
3756.000000	64.326548 
3755.000000	64.330959 
3754.000000	64.329862 
3753.000000	64.322328 
3752.000000	64.308786 
3751.000000	64.290928 
3750.000000	64.271664 
3749.000000	64.254379 
3748.000000	64.242362 
3747.000000	64.238214 
3746.000000	64.242887 
3745.000000	64.255499 
3744.000000	64.273476 
3743.000000	64.293241 
3742.000000	64.310741 
3741.000000	64.322328 
3740.000000	64.325618 
3739.000000	64.319944 
3738.000000	64.306282 
3737.000000	64.287114 
3736.000000	64.265656 
3735.000000	64.245223 
3734.000000	64.228558 
3733.000000	64.217305 
3732.000000	64.212274 
3731.000000	64.213585 
3730.000000	64.220929 
3729.000000	64.234280 
3728.000000	64.253687 
3727.000000	64.279413 
3726.000000	64.311337 
3725.000000	64.348816 
3724.000000	64.390110 
3723.000000	64.432835 
3722.000000	64.473843 
3721.000000	64.509916 
3720.000000	64.538598 
3719.000000	64.558291 
3718.000000	64.568781 
3717.000000	64.570999 
3716.000000	64.567041 
3715.000000	64.559268 
3714.000000	64.549875 
3713.000000	64.540362 
3712.000000	64.531397 
3711.000000	64.522981 
3710.000000	64.514446 
3709.000000	64.504981 
3708.000000	64.493918 
3707.000000	64.481139 
3706.000000	64.467215 
3705.000000	64.453220 
3704.000000	64.440894 
3703.000000	64.432048 
3702.000000	64.428496 
3701.000000	64.431667 
3700.000000	64.442229 
3699.000000	64.459252 
3698.000000	64.480829 
3697.000000	64.504051 
3696.000000	64.525914 
3695.000000	64.543747 
3694.000000	64.556145 
3693.000000	64.563035 
3692.000000	64.565420 
3691.000000	64.565205 
3690.000000	64.564061 
3689.000000	64.562845 
3688.000000	64.561247 
3687.000000	64.557814 
3686.000000	64.550352 
3685.000000	64.536499 
3684.000000	64.514517 
3683.000000	64.484095 
3682.000000	64.446425 
3681.000000	64.404439 
3680.000000	64.362025 
3679.000000	64.323520 
3678.000000	64.292860 
3677.000000	64.273285 
3676.000000	64.266657 
3675.000000	64.273595 
3674.000000	64.293408 
3673.000000	64.324426 
3672.000000	64.363741 
3671.000000	64.408063 
3670.000000	64.453315 
3669.000000	64.495754 
3668.000000	64.531850 
3667.000000	64.559102 
3666.000000	64.576077 
3665.000000	64.582419 
3664.000000	64.578938 
3663.000000	64.567184 
3662.000000	64.549112 
3661.000000	64.526653 
3660.000000	64.501452 
3659.000000	64.474821 
3658.000000	64.447808 
3657.000000	64.421439 
3656.000000	64.396953 
3655.000000	64.375877 
3654.000000	64.360189 
3653.000000	64.352011 
3652.000000	64.353179 
3651.000000	64.364647 
3650.000000	64.386224 
3649.000000	64.416193 
3648.000000	64.451670 
3647.000000	64.488816 
3646.000000	64.523339 
3645.000000	64.551496 
3644.000000	64.570617 
3643.000000	64.579439 
3642.000000	64.578557 
3641.000000	64.569902 
3640.000000	64.556360 
3639.000000	64.541053 
3638.000000	64.526605 
3637.000000	64.514708 
3636.000000	64.505743 
3635.000000	64.499068 
3634.000000	64.493250 
3633.000000	64.486885 
3632.000000	64.478921 
3631.000000	64.469146 
3630.000000	64.458179 
3629.000000	64.447188 
3628.000000	64.437699 
3627.000000	64.430689 
3626.000000	64.426016 
3625.000000	64.422369 
3624.000000	64.417529 
3623.000000	64.408802 
3622.000000	64.393830 
3621.000000	64.371490 
3620.000000	64.342236 
3619.000000	64.308786 
3618.000000	64.275193 
3617.000000	64.246654 
3616.000000	64.227938 
3615.000000	64.222741 
3614.000000	64.232611 
3613.000000	64.256691 
3612.000000	64.291763 
3611.000000	64.332985 
3610.000000	64.374876 
3609.000000	64.412379 
3608.000000	64.441585 
3607.000000	64.460420 
3606.000000	64.468741 
3605.000000	64.468121 
3604.000000	64.461350 
3603.000000	64.451909 
3602.000000	64.443206 
3601.000000	64.438343 
3600.000000	64.439249 
3599.000000	64.446878 
3598.000000	64.460706 
3597.000000	64.479279 
3596.000000	64.500451 
3595.000000	64.521622 
3594.000000	64.540576 
3593.000000	64.555692 
3592.000000	64.566564 
3591.000000	64.573979 
3590.000000	64.579367 
3589.000000	64.584755 
3588.000000	64.591431 
3587.000000	64.599776 
3586.000000	64.608693 
3585.000000	64.615893 
3584.000000	64.618349 
3583.000000	64.613270 
3582.000000	64.598941 
3581.000000	64.575242 
3580.000000	64.543914 
3579.000000	64.508390 
3578.000000	64.472699 
3577.000000	64.440631 
3576.000000	64.415311 
3575.000000	64.398646 
3574.000000	64.391088 
3573.000000	64.391851 
3572.000000	64.399552 
3571.000000	64.412212 
3570.000000	64.428210 
3569.000000	64.445829 
3568.000000	64.463019 
3567.000000	64.477777 
3566.000000	64.487576 
3565.000000	64.490175 
3564.000000	64.483857 
3563.000000	64.467763 
3562.000000	64.442682 
3561.000000	64.410591 
3560.000000	64.374756 
3559.000000	64.338755 
3558.000000	64.305782 
3557.000000	64.277815 
3556.000000	64.255475 
3555.000000	64.237856 
3554.000000	64.223051 
3553.000000	64.208555 
3552.000000	64.192318 
3551.000000	64.173221 
3550.000000	64.151668 
3549.000000	64.129400 
3548.000000	64.109492 
3547.000000	64.095520 
3546.000000	64.090776 
3545.000000	64.097404 
3544.000000	64.116287 
3543.000000	64.146471 
3542.000000	64.185667 
3541.000000	64.230680 
3540.000000	64.277768 
3539.000000	64.323568 
3538.000000	64.365172 
3537.000000	64.400482 
3536.000000	64.428305 
3535.000000	64.448046 
3534.000000	64.459562 
3533.000000	64.463043 
3532.000000	64.459061 
3531.000000	64.448666 
3530.000000	64.433455 
3529.000000	64.415550 
3528.000000	64.397549 
3527.000000	64.382505 
3526.000000	64.373183 
3525.000000	64.371490 
3524.000000	64.378237 
3523.000000	64.392709 
3522.000000	64.412736 
3521.000000	64.435005 
3520.000000	64.455723 
3519.000000	64.471340 
3518.000000	64.479231 
3517.000000	64.478063 
3516.000000	64.468097 
3515.000000	64.450883 
3514.000000	64.428853 
3513.000000	64.404869 
3512.000000	64.381241 
3511.000000	64.359879 
3510.000000	64.342021 
3509.000000	64.328312 
3508.000000	64.318919 
3507.000000	64.313888 
3506.000000	64.313268 
3505.000000	64.317202 
3504.000000	64.325571 
3503.000000	64.337921 
3502.000000	64.353489 
3501.000000	64.370870 
3500.000000	64.388322 
3499.000000	64.403820 
3498.000000	64.415502 
3497.000000	64.422106 
3496.000000	64.423418 
3495.000000	64.420342 
3494.000000	64.414763 
3493.000000	64.409232 
3492.000000	64.406132 
3491.000000	64.407134 
3490.000000	64.412498 
3489.000000	64.420914 
3488.000000	64.429926 
3487.000000	64.436554 
3486.000000	64.438128 
3485.000000	64.433145 
3484.000000	64.421772 
3483.000000	64.405989 
3482.000000	64.389228 
3481.000000	64.375281 
3480.000000	64.367580 
3479.000000	64.368200 
3478.000000	64.377522 
3477.000000	64.394116 
3476.000000	64.415240 
3475.000000	64.437675 
3474.000000	64.458465 
3473.000000	64.475798 
3472.000000	64.488983 
3471.000000	64.498400 
3470.000000	64.504957 
3469.000000	64.509773 
3468.000000	64.513802 
3467.000000	64.517450 
3466.000000	64.520812 
3465.000000	64.523458 
3464.000000	64.524912 
3463.000000	64.524698 
3462.000000	64.522552 
3461.000000	64.518165 
3460.000000	64.511394 
3459.000000	64.501953 
3458.000000	64.489650 
3457.000000	64.474129 
3456.000000	64.455485 
3455.000000	64.434146 
3454.000000	64.411067 
3453.000000	64.387702 
3452.000000	64.365792 
3451.000000	64.347410 
3450.000000	64.334201 
3449.000000	64.327573 
3448.000000	64.328169 
3447.000000	64.336013 
3446.000000	64.350199 
3445.000000	64.368891 
3444.000000	64.389657 
3443.000000	64.409375 
3442.000000	64.424824 
3441.000000	64.433169 
3440.000000	64.432334 
3439.000000	64.421510 
3438.000000	64.401245 
3437.000000	64.373564 
3436.000000	64.341378 
3435.000000	64.308238 
3434.000000	64.277291 
3433.000000	64.251112 
3432.000000	64.231085 
3431.000000	64.217305 
3430.000000	64.209032 
3429.000000	64.205026 
3428.000000	64.204168 
3427.000000	64.205646 
3426.000000	64.209461 
3425.000000	64.215660 
3424.000000	64.224696 
3423.000000	64.236497 
3422.000000	64.250683 
3421.000000	64.266109 
3420.000000	64.281344 
3419.000000	64.295125 
3418.000000	64.306521 
3417.000000	64.315032 
3416.000000	64.320969 
3415.000000	64.325213 
3414.000000	64.328646 
3413.000000	64.331841 
3412.000000	64.334678 
3411.000000	64.336276 
3410.000000	64.335250 
3409.000000	64.330029 
3408.000000	64.319443 
3407.000000	64.303207 
3406.000000	64.282226 
3405.000000	64.258480 
3404.000000	64.234876 
3403.000000	64.214468 
3402.000000	64.199924 
3401.000000	64.192867 
3400.000000	64.193773 
3399.000000	64.201688 
3398.000000	64.214611 
3397.000000	64.230108 
3396.000000	64.245629 
3395.000000	64.259386 
3394.000000	64.270591 
3393.000000	64.279675 
3392.000000	64.287805 
3391.000000	64.296722 
3390.000000	64.308142 
3389.000000	64.323282 
3388.000000	64.342355 
3387.000000	64.364480 
3386.000000	64.387655 
3385.000000	64.409303 
3384.000000	64.426660 
3383.000000	64.437246 
3382.000000	64.439344 
3381.000000	64.432477 
3380.000000	64.417433 
3379.000000	64.396381 
3378.000000	64.372134 
3377.000000	64.348101 
3376.000000	64.327120 
3375.000000	64.311242 
3374.000000	64.301228 
3373.000000	64.296793 
3372.000000	64.296698 
3371.000000	64.299273 
3370.000000	64.303088 
3369.000000	64.307093 
3368.000000	64.311170 
3367.000000	64.315748 
3366.000000	64.321589 
3365.000000	64.329099 
3364.000000	64.338302 
3363.000000	64.348697 
3362.000000	64.359188 
3361.000000	64.368438 
3360.000000	64.375615 
3359.000000	64.380478 
3358.000000	64.383625 
3357.000000	64.386105 
3356.000000	64.388895 
3355.000000	64.392566 
3354.000000	64.396762 
3353.000000	64.400506 
3352.000000	64.402556 
3351.000000	64.401865 
3350.000000	64.398360 
3349.000000	64.392614 
3348.000000	64.385962 
3347.000000	64.379978 
3346.000000	64.375925 
3345.000000	64.374017 
3344.000000	64.373421 
3343.000000	64.372372 
3342.000000	64.368724 
3341.000000	64.360761 
3340.000000	64.347696 
3339.000000	64.330172 
3338.000000	64.310240 
3337.000000	64.290595 
3336.000000	64.274072 
3335.000000	64.262652 
3334.000000	64.257121 
3333.000000	64.256978 
3332.000000	64.260721 
3331.000000	64.266324 
3330.000000	64.272022 
3329.000000	64.276576 
3328.000000	64.279580 
3327.000000	64.281272 
3326.000000	64.282345 
3325.000000	64.283537 
3324.000000	64.285469 
3323.000000	64.288473 
3322.000000	64.292263 
3321.000000	64.296317 
3320.000000	64.299726 
3319.000000	64.301776 
3318.000000	64.302110 
3317.000000	64.300680 
3316.000000	64.298009 
3315.000000	64.294981 
3314.000000	64.292788 
3313.000000	64.292526 
3312.000000	64.295148 
3311.000000	64.301156 
3310.000000	64.310526 
3309.000000	64.322733 
3308.000000	64.336633 
3307.000000	64.350748 
3306.000000	64.363241 
3305.000000	64.372324 
3304.000000	64.376568 
3303.000000	64.374971 
3302.000000	64.367365 
3301.000000	64.354252 
3300.000000	64.336800 
3299.000000	64.316749 
3298.000000	64.296030 
3297.000000	64.276647 
3296.000000	64.260220 
3295.000000	64.248156 
3294.000000	64.241433 
3293.000000	64.240574 
3292.000000	64.245724 
3291.000000	64.256572 
3290.000000	64.272189 
3289.000000	64.291119 
3288.000000	64.311337 
3287.000000	64.330530 
3286.000000	64.346337 
3285.000000	64.356851 
3284.000000	64.360857 
3283.000000	64.358210 
3282.000000	64.349818 
3281.000000	64.337563 
3280.000000	64.323711 
3279.000000	64.310598 
3278.000000	64.299845 
3277.000000	64.292144 
3276.000000	64.287209 
3275.000000	64.283895 
3274.000000	64.280509 
3273.000000	64.275431 
3272.000000	64.267587 
3271.000000	64.256715 
3270.000000	64.243531 
3269.000000	64.229249 
3268.000000	64.215683 
3267.000000	64.204549 
3266.000000	64.197182 
3265.000000	64.194488 
3264.000000	64.196538 
3263.000000	64.202880 
3262.000000	64.212584 
3261.000000	64.224624 
3260.000000	64.237999 
3259.000000	64.251971 
3258.000000	64.266133 
3257.000000	64.280056 
3256.000000	64.293551 
3255.000000	64.306497 
3254.000000	64.318561 
3253.000000	64.329171 
3252.000000	64.337682 
3251.000000	64.343261 
3250.000000	64.345145 
3249.000000	64.342880 
3248.000000	64.336323 
3247.000000	64.325976 
3246.000000	64.312839 
3245.000000	64.298272 
3244.000000	64.283919 
3243.000000	64.271497 
3242.000000	64.262366 
3241.000000	64.257645 
3240.000000	64.257931 
3239.000000	64.263272 
3238.000000	64.273285 
3237.000000	64.287066 
3236.000000	64.303374 
3235.000000	64.320635 
3234.000000	64.337277 
3233.000000	64.351630 
3232.000000	64.362096 
3231.000000	64.367485 
3230.000000	64.367175 
3229.000000	64.361405 
3228.000000	64.350962 
3227.000000	64.337229 
3226.000000	64.321994 
3225.000000	64.306831 
3224.000000	64.292979 
3223.000000	64.280962 
3222.000000	64.270782 
3221.000000	64.262032 
3220.000000	64.254117 
3219.000000	64.246511 
3218.000000	64.239311 
3217.000000	64.232897 
3216.000000	64.228129 
3215.000000	64.225697 
3214.000000	64.226102 
3213.000000	64.229297 
3212.000000	64.234995 
3211.000000	64.242434 
3210.000000	64.251208 
3209.000000	64.261269 
3208.000000	64.273214 
3207.000000	64.288067 
3206.000000	64.306879 
3205.000000	64.330172 
3204.000000	64.357495 
3203.000000	64.387202 
3202.000000	64.416980 
3201.000000	64.444279 
3200.000000	64.467239 
3199.000000	64.484977 
3198.000000	64.497947 
3197.000000	64.507818 
3196.000000	64.516830 
3195.000000	64.526772 
3194.000000	64.538455 
3193.000000	64.550924 
3192.000000	64.562058 
3191.000000	64.568686 
3190.000000	64.567565 
3189.000000	64.556241 
3188.000000	64.534235 
3187.000000	64.503169 
3186.000000	64.466571 
3185.000000	64.429140 
3184.000000	64.395737 
3183.000000	64.370179 
3182.000000	64.354825 
3181.000000	64.349818 
3180.000000	64.353513 
3179.000000	64.362812 
3178.000000	64.374303 
3177.000000	64.384651 
3176.000000	64.391469 
3175.000000	64.393472 
3174.000000	64.390492 
3173.000000	64.383053 
3172.000000	64.372038 
3171.000000	64.358448 
3170.000000	64.343214 
3169.000000	64.327192 
3168.000000	64.311242 
3167.000000	64.296603 
3166.000000	64.284849 
3165.000000	64.277648 
3164.000000	64.276504 
3163.000000	64.282202 
3162.000000	64.294409 
3161.000000	64.311408 
3160.000000	64.330291 
3159.000000	64.347481 
3158.000000	64.359283 
3157.000000	64.362716 
3156.000000	64.356040 
3155.000000	64.338994 
3154.000000	64.313244 
3153.000000	64.281868 
3152.000000	64.248895 
3151.000000	64.218449 
3150.000000	64.194297 
3149.000000	64.179277 
3148.000000	64.174723 
3147.000000	64.180421 
3146.000000	64.194726 
3145.000000	64.215064 
3144.000000	64.238572 
3143.000000	64.262747 
3142.000000	64.285778 
3141.000000	64.306759 
3140.000000	64.325809 
3139.000000	64.343523 
3138.000000	64.360642 
3137.000000	64.377403 
3136.000000	64.393043 
3135.000000	64.405989 
3134.000000	64.414191 
3133.000000	64.415574 
3132.000000	64.408826 
3131.000000	64.393901 
3130.000000	64.372539 
3129.000000	64.347696 
3128.000000	64.323353 
3127.000000	64.303278 
3126.000000	64.290380 
3125.000000	64.286160 
3124.000000	64.290547 
3123.000000	64.302039 
3122.000000	64.318132 
3121.000000	64.335894 
3120.000000	64.352536 
3119.000000	64.365792 
3118.000000	64.374303 
3117.000000	64.377212 
3116.000000	64.374303 
3115.000000	64.365458 
3114.000000	64.350843 
3113.000000	64.330983 
3112.000000	64.307022 
3111.000000	64.280533 
3110.000000	64.253783 
3109.000000	64.229607 
3108.000000	64.210915 
3107.000000	64.200353 
3106.000000	64.199662 
3105.000000	64.209556 
3104.000000	64.229249 
3103.000000	64.256381 
3102.000000	64.287304 
3101.000000	64.317560 
3100.000000	64.342737 
3099.000000	64.358997 
3098.000000	64.364147 
3097.000000	64.357924 
3096.000000	64.342403 
3095.000000	64.321398 
3094.000000	64.299726 
3093.000000	64.282035 
3092.000000	64.271879 
3091.000000	64.270925 
3090.000000	64.278435 
3089.000000	64.291644 
3088.000000	64.306497 
3087.000000	64.318704 
3086.000000	64.324879 
3085.000000	64.323377 
3084.000000	64.314579 
3083.000000	64.300584 
3082.000000	64.284300 
3081.000000	64.268612 
3080.000000	64.255690 
3079.000000	64.246463 
3078.000000	64.240384 
3077.000000	64.236021 
3076.000000	64.232015 
3075.000000	64.227223 
3074.000000	64.221286 
3073.000000	64.214658 
3072.000000	64.208316 
3071.000000	64.203238 
3070.000000	64.200115 
3069.000000	64.198994 
3068.000000	64.199280 
3067.000000	64.200353 
3066.000000	64.201736 
3065.000000	64.203619 
3064.000000	64.206862 
3063.000000	64.212775 
3062.000000	64.222788 
3061.000000	64.237809 
3060.000000	64.257907 
3059.000000	64.282059 
3058.000000	64.308476 
3057.000000	64.334797 
3056.000000	64.359116 
3055.000000	64.380168 
3054.000000	64.397811 
3053.000000	64.412784 
3052.000000	64.426326 
3051.000000	64.439773 
3050.000000	64.453935 
3049.000000	64.468860 
3048.000000	64.483833 
3047.000000	64.497661 
3046.000000	64.508986 
3045.000000	64.517092 
3044.000000	64.521646 
3043.000000	64.523077 
3042.000000	64.521932 
3041.000000	64.518737 
3040.000000	64.513587 
3039.000000	64.506149 
3038.000000	64.495730 
3037.000000	64.481592 
3036.000000	64.463520 
3035.000000	64.442062 
3034.000000	64.418673 
3033.000000	64.395403 
3032.000000	64.374589 
3031.000000	64.358067 
3030.000000	64.346790 
3029.000000	64.340472 
3028.000000	64.337897 
3027.000000	64.337277 
3026.000000	64.336729 
3025.000000	64.334964 
3024.000000	64.331841 
3023.000000	64.328145 
3022.000000	64.325189 
3021.000000	64.324522 
3020.000000	64.327263 
3019.000000	64.333629 
3018.000000	64.342641 
3017.000000	64.352345 
3016.000000	64.360380 
3015.000000	64.364504 
3014.000000	64.363288 
3013.000000	64.356422 
3012.000000	64.344906 
3011.000000	64.330673 
3010.000000	64.316248 
3009.000000	64.303994 
3008.000000	64.295578 
3007.000000	64.291763 
3006.000000	64.292216 
3005.000000	64.295816 
3004.000000	64.300942 
3003.000000	64.306092 
3002.000000	64.310097 
3001.000000	64.312410 
3000.000000	64.313101 
2999.000000	64.312314 
2998.000000	64.310479 
2997.000000	64.307594 
2996.000000	64.303517 
2995.000000	64.297556 
2994.000000	64.289140 
2993.000000	64.277982 
2992.000000	64.264321 
2991.000000	64.248943 
2990.000000	64.233326 
2989.000000	64.219307 
2988.000000	64.208674 
2987.000000	64.202690 
2986.000000	64.202046 
2985.000000	64.206409 
2984.000000	64.214777 
2983.000000	64.225482 
2982.000000	64.236640 
2981.000000	64.246273 
2980.000000	64.252972 
2979.000000	64.255571 
2978.000000	64.253258 
2977.000000	64.245271 
2976.000000	64.231348 
2975.000000	64.211297 
2974.000000	64.185094 
2973.000000	64.153027 
2972.000000	64.116024 
2971.000000	64.075493 
2970.000000	64.033532 
2969.000000	63.992476 
2968.000000	63.954687 
2967.000000	63.922286 
2966.000000	63.896536 
2965.000000	63.877749 
2964.000000	63.865184 
2963.000000	63.857460 
2962.000000	63.852691 
2961.000000	63.849186 
2960.000000	63.845658 
2959.000000	63.841438 
2958.000000	63.836455 
2957.000000	63.831496 
2956.000000	63.827705 
2955.000000	63.826632 
2954.000000	63.829994 
2953.000000	63.839340 
2952.000000	63.855814 
2951.000000	63.879871 
2950.000000	63.910961 
2949.000000	63.947725 
2948.000000	63.987779 
2947.000000	64.027810 
2946.000000	64.064145 
2945.000000	64.093255 
2944.000000	64.112448 
2943.000000	64.120244 
2942.000000	64.116549 
2941.000000	64.102911 
2940.000000	64.081978 
2939.000000	64.056658 
2938.000000	64.030194 
2937.000000	64.005398 
2936.000000	63.984847 
2935.000000	63.970613 
2934.000000	63.964271 
2933.000000	63.966917 
2932.000000	63.978719 
2931.000000	63.998556 
2930.000000	64.024019 
2929.000000	64.051604 
2928.000000	64.077591 
2927.000000	64.098691 
2926.000000	64.113116 
2925.000000	64.120769 
2924.000000	64.123773 
2923.000000	64.125466 
2922.000000	64.129757 
2921.000000	64.139819 
2920.000000	64.157223 
2919.000000	64.181065 
2918.000000	64.208459 
2917.000000	64.234948 
2916.000000	64.255905 
2915.000000	64.267468 
2914.000000	64.267849 
2913.000000	64.257335 
2912.000000	64.238381 
2911.000000	64.214706 
2910.000000	64.190101 
2909.000000	64.167737 
2908.000000	64.149355 
2907.000000	64.135217 
2906.000000	64.124655 
2905.000000	64.116311 
2904.000000	64.109015 
2903.000000	64.102315 
2902.000000	64.096546 
2901.000000	64.092850 
2900.000000	64.092659 
2899.000000	64.096975 
2898.000000	64.105844 
2897.000000	64.118409 
2896.000000	64.132881 
2895.000000	64.146709 
2894.000000	64.157629 
2893.000000	64.164304 
2892.000000	64.166688 
2891.000000	64.165711 
2890.000000	64.163303 
2889.000000	64.161634 
2888.000000	64.162397 
2887.000000	64.166212 
2886.000000	64.172673 
2885.000000	64.180231 
2884.000000	64.186954 
2883.000000	64.191055 
2882.000000	64.191198 
2881.000000	64.187145 
2880.000000	64.179491 
2879.000000	64.169597 
2878.000000	64.158821 
2877.000000	64.148068 
2876.000000	64.137744 
2875.000000	64.127683 
2874.000000	64.117383 
2873.000000	64.106297 
2872.000000	64.094328 
2871.000000	64.081907 
2870.000000	64.069700 
2869.000000	64.058542 
2868.000000	64.048838 
2867.000000	64.040684 
2866.000000	64.033436 
2865.000000	64.026188 
2864.000000	64.017963 
2863.000000	64.008283 
2862.000000	63.997340 
2861.000000	63.986158 
2860.000000	63.976311 
2859.000000	63.969612 
2858.000000	63.967704 
2857.000000	63.971543 
2856.000000	63.981318 
2855.000000	63.996505 
2854.000000	64.015936 
2853.000000	64.038324 
2852.000000	64.062333 
2851.000000	64.086723 
2850.000000	64.110350 
2849.000000	64.132022 
2848.000000	64.150524 
2847.000000	64.164710 
2846.000000	64.173769 
2845.000000	64.177322 
2844.000000	64.175653 
2843.000000	64.169716 
2842.000000	64.160871 
2841.000000	64.150857 
2840.000000	64.141345 
2839.000000	64.133739 
2838.000000	64.129042 
2837.000000	64.127564 
2836.000000	64.129471 
2835.000000	64.134430 
2834.000000	64.142155 
2833.000000	64.152288 
2832.000000	64.164471 
2831.000000	64.178395 
2830.000000	64.193606 
2829.000000	64.209389 
2828.000000	64.224958 
2827.000000	64.239501 
2826.000000	64.252305 
2825.000000	64.263105 
2824.000000	64.271593 
2823.000000	64.277720 
2822.000000	64.281392 
2821.000000	64.282464 
2820.000000	64.280700 
2819.000000	64.275717 
2818.000000	64.267277 
2817.000000	64.255166 
2816.000000	64.239668 
2815.000000	64.221262 
2814.000000	64.200949 
2813.000000	64.179968 
2812.000000	64.159631 
2811.000000	64.141154 
2810.000000	64.125370 
2809.000000	64.112758 
2808.000000	64.103245 
2807.000000	64.096331 
2806.000000	64.091253 
2805.000000	64.087271 
2804.000000	64.083957 
2803.000000	64.081287 
2802.000000	64.079594 
2801.000000	64.079761 
2800.000000	64.083003 
2799.000000	64.090585 
2798.000000	64.103317 
2797.000000	64.121460 
2796.000000	64.144492 
2795.000000	64.171123 
2794.000000	64.199495 
2793.000000	64.227342 
2792.000000	64.252543 
2791.000000	64.273333 
2790.000000	64.288640 
2789.000000	64.298129 
2788.000000	64.302301 
2787.000000	64.302015 
2786.000000	64.298510 
2785.000000	64.293074 
2784.000000	64.286708 
2783.000000	64.280581 
2782.000000	64.275288 
2781.000000	64.271569 
2780.000000	64.269685 
2779.000000	64.270091 
2778.000000	64.272737 
2777.000000	64.277029 
2776.000000	64.281940 
2775.000000	64.285993 
2774.000000	64.287543 
2773.000000	64.285302 
2772.000000	64.278602 
2771.000000	64.267659 
2770.000000	64.253640 
2769.000000	64.238381 
2768.000000	64.224076 
2767.000000	64.212512 
2766.000000	64.204740 
2765.000000	64.200663 
2764.000000	64.199209 
2763.000000	64.198398 
2762.000000	64.195990 
2761.000000	64.190220 
2760.000000	64.180016 
2759.000000	64.165616 
2758.000000	64.148473 
2757.000000	64.130854 
2756.000000	64.115381 
2755.000000	64.104652 
2754.000000	64.100313 
2753.000000	64.103198 
2752.000000	64.113068 
2751.000000	64.128756 
2750.000000	64.148426 
2749.000000	64.169859 
2748.000000	64.191031 
2747.000000	64.210033 
2746.000000	64.225077 
2745.000000	64.234828 
2744.000000	64.238405 
2743.000000	64.235329 
2742.000000	64.225697 
2741.000000	64.210343 
2740.000000	64.190816 
2739.000000	64.169311 
2738.000000	64.148473 
2737.000000	64.131021 
2736.000000	64.119315 
2735.000000	64.114737 
2734.000000	64.117503 
2733.000000	64.126777 
2732.000000	64.140772 
2731.000000	64.157080 
2730.000000	64.173460 
2729.000000	64.188194 
2728.000000	64.200305 
2727.000000	64.209556 
2726.000000	64.216399 
2725.000000	64.221549 
2724.000000	64.225792 
2723.000000	64.229726 
2722.000000	64.233517 
2721.000000	64.237117 
2720.000000	64.240169 
2719.000000	64.242577 
2718.000000	64.244079 
2717.000000	64.244580 
2716.000000	64.243912 
2715.000000	64.241909 
2714.000000	64.238405 
2713.000000	64.233064 
2712.000000	64.225745 
2711.000000	64.216589 
2710.000000	64.206361 
2709.000000	64.196372 
2708.000000	64.188027 
2707.000000	64.182877 
2706.000000	64.181923 
2705.000000	64.185953 
2704.000000	64.194750 
2703.000000	64.207530 
2702.000000	64.222788 
2701.000000	64.238667 
2700.000000	64.253330 
2699.000000	64.264941 
2698.000000	64.272117 
2697.000000	64.273953 
2696.000000	64.270210 
2695.000000	64.261341 
2694.000000	64.248418 
2693.000000	64.232969 
2692.000000	64.216756 
2691.000000	64.201498 
2690.000000	64.188838 
2689.000000	64.179825 
2688.000000	64.174914 
2687.000000	64.174032 
2686.000000	64.176654 
2685.000000	64.182233 
2684.000000	64.190244 
2683.000000	64.200472 
2682.000000	64.212822 
2681.000000	64.226913 
2680.000000	64.241790 
2679.000000	64.255928 
2678.000000	64.267110 
2677.000000	64.272928 
2676.000000	64.271116 
2675.000000	64.260220 
2674.000000	64.240121 
2673.000000	64.212203 
2672.000000	64.179205 
2671.000000	64.144897 
2670.000000	64.113259 
2669.000000	64.088058 
2668.000000	64.072060 
2667.000000	64.066457 
2666.000000	64.070940 
2665.000000	64.083909 
2664.000000	64.102816 
2663.000000	64.124679 
2662.000000	64.146566 
2661.000000	64.166069 
2660.000000	64.181590 
2659.000000	64.192533 
2658.000000	64.199495 
2657.000000	64.203786 
2656.000000	64.207553 
2655.000000	64.212894 
2654.000000	64.221549 
2653.000000	64.234328 
2652.000000	64.250946 
2651.000000	64.269828 
2650.000000	64.288663 
2649.000000	64.304614 
2648.000000	64.315533 
2647.000000	64.319729 
2646.000000	64.316797 
2645.000000	64.307308 
2644.000000	64.292955 
2643.000000	64.275741 
2642.000000	64.257645 
2641.000000	64.240121 
2640.000000	64.224100 
2639.000000	64.209818 
2638.000000	64.196968 
2637.000000	64.185094 
2636.000000	64.173936 
2635.000000	64.163255 
2634.000000	64.152979 
2633.000000	64.143013 
2632.000000	64.133143 
2631.000000	64.123153 
2630.000000	64.112830 
2629.000000	64.101910 
2628.000000	64.090514 
2627.000000	64.079046 
2626.000000	64.068484 
2625.000000	64.059877 
2624.000000	64.054584 
2623.000000	64.053869 
2622.000000	64.058637 
2621.000000	64.069294 
2620.000000	64.085412 
2619.000000	64.106011 
2618.000000	64.129447 
2617.000000	64.153695 
2616.000000	64.176535 
2615.000000	64.195775 
2614.000000	64.209604 
2613.000000	64.216852 
2612.000000	64.217162 
2611.000000	64.211034 
2610.000000	64.199781 
2609.000000	64.185380 
2608.000000	64.170098 
2607.000000	64.156055 
2606.000000	64.144968 
2605.000000	64.138007 
2604.000000	64.135575 
2603.000000	64.137268 
2602.000000	64.142370 
2601.000000	64.149522 
2600.000000	64.157295 
2599.000000	64.164090 
2598.000000	64.168167 
2597.000000	64.168119 
2596.000000	64.162731 
2595.000000	64.151573 
2594.000000	64.134740 
2593.000000	64.113402 
2592.000000	64.089846 
2591.000000	64.067125 
2590.000000	64.048695 
2589.000000	64.037728 
2588.000000	64.036464 
2587.000000	64.045548 
2586.000000	64.063835 
2585.000000	64.088654 
2584.000000	64.116144 
2583.000000	64.142251 
2582.000000	64.163351 
2581.000000	64.177155 
2580.000000	64.183092 
2579.000000	64.182138 
2578.000000	64.176440 
2577.000000	64.168596 
2576.000000	64.160919 
2575.000000	64.154934 
2574.000000	64.151000 
2573.000000	64.148449 
2572.000000	64.145731 
2571.000000	64.141368 
2570.000000	64.133906 
2569.000000	64.122653 
2568.000000	64.107728 
2567.000000	64.089775 
2566.000000	64.070272 
2565.000000	64.050745 
2564.000000	64.033246 
2563.000000	64.019560 
2562.000000	64.011240 
2561.000000	64.009499 
2560.000000	64.014887 
2559.000000	64.027404 
2558.000000	64.046168 
2557.000000	64.069509 
2556.000000	64.095115 
2555.000000	64.120244 
2554.000000	64.142346 
2553.000000	64.159321 
2552.000000	64.169979 
2551.000000	64.174056 
2550.000000	64.172244 
2549.000000	64.165735 
2548.000000	64.156270 
2547.000000	64.145374 
2546.000000	64.134383 
2545.000000	64.123988 
2544.000000	64.114594 
2543.000000	64.106249 
2542.000000	64.098644 
2541.000000	64.091467 
2540.000000	64.084339 
2539.000000	64.077162 
2538.000000	64.070081 
2537.000000	64.063620 
2536.000000	64.058494 
2535.000000	64.055538 
2534.000000	64.055371 
2533.000000	64.058446 
2532.000000	64.064693 
2531.000000	64.073419 
2530.000000	64.083409 
2529.000000	64.093303 
2528.000000	64.101648 
2527.000000	64.107537 
2526.000000	64.110851 
2525.000000	64.112329 
2524.000000	64.113497 
2523.000000	64.116239 
2522.000000	64.122414 
2521.000000	64.133238 
2520.000000	64.148879 
2519.000000	64.168381 
2518.000000	64.189553 
2517.000000	64.209675 
2516.000000	64.225840 
2515.000000	64.235520 
2514.000000	64.237141 
2513.000000	64.230179 
2512.000000	64.215397 
2511.000000	64.194488 
2510.000000	64.169907 
2509.000000	64.144325 
2508.000000	64.120221 
2507.000000	64.099526 
2506.000000	64.083528 
2505.000000	64.072871 
2504.000000	64.067244 
2503.000000	64.065837 
2502.000000	64.067244 
2501.000000	64.070057 
2500.000000	64.073038 
2499.000000	64.075493 
2498.000000	64.077472 
2497.000000	64.079546 
2496.000000	64.082908 
2495.000000	64.088726 
2494.000000	64.097952 
2493.000000	64.110684 
2492.000000	64.126133 
2491.000000	64.142513 
2490.000000	64.157414 
2489.000000	64.168000 
2488.000000	64.171838 
2487.000000	64.167284 
2486.000000	64.153957 
2485.000000	64.133048 
2484.000000	64.107298 
2483.000000	64.080476 
2482.000000	64.056730 
2481.000000	64.039897 
2480.000000	64.032697 
2479.000000	64.036297 
2478.000000	64.050292 
2477.000000	64.072489 
2476.000000	64.099526 
2475.000000	64.127588 
2474.000000	64.153218 
2473.000000	64.173960 
2472.000000	64.188742 
2471.000000	64.197993 
2470.000000	64.203071 
2469.000000	64.205884 
2468.000000	64.208245 
2467.000000	64.211344 
2466.000000	64.215421 
2465.000000	64.220094 
2464.000000	64.224410 
2463.000000	64.227509 
2462.000000	64.228630 
2461.000000	64.227533 
2460.000000	64.224290 
2459.000000	64.219141 
2458.000000	64.212441 
2457.000000	64.204382 
2456.000000	64.195156 
2455.000000	64.184880 
2454.000000	64.173913 
2453.000000	64.162898 
2452.000000	64.152693 
2451.000000	64.144420 
2450.000000	64.138889 
2449.000000	64.136290 
2448.000000	64.136075 
2447.000000	64.136934 
2446.000000	64.137268 
2445.000000	64.135432 
2444.000000	64.130401 
2443.000000	64.121842 
2442.000000	64.110326 
2441.000000	64.097189 
2440.000000	64.083862 
2439.000000	64.071631 
2438.000000	64.061331 
2437.000000	64.053344 
2436.000000	64.047479 
2435.000000	64.043641 
2434.000000	64.041781 
2433.000000	64.042258 
2432.000000	64.045786 
2431.000000	64.053201 
2430.000000	64.064931 
2429.000000	64.081025 
2428.000000	64.100623 
2427.000000	64.122104 
2426.000000	64.143371 
2425.000000	64.162254 
2424.000000	64.176988 
2423.000000	64.186429 
2422.000000	64.190125 
2421.000000	64.188361 
2420.000000	64.181780 
2419.000000	64.171266 
2418.000000	64.157748 
2417.000000	64.142203 
2416.000000	64.125537 
2415.000000	64.108657 
2414.000000	64.092516 
2413.000000	64.077925 
2412.000000	64.065551 
2411.000000	64.055728 
2410.000000	64.048361 
2409.000000	64.042878 
2408.000000	64.038443 
2407.000000	64.034104 
2406.000000	64.029407 
2405.000000	64.024424 
2404.000000	64.019799 
2403.000000	64.016795 
2402.000000	64.016699 
2401.000000	64.020586 
2400.000000	64.028549 
2399.000000	64.039802 
2398.000000	64.052462 
2397.000000	64.064097 
2396.000000	64.072251 
2395.000000	64.075040 
2394.000000	64.071798 
2393.000000	64.063143 
2392.000000	64.050960 
2391.000000	64.037895 
2390.000000	64.026594 
2389.000000	64.019250 
2388.000000	64.016914 
2387.000000	64.019227 
2386.000000	64.024734 
2385.000000	64.031314 
2384.000000	64.036655 
2383.000000	64.038681 
2382.000000	64.036226 
2381.000000	64.029026 
2380.000000	64.017605 
2379.000000	64.003252 
2378.000000	63.987398 
2377.000000	63.971638 
2376.000000	63.957238 
2375.000000	63.945317 
2374.000000	63.936567 
2373.000000	63.931274 
2372.000000	63.929653 
2371.000000	63.931655 
2370.000000	63.936948 
2369.000000	63.945317 
2368.000000	63.956284 
2367.000000	63.969492 
2366.000000	63.984560 
2365.000000	64.001059 
2364.000000	64.018583 
2363.000000	64.036583 
2362.000000	64.054369 
2361.000000	64.071035 
2360.000000	64.085483 
2359.000000	64.096689 
2358.000000	64.103794 
2357.000000	64.106416 
2356.000000	64.104723 
2355.000000	64.099693 
2354.000000	64.092683 
2353.000000	64.085435 
2352.000000	64.079284 
2351.000000	64.075279 
2350.000000	64.073538 
2349.000000	64.073419 
2348.000000	64.073777 
2347.000000	64.073204 
2346.000000	64.070487 
2345.000000	64.064669 
2344.000000	64.055633 
2343.000000	64.043951 
2342.000000	64.030838 
2341.000000	64.017748 
2340.000000	64.006423 
2339.000000	63.998222 
2338.000000	63.994264 
2337.000000	63.995075 
2336.000000	64.000606 
2335.000000	64.010357 
2334.000000	64.023566 
2333.000000	64.039278 
2332.000000	64.056396 
2331.000000	64.073729 
2330.000000	64.090228 
2329.000000	64.104914 
2328.000000	64.117002 
2327.000000	64.125704 
2326.000000	64.130735 
2325.000000	64.131975 
2324.000000	64.129781 
2323.000000	64.124798 
2322.000000	64.118051 
2321.000000	64.110636 
2320.000000	64.103841 
2319.000000	64.098834 
2318.000000	64.096403 
2317.000000	64.097023 
2316.000000	64.100766 
2315.000000	64.107275 
2314.000000	64.115786 
2313.000000	64.125370 
2312.000000	64.134907 
2311.000000	64.143180 
2310.000000	64.148998 
2309.000000	64.151287 
2308.000000	64.149212 
2307.000000	64.142274 
2306.000000	64.130473 
2305.000000	64.114379 
2304.000000	64.095115 
2303.000000	64.074182 
2302.000000	64.053368 
2301.000000	64.034414 
2300.000000	64.018917 
2299.000000	64.008188 
2298.000000	64.002966 
2297.000000	64.003324 
2296.000000	64.008665 
2295.000000	64.017891 
2294.000000	64.029574 
2293.000000	64.042043 
2292.000000	64.053726 
2291.000000	64.063239 
2290.000000	64.069890 
2289.000000	64.073538 
2288.000000	64.074611 
2287.000000	64.073824 
2286.000000	64.072275 
2285.000000	64.070868 
2284.000000	64.070153 
2283.000000	64.070272 
2282.000000	64.071059 
2281.000000	64.071965 
2280.000000	64.072442 
2279.000000	64.072203 
2278.000000	64.071321 
2277.000000	64.070129 
2276.000000	64.069223 
2275.000000	64.069056 
2274.000000	64.069843 
2273.000000	64.071297 
2272.000000	64.072775 
2271.000000	64.073467 
2270.000000	64.072680 
2269.000000	64.070248 
2268.000000	64.066433 
2267.000000	64.062237 
2266.000000	64.059185 
2265.000000	64.058876 
2264.000000	64.062547 
2263.000000	64.070653 
2262.000000	64.082837 
2261.000000	64.097499 
2260.000000	64.112401 
2259.000000	64.124846 
2258.000000	64.132452 
2257.000000	64.133572 
2256.000000	64.127612 
2255.000000	64.115142 
2254.000000	64.097833 
2253.000000	64.077925 
2252.000000	64.057636 
2251.000000	64.038920 
2250.000000	64.022850 
2249.000000	64.009594 
2248.000000	63.998556 
2247.000000	63.988637 
2246.000000	63.978743 
2245.000000	63.968110 
2244.000000	63.956809 
2243.000000	63.945364 
2242.000000	63.935065 
2241.000000	63.927340 
2240.000000	63.923764 
2239.000000	63.925170 
2238.000000	63.931965 
2237.000000	63.943839 
2236.000000	63.959980 
2235.000000	63.978958 
2234.000000	63.999199 
2233.000000	64.019107 
2232.000000	64.037227 
2231.000000	64.052319 
2230.000000	64.063596 
2229.000000	64.070653 
2228.000000	64.073514 
2227.000000	64.072537 
2226.000000	64.068341 
2225.000000	64.061594 
2224.000000	64.053106 
2223.000000	64.043498 
2222.000000	64.033293 
2221.000000	64.022779 
2220.000000	64.012360 
2219.000000	64.002275 
2218.000000	63.992786 
2217.000000	63.984107 
2216.000000	63.976383 
2215.000000	63.969707 
2214.000000	63.963794 
2213.000000	63.958096 
2212.000000	63.951873 
2211.000000	63.944292 
2210.000000	63.934612 
2209.000000	63.922500 
2208.000000	63.908100 
2207.000000	63.891983 
2206.000000	63.875150 
2205.000000	63.858795 
2204.000000	63.844060 
2203.000000	63.831710 
2202.000000	63.822293 
2201.000000	63.815903 
2200.000000	63.812184 
2199.000000	63.810586 
2198.000000	63.810467 
2197.000000	63.811087 
2196.000000	63.812065 
2195.000000	63.813042 
2194.000000	63.814067 
2193.000000	63.815331 
2192.000000	63.817358 
2191.000000	63.820648 
2190.000000	63.825678 
2189.000000	63.832926 
2188.000000	63.842463 
2187.000000	63.853883 
2186.000000	63.866257 
2185.000000	63.878393 
2184.000000	63.888835 
2183.000000	63.896179 
2182.000000	63.899445 
2181.000000	63.898348 
2180.000000	63.893461 
2179.000000	63.886022 
2178.000000	63.877773 
2177.000000	63.870620 
2176.000000	63.866043 
2175.000000	63.864779 
2174.000000	63.866782 
2173.000000	63.871145 
2172.000000	63.876485 
2171.000000	63.881254 
2170.000000	63.884258 
2169.000000	63.884854 
2168.000000	63.883090 
2167.000000	63.879847 
2166.000000	63.876199 
2165.000000	63.873386 
2164.000000	63.872432 
2163.000000	63.873982 
2162.000000	63.878178 
2161.000000	63.884687 
2160.000000	63.892960 
2159.000000	63.902306 
2158.000000	63.911962 
2157.000000	63.921236 
2156.000000	63.929629 
2155.000000	63.936734 
2154.000000	63.942146 
2153.000000	63.945794 
2152.000000	63.947701 
2151.000000	63.948202 
2150.000000	63.947749 
2149.000000	63.946866 
2148.000000	63.946032 
2147.000000	63.945531 
2146.000000	63.945364 
2145.000000	63.945150 
2144.000000	63.944268 
2143.000000	63.942027 
2142.000000	63.937878 
2141.000000	63.931465 
2140.000000	63.922834 
2139.000000	63.912439 
2138.000000	63.901066 
2137.000000	63.889694 
2136.000000	63.879370 
2135.000000	63.870978 
2134.000000	63.864946 
2133.000000	63.861370 
2132.000000	63.859891 
2131.000000	63.859796 
2130.000000	63.860201 
2129.000000	63.860201 
2128.000000	63.859105 
2127.000000	63.856458 
2126.000000	63.852190 
2125.000000	63.846492 
2124.000000	63.839817 
2123.000000	63.832712 
2122.000000	63.825678 
2121.000000	63.819074 
2120.000000	63.813114 
2119.000000	63.807892 
2118.000000	63.803505 
2117.000000	63.800168 
2116.000000	63.798141 
2115.000000	63.797760 
2114.000000	63.799262 
2113.000000	63.802576 
2112.000000	63.807439 
2111.000000	63.813328 
2110.000000	63.819527 
2109.000000	63.825535 
2108.000000	63.830971 
2107.000000	63.835763 
2106.000000	63.839960 
2105.000000	63.843798 
2104.000000	63.847541 
2103.000000	63.851404 
2102.000000	63.855600 
2101.000000	63.860368 
2100.000000	63.865947 
2099.000000	63.872432 
2098.000000	63.879847 
2097.000000	63.887834 
2096.000000	63.895821 
2095.000000	63.902878 
2094.000000	63.908076 
2093.000000	63.910508 
2092.000000	63.909530 
2091.000000	63.904929 
2090.000000	63.897013 
2089.000000	63.886451 
2088.000000	63.874363 
2087.000000	63.861775 
2086.000000	63.849639 
2085.000000	63.838672 
2084.000000	63.829302 
2083.000000	63.821840 
2082.000000	63.816452 
2081.000000	63.813209 
2080.000000	63.812065 
2079.000000	63.812851 
2078.000000	63.815212 
2077.000000	63.818311 
2076.000000	63.821148 
2075.000000	63.822460 
2074.000000	63.821196 
2073.000000	63.816523 
2072.000000	63.808393 
2071.000000	63.797497 
2070.000000	63.785266 
2069.000000	63.773465 
2068.000000	63.763928 
2067.000000	63.757967 
2066.000000	63.756370 
2065.000000	63.759136 
2064.000000	63.765907 
2063.000000	63.776183 
2062.000000	63.789558 
2061.000000	63.805699 
2060.000000	63.824415 
2059.000000	63.845014 
2058.000000	63.866400 
2057.000000	63.886880 
2056.000000	63.904285 
2055.000000	63.916397 
2054.000000	63.921451 
2053.000000	63.918447 
2052.000000	63.907432 
2051.000000	63.889360 
2050.000000	63.866209 
2049.000000	63.840293 
2048.000000	63.814115 
2047.000000	63.789725 
2046.000000	63.768720 
2045.000000	63.752150 
2044.000000	63.740587 
2043.000000	63.734269 
2042.000000	63.733220 
2041.000000	63.737082 
2040.000000	63.745403 
2039.000000	63.757205 
2038.000000	63.771319 
2037.000000	63.786411 
2036.000000	63.801193 
2035.000000	63.814568 
2034.000000	63.825893 
2033.000000	63.834643 
2032.000000	63.840579 
2031.000000	63.843464 
2030.000000	63.843011 
2029.000000	63.838863 
2028.000000	63.830804 
2027.000000	63.818860 
2026.000000	63.803553 
2025.000000	63.786077 
2024.000000	63.768100 
2023.000000	63.751745 
2022.000000	63.738965 
2021.000000	63.731241 
2020.000000	63.728976 
2019.000000	63.731694 
2018.000000	63.737893 
2017.000000	63.745450 
2016.000000	63.752222 
2015.000000	63.756608 
2014.000000	63.757562 
2013.000000	63.754916 
2012.000000	63.749194 
2011.000000	63.741374 
2010.000000	63.732528 
2009.000000	63.723659 
2008.000000	63.715410 
2007.000000	63.708257 
2006.000000	63.702464 
2005.000000	63.698339 
2004.000000	63.696265 
2003.000000	63.696837 
2002.000000	63.700580 
2001.000000	63.707947 
2000.000000	63.719129 
1999.000000	63.733625 
1998.000000	63.750576 
1997.000000	63.768506 
1996.000000	63.785624 
1995.000000	63.800168 
1994.000000	63.810443 
1993.000000	63.815188 
1992.000000	63.813781 
1991.000000	63.806462 
1990.000000	63.794231 
1989.000000	63.778853 
1988.000000	63.762569 
1987.000000	63.747763 
1986.000000	63.736701 
1985.000000	63.730907 
1984.000000	63.731217 
1983.000000	63.737535 
1982.000000	63.748812 
1981.000000	63.763427 
1980.000000	63.779354 
1979.000000	63.794541 
1978.000000	63.807249 
1977.000000	63.816213 
1976.000000	63.820791 
1975.000000	63.821053 
1974.000000	63.817572 
1973.000000	63.811254 
1972.000000	63.803100 
1971.000000	63.794088 
1970.000000	63.784766 
1969.000000	63.775682 
1968.000000	63.766765 
1967.000000	63.757872 
1966.000000	63.748598 
1965.000000	63.738560 
1964.000000	63.727712 
1963.000000	63.716292 
1962.000000	63.704967 
1961.000000	63.694715 
1960.000000	63.686633 
1959.000000	63.681578 
1958.000000	63.680124 
1957.000000	63.682365 
1956.000000	63.687920 
1955.000000	63.695931 
1954.000000	63.705205 
1953.000000	63.714408 
1952.000000	63.722229 
1951.000000	63.727450 
1950.000000	63.729119 
1949.000000	63.726735 
1948.000000	63.720607 
1947.000000	63.711476 
1946.000000	63.700795 
1945.000000	63.690114 
1944.000000	63.681030 
1943.000000	63.674569 
1942.000000	63.671255 
1941.000000	63.670659 
1940.000000	63.671565 
1939.000000	63.672542 
1938.000000	63.672018 
1937.000000	63.669157 
1936.000000	63.663840 
1935.000000	63.656997 
1934.000000	63.650202 
1933.000000	63.645219 
1932.000000	63.643264 
1931.000000	63.644790 
1930.000000	63.649153 
1929.000000	63.654828 
1928.000000	63.659811 
1927.000000	63.662409 
1926.000000	63.661575 
1925.000000	63.657093 
1924.000000	63.649821 
1923.000000	63.641071 
1922.000000	63.632512 
1921.000000	63.625645 
1920.000000	63.621377 
1919.000000	63.619971 
1918.000000	63.620972 
1917.000000	63.623499 
1916.000000	63.626337 
1915.000000	63.628506 
1914.000000	63.629269 
1913.000000	63.628482 
1912.000000	63.626408 
1911.000000	63.623833 
1910.000000	63.621520 
1909.000000	63.620090 
1908.000000	63.619995 
1907.000000	63.621520 
1906.000000	63.624739 
1905.000000	63.629579 
1904.000000	63.636112 
1903.000000	63.644361 
1902.000000	63.654136 
1901.000000	63.665080 
1900.000000	63.676428 
1899.000000	63.687157 
1898.000000	63.696050 
1897.000000	63.701987 
1896.000000	63.704204 
1895.000000	63.702392 
1894.000000	63.697075 
1893.000000	63.689231 
1892.000000	63.680171 
1891.000000	63.671350 
1890.000000	63.663673 
1889.000000	63.657617 
1888.000000	63.653111 
1887.000000	63.649725 
1886.000000	63.646936 
1885.000000	63.644385 
1884.000000	63.642144 
1883.000000	63.640522 
1882.000000	63.639998 
1881.000000	63.640809 
1880.000000	63.642716 
1879.000000	63.645029 
1878.000000	63.646626 
1877.000000	63.646411 
1876.000000	63.643383 
1875.000000	63.637208 
1874.000000	63.628411 
1873.000000	63.618111 
1872.000000	63.607978 
1871.000000	63.599801 
1870.000000	63.595032 
1869.000000	63.594484 
1868.000000	63.598227 
1867.000000	63.605690 
1866.000000	63.615846 
1865.000000	63.627576 
1864.000000	63.639998 
1863.000000	63.652515 
1862.000000	63.664913 
1861.000000	63.677310 
1860.000000	63.689899 
1859.000000	63.702678 
1858.000000	63.715386 
1857.000000	63.727378 
1856.000000	63.737797 
1855.000000	63.745594 
1854.000000	63.749504 
1853.000000	63.748717 
1852.000000	63.742589 
1851.000000	63.731169 
1850.000000	63.714981 
1849.000000	63.695120 
1848.000000	63.673257 
1847.000000	63.651394 
1846.000000	63.631749 
1845.000000	63.616204 
1844.000000	63.606286 
1843.000000	63.602685 
1842.000000	63.605165 
1841.000000	63.612747 
1840.000000	63.623642 
1839.000000	63.635945 
1838.000000	63.647556 
1837.000000	63.656926 
1836.000000	63.663148 
1835.000000	63.665938 
1834.000000	63.665604 
1833.000000	63.662767 
1832.000000	63.658261 
1831.000000	63.652801 
1830.000000	63.646721 
1829.000000	63.640189 
1828.000000	63.633322 
1827.000000	63.626217 
1826.000000	63.619232 
1825.000000	63.612627 
1824.000000	63.606905 
1823.000000	63.602423 
1822.000000	63.599419 
1821.000000	63.597989 
1820.000000	63.597893 
1819.000000	63.599014 
1818.000000	63.601040 
1817.000000	63.603615 
1816.000000	63.606429 
1815.000000	63.609170 
1814.000000	63.611459 
1813.000000	63.612890 
1812.000000	63.613033 
1811.000000	63.611626 
1810.000000	63.608503 
1809.000000	63.603734 
1808.000000	63.597512 
1807.000000	63.590312 
1806.000000	63.582587 
1805.000000	63.574767 
1804.000000	63.567256 
1803.000000	63.560271 
1802.000000	63.554072 
1801.000000	63.548851 
1800.000000	63.545060 
1799.000000	63.543272 
1798.000000	63.544178 
1797.000000	63.548207 
1796.000000	63.555431 
1795.000000	63.565254 
1794.000000	63.576316 
1793.000000	63.586640 
1792.000000	63.593864 
1791.000000	63.595867 
1790.000000	63.591265 
1789.000000	63.579821 
1788.000000	63.562655 
1787.000000	63.541913 
1786.000000	63.520598 
1785.000000	63.501715 
1784.000000	63.487672 
1783.000000	63.479566 
1782.000000	63.477396 
1781.000000	63.479876 
1780.000000	63.484811 
1779.000000	63.489890 
1778.000000	63.493251 
1777.000000	63.493919 
1776.000000	63.491725 
1775.000000	63.487577 
1774.000000	63.482999 
1773.000000	63.479495 
1772.000000	63.477993 
1771.000000	63.478684 
1770.000000	63.481092 
1769.000000	63.484001 
1768.000000	63.485646 
1767.000000	63.484477 
1766.000000	63.479518 
1765.000000	63.470196 
1764.000000	63.456439 
1763.000000	63.438820 
1762.000000	63.417935 
1761.000000	63.394594 
1760.000000	63.369131 
1759.000000	63.341712 
1758.000000	63.312101 
1757.000000	63.280391 
1756.000000	63.246750 
1755.000000	63.211679 
1754.000000	63.175845 
1753.000000	63.140439 
1752.000000	63.106417 
1751.000000	63.074040 
1750.000000	63.042902 
1749.000000	63.012146 
1748.000000	62.980175 
1747.000000	62.945246 
1746.000000	62.905693 
1745.000000	62.860751 
1744.000000	62.810373 
1743.000000	62.755250 
1742.000000	62.696933 
1741.000000	62.637448 
1740.000000	62.579035 
1739.000000	62.523865 
1738.000000	62.473821 
1737.000000	62.430953 
1736.000000	62.397098 
1735.000000	62.374401 
1734.000000	62.364435 
1733.000000	62.368679 
1732.000000	62.387681 
1731.000000	62.421154 
1730.000000	62.467122 
1729.000000	62.523221 
1728.000000	62.585902 
1727.000000	62.651991 
1726.000000	62.718558 
1725.000000	62.783789 
1724.000000	62.846350 
1723.000000	62.905812 
1722.000000	62.962102 
1721.000000	63.015270 
1720.000000	63.064765 
1719.000000	63.109660 
1718.000000	63.149023 
1717.000000	63.181686 
1716.000000	63.206768 
1715.000000	63.224148 
1714.000000	63.234758 
1713.000000	63.240075 
1712.000000	63.241910 
1711.000000	63.242292 
1710.000000	63.242888 
1709.000000	63.244581 
1708.000000	63.247132 
1707.000000	63.249731 
1706.000000	63.251423 
1705.000000	63.250923 
1704.000000	63.247513 
1703.000000	63.241362 
1702.000000	63.233709 
1701.000000	63.226532 
1700.000000	63.222646 
1699.000000	63.224434 
1698.000000	63.233447 
1697.000000	63.250184 
1696.000000	63.273310 
1695.000000	63.299846 
1694.000000	63.325858 
1693.000000	63.347482 
1692.000000	63.361620 
1691.000000	63.366365 
1690.000000	63.361597 
1689.000000	63.348889 
1688.000000	63.330912 
1687.000000	63.310766 
1686.000000	63.291501 
1685.000000	63.275504 
1684.000000	63.264226 
1683.000000	63.258123 
1682.000000	63.257169 
1681.000000	63.260841 
1680.000000	63.268661 
1679.000000	63.280081 
1678.000000	63.294458 
1677.000000	63.311004 
1676.000000	63.328528 
1675.000000	63.345575 
1674.000000	63.360619 
1673.000000	63.372254 
1672.000000	63.379430 
1671.000000	63.381695 
1670.000000	63.379287 
1669.000000	63.373017 
1668.000000	63.364100 
1667.000000	63.353872 
1666.000000	63.343596 
1665.000000	63.334369 
1664.000000	63.327097 
1663.000000	63.322305 
1662.000000	63.320517 
1661.000000	63.321924 
1660.000000	63.326644 
1659.000000	63.334608 
1658.000000	63.345384 
1657.000000	63.358354 
1656.000000	63.372492 
1655.000000	63.386464 
1654.000000	63.398957 
1653.000000	63.408899 
1652.000000	63.415551 
1651.000000	63.418579 
1650.000000	63.417983 
1649.000000	63.414287 
1648.000000	63.408136 
1647.000000	63.400292 
1646.000000	63.391256 
1645.000000	63.381290 
1644.000000	63.370347 
1643.000000	63.358259 
1642.000000	63.344883 
1641.000000	63.330149 
1640.000000	63.314723 
1639.000000	63.299751 
1638.000000	63.286948 
1637.000000	63.278174 
1636.000000	63.275003 
1635.000000	63.278293 
1634.000000	63.287758 
1633.000000	63.302016 
1632.000000	63.318800 
1631.000000	63.335299 
1630.000000	63.348889 
1629.000000	63.357925 
1628.000000	63.361954 
1627.000000	63.361883 
1626.000000	63.359713 
1625.000000	63.357615 
1624.000000	63.357520 
1623.000000	63.360142 
1622.000000	63.364982 
1621.000000	63.370180 
1620.000000	63.373351 
1619.000000	63.372063 
1618.000000	63.364911 
1617.000000	63.351655 
1616.000000	63.333702 
1615.000000	63.313627 
1614.000000	63.294386 
1613.000000	63.278841 
1612.000000	63.268780 
1611.000000	63.264775 
1610.000000	63.266062 
1609.000000	63.271188 
1608.000000	63.278388 
1607.000000	63.286209 
1606.000000	63.293981 
1605.000000	63.301563 
1604.000000	63.309383 
1603.000000	63.317608 
1602.000000	63.326334 
1601.000000	63.334941 
1600.000000	63.342523 
1599.000000	63.347983 
1598.000000	63.350343 
1597.000000	63.349294 
1596.000000	63.344979 
1595.000000	63.338351 
1594.000000	63.330578 
1593.000000	63.323116 
1592.000000	63.317012 
1591.000000	63.313031 
1590.000000	63.311147 
1589.000000	63.310909 
1588.000000	63.311219 
1587.000000	63.310933 
1586.000000	63.308930 
1585.000000	63.304352 
1584.000000	63.296771 
1583.000000	63.286137 
1582.000000	63.273048 
1581.000000	63.258528 
1580.000000	63.243937 
1579.000000	63.230991 
1578.000000	63.221216 
1577.000000	63.215947 
1576.000000	63.216042 
1575.000000	63.221669 
1574.000000	63.232684 
1573.000000	63.248062 
1572.000000	63.266539 
1571.000000	63.286328 
1570.000000	63.305473 
1569.000000	63.321971 
1568.000000	63.333845 
1567.000000	63.339638 
1566.000000	63.338851 
1565.000000	63.331627 
1564.000000	63.319110 
1563.000000	63.302993 
1562.000000	63.285326 
1561.000000	63.267850 
1560.000000	63.251972 
1559.000000	63.238191 
1558.000000	63.226246 
1557.000000	63.215208 
1556.000000	63.203978 
1555.000000	63.191699 
1554.000000	63.178110 
1553.000000	63.163733 
1552.000000	63.149714 
1551.000000	63.137626 
1550.000000	63.129067 
1549.000000	63.125109 
1548.000000	63.126087 
1547.000000	63.131785 
1546.000000	63.141131 
1545.000000	63.152885 
1544.000000	63.165473 
1543.000000	63.177418 
1542.000000	63.187575 
1541.000000	63.194656 
1540.000000	63.198161 
1539.000000	63.197731 
1538.000000	63.193893 
1537.000000	63.187527 
1536.000000	63.179993 
1535.000000	63.173127 
1534.000000	63.168668 
1533.000000	63.168144 
1532.000000	63.172483 
1531.000000	63.181805 
1530.000000	63.195490 
1529.000000	63.212180 
1528.000000	63.229846 
1527.000000	63.246345 
1526.000000	63.259744 
1525.000000	63.268780 
1524.000000	63.272857 
1523.000000	63.272166 
1522.000000	63.267683 
1521.000000	63.260817 
1520.000000	63.253164 
1519.000000	63.245964 
1518.000000	63.240170 
1517.000000	63.236045 
1516.000000	63.233494 
1515.000000	63.231801 
1514.000000	63.230013 
1513.000000	63.227057 
1512.000000	63.222312 
1511.000000	63.215231 
1510.000000	63.205671 
1509.000000	63.193845 
1508.000000	63.180184 
1507.000000	63.165378 
1506.000000	63.150167 
1505.000000	63.135671 
1504.000000	63.123059 
1503.000000	63.113927 
1502.000000	63.109827 
1501.000000	63.112401 
1500.000000	63.122916 
1499.000000	63.142061 
1498.000000	63.169431 
1497.000000	63.203406 
1496.000000	63.241219 
1495.000000	63.279199 
1494.000000	63.313198 
1493.000000	63.339495 
1492.000000	63.355302 
1491.000000	63.359379 
1490.000000	63.351750 
1489.000000	63.333773 
1488.000000	63.307595 
1487.000000	63.275790 
1486.000000	63.240885 
1485.000000	63.205361 
1484.000000	63.171410 
1483.000000	63.141274 
1482.000000	63.116860 
1481.000000	63.099575 
1480.000000	63.090205 
1479.000000	63.088750 
1478.000000	63.094210 
1477.000000	63.104724 
1476.000000	63.117623 
1475.000000	63.129878 
1474.000000	63.138699 
1473.000000	63.141870 
1472.000000	63.138151 
1471.000000	63.127422 
1470.000000	63.110971 
1469.000000	63.090825 
1468.000000	63.069510 
1467.000000	63.049387 
1466.000000	63.032102 
1465.000000	63.018226 
1464.000000	63.007426 
1463.000000	62.998437 
1462.000000	62.989735 
1461.000000	62.980151 
1460.000000	62.968945 
1459.000000	62.956690 
1458.000000	62.944674 
1457.000000	62.934947 
1456.000000	62.929511 
1455.000000	62.930107 
1454.000000	62.937140 
1453.000000	62.950015 
1452.000000	62.966823 
1451.000000	62.985181 
1450.000000	63.002467 
1449.000000	63.016676 
1448.000000	63.026809 
1447.000000	63.032960 
1446.000000	63.036108 
1445.000000	63.037776 
1444.000000	63.039469 
1443.000000	63.042640 
1442.000000	63.048100 
1441.000000	63.056254 
1440.000000	63.066792 
1439.000000	63.079142 
1438.000000	63.092327 
1437.000000	63.105392 
1436.000000	63.117289 
1435.000000	63.127160 
1434.000000	63.134241 
1433.000000	63.138008 
1432.000000	63.138270 
1431.000000	63.135099 
1430.000000	63.128900 
1429.000000	63.120150 
1428.000000	63.109588 
1427.000000	63.098216 
1426.000000	63.087010 
1425.000000	63.076853 
1424.000000	63.068556 
1423.000000	63.062763 
1422.000000	63.059973 
1421.000000	63.060402 
1420.000000	63.064217 
1419.000000	63.071393 
1418.000000	63.081574 
1417.000000	63.094139 
1416.000000	63.108277 
1415.000000	63.122963 
1414.000000	63.137173 
1413.000000	63.149809 
1412.000000	63.160085 
1411.000000	63.167667 
1410.000000	63.172602 
1409.000000	63.175249 
1408.000000	63.176369 
1407.000000	63.176465 
1406.000000	63.175773 
1405.000000	63.173723 
1404.000000	63.169002 
1403.000000	63.159966 
1402.000000	63.144659 
1401.000000	63.121914 
1400.000000	63.091588 
1399.000000	63.055109 
1398.000000	63.015437 
1397.000000	62.976670 
1396.000000	62.943100 
1395.000000	62.918162 
1394.000000	62.903976 
1393.000000	62.900471 
1392.000000	62.905478 
1391.000000	62.915325 
1390.000000	62.925815 
1389.000000	62.933230 
1388.000000	62.935256 
1387.000000	62.931370 
1386.000000	62.922906 
1385.000000	62.912249 
1384.000000	62.902140 
1383.000000	62.894535 
1382.000000	62.890267 
1381.000000	62.888455 
1380.000000	62.887191 
1379.000000	62.884116 
1378.000000	62.877225 
1377.000000	62.865662 
1376.000000	62.849998 
1375.000000	62.832093 
1374.000000	62.814879 
1373.000000	62.801289 
1372.000000	62.793827 
1371.000000	62.793660 
1370.000000	62.800765 
1369.000000	62.813830 
1368.000000	62.831115 
1367.000000	62.850689 
1366.000000	62.871003 
1365.000000	62.891030 
1364.000000	62.910509 
1363.000000	62.929630 
1362.000000	62.948775 
1361.000000	62.967944 
1360.000000	62.986826 
1359.000000	63.004851 
1358.000000	63.021183 
1357.000000	63.035058 
1356.000000	63.046097 
1355.000000	63.054084 
1354.000000	63.059329 
1353.000000	63.062024 
1352.000000	63.062667 
1351.000000	63.061404 
1350.000000	63.058018 
1349.000000	63.052010 
1348.000000	63.043069 
1347.000000	63.030672 
1346.000000	63.014698 
1345.000000	62.995362 
1344.000000	62.973165 
1343.000000	62.949228 
1342.000000	62.924933 
1341.000000	62.902140 
1340.000000	62.882661 
1339.000000	62.868547 
1338.000000	62.861728 
1337.000000	62.863564 
1336.000000	62.874531 
1335.000000	62.894010 
1334.000000	62.920141 
1333.000000	62.949848 
1332.000000	62.979221 
1331.000000	63.004326 
1330.000000	63.022065 
1329.000000	63.030576 
1328.000000	63.029932 
1327.000000	63.022160 
1326.000000	63.010764 
1325.000000	63.000011 
1324.000000	62.993645 
1323.000000	62.994432 
1322.000000	63.003087 
1321.000000	63.018488 
1320.000000	63.037633 
1319.000000	63.056683 
1318.000000	63.071560 
1317.000000	63.079094 
1316.000000	63.077306 
1315.000000	63.065934 
1314.000000	63.046169 
1313.000000	63.020348 
1312.000000	62.991499 
1311.000000	62.962508 
1310.000000	62.936043 
1309.000000	62.913894 
1308.000000	62.897157 
1307.000000	62.885999 
1306.000000	62.879586 
1305.000000	62.876653 
1304.000000	62.875628 
1303.000000	62.874913 
1302.000000	62.872838 
1301.000000	62.868309 
1300.000000	62.860870 
1299.000000	62.850809 
1298.000000	62.838840 
1297.000000	62.825942 
1296.000000	62.813186 
1295.000000	62.801504 
1294.000000	62.791204 
1293.000000	62.782454 
1292.000000	62.775087 
1291.000000	62.768864 
1290.000000	62.763810 
1289.000000	62.760210 
1288.000000	62.758421 
1287.000000	62.758827 
1286.000000	62.761354 
1285.000000	62.765526 
1284.000000	62.770318 
1283.000000	62.774205 
1282.000000	62.775635 
1281.000000	62.773132 
1280.000000	62.765598 
1279.000000	62.752890 
1278.000000	62.735676 
1277.000000	62.715291 
1276.000000	62.693405 
1275.000000	62.671923 
1274.000000	62.652349 
1273.000000	62.635850 
1272.000000	62.623023 
1271.000000	62.613987 
1270.000000	62.608647 
1269.000000	62.606668 
1268.000000	62.607789 
1267.000000	62.611699 
1266.000000	62.618064 
1265.000000	62.626242 
1264.000000	62.635612 
1263.000000	62.645149 
1262.000000	62.653851 
1261.000000	62.660598 
1260.000000	62.664580 
1259.000000	62.665390 
1258.000000	62.663006 
1257.000000	62.657761 
1256.000000	62.650442 
1255.000000	62.641882 
1254.000000	62.632894 
1253.000000	62.624073 
1252.000000	62.615823 
1251.000000	62.608337 
1250.000000	62.601613 
1249.000000	62.595224 
1248.000000	62.588787 
1247.000000	62.581634 
1246.000000	62.573027 
1245.000000	62.562274 
1244.000000	62.548780 
1243.000000	62.532567 
1242.000000	62.513875 
1241.000000	62.493848 
1240.000000	62.474036 
1239.000000	62.456536 
1238.000000	62.443399 
1237.000000	62.436509 
1236.000000	62.436771 
1235.000000	62.444233 
1234.000000	62.457966 
1233.000000	62.476348 
1232.000000	62.497091 
1231.000000	62.518262 
1230.000000	62.538361 
1229.000000	62.556576 
1228.000000	62.573122 
1227.000000	62.588739 
1226.000000	62.604379 
1225.000000	62.620949 
1224.000000	62.638926 
1223.000000	62.658071 
1222.000000	62.677407 
1221.000000	62.695860 
1220.000000	62.712216 
1219.000000	62.725734 
1218.000000	62.736177 
1217.000000	62.743902 
1216.000000	62.749409 
1215.000000	62.753391 
1214.000000	62.755846 
1213.000000	62.756490 
1212.000000	62.754392 
1211.000000	62.748694 
1210.000000	62.738704 
1209.000000	62.724423 
1208.000000	62.706708 
1207.000000	62.687325 
1206.000000	62.668609 
1205.000000	62.652873 
1204.000000	62.642192 
1203.000000	62.637972 
1202.000000	62.640690 
1201.000000	62.649679 
1200.000000	62.663698 
1199.000000	62.681126 
1198.000000	62.700080 
1197.000000	62.718701 
1196.000000	62.735319 
1195.000000	62.748670 
1194.000000	62.757563 
1193.000000	62.760853 
1192.000000	62.757611 
1191.000000	62.747120 
1190.000000	62.729191 
1189.000000	62.704014 
1188.000000	62.672781 
1187.000000	62.637114 
1186.000000	62.599635 
1185.000000	62.562918 
1184.000000	62.529277 
1183.000000	62.500166 
1182.000000	62.476325 
1181.000000	62.457108 
1180.000000	62.440943 
1179.000000	62.425756 
1178.000000	62.409448 
1177.000000	62.390446 
1176.000000	62.367939 
1175.000000	62.342047 
1174.000000	62.313818 
1173.000000	62.284755 
1172.000000	62.256598 
1171.000000	62.230753 
1170.000000	62.208151 
1169.000000	62.188887 
1168.000000	62.172913 
1167.000000	62.159633 
1166.000000	62.148904 
1165.000000	62.140703 
1164.000000	62.136054 
1163.000000	62.136125 
1162.000000	62.142825 
1161.000000	62.157630 
1160.000000	62.181711 
1159.000000	62.215065 
1158.000000	62.256598 
1157.000000	62.303853 
1156.000000	62.353706 
1155.000000	62.402677 
1154.000000	62.447619 
1153.000000	62.486219 
1152.000000	62.517452 
1151.000000	62.541699 
1150.000000	62.560081 
1149.000000	62.573909 
1148.000000	62.584209 
1147.000000	62.591433 
1146.000000	62.595248 
1145.000000	62.594580 
1144.000000	62.588500 
1143.000000	62.576746 
1142.000000	62.560224 
1141.000000	62.541079 
1140.000000	62.522745 
1139.000000	62.508749 
1138.000000	62.502193 
1137.000000	62.504458 
1136.000000	62.515139 
1135.000000	62.531757 
1134.000000	62.550806 
1133.000000	62.568330 
1132.000000	62.581157 
1131.000000	62.587547 
1130.000000	62.587094 
1129.000000	62.581086 
1128.000000	62.571501 
1127.000000	62.561035 
1126.000000	62.552380 
1125.000000	62.547612 
1124.000000	62.547826 
1123.000000	62.552857 
1122.000000	62.561488 
1121.000000	62.571358 
1120.000000	62.579655 
1119.000000	62.583875 
1118.000000	62.582564 
1117.000000	62.575364 
1116.000000	62.563085 
1115.000000	62.546920 
1114.000000	62.528204 
1113.000000	62.507724 
1112.000000	62.486147 
1111.000000	62.464118 
1110.000000	62.443017 
1109.000000	62.424969 
1108.000000	62.412738 
1107.000000	62.409186 
1106.000000	62.416768 
1105.000000	62.436318 
1104.000000	62.467145 
1103.000000	62.506628 
1102.000000	62.550711 
1101.000000	62.594652 
1100.000000	62.633657 
1099.000000	62.663650 
1098.000000	62.681794 
1097.000000	62.687158 
1096.000000	62.680292 
1095.000000	62.663006 
1094.000000	62.638163 
1093.000000	62.609124 
1092.000000	62.579202 
1091.000000	62.551021 
1090.000000	62.526535 
1089.000000	62.506556 
1088.000000	62.490892 
1087.000000	62.478613 
1086.000000	62.467861 
1085.000000	62.456917 
1084.000000	62.444019 
1083.000000	62.428402 
1082.000000	62.410163 
1081.000000	62.390780 
1080.000000	62.372279 
1079.000000	62.357616 
1078.000000	62.349510 
1077.000000	62.350368 
1076.000000	62.361502 
1075.000000	62.383389 
1074.000000	62.415075 
1073.000000	62.455153 
1072.000000	62.501692 
1071.000000	62.552690 
1070.000000	62.605929 
1069.000000	62.659096 
1068.000000	62.709546 
1067.000000	62.754130 
1066.000000	62.789344 
1065.000000	62.811541 
1064.000000	62.817692 
1063.000000	62.806105 
1062.000000	62.777066 
1061.000000	62.732839 
1060.000000	62.677550 
1059.000000	62.616991 
1058.000000	62.557530 
1057.000000	62.505245 
1056.000000	62.464714 
1055.000000	62.438654 
1054.000000	62.427449 
1053.000000	62.429451 
1052.000000	62.441349 
1051.000000	62.458801 
1050.000000	62.477731 
1049.000000	62.494778 
1048.000000	62.507891 
1047.000000	62.516140 
1046.000000	62.519693 
1045.000000	62.519311 
1044.000000	62.515974 
1043.000000	62.510156 
1042.000000	62.502264 
1041.000000	62.492632 
1040.000000	62.481474 
1039.000000	62.469458 
1038.000000	62.457561 
1037.000000	62.447309 
1036.000000	62.440180 
1035.000000	62.437486 
1034.000000	62.440180 
1033.000000	62.448763 
1032.000000	62.463045 
1031.000000	62.482070 
1030.000000	62.504196 
1029.000000	62.527394 
1028.000000	62.549567 
1027.000000	62.568902 
1026.000000	62.583518 
1025.000000	62.592029 
1024.000000	62.593674 
1023.000000	62.588262 
1022.000000	62.575936 
1021.000000	62.557125 
1020.000000	62.532854 
1019.000000	62.504434 
1018.000000	62.473797 
1017.000000	62.443208 
1016.000000	62.415218 
1015.000000	62.392330 
1014.000000	62.376666 
1013.000000	62.369489 
1012.000000	62.371087 
1011.000000	62.380361 
1010.000000	62.395048 
1009.000000	62.412023 
1008.000000	62.428069 
1007.000000	62.440299 
1006.000000	62.447166 
1005.000000	62.448382 
1004.000000	62.445497 
1003.000000	62.441134 
1002.000000	62.438774 
1001.000000	62.441539 
1000.000000	62.451529 
999.000000	 62.469482 
998.000000	 62.494397 
997.000000	 62.523770 
996.000000	 62.554168 
995.000000	 62.582182 
994.000000	 62.605261 
993.000000	 62.621998 
992.000000	 62.632679 
991.000000	 62.638950 
990.000000	 62.643432 
989.000000	 62.648940 
988.000000	 62.657666 
987.000000	 62.670803 
986.000000	 62.688255 
985.000000	 62.708687 
984.000000	 62.730050 
983.000000	 62.749981 
982.000000	 62.766385 
981.000000	 62.777876 
980.000000	 62.784028 
979.000000	 62.785100 
978.000000	 62.782001 
977.000000	 62.775468 
976.000000	 62.766218 
975.000000	 62.754344 
974.000000	 62.739658 
973.000000	 62.721586 
972.000000	 62.699604 
971.000000	 62.673544 
970.000000	 62.644147 
969.000000	 62.612915 
968.000000	 62.582111 
967.000000	 62.554335 
966.000000	 62.531852 
965.000000	 62.516307 
964.000000	 62.508177 
963.000000	 62.506461 
962.000000	 62.508893 
961.000000	 62.512516 
960.000000	 62.514281 
959.000000	 62.511634 
958.000000	 62.503123 
957.000000	 62.488484 
956.000000	 62.468695 
955.000000	 62.445402 
954.000000	 62.420678 
953.000000	 62.396526 
952.000000	 62.374830 
951.000000	 62.356877 
950.000000	 62.343811 
949.000000	 62.336635 
948.000000	 62.336492 
947.000000	 62.344527 
946.000000	 62.361574 
945.000000	 62.387800 
944.000000	 62.422227 
943.000000	 62.462496 
942.000000	 62.504959 
941.000000	 62.544918 
940.000000	 62.577748 
939.000000	 62.599539 
938.000000	 62.608313 
937.000000	 62.604212 
936.000000	 62.590026 
935.000000	 62.570381 
934.000000	 62.550926 
933.000000	 62.536740 
932.000000	 62.531542 
931.000000	 62.536692 
930.000000	 62.550830 
929.000000	 62.570643 
928.000000	 62.591505 
927.000000	 62.609004 
926.000000	 62.619924 
925.000000	 62.623214 
924.000000	 62.619996 
923.000000	 62.612915 
922.000000	 62.605047 
921.000000	 62.599086 
920.000000	 62.596344 
919.000000	 62.596487 
918.000000	 62.597703 
917.000000	 62.597489 
916.000000	 62.593650 
915.000000	 62.584900 
914.000000	 62.571549 
913.000000	 62.555170 
912.000000	 62.538170 
911.000000	 62.523317 
910.000000	 62.512826 
909.000000	 62.507987 
908.000000	 62.508559 
907.000000	 62.513279 
906.000000	 62.520146 
905.000000	 62.526988 
904.000000	 62.531900 
903.000000	 62.533354 
902.000000	 62.530398 
901.000000	 62.522459 
900.000000	 62.509655 
899.000000	 62.492489 
898.000000	 62.472128 
897.000000	 62.450408 
896.000000	 62.429523 
895.000000	 62.411928 
894.000000	 62.400031 
893.000000	 62.395668 
892.000000	 62.399911 
891.000000	 62.412667 
890.000000	 62.432694 
889.000000	 62.457585 
888.000000	 62.483930 
887.000000	 62.507820 
886.000000	 62.525224 
885.000000	 62.532782 
884.000000	 62.528562 
883.000000	 62.512397 
882.000000	 62.486577 
881.000000	 62.455010 
880.000000	 62.423062 
879.000000	 62.396311 
878.000000	 62.379693 
877.000000	 62.376356 
876.000000	 62.387037 
875.000000	 62.409996 
874.000000	 62.441396 
873.000000	 62.476658 
872.000000	 62.511467 
871.000000	 62.543010 
870.000000	 62.570357 
869.000000	 62.594318 
868.000000	 62.616586 
867.000000	 62.638664 
866.000000	 62.661075 
865.000000	 62.682628 
864.000000	 62.700724 
863.000000	 62.711834 
862.000000	 62.713027 
861.000000	 62.702274 
860.000000	 62.679696 
859.000000	 62.647247 
858.000000	 62.608551 
857.000000	 62.568044 
856.000000	 62.530136 
855.000000	 62.498116 
854.000000	 62.473607 
853.000000	 62.456607 
852.000000	 62.445735 
851.000000	 62.438917 
850.000000	 62.434053 
849.000000	 62.429475 
848.000000	 62.424468 
847.000000	 62.418889 
846.000000	 62.413263 
845.000000	 62.408280 
844.000000	 62.404584 
843.000000	 62.402558 
842.000000	 62.402272 
841.000000	 62.403416 
840.000000	 62.405419 
839.000000	 62.407636 
838.000000	 62.409257 
837.000000	 62.410092 
836.000000	 62.409639 
835.000000	 62.407517 
834.000000	 62.403106 
833.000000	 62.395405 
832.000000	 62.383484 
831.000000	 62.366414 
830.000000	 62.344288 
829.000000	 62.318468 
828.000000	 62.291741 
827.000000	 62.268042 
826.000000	 62.251234 
825.000000	 62.244296 
824.000000	 62.248253 
823.000000	 62.261962 
822.000000	 62.282156 
821.000000	 62.304258 
820.000000	 62.323737 
819.000000	 62.337279 
818.000000	 62.343716 
817.000000	 62.344336 
816.000000	 62.342262 
815.000000	 62.341451 
814.000000	 62.345576 
813.000000	 62.356615 
812.000000	 62.374377 
811.000000	 62.396168 
810.000000	 62.417721 
809.000000	 62.433886 
808.000000	 62.440514 
807.000000	 62.435269 
806.000000	 62.418556 
805.000000	 62.393403 
804.000000	 62.364602 
803.000000	 62.337851 
802.000000	 62.318229 
801.000000	 62.309360 
800.000000	 62.312746 
799.000000	 62.327718 
798.000000	 62.351679 
797.000000	 62.381076 
796.000000	 62.412238 
795.000000	 62.441825 
794.000000	 62.467217 
793.000000	 62.486624 
792.000000	 62.499046 
791.000000	 62.503814 
790.000000	 62.500643 
789.000000	 62.489652 
788.000000	 62.471413 
787.000000	 62.447428 
786.000000	 62.419700 
785.000000	 62.390947 
784.000000	 62.363529 
783.000000	 62.339234 
782.000000	 62.318611 
781.000000	 62.300872 
780.000000	 62.284374 
779.000000	 62.267136 
778.000000	 62.248086 
777.000000	 62.227225 
776.000000	 62.206649 
775.000000	 62.189769 
774.000000	 62.180757 
773.000000	 62.183141 
772.000000	 62.198567 
771.000000	 62.226176 
770.000000	 62.262487 
769.000000	 62.301993 
768.000000	 62.338805 
767.000000	 62.367868 
766.000000	 62.386393 
765.000000	 62.394189 
764.000000	 62.393498 
763.000000	 62.388181 
762.000000	 62.381982 
761.000000	 62.377762 
760.000000	 62.377023 
759.000000	 62.379670 
758.000000	 62.384510 
757.000000	 62.390041 
756.000000	 62.395191 
755.000000	 62.399649 
754.000000	 62.404108 
753.000000	 62.409567 
752.000000	 62.416839 
751.000000	 62.425947 
750.000000	 62.435913 
749.000000	 62.444806 
748.000000	 62.450218 
747.000000	 62.449932 
746.000000	 62.442803 
745.000000	 62.429118 
744.000000	 62.410783 
743.000000	 62.390780 
742.000000	 62.372422 
741.000000	 62.359023 
740.000000	 62.353014 
739.000000	 62.355256 
738.000000	 62.364554 
737.000000	 62.378406 
736.000000	 62.393045 
735.000000	 62.404108 
734.000000	 62.407636 
733.000000	 62.401247 
732.000000	 62.384581 
731.000000	 62.359333 
730.000000	 62.328886 
729.000000	 62.297511 
728.000000	 62.269449 
727.000000	 62.248063 
726.000000	 62.235069 
725.000000	 62.230849 
724.000000	 62.233901 
723.000000	 62.242031 
722.000000	 62.252092 
721.000000	 62.261033 
720.000000	 62.266039 
719.000000	 62.265014 
718.000000	 62.256407 
717.000000	 62.239289 
716.000000	 62.213349 
715.000000	 62.179112 
714.000000	 62.137556 
713.000000	 62.089991 
712.000000	 62.038230 
711.000000	 61.984324 
710.000000	 61.930394 
709.000000	 61.878395 
708.000000	 61.829757 
707.000000	 61.785745 
706.000000	 61.747074 
705.000000	 61.714434 
704.000000	 61.688113 
703.000000	 61.668419 
702.000000	 61.654996 
701.000000	 61.647653 
700.000000	 61.645507 
699.000000	 61.647772 
698.000000	 61.652994 
697.000000	 61.660289 
696.000000	 61.668825 
695.000000	 61.679124 
694.000000	 61.692237 
693.000000	 61.710643 
692.000000	 61.737155 
691.000000	 61.774063 
690.000000	 61.822175 
689.000000	 61.880064 
688.000000	 61.943960 
687.000000	 62.008070 
686.000000	 62.065410 
685.000000	 62.108898 
684.000000	 62.132716 
683.000000	 62.133121 
682.000000	 62.109780 
681.000000	 62.065625 
680.000000	 62.007212 
679.000000	 61.943650 
678.000000	 61.885190 
677.000000	 61.842679 
676.000000	 61.824178 
675.000000	 61.833930 
674.000000	 61.870646 
673.000000	 61.928224 
672.000000	 61.996769 
671.000000	 62.064576 
670.000000	 62.121391 
669.000000	 62.159943 
668.000000	 62.178635 
667.000000	 62.180995 
666.000000	 62.174868 
665.000000	 62.169814 
664.000000	 62.174129 
663.000000	 62.192153 
662.000000	 62.222528 
661.000000	 62.258267 
660.000000	 62.288522 
659.000000	 62.301659 
658.000000	 62.288165 
657.000000	 62.243795 
656.000000	 62.170910 
655.000000	 62.078833 
654.000000	 61.981272 
653.000000	 61.894059 
652.000000	 61.832046 
651.000000	 61.805486 
650.000000	 61.818552 
649.000000	 61.867976 
648.000000	 61.944055 
647.000000	 62.032580 
646.000000	 62.118124 
645.000000	 62.187099 
644.000000	 62.230038 
643.000000	 62.243628 
642.000000	 62.230443 
641.000000	 62.197709 
640.000000	 62.155222 
639.000000	 62.111997 
638.000000	 62.074446 
637.000000	 62.044858 
636.000000	 62.021780 
635.000000	 62.000656 
634.000000	 61.976242 
633.000000	 61.944365 
632.000000	 61.903905 
631.000000	 61.857366 
630.000000	 61.810374 
629.000000	 61.769938 
628.000000	 61.742424 
627.000000	 61.731386 
626.000000	 61.736774 
625.000000	 61.754894 
624.000000	 61.779642 
623.000000	 61.804127 
622.000000	 61.822843 
621.000000	 61.833047 
620.000000	 61.835289 
619.000000	 61.832475 
618.000000	 61.829280 
617.000000	 61.830997 
616.000000	 61.840987 
615.000000	 61.859440 
614.000000	 61.882948 
613.000000	 61.905455 
612.000000	 61.919569 
611.000000	 61.918878 
610.000000	 61.899781 
609.000000	 61.862707 
608.000000	 61.812996 
607.000000	 61.759924 
606.000000	 61.713838 
605.000000	 61.683773 
604.000000	 61.676025 
603.000000	 61.692762 
602.000000	 61.731386 
601.000000	 61.785364 
600.000000	 61.847424 
599.000000	 61.909484 
598.000000	 61.964416 
597.000000	 62.005376 
596.000000	 62.027001 
595.000000	 62.023925 
594.000000	 61.991882 
593.000000	 61.927413 
592.000000	 61.828017 
591.000000	 61.695027 
590.000000	 61.534595 
589.000000	 61.358737 
588.000000	 61.184239 
587.000000	 61.031055 
586.000000	 60.918545 
585.000000	 60.862374 
584.000000	 60.870862 
583.000000	 60.943698 
582.000000	 61.071562 
581.000000	 61.238598 
580.000000	 61.425828 
579.000000	 61.615371 
578.000000	 61.794257 
577.000000	 61.956715 
576.000000	 62.104296 
575.000000	 62.244701 
574.000000	 62.386655 
573.000000	 62.537598 
572.000000	 62.696814 
571.000000	 62.855648 
570.000000	 62.995052 
569.000000	 63.091564 
568.000000	 63.120937 
567.000000	 63.067030 
566.000000	 62.925767 
565.000000	 62.708854 
564.000000	 62.442636 
563.000000	 62.164020 
562.000000	 61.913037 
561.000000	 61.724877 
560.000000	 61.623048 
559.000000	 61.615252 
558.000000	 61.693096 
557.000000	 61.835432 
556.000000	 62.014293 
555.000000	 62.201523 
554.000000	 62.375044 
553.000000	 62.521815 
552.000000	 62.638735 
551.000000	 62.730097 
550.000000	 62.803483 
549.000000	 62.865114 
548.000000	 62.918233 
547.000000	 62.959957 
546.000000	 62.983036 
545.000000	 62.976312 
544.000000	 62.931203 
543.000000	 62.842345 
542.000000	 62.711262 
541.000000	 62.545680 
540.000000	 62.359046 
539.000000	 62.168097 
538.000000	 61.989569 
537.000000	 61.837935 
536.000000	 61.723518 
535.000000	 61.650514 
534.000000	 61.617207 
533.000000	 61.616110 
532.000000	 61.635613 
531.000000	 61.663126 
530.000000	 61.686635 
529.000000	 61.700010 
528.000000	 61.703062 
527.000000	 61.703038 
526.000000	 61.711096 
525.000000	 61.737513 
524.000000	 61.787152 
523.000000	 61.856198 
522.000000	 61.931848 
521.000000	 61.994838 
520.000000	 62.024545 
519.000000	 62.005305 
518.000000	 61.930942 
517.000000	 61.806964 
516.000000	 61.650300 
515.000000	 61.485004 
514.000000	 61.337709 
513.000000	 61.232376 
512.000000	 61.183547 
511.000000	 61.195802 
510.000000	 61.258673 
509.000000	 61.350321 
508.000000	 61.440801 
507.000000	 61.499834 
506.000000	 61.502861 
505.000000	 61.435866 
504.000000	 61.300182 
503.000000	 61.110639 
502.000000	 60.895252 
501.000000	 60.688447 
500.000000	 60.524916 
499.000000	 60.432147 
498.000000	 60.429310 
497.000000	 60.523343 
496.000000	 60.708999 
495.000000	 60.968756 
494.000000	 61.275434 
493.000000	 61.595439 
492.000000	 61.892676 
491.000000	 62.134218 
490.000000	 62.293505 
489.000000	 62.356209 
488.000000	 62.321496 
487.000000	 62.203168 
486.000000	 62.026071 
485.000000	 61.822772 
484.000000	 61.629128 
483.000000	 61.476421 
482.000000	 61.389422 
481.000000	 61.377716 
480.000000	 61.438894 
479.000000	 61.553192 
478.000000	 61.690688 
477.000000	 61.813020 
476.000000	 61.881995 
475.000000	 61.866641 
474.000000	 61.749672 
473.000000	 61.532068 
472.000000	 61.233282 
471.000000	 60.887289 
470.000000	 60.536170 
469.000000	 60.223054 
468.000000	 59.984660 
467.000000	 59.845137 
466.000000	 59.813070 
465.000000	 59.882259 
464.000000	 60.034656 
463.000000	 60.245513 
462.000000	 60.488200 
461.000000	 60.736274 
460.000000	 60.967659 
459.000000	 61.166524 
458.000000	 61.321163 
457.000000	 61.422061 
456.000000	 61.460828 
455.000000	 61.429476 
454.000000	 61.323451 
453.000000	 61.145281 
452.000000	 60.906076 
451.000000	 60.625672 
450.000000	 60.334777 
449.000000	 60.072565 
448.000000	 59.877991 
447.000000	 59.782314 
446.000000	 59.802699 
445.000000	 59.938168 
444.000000	 60.169887 
443.000000	 60.465312 
442.000000	 60.783624 
441.000000	 61.084580 
440.000000	 61.337852 
439.000000	 61.526346 
438.000000	 61.647319 
437.000000	 61.707377 
436.000000	 61.717009 
435.000000	 61.684322 
434.000000	 61.612510 
433.000000	 61.500024 
432.000000	 61.343622 
431.000000	 61.145710 
430.000000	 60.917472 
429.000000	 60.684919 
428.000000	 60.486054 
427.000000	 60.367274 
426.000000	 60.371470 
425.000000	 60.530710 
424.000000	 60.855245 
423.000000	 61.330246 
422.000000	 61.915516 
421.000000	 62.550902 
420.000000	 63.166999 
419.000000	 63.692522 
418.000000	 64.065814 
417.000000	 64.243674 
416.000000	 64.207363 
415.000000	 63.960981 
414.000000	 63.530731 
413.000000	 62.963247 
412.000000	 62.318539 
411.000000	 61.663246 
410.000000	 61.061191 
409.000000	 60.569810 
408.000000	 60.228776 
407.000000	 60.062074 
406.000000	 60.069012 
405.000000	 60.217261 
404.000000	 60.459685 
403.000000	 60.739803 
402.000000	 61.011767 
401.000000	 61.242318 
400.000000	 61.423850 
399.000000	 61.576271 
398.000000	 61.724305 
397.000000	 61.879110 
396.000000	 62.034440 
395.000000	 62.168860 
394.000000	 62.233710 
393.000000	 62.165451 
392.000000	 61.907148 
391.000000	 61.425685 
390.000000	 60.728979 
389.000000	 59.870052 
388.000000	 58.907675 
387.000000	 57.906961 
386.000000	 56.938338 
385.000000	 56.078004 
384.000000	 55.397081 
383.000000	 54.968023 
382.000000	 54.845094 
381.000000	 55.076813 
380.000000	 55.677008 
379.000000	 56.644439 
378.000000	 57.962274 
377.000000	 59.588956 
376.000000	 61.440253 
375.000000	 63.407731 
374.000000	 65.325021 
373.000000	 67.065262 
372.000000	 68.506908 
371.000000	 69.680213 
370.000000	 70.781660 

