PE IR       SPECTRUM    SPECTRUM    ASCII       PEDS        1.60        
  -1
BZ4C7B~1.ASC
17/04/07
22:29:52.00
17/04/07
22:29:52.00
tln
$BZ1503107-1_t0112$<tbV0>[10.4,13.0,8.0,0.0,27,1,0]
370.000000
64









2002,4.07    
MIRTGS : RIGHTBACK : INTERNAL 2
MIR : ON : INTERNAL 2
OPTKBR

0.200000
8
8.000000
FILLER
RATIO
SPECTRUM
UNLOCKED 256

DOUBLE
64
COMBINED
1
0
0


1.000000
RATIO


1
0
TRUE
51149
0
LEFT NOT FITTED RIGHT NOT FITTED 0
NONE
NONE
15600
12.000000
4.427000
51148
TRUE
1 0 8 72 0 0 0 0 

15798.010000






#HDR
-1
-1
#GR
CM-1
%T
0.00002384185791015625
0.0
5000.000000
-1.000000
4631
8
75.546407
51.207208
#DATA
5000.000000	65.094733 
4999.000000	64.938569 
4998.000000	64.791226 
4997.000000	64.669537 
4996.000000	64.585232 
4995.000000	64.544034 
4994.000000	64.544129 
4993.000000	64.575004 
4992.000000	64.623332 
4991.000000	64.675593 
4990.000000	64.723634 
4989.000000	64.765286 
4988.000000	64.805626 
4987.000000	64.854335 
4986.000000	64.919781 
4985.000000	65.004301 
4984.000000	65.103268 
4983.000000	65.204954 
4982.000000	65.293335 
4981.000000	65.352249 
4980.000000	65.371203 
4979.000000	65.348339 
4978.000000	65.291547 
4977.000000	65.216350 
4976.000000	65.141797 
4975.000000	65.085816 
4974.000000	65.059041 
4973.000000	65.064740 
4972.000000	65.099763 
4971.000000	65.156745 
4970.000000	65.228366 
4969.000000	65.308427 
4968.000000	65.392756 
4967.000000	65.479397 
4966.000000	65.567207 
4965.000000	65.654897 
4964.000000	65.739488 
4963.000000	65.816164 
4962.000000	65.879964 
4961.000000	65.923738 
4960.000000	65.940356 
4959.000000	65.922617 
4958.000000	65.865635 
4957.000000	65.767264 
4956.000000	65.629649 
4955.000000	65.459585 
4954.000000	65.268063 
4953.000000	65.068984 
4952.000000	64.876890 
4951.000000	64.704656 
4950.000000	64.561009 
4949.000000	64.449191 
4948.000000	64.367032 
4947.000000	64.306616 
4946.000000	64.259362 
4945.000000	64.217019 
4944.000000	64.176893 
4943.000000	64.140486 
4942.000000	64.115476 
4941.000000	64.111089 
4940.000000	64.137268 
4939.000000	64.198684 
4938.000000	64.295411 
4937.000000	64.421176 
4936.000000	64.565300 
4935.000000	64.714336 
4934.000000	64.855003 
4933.000000	64.976835 
4932.000000	65.073585 
4931.000000	65.143561 
4930.000000	65.189218 
4929.000000	65.215492 
4928.000000	65.228652 
4927.000000	65.234422 
4926.000000	65.237188 
4925.000000	65.238928 
4924.000000	65.240812 
4923.000000	65.242624 
4922.000000	65.242910 
4921.000000	65.239715 
4920.000000	65.231680 
4919.000000	65.218067 
4918.000000	65.198850 
4917.000000	65.174889 
4916.000000	65.148544 
4915.000000	65.122723 
4914.000000	65.100121 
4913.000000	65.082788 
4912.000000	65.071630 
4911.000000	65.066790 
4910.000000	65.067863 
4909.000000	65.074110 
4908.000000	65.084719 
4907.000000	65.099000 
4906.000000	65.116429 
4905.000000	65.136146 
4904.000000	65.156602 
4903.000000	65.175867 
4902.000000	65.191864 
4901.000000	65.202307 
4900.000000	65.205001 
4899.000000	65.198254 
4898.000000	65.181088 
4897.000000	65.153455 
4896.000000	65.116214 
4895.000000	65.070962 
4894.000000	65.020394 
4893.000000	64.967846 
4892.000000	64.917612 
4891.000000	64.874315 
4890.000000	64.842414 
4889.000000	64.825749 
4888.000000	64.826321 
4887.000000	64.843702 
4886.000000	64.874696 
4885.000000	64.913201 
4884.000000	64.951872 
4883.000000	64.982676 
4882.000000	64.999628 
4881.000000	64.999723 
4880.000000	64.984178 
4879.000000	64.957737 
4878.000000	64.928269 
4877.000000	64.904403 
4876.000000	64.893794 
4875.000000	64.901065 
4874.000000	64.926743 
4873.000000	64.967131 
4872.000000	65.015101 
4871.000000	65.062189 
4870.000000	65.100407 
4869.000000	65.124344 
4868.000000	65.132546 
4867.000000	65.127372 
4866.000000	65.114355 
4865.000000	65.099811 
4864.000000	65.088796 
4863.000000	65.083599 
4862.000000	65.083479 
4861.000000	65.085172 
4860.000000	65.084576 
4859.000000	65.078473 
4858.000000	65.066313 
4857.000000	65.050578 
4856.000000	65.036416 
4855.000000	65.029978 
4854.000000	65.036225 
4853.000000	65.057826 
4852.000000	65.094089 
4851.000000	65.140819 
4850.000000	65.191245 
4849.000000	65.237593 
4848.000000	65.273141 
4847.000000	65.293145 
4846.000000	65.295886 
4845.000000	65.282297 
4844.000000	65.255689 
4843.000000	65.220332 
4842.000000	65.180897 
4841.000000	65.142059 
4840.000000	65.107488 
4839.000000	65.080475 
4838.000000	65.062689 
4837.000000	65.054559 
4836.000000	65.054774 
4835.000000	65.060448 
4834.000000	65.067434 
4833.000000	65.071153 
4832.000000	65.067386 
4831.000000	65.053129 
4830.000000	65.027117 
4829.000000	64.989686 
4828.000000	64.943075 
4827.000000	64.890480 
4826.000000	64.836001 
4825.000000	64.783668 
4824.000000	64.737081 
4823.000000	64.698934 
4822.000000	64.670705 
4821.000000	64.652514 
4820.000000	64.643120 
4819.000000	64.640164 
4818.000000	64.640903 
4817.000000	64.643025 
4816.000000	64.644265 
4815.000000	64.643597 
4814.000000	64.641237 
4813.000000	64.639019 
4812.000000	64.639282 
4811.000000	64.644575 
4810.000000	64.656734 
4809.000000	64.676165 
4808.000000	64.701437 
4807.000000	64.729785 
4806.000000	64.757347 
4805.000000	64.780211 
4804.000000	64.795565 
4803.000000	64.802169 
4802.000000	64.800763 
4801.000000	64.793801 
4800.000000	64.784765 
4799.000000	64.777088 
4798.000000	64.773130 
4797.000000	64.773797 
4796.000000	64.778447 
4795.000000	64.784646 
4794.000000	64.788818 
4793.000000	64.787578 
4792.000000	64.778518 
4791.000000	64.760589 
4790.000000	64.734244 
4789.000000	64.701461 
4788.000000	64.665007 
4787.000000	64.627122 
4786.000000	64.589309 
4785.000000	64.552068 
4784.000000	64.515280 
4783.000000	64.478707 
4782.000000	64.442586 
4781.000000	64.407730 
4780.000000	64.375782 
4779.000000	64.348506 
4778.000000	64.327740 
4777.000000	64.313721 
4776.000000	64.306449 
4775.000000	64.305067 
4774.000000	64.309191 
4773.000000	64.318466 
4772.000000	64.333629 
4771.000000	64.356088 
4770.000000	64.387440 
4769.000000	64.428353 
4768.000000	64.477801 
4767.000000	64.532756 
4766.000000	64.588570 
4765.000000	64.640235 
4764.000000	64.683985 
4763.000000	64.718484 
4762.000000	64.745950 
4761.000000	64.770889 
4760.000000	64.798951 
4759.000000	64.834332 
4758.000000	64.878654 
4757.000000	64.929223 
4756.000000	64.979529 
4755.000000	65.020155 
4754.000000	65.042400 
4753.000000	65.039157 
4752.000000	65.007638 
4751.000000	64.949417 
4750.000000	64.871001 
4749.000000	64.781975 
4748.000000	64.692807 
4747.000000	64.613294 
4746.000000	64.550542 
4745.000000	64.508628 
4744.000000	64.488601 
4743.000000	64.488983 
4742.000000	64.506816 
4741.000000	64.538216 
4740.000000	64.579200 
4739.000000	64.625549 
4738.000000	64.673376 
4737.000000	64.719295 
4736.000000	64.761185 
4735.000000	64.797711 
4734.000000	64.828801 
4733.000000	64.856171 
4732.000000	64.882516 
4731.000000	64.910531 
4730.000000	64.942193 
4729.000000	64.978361 
4728.000000	65.018033 
4727.000000	65.058302 
4726.000000	65.095043 
4725.000000	65.124607 
4724.000000	65.143871 
4723.000000	65.151786 
4722.000000	65.148663 
4721.000000	65.136551 
4720.000000	65.118217 
4719.000000	65.096592 
4718.000000	65.074563 
4717.000000	65.054583 
4716.000000	65.038919 
4715.000000	65.029835 
4714.000000	65.029025 
4713.000000	65.037512 
4712.000000	65.055251 
4711.000000	65.081000 
4710.000000	65.111684 
4709.000000	65.142798 
4708.000000	65.168976 
4707.000000	65.184783 
4706.000000	65.186047 
4705.000000	65.170121 
4704.000000	65.136814 
4703.000000	65.087532 
4702.000000	65.025401 
4701.000000	64.954113 
4700.000000	64.877343 
4699.000000	64.798879 
4698.000000	64.722776 
4697.000000	64.653038 
4696.000000	64.593887 
4695.000000	64.548850 
4694.000000	64.520168 
4693.000000	64.507985 
4692.000000	64.509582 
4691.000000	64.520835 
4690.000000	64.536380 
4689.000000	64.551687 
4688.000000	64.563536 
4687.000000	64.571571 
4686.000000	64.578104 
4685.000000	64.587759 
4684.000000	64.605689 
4683.000000	64.635872 
4682.000000	64.679718 
4681.000000	64.735627 
4680.000000	64.798688 
4679.000000	64.861965 
4678.000000	64.917588 
4677.000000	64.959144 
4676.000000	64.982628 
4675.000000	64.987015 
4674.000000	64.974474 
4673.000000	64.949655 
4672.000000	64.918565 
4671.000000	64.887380 
4670.000000	64.860844 
4669.000000	64.842700 
4668.000000	64.833879 
4667.000000	64.832925 
4666.000000	64.836025 
4665.000000	64.838480 
4664.000000	64.835333 
4663.000000	64.822721 
4662.000000	64.799094 
4661.000000	64.765620 
4660.000000	64.726948 
4659.000000	64.690351 
4658.000000	64.664292 
4657.000000	64.656400 
4656.000000	64.672255 
4655.000000	64.713525 
4654.000000	64.777350 
4653.000000	64.856719 
4652.000000	64.941453 
4651.000000	65.020704 
4650.000000	65.084838 
4649.000000	65.127730 
4648.000000	65.147995 
4647.000000	65.148949 
4646.000000	65.137243 
4645.000000	65.120983 
4644.000000	65.107727 
4643.000000	65.102601 
4642.000000	65.107321 
4641.000000	65.120196 
4640.000000	65.137529 
4639.000000	65.154409 
4638.000000	65.167021 
4637.000000	65.172243 
4636.000000	65.168666 
4635.000000	65.155601 
4634.000000	65.133261 
4633.000000	65.102005 
4632.000000	65.062284 
4631.000000	65.015316 
4630.000000	64.963555 
4629.000000	64.911198 
4628.000000	64.863967 
4627.000000	64.828515 
4626.000000	64.811134 
4625.000000	64.816069 
4624.000000	64.844346 
4623.000000	64.892768 
4622.000000	64.954566 
4621.000000	65.020608 
4620.000000	65.081381 
4619.000000	65.128326 
4618.000000	65.155768 
4617.000000	65.161919 
4616.000000	65.148520 
4615.000000	65.119194 
4614.000000	65.079212 
4613.000000	65.033960 
4612.000000	64.988422 
4611.000000	64.946675 
4610.000000	64.912009 
4609.000000	64.887189 
4608.000000	64.874720 
4607.000000	64.876866 
4606.000000	64.894890 
4605.000000	64.928555 
4604.000000	64.975666 
4603.000000	65.032148 
4602.000000	65.092158 
4601.000000	65.149021 
4600.000000	65.197038 
4599.000000	65.232348 
4598.000000	65.254020 
4597.000000	65.263628 
4596.000000	65.265369 
4595.000000	65.263438 
4594.000000	65.260791 
4593.000000	65.256977 
4592.000000	65.249252 
4591.000000	65.231990 
4590.000000	65.199184 
4589.000000	65.145683 
4588.000000	65.069723 
4587.000000	64.973711 
4586.000000	64.864444 
4585.000000	64.752268 
4584.000000	64.648699 
4583.000000	64.565253 
4582.000000	64.510893 
4581.000000	64.491486 
4580.000000	64.508485 
4579.000000	64.559483 
4578.000000	64.638471 
4577.000000	64.736819 
4576.000000	64.844489 
4575.000000	64.951133 
4574.000000	65.047574 
4573.000000	65.126085 
4572.000000	65.182161 
4571.000000	65.214705 
4570.000000	65.226602 
4569.000000	65.224075 
4568.000000	65.214872 
4567.000000	65.207982 
4566.000000	65.210199 
4565.000000	65.225839 
4564.000000	65.254545 
4563.000000	65.292406 
4562.000000	65.332198 
4561.000000	65.366077 
4560.000000	65.387177 
4559.000000	65.391421 
4558.000000	65.378904 
4557.000000	65.353846 
4556.000000	65.323305 
4555.000000	65.295219 
4554.000000	65.276789 
4553.000000	65.272545 
4552.000000	65.283012 
4551.000000	65.304827 
4550.000000	65.332221 
4549.000000	65.358710 
4548.000000	65.378808 
4547.000000	65.389323 
4546.000000	65.389776 
4545.000000	65.381908 
4544.000000	65.368938 
4543.000000	65.353989 
4542.000000	65.338873 
4541.000000	65.323543 
4540.000000	65.307116 
4539.000000	65.287852 
4538.000000	65.264296 
4537.000000	65.236115 
4536.000000	65.204906 
4535.000000	65.173697 
4534.000000	65.146040 
4533.000000	65.125441 
4532.000000	65.113830 
4531.000000	65.112113 
4530.000000	65.119457 
4529.000000	65.135073 
4528.000000	65.158367 
4527.000000	65.189361 
4526.000000	65.228486 
4525.000000	65.275788 
4524.000000	65.330171 
4523.000000	65.388536 
4522.000000	65.446043 
4521.000000	65.497708 
4520.000000	65.539312 
4519.000000	65.569210 
4518.000000	65.587997 
4517.000000	65.598297 
4516.000000	65.602779 
4515.000000	65.603590 
4514.000000	65.600562 
4513.000000	65.590715 
4512.000000	65.569448 
4511.000000	65.532875 
4510.000000	65.479683 
4509.000000	65.412378 
4508.000000	65.338182 
4507.000000	65.268015 
4506.000000	65.214085 
4505.000000	65.186977 
4504.000000	65.192294 
4503.000000	65.229082 
4502.000000	65.288877 
4501.000000	65.357398 
4500.000000	65.417885 
4499.000000	65.455031 
4498.000000	65.458297 
4497.000000	65.424132 
4496.000000	65.356540 
4495.000000	65.265965 
4494.000000	65.166592 
4493.000000	65.073823 
4492.000000	65.000844 
4491.000000	64.957523 
4490.000000	64.949440 
4489.000000	64.978122 
4488.000000	65.041899 
4487.000000	65.135931 
4486.000000	65.253925 
4485.000000	65.387082 
4484.000000	65.523838 
4483.000000	65.651059 
4482.000000	65.755772 
4481.000000	65.826749 
4480.000000	65.854573 
4479.000000	65.836644 
4478.000000	65.779089 
4477.000000	65.695452 
4476.000000	65.603971 
4475.000000	65.524697 
4474.000000	65.476679 
4473.000000	65.469741 
4472.000000	65.500926 
4471.000000	65.563130 
4470.000000	65.648269 
4469.000000	65.743231 
4468.000000	65.833568 
4467.000000	65.908789 
4466.000000	65.963435 
4465.000000	66.000437 
4464.000000	66.027879 
4463.000000	66.048288 
4462.000000	66.058611 
4461.000000	66.064310 
4460.000000	66.066050 
4459.000000	66.055083 
4458.000000	66.013836 
4457.000000	65.925288 
4456.000000	65.771603 
4455.000000	65.540266 
4454.000000	65.227723 
4453.000000	64.842653 
4452.000000	64.405512 
4451.000000	63.954973 
4450.000000	63.523197 
4449.000000	63.138866 
4448.000000	62.791156 
4447.000000	62.435698 
4446.000000	61.983609 
4445.000000	61.326575 
4444.000000	60.364079 
4443.000000	59.044098 
4442.000000	57.392024 
4441.000000	55.534267 
4440.000000	53.691434 
4439.000000	52.158045 
4438.000000	51.240873 
4437.000000	51.207208 
4436.000000	52.230930 
4435.000000	54.342460 
4434.000000	57.414412 
4433.000000	61.160373 
4432.000000	65.177178 
4431.000000	69.007301 
4430.000000	72.211432 
4429.000000	74.452447 
4428.000000	75.546407 
4427.000000	75.491714 
4426.000000	74.464035 
4425.000000	72.756671 
4424.000000	70.718741 
4423.000000	68.675160 
4422.000000	66.887068 
4421.000000	65.500617 
4420.000000	64.562749 
4419.000000	64.029836 
4418.000000	63.822126 
4417.000000	63.836288 
4416.000000	63.984704 
4415.000000	64.199113 
4414.000000	64.440464 
4413.000000	64.687085 
4412.000000	64.930701 
4411.000000	65.162849 
4410.000000	65.373611 
4409.000000	65.548157 
4408.000000	65.670895 
4407.000000	65.734291 
4406.000000	65.737605 
4405.000000	65.691065 
4404.000000	65.610861 
4403.000000	65.511989 
4402.000000	65.409255 
4401.000000	65.322732 
4400.000000	65.267038 
4399.000000	65.244603 
4398.000000	65.252566 
4397.000000	65.291261 
4396.000000	65.355134 
4395.000000	65.432429 
4394.000000	65.509390 
4393.000000	65.570449 
4392.000000	65.606760 
4391.000000	65.619492 
4390.000000	65.612530 
4389.000000	65.590167 
4388.000000	65.561103 
4387.000000	65.535640 
4386.000000	65.522122 
4385.000000	65.525412 
4384.000000	65.546441 
4383.000000	65.581822 
4382.000000	65.626430 
4381.000000	65.673422 
4380.000000	65.715575 
4379.000000	65.746283 
4378.000000	65.761089 
4377.000000	65.758204 
4376.000000	65.737509 
4375.000000	65.701746 
4374.000000	65.656447 
4373.000000	65.608453 
4372.000000	65.565967 
4371.000000	65.534996 
4370.000000	65.518832 
4369.000000	65.516400 
4368.000000	65.523052 
4367.000000	65.531468 
4366.000000	65.533995 
4365.000000	65.524506 
4364.000000	65.500378 
4363.000000	65.462756 
4362.000000	65.416288 
4361.000000	65.367078 
4360.000000	65.320992 
4359.000000	65.282440 
4358.000000	65.253424 
4357.000000	65.233683 
4356.000000	65.220928 
4355.000000	65.211725 
4354.000000	65.202784 
4353.000000	65.191960 
4352.000000	65.178704 
4351.000000	65.163612 
4350.000000	65.148401 
4349.000000	65.134549 
4348.000000	65.123271 
4347.000000	65.114569 
4346.000000	65.107846 
4345.000000	65.101933 
4344.000000	65.095973 
4343.000000	65.089774 
4342.000000	65.083909 
4341.000000	65.079593 
4340.000000	65.078139 
4339.000000	65.080451 
4338.000000	65.086293 
4337.000000	65.094161 
4336.000000	65.101289 
4335.000000	65.104556 
4334.000000	65.101194 
4333.000000	65.090036 
4332.000000	65.072488 
4331.000000	65.052509 
4330.000000	65.036153 
4329.000000	65.029954 
4328.000000	65.038990 
4327.000000	65.065693 
4326.000000	65.108942 
4325.000000	65.164470 
4324.000000	65.226197 
4323.000000	65.287327 
4322.000000	65.342521 
4321.000000	65.388035 
4320.000000	65.422487 
4319.000000	65.445613 
4318.000000	65.457892 
4317.000000	65.459084 
4316.000000	65.447926 
4315.000000	65.422463 
4314.000000	65.380883 
4313.000000	65.322685 
4312.000000	65.249872 
4311.000000	65.167117 
4310.000000	65.081667 
4309.000000	65.001487 
4308.000000	64.933753 
4307.000000	64.883399 
4306.000000	64.852428 
4305.000000	64.839982 
4304.000000	64.842987 
4303.000000	64.857530 
4302.000000	64.879465 
4301.000000	64.904856 
4300.000000	64.930391 
4299.000000	64.952540 
4298.000000	64.968156 
4297.000000	64.974260 
4296.000000	64.968848 
4295.000000	64.951109 
4294.000000	64.922118 
4293.000000	64.885020 
4292.000000	64.844226 
4291.000000	64.804887 
4290.000000	64.771461 
4289.000000	64.747071 
4288.000000	64.732718 
4287.000000	64.727139 
4286.000000	64.728164 
4285.000000	64.733433 
4284.000000	64.742040 
4283.000000	64.754676 
4282.000000	64.773440 
4281.000000	64.800977 
4280.000000	64.839172 
4279.000000	64.888000 
4278.000000	64.944815 
4277.000000	65.004372 
4276.000000	65.060138 
4275.000000	65.105319 
4274.000000	65.134525 
4273.000000	65.144896 
4272.000000	65.136885 
4271.000000	65.114021 
4270.000000	65.082335 
4269.000000	65.048646 
4268.000000	65.019631 
4267.000000	64.999866 
4266.000000	64.991331 
4265.000000	64.993095 
4264.000000	65.002226 
4263.000000	65.014410 
4262.000000	65.025377 
4261.000000	65.031719 
4260.000000	65.031766 
4259.000000	65.025734 
4258.000000	65.015244 
4257.000000	65.002751 
4256.000000	64.990448 
4255.000000	64.979338 
4254.000000	64.968919 
4253.000000	64.957046 
4252.000000	64.940500 
4251.000000	64.915847 
4250.000000	64.880657 
4249.000000	64.834284 
4248.000000	64.778685 
4247.000000	64.717817 
4246.000000	64.658045 
4245.000000	64.606165 
4244.000000	64.569258 
4243.000000	64.552903 
4242.000000	64.560866 
4241.000000	64.593911 
4240.000000	64.649891 
4239.000000	64.723849 
4238.000000	64.808487 
4237.000000	64.895367 
4236.000000	64.975786 
4235.000000	65.041685 
4234.000000	65.086793 
4233.000000	65.107536 
4232.000000	65.103387 
4231.000000	65.076875 
4230.000000	65.033078 
4229.000000	64.978837 
4228.000000	64.921641 
4227.000000	64.868807 
4226.000000	64.826297 
4225.000000	64.798355 
4224.000000	64.787387 
4223.000000	64.794039 
4222.000000	64.817428 
4221.000000	64.855623 
4220.000000	64.905667 
4219.000000	64.964151 
4218.000000	65.026783 
4217.000000	65.089154 
4216.000000	65.146636 
4215.000000	65.195298 
4214.000000	65.232157 
4213.000000	65.255641 
4212.000000	65.266156 
4211.000000	65.265488 
4210.000000	65.257072 
4209.000000	65.244317 
4208.000000	65.230703 
4207.000000	65.218162 
4206.000000	65.207171 
4205.000000	65.196299 
4204.000000	65.183401 
4203.000000	65.165901 
4202.000000	65.142154 
4201.000000	65.111541 
4200.000000	65.075135 
4199.000000	65.035343 
4198.000000	64.995479 
4197.000000	64.958763 
4196.000000	64.927649 
4195.000000	64.903378 
4194.000000	64.885950 
4193.000000	64.874339 
4192.000000	64.867067 
4191.000000	64.862489 
4190.000000	64.859175 
4189.000000	64.856171 
4188.000000	64.852738 
4187.000000	64.847898 
4186.000000	64.840602 
4185.000000	64.829635 
4184.000000	64.814066 
4183.000000	64.792871 
4182.000000	64.766216 
4181.000000	64.735460 
4180.000000	64.703631 
4179.000000	64.674711 
4178.000000	64.653682 
4177.000000	64.645457 
4176.000000	64.654135 
4175.000000	64.681768 
4174.000000	64.727640 
4173.000000	64.788079 
4172.000000	64.856624 
4171.000000	64.924788 
4170.000000	64.983510 
4169.000000	65.024709 
4168.000000	65.042853 
4167.000000	65.036201 
4166.000000	65.006899 
4165.000000	64.960837 
4164.000000	64.906907 
4163.000000	64.854621 
4162.000000	64.812493 
4161.000000	64.785861 
4160.000000	64.776897 
4159.000000	64.783453 
4158.000000	64.800286 
4157.000000	64.820146 
4156.000000	64.835858 
4155.000000	64.841890 
4154.000000	64.835619 
4153.000000	64.817643 
4152.000000	64.791131 
4151.000000	64.760804 
4150.000000	64.731168 
4149.000000	64.705514 
4148.000000	64.685010 
4147.000000	64.668655 
4146.000000	64.653921 
4145.000000	64.637875 
4144.000000	64.618539 
4143.000000	64.595007 
4142.000000	64.568376 
4141.000000	64.541125 
4140.000000	64.517283 
4139.000000	64.501261 
4138.000000	64.497470 
4137.000000	64.509010 
4136.000000	64.537358 
4135.000000	64.581966 
4134.000000	64.639973 
4133.000000	64.706802 
4132.000000	64.776325 
4131.000000	64.841675 
4130.000000	64.896297 
4129.000000	64.935207 
4128.000000	64.955496 
4127.000000	64.956593 
4126.000000	64.940428 
4125.000000	64.911150 
4124.000000	64.874196 
4123.000000	64.835524 
4122.000000	64.800572 
4121.000000	64.773774 
4120.000000	64.758348 
4119.000000	64.756155 
4118.000000	64.768075 
4117.000000	64.794015 
4116.000000	64.833116 
4115.000000	64.883518 
4114.000000	64.942169 
4113.000000	65.004849 
4112.000000	65.066218 
4111.000000	65.120530 
4110.000000	65.162229 
4109.000000	65.187191 
4108.000000	65.193772 
4107.000000	65.183281 
4106.000000	65.160322 
4105.000000	65.131473 
4104.000000	65.104722 
4103.000000	65.086913 
4102.000000	65.082859 
4101.000000	65.093708 
4100.000000	65.117549 
4099.000000	65.149307 
4098.000000	65.182232 
4097.000000	65.209698 
4096.000000	65.226984 
4095.000000	65.231990 
4094.000000	65.225434 
4093.000000	65.210247 
4092.000000	65.190434 
4091.000000	65.170001 
4090.000000	65.151691 
4089.000000	65.136528 
4088.000000	65.123915 
4087.000000	65.112376 
4086.000000	65.100264 
4085.000000	65.086698 
4084.000000	65.071773 
4083.000000	65.056276 
4082.000000	65.041780 
4081.000000	65.029883 
4080.000000	65.022087 
4079.000000	65.018415 
4078.000000	65.018177 
4077.000000	65.020227 
4076.000000	65.023207 
4075.000000	65.025854 
4074.000000	65.027379 
4073.000000	65.027570 
4072.000000	65.026688 
4071.000000	65.025115 
4070.000000	65.023064 
4069.000000	65.020298 
4068.000000	65.016388 
4067.000000	65.010881 
4066.000000	65.003633 
4065.000000	64.995121 
4064.000000	64.986538 
4063.000000	64.979481 
4062.000000	64.975571 
4061.000000	64.975976 
4060.000000	64.980888 
4059.000000	64.989280 
4058.000000	64.998936 
4057.000000	65.006542 
4056.000000	65.008950 
4055.000000	65.003514 
4054.000000	64.988493 
4053.000000	64.963912 
4052.000000	64.931225 
4051.000000	64.893364 
4050.000000	64.853787 
4049.000000	64.816236 
4048.000000	64.784121 
4047.000000	64.760208 
4046.000000	64.746046 
4045.000000	64.742374 
4044.000000	64.749073 
4043.000000	64.765071 
4042.000000	64.788508 
4041.000000	64.816999 
4040.000000	64.848017 
4039.000000	64.879155 
4038.000000	64.908504 
4037.000000	64.934802 
4036.000000	64.957451 
4035.000000	64.976620 
4034.000000	64.992904 
4033.000000	65.006875 
4032.000000	65.018820 
4031.000000	65.029072 
4030.000000	65.037536 
4029.000000	65.044021 
4028.000000	65.048336 
4027.000000	65.050768 
4026.000000	65.051817 
4025.000000	65.052604 
4024.000000	65.054273 
4023.000000	65.058255 
4022.000000	65.065836 
4021.000000	65.077924 
4020.000000	65.095424 
4019.000000	65.119051 
4018.000000	65.149354 
4017.000000	65.186524 
4016.000000	65.230011 
4015.000000	65.278267 
4014.000000	65.328454 
4013.000000	65.376639 
4012.000000	65.418100 
4011.000000	65.448045 
4010.000000	65.462446 
4009.000000	65.458726 
4008.000000	65.436458 
4007.000000	65.397310 
4006.000000	65.344929 
4005.000000	65.284347 
4004.000000	65.221452 
4003.000000	65.161752 
4002.000000	65.110158 
4001.000000	65.069746 
4000.000000	65.042257 
3999.000000	65.027332 
3998.000000	65.023088 
3997.000000	65.026211 
3996.000000	65.032649 
3995.000000	65.038156 
3994.000000	65.038442 
3993.000000	65.030550 
3992.000000	65.012764 
3991.000000	64.985609 
3990.000000	64.951062 
3989.000000	64.912939 
3988.000000	64.875864 
3987.000000	64.844727 
3986.000000	64.823579 
3985.000000	64.815115 
3984.000000	64.820003 
3983.000000	64.836812 
3982.000000	64.862370 
3981.000000	64.892172 
3980.000000	64.921236 
3979.000000	64.945006 
3978.000000	64.960169 
3977.000000	64.965009 
3976.000000	64.959859 
3975.000000	64.946866 
3974.000000	64.929485 
3973.000000	64.911437 
3972.000000	64.895915 
3971.000000	64.885497 
3970.000000	64.880943 
3969.000000	64.881277 
3968.000000	64.884138 
3967.000000	64.886593 
3966.000000	64.886236 
3965.000000	64.881587 
3964.000000	64.872884 
3963.000000	64.862012 
3962.000000	64.852094 
3961.000000	64.846777 
3960.000000	64.849257 
3959.000000	64.861273 
3958.000000	64.882969 
3957.000000	64.912796 
3956.000000	64.948105 
3955.000000	64.985680 
3954.000000	65.022516 
3953.000000	65.056324 
3952.000000	65.086030 
3951.000000	65.111613 
3950.000000	65.133762 
3949.000000	65.153622 
3948.000000	65.172123 
3947.000000	65.189838 
3946.000000	65.206956 
3945.000000	65.223145 
3944.000000	65.238118 
3943.000000	65.251350 
3942.000000	65.262746 
3941.000000	65.272140 
3940.000000	65.279603 
3939.000000	65.284681 
3938.000000	65.286803 
3937.000000	65.284729 
3936.000000	65.277171 
3935.000000	65.262556 
3934.000000	65.239858 
3933.000000	65.208840 
3932.000000	65.170431 
3931.000000	65.127325 
3930.000000	65.083742 
3929.000000	65.044856 
3928.000000	65.015721 
3927.000000	65.000510 
3926.000000	65.001702 
3925.000000	65.019083 
3924.000000	65.049862 
3923.000000	65.089726 
3922.000000	65.133094 
3921.000000	65.174412 
3920.000000	65.208745 
3919.000000	65.232229 
3918.000000	65.242624 
3917.000000	65.239000 
3916.000000	65.222072 
3915.000000	65.193819 
3914.000000	65.157556 
3913.000000	65.117573 
3912.000000	65.078711 
3911.000000	65.046048 
3910.000000	65.023612 
3909.000000	65.014100 
3908.000000	65.017485 
3907.000000	65.031242 
3906.000000	65.050292 
3905.000000	65.068221 
3904.000000	65.078496 
3903.000000	65.076136 
3902.000000	65.058660 
3901.000000	65.026617 
3900.000000	64.982962 
3899.000000	64.932465 
3898.000000	64.880275 
3897.000000	64.831399 
3896.000000	64.789891 
3895.000000	64.758706 
3894.000000	64.740037 
3893.000000	64.735126 
3892.000000	64.744377 
3891.000000	64.767241 
3890.000000	64.801764 
3889.000000	64.844727 
3888.000000	64.891505 
3887.000000	64.936995 
3886.000000	64.976048 
3885.000000	65.004682 
3884.000000	65.020680 
3883.000000	65.024232 
3882.000000	65.018129 
3881.000000	65.006375 
3880.000000	64.993309 
3879.000000	64.982414 
3878.000000	64.975643 
3877.000000	64.973092 
3876.000000	64.973425 
3875.000000	64.974617 
3874.000000	64.974927 
3873.000000	64.973211 
3872.000000	64.969491 
3871.000000	64.964747 
3870.000000	64.960479 
3869.000000	64.958047 
3868.000000	64.958620 
3867.000000	64.962601 
3866.000000	64.970016 
3865.000000	64.980459 
3864.000000	64.993619 
3863.000000	65.009498 
3862.000000	65.028810 
3861.000000	65.052413 
3860.000000	65.081167 
3859.000000	65.115475 
3858.000000	65.154767 
3857.000000	65.197205 
3856.000000	65.239548 
3855.000000	65.277624 
3854.000000	65.306758 
3853.000000	65.323185 
3852.000000	65.324187 
3851.000000	65.308928 
3850.000000	65.278935 
3849.000000	65.237975 
3848.000000	65.191555 
3847.000000	65.145850 
3846.000000	65.106797 
3845.000000	65.078902 
3844.000000	65.064620 
3843.000000	65.063810 
3842.000000	65.073657 
3841.000000	65.089464 
3840.000000	65.105676 
3839.000000	65.117573 
3838.000000	65.121746 
3837.000000	65.117621 
3836.000000	65.106987 
3835.000000	65.093874 
3834.000000	65.083336 
3833.000000	65.079879 
3832.000000	65.086412 
3831.000000	65.102744 
3830.000000	65.126228 
3829.000000	65.151405 
3828.000000	65.171742 
3827.000000	65.180516 
3826.000000	65.173125 
3825.000000	65.147328 
3824.000000	65.103912 
3823.000000	65.046286 
3822.000000	64.980053 
3821.000000	64.911746 
3820.000000	64.848136 
3819.000000	64.795541 
3818.000000	64.759516 
3817.000000	64.744710 
3816.000000	64.754438 
3815.000000	64.790296 
3814.000000	64.851379 
3813.000000	64.934277 
3812.000000	65.032625 
3811.000000	65.137076 
3810.000000	65.236616 
3809.000000	65.319848 
3808.000000	65.376782 
3807.000000	65.400576 
3806.000000	65.388584 
3805.000000	65.343379 
3804.000000	65.271520 
3803.000000	65.182685 
3802.000000	65.087270 
3801.000000	64.995384 
3800.000000	64.914584 
3799.000000	64.849710 
3798.000000	64.802408 
3797.000000	64.772057 
3796.000000	64.756560 
3795.000000	64.753460 
3794.000000	64.760351 
3793.000000	64.775347 
3792.000000	64.797043 
3791.000000	64.824438 
3790.000000	64.856410 
3789.000000	64.891743 
3788.000000	64.928746 
3787.000000	64.965486 
3786.000000	65.000295 
3785.000000	65.031981 
3784.000000	65.059876 
3783.000000	65.083909 
3782.000000	65.104413 
3781.000000	65.121817 
3780.000000	65.137004 
3779.000000	65.150475 
3778.000000	65.162563 
3777.000000	65.173006 
3776.000000	65.181612 
3775.000000	65.187597 
3774.000000	65.190196 
3773.000000	65.188384 
3772.000000	65.181088 
3771.000000	65.167403 
3770.000000	65.147137 
3769.000000	65.120458 
3768.000000	65.088057 
3767.000000	65.051555 
3766.000000	65.013575 
3765.000000	64.977502 
3764.000000	64.947128 
3763.000000	64.926075 
3762.000000	64.917039 
3761.000000	64.921283 
3760.000000	64.938282 
3759.000000	64.965415 
3758.000000	64.998674 
3757.000000	65.033340 
3756.000000	65.065026 
3755.000000	65.090107 
3754.000000	65.106821 
3753.000000	65.115261 
3752.000000	65.117216 
3751.000000	65.115308 
3750.000000	65.112447 
3749.000000	65.111064 
3748.000000	65.112709 
3747.000000	65.117955 
3746.000000	65.126442 
3745.000000	65.137219 
3744.000000	65.148925 
3743.000000	65.160155 
3742.000000	65.169429 
3741.000000	65.175223 
3740.000000	65.175962 
3739.000000	65.170335 
3738.000000	65.157651 
3737.000000	65.138196 
3736.000000	65.113687 
3735.000000	65.087223 
3734.000000	65.062832 
3733.000000	65.044498 
3732.000000	65.035486 
3731.000000	65.037441 
3730.000000	65.049648 
3729.000000	65.069365 
3728.000000	65.092086 
3727.000000	65.113091 
3726.000000	65.128445 
3725.000000	65.136289 
3724.000000	65.136790 
3723.000000	65.132570 
3722.000000	65.127635 
3721.000000	65.126109 
3720.000000	65.130901 
3719.000000	65.142679 
3718.000000	65.159511 
3717.000000	65.177416 
3716.000000	65.191411 
3715.000000	65.196990 
3714.000000	65.191316 
3713.000000	65.174007 
3712.000000	65.147256 
3711.000000	65.115165 
3710.000000	65.082502 
3709.000000	65.053606 
3708.000000	65.031409 
3707.000000	65.016913 
3706.000000	65.009307 
3705.000000	65.006732 
3704.000000	65.006899 
3703.000000	65.007901 
3702.000000	65.008354 
3701.000000	65.007638 
3700.000000	65.005755 
3699.000000	65.002369 
3698.000000	64.997291 
3697.000000	64.989805 
3696.000000	64.979362 
3695.000000	64.965796 
3694.000000	64.949727 
3693.000000	64.932847 
3692.000000	64.917230 
3691.000000	64.905095 
3690.000000	64.897942 
3689.000000	64.896130 
3688.000000	64.898657 
3687.000000	64.903545 
3686.000000	64.908289 
3685.000000	64.910888 
3684.000000	64.910602 
3683.000000	64.908170 
3682.000000	64.905714 
3681.000000	64.906048 
3680.000000	64.911746 
3679.000000	64.924430 
3678.000000	64.944005 
3677.000000	64.968585 
3676.000000	64.994788 
3675.000000	65.018916 
3674.000000	65.037727 
3673.000000	65.049624 
3672.000000	65.054917 
3671.000000	65.055990 
3670.000000	65.056490 
3669.000000	65.060424 
3668.000000	65.071129 
3667.000000	65.090179 
3666.000000	65.117263 
3665.000000	65.150022 
3664.000000	65.184831 
3663.000000	65.217208 
3662.000000	65.243268 
3661.000000	65.260076 
3660.000000	65.266156 
3659.000000	65.261483 
3658.000000	65.247106 
3657.000000	65.224862 
3656.000000	65.196585 
3655.000000	65.164113 
3654.000000	65.128970 
3653.000000	65.092563 
3652.000000	65.056204 
3651.000000	65.021300 
3650.000000	64.989423 
3649.000000	64.961957 
3648.000000	64.940381 
3647.000000	64.925479 
3646.000000	64.918017 
3645.000000	64.918231 
3644.000000	64.926338 
3643.000000	64.942097 
3642.000000	64.964914 
3641.000000	64.993858 
3640.000000	65.027260 
3639.000000	65.062689 
3638.000000	65.097069 
3637.000000	65.126991 
3636.000000	65.149188 
3635.000000	65.161013 
3634.000000	65.161228 
3633.000000	65.150237 
3632.000000	65.129923 
3631.000000	65.103507 
3630.000000	65.074753 
3629.000000	65.047335 
3628.000000	65.024137 
3627.000000	65.006780 
3626.000000	64.995765 
3625.000000	64.990568 
3624.000000	64.990210 
3623.000000	64.993619 
3622.000000	64.999604 
3621.000000	65.007162 
3620.000000	65.015554 
3619.000000	65.024471 
3618.000000	65.033602 
3617.000000	65.042972 
3616.000000	65.052700 
3615.000000	65.063023 
3614.000000	65.074324 
3613.000000	65.086722 
3612.000000	65.100121 
3611.000000	65.113830 
3610.000000	65.126943 
3609.000000	65.138077 
3608.000000	65.145611 
3607.000000	65.148401 
3606.000000	65.145921 
3605.000000	65.138435 
3604.000000	65.126895 
3603.000000	65.112709 
3602.000000	65.097427 
3601.000000	65.082383 
3600.000000	65.068554 
3599.000000	65.056657 
3598.000000	65.047240 
3597.000000	65.040946 
3596.000000	65.038442 
3595.000000	65.040349 
3594.000000	65.046834 
3593.000000	65.057277 
3592.000000	65.070366 
3591.000000	65.083765 
3590.000000	65.094757 
3589.000000	65.100502 
3588.000000	65.098929 
3587.000000	65.089058 
3586.000000	65.071368 
3585.000000	65.047788 
3584.000000	65.021038 
3583.000000	64.994144 
3582.000000	64.969539 
3581.000000	64.948773 
3580.000000	64.932346 
3579.000000	64.919662 
3578.000000	64.909672 
3577.000000	64.901375 
3576.000000	64.894104 
3575.000000	64.887976 
3574.000000	64.883470 
3573.000000	64.881539 
3572.000000	64.882826 
3571.000000	64.887881 
3570.000000	64.896488 
3569.000000	64.908075 
3568.000000	64.921712 
3567.000000	64.936447 
3566.000000	64.951419 
3565.000000	64.966177 
3564.000000	64.980459 
3563.000000	64.994025 
3562.000000	65.006470 
3561.000000	65.017175 
3560.000000	65.025115 
3559.000000	65.029335 
3558.000000	65.029215 
3557.000000	65.024757 
3556.000000	65.016889 
3555.000000	65.007257 
3554.000000	64.998078 
3553.000000	64.991426 
3552.000000	64.988565 
3551.000000	64.989662 
3550.000000	64.993548 
3549.000000	64.998102 
3548.000000	65.000867 
3547.000000	64.999723 
3546.000000	64.993143 
3545.000000	64.980816 
3544.000000	64.963650 
3543.000000	64.943242 
3542.000000	64.921855 
3541.000000	64.901614 
3540.000000	64.884424 
3539.000000	64.871525 
3538.000000	64.863944 
3537.000000	64.862203 
3536.000000	64.866733 
3535.000000	64.877724 
3534.000000	64.894962 
3533.000000	64.917707 
3532.000000	64.944624 
3531.000000	64.973521 
3530.000000	65.001940 
3529.000000	65.027213 
3528.000000	65.046787 
3527.000000	65.058732 
3526.000000	65.061688 
3525.000000	65.054917 
3524.000000	65.038609 
3523.000000	65.013694 
3522.000000	64.981961 
3521.000000	64.945960 
3520.000000	64.909291 
3519.000000	64.875888 
3518.000000	64.849734 
3517.000000	64.834070 
3516.000000	64.830565 
3515.000000	64.839005 
3514.000000	64.856886 
3513.000000	64.880347 
3512.000000	64.904165 
3511.000000	64.923906 
3510.000000	64.936375 
3509.000000	64.940953 
3508.000000	64.939332 
3507.000000	64.934968 
3506.000000	64.931797 
3505.000000	64.933037 
3504.000000	64.940142 
3503.000000	64.952254 
3502.000000	64.966797 
3501.000000	64.980125 
3500.000000	64.988899 
3499.000000	64.991235 
3498.000000	64.987301 
3497.000000	64.979290 
3496.000000	64.970684 
3495.000000	64.965248 
3494.000000	64.965867 
3493.000000	64.973759 
3492.000000	64.987993 
3491.000000	65.005898 
3490.000000	65.023398 
3489.000000	65.036559 
3488.000000	65.042376 
3487.000000	65.039157 
3486.000000	65.027070 
3485.000000	65.007710 
3484.000000	64.984011 
3483.000000	64.959359 
3482.000000	64.937162 
3481.000000	64.920282 
3480.000000	64.910674 
3479.000000	64.909315 
3478.000000	64.915966 
3477.000000	64.929366 
3476.000000	64.947295 
3475.000000	64.966940 
3474.000000	64.985227 
3473.000000	64.999318 
3472.000000	65.007209 
3471.000000	65.007805 
3470.000000	65.001344 
3469.000000	64.989209 
3468.000000	64.973735 
3467.000000	64.957499 
3466.000000	64.942884 
3465.000000	64.931511 
3464.000000	64.924192 
3463.000000	64.920401 
3462.000000	64.919114 
3461.000000	64.918637 
3460.000000	64.917230 
3459.000000	64.913463 
3458.000000	64.906144 
3457.000000	64.895057 
3456.000000	64.880466 
3455.000000	64.863681 
3454.000000	64.846205 
3453.000000	64.830303 
3452.000000	64.818263 
3451.000000	64.812541 
3450.000000	64.815115 
3449.000000	64.827442 
3448.000000	64.850068 
3447.000000	64.882421 
3446.000000	64.922809 
3445.000000	64.968562 
3444.000000	65.016365 
3443.000000	65.062546 
3442.000000	65.103816 
3441.000000	65.137600 
3440.000000	65.162205 
3439.000000	65.177202 
3438.000000	65.182924 
3437.000000	65.180349 
3436.000000	65.170764 
3435.000000	65.155744 
3434.000000	65.136861 
3433.000000	65.115666 
3432.000000	65.093564 
3431.000000	65.072488 
3430.000000	65.054059 
3429.000000	65.039563 
3428.000000	65.029621 
3427.000000	65.024209 
3426.000000	65.022563 
3425.000000	65.023183 
3424.000000	65.024471 
3423.000000	65.024971 
3422.000000	65.024089 
3421.000000	65.022230 
3420.000000	65.020704 
3419.000000	65.021133 
3418.000000	65.024971 
3417.000000	65.032887 
3416.000000	65.044021 
3415.000000	65.056061 
3414.000000	65.066003 
3413.000000	65.070843 
3412.000000	65.068149 
3411.000000	65.056943 
3410.000000	65.038061 
3409.000000	65.014314 
3408.000000	64.989447 
3407.000000	64.967966 
3406.000000	64.953899 
3405.000000	64.950513 
3404.000000	64.959764 
3403.000000	64.981746 
3402.000000	65.014791 
3401.000000	65.055561 
3400.000000	65.099883 
3399.000000	65.142798 
3398.000000	65.179252 
3397.000000	65.204668 
3396.000000	65.215706 
3395.000000	65.210723 
3394.000000	65.189838 
3393.000000	65.154957 
3392.000000	65.109443 
3391.000000	65.057420 
3390.000000	65.003180 
3389.000000	64.950251 
3388.000000	64.901280 
3387.000000	64.857959 
3386.000000	64.821410 
3385.000000	64.792275 
3384.000000	64.771366 
3383.000000	64.759445 
3382.000000	64.757728 
3381.000000	64.766788 
3380.000000	64.787173 
3379.000000	64.818477 
3378.000000	64.859485 
3377.000000	64.907860 
3376.000000	64.960718 
3375.000000	65.014553 
3374.000000	65.066003 
3373.000000	65.112137 
3372.000000	65.150642 
3371.000000	65.180182 
3370.000000	65.199947 
3369.000000	65.210008 
3368.000000	65.210556 
3367.000000	65.202260 
3366.000000	65.185642 
3365.000000	65.161466 
3364.000000	65.130352 
3363.000000	65.093183 
3362.000000	65.051150 
3361.000000	65.006089 
3360.000000	64.960670 
3359.000000	64.918160 
3358.000000	64.882278 
3357.000000	64.856600 
3356.000000	64.843511 
3355.000000	64.843916 
3354.000000	64.856767 
3353.000000	64.879393 
3352.000000	64.907622 
3351.000000	64.937114 
3350.000000	64.963793 
3349.000000	64.985013 
3348.000000	64.999866 
3347.000000	65.009212 
3346.000000	65.014886 
3345.000000	65.019321 
3344.000000	65.024662 
3343.000000	65.032005 
3342.000000	65.041327 
3341.000000	65.051341 
3340.000000	65.060448 
3339.000000	65.066885 
3338.000000	65.069460 
3337.000000	65.067410 
3336.000000	65.060615 
3335.000000	65.049242 
3334.000000	65.033793 
3333.000000	65.014958 
3332.000000	64.993667 
3331.000000	64.971351 
3330.000000	64.949750 
3329.000000	64.930915 
3328.000000	64.916586 
3327.000000	64.908313 
3326.000000	64.906716 
3325.000000	64.911246 
3324.000000	64.920210 
3323.000000	64.931035 
3322.000000	64.940881 
3321.000000	64.947152 
3320.000000	64.948081 
3319.000000	64.943051 
3318.000000	64.932847 
3317.000000	64.919328 
3316.000000	64.904928 
3315.000000	64.891886 
3314.000000	64.882254 
3313.000000	64.877200 
3312.000000	64.877104 
3311.000000	64.881515 
3310.000000	64.889001 
3309.000000	64.897632 
3308.000000	64.905118 
3307.000000	64.909219 
3306.000000	64.908242 
3305.000000	64.901304 
3304.000000	64.888501 
3303.000000	64.871168 
3302.000000	64.851307 
3301.000000	64.831590 
3300.000000	64.814829 
3299.000000	64.803576 
3298.000000	64.799642 
3297.000000	64.803981 
3296.000000	64.816617 
3295.000000	64.836549 
3294.000000	64.861965 
3293.000000	64.890098 
3292.000000	64.917802 
3291.000000	64.941883 
3290.000000	64.959287 
3289.000000	64.967918 
3288.000000	64.966607 
3287.000000	64.955806 
3286.000000	64.937329 
3285.000000	64.914274 
3284.000000	64.890408 
3283.000000	64.869189 
3282.000000	64.853239 
3281.000000	64.843463 
3280.000000	64.839148 
3279.000000	64.837837 
3278.000000	64.836382 
3277.000000	64.831614 
3276.000000	64.821577 
3275.000000	64.806318 
3274.000000	64.787888 
3273.000000	64.769959 
3272.000000	64.756989 
3271.000000	64.752793 
3270.000000	64.759564 
3269.000000	64.777088 
3268.000000	64.802837 
3267.000000	64.832520 
3266.000000	64.861202 
3265.000000	64.884614 
3264.000000	64.900064 
3263.000000	64.906954 
3262.000000	64.906549 
3261.000000	64.901280 
3260.000000	64.894127 
3259.000000	64.887714 
3258.000000	64.883661 
3257.000000	64.882302 
3256.000000	64.883112 
3255.000000	64.885091 
3254.000000	64.887571 
3253.000000	64.890456 
3252.000000	64.894390 
3251.000000	64.900350 
3250.000000	64.909315 
3249.000000	64.921808 
3248.000000	64.937210 
3247.000000	64.953970 
3246.000000	64.969611 
3245.000000	64.981460 
3244.000000	64.987468 
3243.000000	64.986681 
3242.000000	64.979696 
3241.000000	64.968490 
3240.000000	64.956140 
3239.000000	64.945816 
3238.000000	64.940166 
3237.000000	64.940237 
3236.000000	64.945435 
3235.000000	64.953088 
3234.000000	64.959502 
3233.000000	64.960718 
3232.000000	64.953708 
3231.000000	64.937138 
3230.000000	64.911937 
3229.000000	64.881300 
3228.000000	64.849972 
3227.000000	64.823246 
3226.000000	64.805674 
3225.000000	64.799976 
3224.000000	64.806294 
3223.000000	64.822101 
3222.000000	64.842891 
3221.000000	64.863085 
3220.000000	64.877676 
3219.000000	64.883065 
3218.000000	64.878201 
3217.000000	64.864587 
3216.000000	64.846158 
3215.000000	64.828038 
3214.000000	64.815282 
3213.000000	64.811658 
3212.000000	64.818787 
3211.000000	64.836001 
3210.000000	64.860272 
3209.000000	64.887309 
3208.000000	64.912509 
3207.000000	64.932155 
3206.000000	64.944052 
3205.000000	64.947843 
3204.000000	64.944767 
3203.000000	64.937019 
3202.000000	64.927339 
3201.000000	64.918088 
3200.000000	64.910960 
3199.000000	64.906644 
3198.000000	64.905118 
3197.000000	64.905762 
3196.000000	64.907979 
3195.000000	64.911222 
3194.000000	64.915132 
3193.000000	64.919447 
3192.000000	64.923930 
3191.000000	64.928293 
3190.000000	64.932036 
3189.000000	64.934754 
3188.000000	64.935970 
3187.000000	64.935588 
3186.000000	64.933824 
3185.000000	64.931178 
3184.000000	64.928650 
3183.000000	64.927101 
3182.000000	64.927411 
3181.000000	64.929914 
3180.000000	64.934492 
3179.000000	64.940214 
3178.000000	64.945673 
3177.000000	64.948987 
3176.000000	64.948225 
3175.000000	64.941954 
3174.000000	64.929556 
3173.000000	64.911365 
3172.000000	64.888548 
3171.000000	64.863038 
3170.000000	64.837169 
3169.000000	64.813232 
3168.000000	64.793300 
3167.000000	64.778757 
3166.000000	64.770412 
3165.000000	64.768552 
3164.000000	64.773178 
3163.000000	64.784026 
3162.000000	64.800786 
3161.000000	64.822983 
3160.000000	64.849638 
3159.000000	64.879250 
3158.000000	64.909672 
3157.000000	64.938116 
3156.000000	64.961600 
3155.000000	64.977502 
3154.000000	64.983916 
3153.000000	64.980316 
3152.000000	64.967489 
3151.000000	64.947366 
3150.000000	64.922642 
3149.000000	64.896225 
3148.000000	64.870619 
3147.000000	64.847397 
3146.000000	64.827251 
3145.000000	64.810180 
3144.000000	64.795970 
3143.000000	64.784669 
3142.000000	64.776730 
3141.000000	64.773225 
3140.000000	64.775466 
3139.000000	64.784646 
3138.000000	64.801073 
3137.000000	64.823865 
3136.000000	64.850616 
3135.000000	64.877796 
3134.000000	64.901256 
3133.000000	64.917278 
3132.000000	64.923310 
3131.000000	64.918565 
3130.000000	64.904284 
3129.000000	64.883422 
3128.000000	64.859843 
3127.000000	64.837718 
3126.000000	64.820432 
3125.000000	64.810228 
3124.000000	64.807868 
3123.000000	64.812850 
3122.000000	64.823794 
3121.000000	64.838695 
3120.000000	64.855504 
3119.000000	64.872288 
3118.000000	64.887285 
3117.000000	64.898920 
3116.000000	64.905500 
3115.000000	64.905524 
3114.000000	64.897966 
3113.000000	64.882469 
3112.000000	64.859485 
3111.000000	64.830756 
3110.000000	64.799165 
3109.000000	64.768242 
3108.000000	64.741754 
3107.000000	64.722943 
3106.000000	64.714026 
3105.000000	64.716053 
3104.000000	64.728665 
3103.000000	64.749979 
3102.000000	64.777207 
3101.000000	64.807224 
3100.000000	64.837026 
3099.000000	64.863872 
3098.000000	64.885735 
3097.000000	64.901518 
3096.000000	64.911103 
3095.000000	64.915251 
3094.000000	64.915323 
3093.000000	64.912915 
3092.000000	64.909744 
3091.000000	64.907383 
3090.000000	64.907026 
3089.000000	64.908933 
3088.000000	64.912915 
3087.000000	64.918088 
3086.000000	64.923357 
3085.000000	64.927458 
3084.000000	64.929437 
3083.000000	64.928460 
3082.000000	64.924144 
3081.000000	64.916300 
3080.000000	64.904832 
3079.000000	64.889621 
3078.000000	64.870476 
3077.000000	64.847207 
3076.000000	64.819884 
3075.000000	64.789009 
3074.000000	64.755511 
3073.000000	64.721155 
3072.000000	64.688062 
3071.000000	64.658975 
3070.000000	64.636683 
3069.000000	64.623689 
3068.000000	64.621448 
3067.000000	64.630532 
3066.000000	64.650464 
3065.000000	64.679622 
3064.000000	64.715552 
3063.000000	64.755249 
3062.000000	64.795660 
3061.000000	64.833736 
3060.000000	64.867115 
3059.000000	64.894056 
3058.000000	64.913535 
3057.000000	64.925312 
3056.000000	64.929723 
3055.000000	64.927840 
3054.000000	64.920759 
3053.000000	64.910197 
3052.000000	64.897680 
3051.000000	64.885067 
3050.000000	64.873790 
3049.000000	64.865422 
3048.000000	64.860677 
3047.000000	64.859604 
3046.000000	64.861178 
3045.000000	64.863991 
3044.000000	64.866113 
3043.000000	64.865660 
3042.000000	64.861178 
3041.000000	64.852237 
3040.000000	64.839553 
3039.000000	64.824700 
3038.000000	64.809966 
3037.000000	64.797735 
3036.000000	64.789843 
3035.000000	64.787197 
3034.000000	64.789390 
3033.000000	64.794683 
3032.000000	64.800691 
3031.000000	64.804577 
3030.000000	64.803886 
3029.000000	64.796829 
3028.000000	64.782857 
3027.000000	64.762878 
3026.000000	64.738535 
3025.000000	64.712667 
3024.000000	64.688444 
3023.000000	64.668893 
3022.000000	64.656567 
3021.000000	64.653086 
3020.000000	64.658737 
3019.000000	64.672493 
3018.000000	64.692211 
3017.000000	64.715075 
3016.000000	64.737987 
3015.000000	64.758205 
3014.000000	64.773654 
3013.000000	64.783096 
3012.000000	64.786291 
3011.000000	64.783835 
3010.000000	64.776849 
3009.000000	64.766883 
3008.000000	64.755463 
3007.000000	64.744305 
3006.000000	64.734911 
3005.000000	64.728474 
3004.000000	64.725899 
3003.000000	64.727807 
3002.000000	64.734172 
3001.000000	64.744639 
3000.000000	64.758133 
2999.000000	64.773201 
2998.000000	64.788103 
2997.000000	64.801216 
2996.000000	64.811301 
2995.000000	64.817571 
2994.000000	64.820051 
2993.000000	64.819049 
2992.000000	64.815473 
2991.000000	64.810299 
2990.000000	64.804649 
2989.000000	64.799618 
2988.000000	64.796042 
2987.000000	64.794445 
2986.000000	64.794874 
2985.000000	64.796972 
2984.000000	64.799809 
2983.000000	64.802217 
2982.000000	64.803028 
2981.000000	64.801526 
2980.000000	64.797449 
2979.000000	64.791297 
2978.000000	64.784216 
2977.000000	64.777755 
2976.000000	64.773583 
2975.000000	64.772820 
2974.000000	64.775848 
2973.000000	64.782071 
2972.000000	64.790105 
2971.000000	64.797949 
2970.000000	64.803624 
2969.000000	64.805650 
2968.000000	64.803194 
2967.000000	64.796161 
2966.000000	64.785075 
2965.000000	64.770865 
2964.000000	64.754390 
2963.000000	64.736676 
2962.000000	64.718723 
2961.000000	64.701676 
2960.000000	64.686679 
2959.000000	64.674806 
2958.000000	64.667057 
2957.000000	64.663934 
2956.000000	64.665341 
2955.000000	64.670515 
2954.000000	64.678192 
2953.000000	64.686775 
2952.000000	64.694738 
2951.000000	64.700961 
2950.000000	64.704799 
2949.000000	64.706301 
2948.000000	64.705896 
2947.000000	64.704036 
2946.000000	64.701247 
2945.000000	64.697790 
2944.000000	64.693856 
2943.000000	64.689683 
2942.000000	64.685630 
2941.000000	64.682626 
2940.000000	64.681577 
2939.000000	64.683365 
2938.000000	64.688301 
2937.000000	64.695811 
2936.000000	64.704489 
2935.000000	64.712309 
2934.000000	64.717006 
2933.000000	64.716553 
2932.000000	64.709806 
2931.000000	64.696907 
2930.000000	64.679336 
2929.000000	64.659643 
2928.000000	64.640808 
2927.000000	64.625811 
2926.000000	64.616799 
2925.000000	64.614772 
2924.000000	64.619350 
2923.000000	64.629077 
2922.000000	64.641666 
2921.000000	64.654874 
2920.000000	64.666724 
2919.000000	64.676165 
2918.000000	64.682936 
2917.000000	64.687609 
2916.000000	64.690971 
2915.000000	64.693689 
2914.000000	64.696192 
2913.000000	64.698028 
2912.000000	64.698052 
2911.000000	64.694595 
2910.000000	64.686107 
2909.000000	64.671611 
2908.000000	64.650964 
2907.000000	64.625239 
2906.000000	64.596700 
2905.000000	64.568161 
2904.000000	64.542675 
2903.000000	64.522862 
2902.000000	64.510321 
2901.000000	64.505577 
2900.000000	64.508080 
2899.000000	64.516305 
2898.000000	64.528393 
2897.000000	64.542484 
2896.000000	64.557147 
2895.000000	64.571523 
2894.000000	64.585375 
2893.000000	64.598846 
2892.000000	64.612340 
2891.000000	64.626216 
2890.000000	64.640688 
2889.000000	64.655566 
2888.000000	64.670395 
2887.000000	64.684581 
2886.000000	64.697384 
2885.000000	64.708280 
2884.000000	64.716839 
2883.000000	64.722967 
2882.000000	64.726686 
2881.000000	64.728283 
2880.000000	64.728116 
2879.000000	64.726853 
2878.000000	64.725065 
2877.000000	64.723086 
2876.000000	64.721298 
2875.000000	64.719939 
2874.000000	64.718914 
2873.000000	64.717817 
2872.000000	64.716148 
2871.000000	64.713382 
2870.000000	64.709258 
2869.000000	64.703989 
2868.000000	64.698100 
2867.000000	64.692640 
2866.000000	64.689135 
2865.000000	64.689326 
2864.000000	64.694428 
2863.000000	64.704895 
2862.000000	64.720416 
2861.000000	64.739608 
2860.000000	64.760136 
2859.000000	64.779186 
2858.000000	64.794206 
2857.000000	64.803338 
2856.000000	64.805698 
2855.000000	64.802002 
2854.000000	64.794158 
2853.000000	64.785099 
2852.000000	64.777970 
2851.000000	64.775633 
2850.000000	64.780163 
2849.000000	64.792227 
2848.000000	64.810991 
2847.000000	64.834260 
2846.000000	64.858889 
2845.000000	64.881300 
2844.000000	64.898085 
2843.000000	64.906573 
2842.000000	64.905357 
2841.000000	64.894461 
2840.000000	64.875197 
2839.000000	64.849877 
2838.000000	64.821147 
2837.000000	64.791870 
2836.000000	64.764237 
2835.000000	64.739894 
2834.000000	64.719510 
2833.000000	64.702916 
2832.000000	64.689588 
2831.000000	64.678764 
2830.000000	64.669752 
2829.000000	64.661931 
2828.000000	64.655017 
2827.000000	64.648771 
2826.000000	64.643144 
2825.000000	64.637875 
2824.000000	64.632678 
2823.000000	64.627122 
2822.000000	64.620780 
2821.000000	64.613628 
2820.000000	64.605903 
2819.000000	64.598393 
2818.000000	64.592218 
2817.000000	64.589047 
2816.000000	64.590406 
2815.000000	64.597558 
2814.000000	64.611172 
2813.000000	64.631009 
2812.000000	64.655876 
2811.000000	64.683508 
2810.000000	64.711117 
2809.000000	64.735317 
2808.000000	64.752769 
2807.000000	64.760613 
2806.000000	64.757132 
2805.000000	64.742112 
2804.000000	64.716958 
2803.000000	64.684581 
2802.000000	64.649128 
2801.000000	64.615201 
2800.000000	64.587092 
2799.000000	64.567923 
2798.000000	64.559245 
2797.000000	64.560770 
2796.000000	64.570474 
2795.000000	64.585161 
2794.000000	64.601421 
2793.000000	64.616322 
2792.000000	64.628028 
2791.000000	64.636087 
2790.000000	64.641499 
2789.000000	64.645791 
2788.000000	64.650917 
2787.000000	64.658260 
2786.000000	64.668250 
2785.000000	64.680504 
2784.000000	64.693617 
2783.000000	64.705896 
2782.000000	64.715528 
2781.000000	64.721298 
2780.000000	64.722609 
2779.000000	64.719510 
2778.000000	64.712786 
2777.000000	64.703679 
2776.000000	64.693880 
2775.000000	64.684891 
2774.000000	64.678049 
2773.000000	64.674329 
2772.000000	64.674305 
2771.000000	64.678144 
2770.000000	64.685487 
2769.000000	64.695501 
2768.000000	64.707016 
2767.000000	64.718914 
2766.000000	64.730167 
2765.000000	64.740109 
2764.000000	64.748573 
2763.000000	64.755678 
2762.000000	64.761853 
2761.000000	64.767456 
2760.000000	64.772653 
2759.000000	64.777088 
2758.000000	64.780068 
2757.000000	64.780569 
2756.000000	64.777588 
2755.000000	64.770269 
2754.000000	64.758276 
2753.000000	64.741873 
2752.000000	64.721965 
2751.000000	64.700031 
2750.000000	64.677906 
2749.000000	64.657688 
2748.000000	64.641189 
2747.000000	64.629817 
2746.000000	64.624357 
2745.000000	64.624834 
2744.000000	64.630579 
2743.000000	64.640164 
2742.000000	64.651703 
2741.000000	64.663171 
2740.000000	64.672780 
2739.000000	64.679336 
2738.000000	64.682579 
2737.000000	64.683008 
2736.000000	64.681720 
2735.000000	64.680194 
2734.000000	64.679479 
2733.000000	64.680123 
2732.000000	64.681839 
2731.000000	64.683818 
2730.000000	64.684891 
2729.000000	64.683914 
2728.000000	64.680218 
2727.000000	64.673781 
2726.000000	64.665389 
2725.000000	64.656281 
2724.000000	64.648056 
2723.000000	64.642143 
2722.000000	64.639687 
2721.000000	64.641237 
2720.000000	64.646792 
2719.000000	64.655876 
2718.000000	64.667701 
2717.000000	64.681363 
2716.000000	64.696002 
2715.000000	64.710593 
2714.000000	64.724349 
2713.000000	64.736652 
2712.000000	64.747095 
2711.000000	64.755606 
2710.000000	64.762377 
2709.000000	64.767646 
2708.000000	64.771699 
2707.000000	64.774131 
2706.000000	64.774346 
2705.000000	64.771127 
2704.000000	64.762902 
2703.000000	64.748239 
2702.000000	64.726305 
2701.000000	64.697265 
2700.000000	64.662456 
2699.000000	64.624428 
2698.000000	64.586377 
2697.000000	64.551782 
2696.000000	64.523673 
2695.000000	64.504265 
2694.000000	64.494299 
2693.000000	64.493250 
2692.000000	64.499640 
2691.000000	64.511537 
2690.000000	64.526963 
2689.000000	64.544367 
2688.000000	64.562773 
2687.000000	64.581727 
2686.000000	64.600849 
2685.000000	64.619731 
2684.000000	64.637827 
2683.000000	64.654231 
2682.000000	64.668202 
2681.000000	64.679241 
2680.000000	64.687347 
2679.000000	64.693355 
2678.000000	64.698457 
2677.000000	64.703607 
2676.000000	64.709210 
2675.000000	64.714837 
2674.000000	64.719104 
2673.000000	64.719867 
2672.000000	64.714932 
2671.000000	64.703011 
2670.000000	64.684057 
2669.000000	64.659857 
2668.000000	64.633464 
2667.000000	64.608764 
2666.000000	64.589238 
2665.000000	64.577031 
2664.000000	64.572262 
2663.000000	64.573049 
2662.000000	64.576220 
2661.000000	64.578247 
2660.000000	64.576506 
2659.000000	64.569878 
2658.000000	64.559292 
2657.000000	64.547443 
2656.000000	64.537835 
2655.000000	64.533829 
2654.000000	64.538097 
2653.000000	64.551877 
2652.000000	64.574837 
2651.000000	64.605236 
2650.000000	64.640522 
2649.000000	64.677786 
2648.000000	64.714503 
2647.000000	64.748430 
2646.000000	64.777970 
2645.000000	64.801883 
2644.000000	64.819335 
2643.000000	64.829468 
2642.000000	64.831686 
2641.000000	64.825463 
2640.000000	64.810919 
2639.000000	64.788627 
2638.000000	64.759755 
2637.000000	64.726185 
2636.000000	64.690303 
2635.000000	64.654827 
2634.000000	64.622545 
2633.000000	64.595985 
2632.000000	64.576959 
2631.000000	64.566373 
2630.000000	64.564156 
2629.000000	64.568996 
2628.000000	64.578819 
2627.000000	64.591026 
2626.000000	64.603376 
2625.000000	64.613676 
2624.000000	64.620900 
2623.000000	64.624762 
2622.000000	64.626097 
2621.000000	64.626097 
2620.000000	64.626336 
2619.000000	64.628219 
2618.000000	64.632654 
2617.000000	64.639997 
2616.000000	64.650082 
2615.000000	64.662575 
2614.000000	64.676856 
2613.000000	64.692306 
2612.000000	64.707946 
2611.000000	64.722251 
2610.000000	64.733266 
2609.000000	64.738821 
2608.000000	64.736843 
2607.000000	64.725828 
2606.000000	64.705443 
2605.000000	64.676952 
2604.000000	64.642763 
2603.000000	64.606189 
2602.000000	64.570832 
2601.000000	64.539694 
2600.000000	64.514732 
2599.000000	64.496541 
2598.000000	64.484143 
2597.000000	64.475965 
2596.000000	64.470291 
2595.000000	64.466142 
2594.000000	64.462971 
2593.000000	64.461350 
2592.000000	64.462327 
2591.000000	64.467239 
2590.000000	64.476656 
2589.000000	64.490699 
2588.000000	64.508843 
2587.000000	64.530158 
2586.000000	64.553451 
2585.000000	64.577579 
2584.000000	64.601683 
2583.000000	64.625048 
2582.000000	64.647126 
2581.000000	64.667415 
2580.000000	64.685344 
2579.000000	64.700412 
2578.000000	64.712262 
2577.000000	64.720773 
2576.000000	64.725732 
2575.000000	64.727449 
2574.000000	64.726161 
2573.000000	64.721679 
2572.000000	64.713287 
2571.000000	64.700341 
2570.000000	64.681935 
2569.000000	64.657402 
2568.000000	64.626598 
2567.000000	64.590525 
2566.000000	64.551115 
2565.000000	64.511013 
2564.000000	64.473176 
2563.000000	64.440107 
2562.000000	64.413762 
2561.000000	64.395117 
2560.000000	64.384293 
2559.000000	64.380431 
2558.000000	64.382529 
2557.000000	64.389705 
2556.000000	64.401340 
2555.000000	64.416933 
2554.000000	64.436173 
2553.000000	64.458608 
2552.000000	64.483261 
2551.000000	64.508676 
2550.000000	64.533329 
2549.000000	64.556026 
2548.000000	64.576196 
2547.000000	64.593935 
2546.000000	64.610171 
2545.000000	64.625930 
2544.000000	64.642381 
2543.000000	64.659976 
2542.000000	64.678406 
2541.000000	64.696502 
2540.000000	64.712691 
2539.000000	64.725041 
2538.000000	64.731860 
2537.000000	64.731836 
2536.000000	64.724564 
2535.000000	64.710354 
2534.000000	64.690303 
2533.000000	64.665985 
2532.000000	64.639449 
2531.000000	64.612579 
2530.000000	64.586901 
2529.000000	64.563536 
2528.000000	64.543128 
2527.000000	64.526081 
2526.000000	64.512538 
2525.000000	64.502573 
2524.000000	64.496207 
2523.000000	64.493703 
2522.000000	64.495420 
2521.000000	64.501571 
2520.000000	64.512228 
2519.000000	64.527273 
2518.000000	64.546084 
2517.000000	64.567494 
2516.000000	64.589786 
2515.000000	64.611005 
2514.000000	64.628982 
2513.000000	64.641880 
2512.000000	64.648294 
2511.000000	64.647698 
2510.000000	64.640545 
2509.000000	64.628028 
2508.000000	64.611911 
2507.000000	64.594388 
2506.000000	64.577221 
2505.000000	64.561843 
2504.000000	64.548945 
2503.000000	64.538335 
2502.000000	64.529252 
2501.000000	64.520788 
2500.000000	64.512109 
2499.000000	64.502835 
2498.000000	64.493036 
2497.000000	64.483356 
2496.000000	64.474797 
2495.000000	64.468407 
2494.000000	64.464998 
2493.000000	64.465117 
2492.000000	64.468789 
2491.000000	64.475822 
2490.000000	64.485740 
2489.000000	64.497900 
2488.000000	64.511632 
2487.000000	64.525985 
2486.000000	64.539980 
2485.000000	64.552283 
2484.000000	64.561438 
2483.000000	64.566254 
2482.000000	64.565706 
2481.000000	64.559626 
2480.000000	64.548993 
2479.000000	64.535617 
2478.000000	64.522290 
2477.000000	64.511823 
2476.000000	64.506435 
2475.000000	64.507174 
2474.000000	64.513587 
2473.000000	64.523720 
2472.000000	64.534425 
2471.000000	64.542269 
2470.000000	64.544486 
2469.000000	64.539504 
2468.000000	64.527559 
2467.000000	64.510440 
2466.000000	64.491200 
2465.000000	64.473485 
2464.000000	64.460635 
2463.000000	64.454960 
2462.000000	64.457178 
2461.000000	64.466524 
2460.000000	64.480733 
2459.000000	64.496946 
2458.000000	64.511966 
2457.000000	64.523243 
2456.000000	64.529299 
2455.000000	64.529514 
2454.000000	64.524602 
2453.000000	64.515900 
2452.000000	64.505386 
2451.000000	64.494967 
2450.000000	64.486312 
2449.000000	64.480686 
2448.000000	64.478731 
2447.000000	64.480590 
2446.000000	64.486074 
2445.000000	64.494562 
2444.000000	64.505243 
2443.000000	64.516878 
2442.000000	64.527964 
2441.000000	64.536762 
2440.000000	64.541530 
2439.000000	64.540958 
2438.000000	64.534306 
2437.000000	64.521694 
2436.000000	64.504218 
2435.000000	64.483642 
2434.000000	64.461946 
2433.000000	64.440870 
2432.000000	64.421749 
2431.000000	64.405417 
2430.000000	64.392089 
2429.000000	64.381861 
2428.000000	64.374899 
2427.000000	64.371585 
2426.000000	64.372754 
2425.000000	64.378976 
2424.000000	64.390397 
2423.000000	64.406228 
2422.000000	64.424443 
2421.000000	64.442324 
2420.000000	64.456605 
2419.000000	64.464688 
2418.000000	64.465188 
2417.000000	64.458799 
2416.000000	64.447951 
2415.000000	64.436602 
2414.000000	64.428901 
2413.000000	64.428329 
2412.000000	64.436411 
2411.000000	64.452648 
2410.000000	64.474391 
2409.000000	64.497947 
2408.000000	64.519190 
2407.000000	64.534759 
2406.000000	64.542913 
2405.000000	64.543604 
2404.000000	64.538407 
2403.000000	64.529490 
2402.000000	64.519190 
2401.000000	64.509034 
2400.000000	64.499902 
2399.000000	64.491748 
2398.000000	64.484119 
2397.000000	64.476847 
2396.000000	64.470028 
2395.000000	64.464282 
2394.000000	64.460396 
2393.000000	64.459037 
2392.000000	64.460277 
2391.000000	64.463281 
2390.000000	64.466214 
2389.000000	64.467000 
2388.000000	64.463496 
2387.000000	64.454483 
2386.000000	64.440083 
2385.000000	64.421820 
2384.000000	64.402484 
2383.000000	64.385557 
2382.000000	64.374446 
2381.000000	64.371585 
2380.000000	64.378094 
2379.000000	64.393281 
2378.000000	64.415025 
2377.000000	64.439868 
2376.000000	64.464068 
2375.000000	64.484167 
2374.000000	64.497470 
2373.000000	64.502859 
2372.000000	64.500784 
2371.000000	64.493203 
2370.000000	64.483118 
2369.000000	64.473915 
2368.000000	64.468646 
2367.000000	64.469385 
2366.000000	64.476823 
2365.000000	64.490246 
2364.000000	64.507746 
2363.000000	64.526748 
2362.000000	64.544701 
2361.000000	64.559698 
2360.000000	64.570903 
2359.000000	64.578485 
2358.000000	64.583563 
2357.000000	64.587569 
2356.000000	64.591622 
2355.000000	64.596104 
2354.000000	64.600586 
2353.000000	64.603948 
2352.000000	64.604640 
2351.000000	64.601778 
2350.000000	64.595007 
2349.000000	64.584946 
2348.000000	64.573025 
2347.000000	64.561104 
2346.000000	64.550971 
2345.000000	64.543890 
2344.000000	64.540004 
2343.000000	64.538455 
2342.000000	64.537572 
2341.000000	64.535379 
2340.000000	64.530158 
2339.000000	64.521050 
2338.000000	64.508247 
2337.000000	64.493036 
2336.000000	64.477372 
2335.000000	64.463353 
2334.000000	64.452910 
2333.000000	64.447116 
2332.000000	64.445972 
2331.000000	64.448499 
2330.000000	64.452981 
2329.000000	64.457559 
2328.000000	64.460420 
2327.000000	64.460492 
2326.000000	64.457607 
2325.000000	64.452481 
2324.000000	64.446449 
2323.000000	64.440917 
2322.000000	64.437150 
2321.000000	64.435648 
2320.000000	64.436149 
2319.000000	64.437818 
2318.000000	64.439630 
2317.000000	64.440822 
2316.000000	64.441013 
2315.000000	64.440345 
2314.000000	64.439487 
2313.000000	64.439201 
2312.000000	64.440059 
2311.000000	64.442038 
2310.000000	64.444422 
2309.000000	64.446043 
2308.000000	64.445352 
2307.000000	64.441108 
2306.000000	64.432692 
2305.000000	64.420390 
2304.000000	64.405441 
2303.000000	64.389753 
2302.000000	64.375638 
2301.000000	64.365005 
2300.000000	64.359283 
2299.000000	64.359021 
2298.000000	64.363837 
2297.000000	64.372587 
2296.000000	64.383578 
2295.000000	64.394927 
2294.000000	64.404821 
2293.000000	64.411902 
2292.000000	64.415383 
2291.000000	64.415025 
2290.000000	64.411091 
2289.000000	64.404320 
2288.000000	64.395713 
2287.000000	64.386296 
2286.000000	64.376974 
2285.000000	64.368462 
2284.000000	64.361357 
2283.000000	64.355945 
2282.000000	64.352488 
2281.000000	64.350986 
2280.000000	64.351224 
2279.000000	64.352774 
2278.000000	64.354944 
2277.000000	64.356923 
2276.000000	64.357852 
2275.000000	64.356923 
2274.000000	64.353775 
2273.000000	64.348459 
2272.000000	64.341449 
2271.000000	64.333796 
2270.000000	64.326834 
2269.000000	64.321899 
2268.000000	64.320063 
2267.000000	64.321875 
2266.000000	64.327168 
2265.000000	64.334988 
2264.000000	64.343976 
2263.000000	64.352369 
2262.000000	64.358425 
2261.000000	64.360833 
2260.000000	64.358830 
2259.000000	64.352488 
2258.000000	64.342617 
2257.000000	64.330673 
2256.000000	64.318561 
2255.000000	64.308261 
2254.000000	64.301562 
2253.000000	64.299559 
2252.000000	64.302515 
2251.000000	64.309859 
2250.000000	64.320373 
2249.000000	64.332365 
2248.000000	64.343857 
2247.000000	64.353132 
2246.000000	64.358949 
2245.000000	64.360380 
2244.000000	64.357209 
2243.000000	64.349675 
2242.000000	64.338374 
2241.000000	64.324331 
2240.000000	64.308738 
2239.000000	64.293074 
2238.000000	64.278697 
2237.000000	64.266896 
2236.000000	64.258670 
2235.000000	64.254641 
2234.000000	64.254879 
2233.000000	64.259004 
2232.000000	64.266133 
2231.000000	64.275145 
2230.000000	64.285087 
2229.000000	64.295244 
2228.000000	64.305329 
2227.000000	64.315390 
2226.000000	64.325594 
2225.000000	64.336156 
2224.000000	64.346957 
2223.000000	64.357542 
2222.000000	64.367413 
2221.000000	64.375829 
2220.000000	64.382410 
2219.000000	64.386820 
2218.000000	64.389228 
2217.000000	64.389967 
2216.000000	64.389514 
2215.000000	64.388394 
2214.000000	64.386987 
2213.000000	64.385700 
2212.000000	64.384961 
2211.000000	64.385128 
2210.000000	64.386391 
2209.000000	64.388751 
2208.000000	64.392185 
2207.000000	64.396262 
2206.000000	64.400172 
2205.000000	64.402794 
2204.000000	64.402937 
2203.000000	64.399552 
2202.000000	64.392018 
2201.000000	64.380335 
2200.000000	64.365005 
2199.000000	64.347028 
2198.000000	64.327716 
2197.000000	64.308261 
2196.000000	64.289522 
2195.000000	64.272046 
2194.000000	64.256095 
2193.000000	64.241552 
2192.000000	64.228415 
2191.000000	64.216780 
2190.000000	64.207053 
2189.000000	64.199709 
2188.000000	64.195561 
2187.000000	64.195346 
2186.000000	64.199733 
2185.000000	64.208793 
2184.000000	64.222264 
2183.000000	64.239406 
2182.000000	64.258909 
2181.000000	64.279103 
2180.000000	64.297986 
2179.000000	64.313578 
2178.000000	64.324140 
2177.000000	64.328527 
2176.000000	64.326333 
2175.000000	64.318180 
2174.000000	64.305710 
2173.000000	64.291238 
2172.000000	64.277291 
2171.000000	64.266180 
2170.000000	64.259481 
2169.000000	64.257931 
2168.000000	64.261245 
2167.000000	64.268207 
2166.000000	64.277267 
2165.000000	64.287066 
2164.000000	64.296436 
2163.000000	64.304733 
2162.000000	64.311909 
2161.000000	64.318203 
2160.000000	64.323639 
2159.000000	64.327931 
2158.000000	64.330458 
2157.000000	64.330244 
2156.000000	64.326357 
2155.000000	64.318251 
2154.000000	64.305996 
2153.000000	64.290547 
2152.000000	64.273667 
2151.000000	64.257526 
2150.000000	64.244246 
2149.000000	64.235401 
2148.000000	64.231920 
2147.000000	64.233803 
2146.000000	64.240097 
2145.000000	64.249300 
2144.000000	64.259815 
2143.000000	64.270114 
2142.000000	64.278984 
2141.000000	64.285778 
2140.000000	64.290356 
2139.000000	64.292883 
2138.000000	64.293885 
2137.000000	64.294052 
2136.000000	64.294123 
2135.000000	64.294958 
2134.000000	64.297246 
2133.000000	64.301681 
2132.000000	64.308357 
2131.000000	64.316964 
2130.000000	64.326477 
2129.000000	64.335322 
2128.000000	64.341616 
2127.000000	64.343452 
2126.000000	64.339423 
2125.000000	64.329218 
2124.000000	64.313721 
2123.000000	64.294862 
2122.000000	64.275383 
2121.000000	64.258170 
2120.000000	64.245629 
2119.000000	64.239072 
2118.000000	64.238524 
2117.000000	64.242672 
2116.000000	64.249300 
2115.000000	64.255857 
2114.000000	64.260125 
2113.000000	64.260530 
2112.000000	64.256644 
2111.000000	64.249134 
2110.000000	64.239454 
2109.000000	64.229536 
2108.000000	64.221143 
2107.000000	64.215421 
2106.000000	64.212775 
2105.000000	64.212584 
2104.000000	64.213776 
2103.000000	64.214825 
2102.000000	64.214134 
2101.000000	64.210367 
2100.000000	64.202904 
2099.000000	64.191794 
2098.000000	64.177799 
2097.000000	64.162254 
2096.000000	64.146542 
2095.000000	64.132070 
2094.000000	64.119744 
2093.000000	64.110112 
2092.000000	64.103269 
2091.000000	64.099407 
2090.000000	64.098739 
2089.000000	64.101862 
2088.000000	64.109301 
2087.000000	64.121294 
2086.000000	64.137625 
2085.000000	64.156937 
2084.000000	64.177417 
2083.000000	64.196920 
2082.000000	64.213871 
2081.000000	64.227294 
2080.000000	64.237451 
2079.000000	64.245605 
2078.000000	64.253616 
2077.000000	64.263367 
2076.000000	64.275956 
2075.000000	64.291477 
2074.000000	64.308428 
2073.000000	64.324498 
2072.000000	64.336776 
2071.000000	64.342737 
2070.000000	64.340710 
2069.000000	64.330458 
2068.000000	64.312934 
2067.000000	64.290308 
2066.000000	64.265131 
2065.000000	64.240026 
2064.000000	64.216971 
2063.000000	64.197254 
2062.000000	64.181447 
2061.000000	64.169406 
2060.000000	64.160513 
2059.000000	64.153718 
2058.000000	64.147806 
2057.000000	64.141535 
2056.000000	64.133548 
2055.000000	64.122986 
2054.000000	64.109063 
2053.000000	64.091801 
2052.000000	64.071941 
2051.000000	64.051175 
2050.000000	64.031505 
2049.000000	64.015126 
2048.000000	64.003896 
2047.000000	63.998866 
2046.000000	63.999938 
2045.000000	64.005994 
2044.000000	64.015173 
2043.000000	64.025163 
2042.000000	64.033985 
2041.000000	64.040303 
2040.000000	64.043688 
2039.000000	64.044547 
2038.000000	64.043903 
2037.000000	64.042997 
2036.000000	64.042973 
2035.000000	64.044499 
2034.000000	64.047622 
2033.000000	64.051818 
2032.000000	64.056134 
2031.000000	64.059519 
2030.000000	64.061164 
2029.000000	64.060497 
2028.000000	64.057278 
2027.000000	64.051651 
2026.000000	64.044141 
2025.000000	64.035201 
2024.000000	64.025425 
2023.000000	64.015436 
2022.000000	64.005780 
2021.000000	63.997054 
2020.000000	63.989996 
2019.000000	63.985347 
2018.000000	63.983702 
2017.000000	63.985466 
2016.000000	63.990783 
2015.000000	63.999342 
2014.000000	64.010405 
2013.000000	64.022803 
2012.000000	64.035177 
2011.000000	64.046072 
2010.000000	64.054346 
2009.000000	64.059281 
2008.000000	64.060688 
2007.000000	64.058971 
2006.000000	64.055061 
2005.000000	64.050102 
2004.000000	64.045405 
2003.000000	64.042067 
2002.000000	64.040827 
2001.000000	64.041829 
2000.000000	64.044785 
1999.000000	64.048886 
1998.000000	64.053106 
1997.000000	64.056134 
1996.000000	64.057016 
1995.000000	64.055156 
1994.000000	64.050459 
1993.000000	64.043426 
1992.000000	64.035081 
1991.000000	64.026808 
1990.000000	64.019942 
1989.000000	64.015650 
1988.000000	64.014673 
1987.000000	64.017271 
1986.000000	64.023113 
1985.000000	64.031195 
1984.000000	64.040255 
1983.000000	64.048790 
1982.000000	64.055538 
1981.000000	64.059400 
1980.000000	64.059710 
1979.000000	64.056420 
1978.000000	64.049959 
1977.000000	64.041185 
1976.000000	64.031338 
1975.000000	64.021515 
1974.000000	64.012861 
1973.000000	64.006066 
1972.000000	64.001607 
1971.000000	63.999438 
1970.000000	63.999390 
1969.000000	64.001035 
1968.000000	64.003872 
1967.000000	64.007568 
1966.000000	64.011836 
1965.000000	64.016509 
1964.000000	64.021301 
1963.000000	64.025902 
1962.000000	64.029765 
1961.000000	64.032220 
1960.000000	64.032578 
1959.000000	64.030027 
1958.000000	64.024162 
1957.000000	64.015054 
1956.000000	64.003252 
1955.000000	63.989901 
1954.000000	63.976526 
1953.000000	63.964629 
1952.000000	63.955616 
1951.000000	63.950276 
1950.000000	63.948774 
1949.000000	63.950490 
1948.000000	63.954210 
1947.000000	63.958501 
1946.000000	63.961958 
1945.000000	63.963603 
1944.000000	63.962984 
1943.000000	63.960456 
1942.000000	63.956928 
1941.000000	63.953685 
1940.000000	63.951992 
1939.000000	63.952994 
1938.000000	63.957238 
1937.000000	63.964796 
1936.000000	63.975191 
1935.000000	63.987493 
1934.000000	64.000630 
1933.000000	64.013504 
1932.000000	64.025354 
1931.000000	64.035558 
1930.000000	64.043712 
1929.000000	64.049673 
1928.000000	64.053225 
1927.000000	64.054298 
1926.000000	64.052724 
1925.000000	64.048457 
1924.000000	64.041352 
1923.000000	64.031553 
1922.000000	64.019203 
1921.000000	64.004778 
1920.000000	63.989019 
1919.000000	63.972735 
1918.000000	63.956975 
1917.000000	63.942742 
1916.000000	63.931107 
1915.000000	63.923048 
1914.000000	63.919305 
1913.000000	63.920426 
1912.000000	63.926529 
1911.000000	63.937020 
1910.000000	63.950943 
1909.000000	63.966560 
1908.000000	63.981866 
1907.000000	63.994646 
1906.000000	64.003205 
1905.000000	64.006662 
1904.000000	64.005184 
1903.000000	63.999748 
1902.000000	63.992094 
1901.000000	63.984179 
1900.000000	63.977670 
1899.000000	63.973498 
1898.000000	63.971710 
1897.000000	63.971590 
1896.000000	63.971924 
1895.000000	63.971710 
1894.000000	63.970398 
1893.000000	63.968181 
1892.000000	63.966012 
1891.000000	63.965201 
1890.000000	63.966965 
1889.000000	63.972020 
1888.000000	63.980221 
1887.000000	63.990545 
1886.000000	64.001536 
1885.000000	64.011406 
1884.000000	64.018750 
1883.000000	64.022612 
1882.000000	64.022588 
1881.000000	64.018702 
1880.000000	64.011240 
1879.000000	64.000463 
1878.000000	63.986587 
1877.000000	63.969993 
1876.000000	63.951134 
1875.000000	63.931012 
1874.000000	63.911080 
1873.000000	63.893342 
1872.000000	63.879871 
1871.000000	63.872551 
1870.000000	63.872551 
1869.000000	63.879919 
1868.000000	63.893628 
1867.000000	63.911747 
1866.000000	63.931965 
1865.000000	63.951659 
1864.000000	63.968801 
1863.000000	63.982081 
1862.000000	63.990855 
1861.000000	63.995170 
1860.000000	63.995504 
1859.000000	63.992595 
1858.000000	63.987207 
1857.000000	63.979983 
1856.000000	63.971400 
1855.000000	63.961935 
1854.000000	63.951921 
1853.000000	63.941788 
1852.000000	63.931870 
1851.000000	63.922667 
1850.000000	63.914608 
1849.000000	63.908100 
1848.000000	63.903427 
1847.000000	63.900899 
1846.000000	63.900732 
1845.000000	63.902997 
1844.000000	63.907337 
1843.000000	63.913106 
1842.000000	63.919305 
1841.000000	63.924646 
1840.000000	63.927578 
1839.000000	63.926959 
1838.000000	63.921952 
1837.000000	63.912701 
1836.000000	63.900423 
1835.000000	63.886976 
1834.000000	63.874912 
1833.000000	63.866472 
1832.000000	63.863587 
1831.000000	63.866853 
1830.000000	63.875555 
1829.000000	63.887786 
1828.000000	63.900923 
1827.000000	63.912081 
1826.000000	63.919019 
1825.000000	63.920283 
1824.000000	63.915681 
1823.000000	63.906121 
1822.000000	63.893175 
1821.000000	63.878798 
1820.000000	63.864731 
1819.000000	63.852357 
1818.000000	63.842368 
1817.000000	63.834810 
1816.000000	63.829374 
1815.000000	63.825750 
1814.000000	63.823962 
1813.000000	63.824081 
1812.000000	63.826608 
1811.000000	63.832044 
1810.000000	63.840842 
1809.000000	63.852882 
1808.000000	63.867568 
1807.000000	63.883852 
1806.000000	63.899970 
1805.000000	63.914132 
1804.000000	63.924574 
1803.000000	63.930130 
1802.000000	63.930153 
1801.000000	63.924717 
1800.000000	63.914465 
1799.000000	63.900494 
1798.000000	63.884115 
1797.000000	63.866591 
1796.000000	63.848996 
1795.000000	63.832330 
1794.000000	63.817477 
1793.000000	63.805556 
1792.000000	63.797855 
1791.000000	63.795542 
1790.000000	63.799691 
1789.000000	63.810849 
1788.000000	63.828754 
1787.000000	63.852190 
1786.000000	63.878941 
1785.000000	63.906216 
1784.000000	63.930892 
1783.000000	63.950228 
1782.000000	63.962340 
1781.000000	63.966608 
1780.000000	63.963532 
1779.000000	63.954710 
1778.000000	63.942289 
1777.000000	63.928604 
1776.000000	63.915538 
1775.000000	63.904213 
1774.000000	63.894844 
1773.000000	63.886833 
1772.000000	63.879299 
1771.000000	63.871312 
1770.000000	63.862466 
1769.000000	63.852858 
1768.000000	63.843154 
1767.000000	63.834261 
1766.000000	63.827133 
1765.000000	63.822102 
1764.000000	63.819074 
1763.000000	63.817095 
1762.000000	63.814878 
1761.000000	63.811063 
1760.000000	63.804268 
1759.000000	63.793778 
1758.000000	63.779258 
1757.000000	63.761067 
1756.000000	63.740038 
1755.000000	63.717269 
1754.000000	63.694143 
1753.000000	63.671946 
1752.000000	63.652253 
1751.000000	63.636541 
1750.000000	63.626194 
1749.000000	63.622331 
1748.000000	63.625335 
1747.000000	63.634657 
1746.000000	63.648700 
1745.000000	63.664841 
1744.000000	63.679671 
1743.000000	63.689780 
1742.000000	63.692450 
1741.000000	63.686132 
1740.000000	63.670897 
1739.000000	63.648319 
1738.000000	63.621306 
1737.000000	63.593506 
1736.000000	63.568425 
1735.000000	63.548946 
1734.000000	63.536858 
1733.000000	63.532686 
1732.000000	63.535785 
1731.000000	63.544607 
1730.000000	63.557410 
1729.000000	63.572525 
1728.000000	63.588595 
1727.000000	63.604927 
1726.000000	63.621091 
1725.000000	63.637185 
1724.000000	63.653159 
1723.000000	63.669037 
1722.000000	63.684535 
1721.000000	63.699197 
1720.000000	63.712310 
1719.000000	63.723111 
1718.000000	63.731002 
1717.000000	63.735651 
1716.000000	63.737034 
1715.000000	63.735365 
1714.000000	63.731145 
1713.000000	63.724875 
1712.000000	63.717198 
1711.000000	63.708686 
1710.000000	63.699793 
1709.000000	63.690996 
1708.000000	63.682746 
1707.000000	63.675546 
1706.000000	63.669943 
1705.000000	63.666200 
1704.000000	63.664484 
1703.000000	63.664579 
1702.000000	63.666176 
1701.000000	63.668966 
1700.000000	63.672733 
1699.000000	63.677430 
1698.000000	63.683319 
1697.000000	63.690829 
1696.000000	63.700342 
1695.000000	63.712024 
1694.000000	63.725352 
1693.000000	63.739323 
1692.000000	63.752222 
1691.000000	63.762187 
1690.000000	63.767337 
1689.000000	63.766479 
1688.000000	63.759446 
1687.000000	63.747096 
1686.000000	63.731336 
1685.000000	63.714790 
1684.000000	63.700103 
1683.000000	63.689398 
1682.000000	63.684010 
1681.000000	63.683938 
1680.000000	63.688158 
1679.000000	63.694715 
1678.000000	63.701176 
1677.000000	63.705348 
1676.000000	63.705587 
1675.000000	63.701272 
1674.000000	63.692593 
1673.000000	63.680791 
1672.000000	63.667464 
1671.000000	63.654541 
1670.000000	63.643717 
1669.000000	63.636302 
1668.000000	63.632941 
1667.000000	63.633584 
1666.000000	63.637590 
1665.000000	63.643813 
1664.000000	63.650941 
1663.000000	63.657689 
1662.000000	63.663029 
1661.000000	63.666081 
1660.000000	63.666272 
1659.000000	63.663125 
1658.000000	63.656425 
1657.000000	63.646078 
1656.000000	63.632345 
1655.000000	63.615894 
1654.000000	63.598036 
1653.000000	63.580536 
1652.000000	63.565659 
1651.000000	63.555335 
1650.000000	63.550996 
1649.000000	63.553023 
1648.000000	63.560414 
1647.000000	63.571000 
1646.000000	63.581991 
1645.000000	63.590097 
1644.000000	63.592910 
1643.000000	63.589453 
1642.000000	63.580536 
1641.000000	63.568520 
1640.000000	63.556790 
1639.000000	63.548779 
1638.000000	63.547158 
1637.000000	63.552999 
1636.000000	63.565468 
1635.000000	63.581991 
1634.000000	63.598990 
1633.000000	63.612842 
1632.000000	63.620448 
1631.000000	63.620257 
1630.000000	63.612341 
1629.000000	63.598299 
1628.000000	63.580799 
1627.000000	63.563060 
1626.000000	63.548040 
1625.000000	63.537883 
1624.000000	63.533449 
1623.000000	63.534235 
1622.000000	63.539052 
1621.000000	63.545656 
1620.000000	63.551688 
1619.000000	63.554763 
1618.000000	63.553142 
1617.000000	63.545775 
1616.000000	63.532590 
1615.000000	63.514399 
1614.000000	63.492631 
1613.000000	63.469171 
1612.000000	63.445901 
1611.000000	63.424587 
1610.000000	63.406515 
1609.000000	63.392472 
1608.000000	63.382887 
1607.000000	63.377761 
1606.000000	63.376855 
1605.000000	63.379645 
1604.000000	63.385629 
1603.000000	63.393998 
1602.000000	63.404107 
1601.000000	63.415479 
1600.000000	63.428044 
1599.000000	63.441896 
1598.000000	63.457322 
1597.000000	63.474392 
1596.000000	63.492846 
1595.000000	63.511967 
1594.000000	63.530492 
1593.000000	63.546872 
1592.000000	63.559365 
1591.000000	63.566684 
1590.000000	63.568258 
1589.000000	63.564682 
1588.000000	63.557434 
1587.000000	63.548898 
1586.000000	63.541460 
1585.000000	63.537287 
1584.000000	63.537478 
1583.000000	63.541960 
1582.000000	63.549518 
1581.000000	63.558244 
1580.000000	63.566040 
1579.000000	63.571238 
1578.000000	63.572883 
1577.000000	63.570928 
1576.000000	63.566279 
1575.000000	63.560461 
1574.000000	63.555145 
1573.000000	63.551998 
1572.000000	63.552165 
1571.000000	63.555788 
1570.000000	63.562297 
1569.000000	63.570427 
1568.000000	63.578462 
1567.000000	63.584613 
1566.000000	63.587665 
1565.000000	63.587188 
1564.000000	63.583397 
1563.000000	63.577342 
1562.000000	63.570570 
1561.000000	63.564538 
1560.000000	63.560223 
1559.000000	63.557600 
1558.000000	63.555836 
1557.000000	63.553285 
1556.000000	63.548064 
1555.000000	63.538861 
1554.000000	63.525319 
1553.000000	63.508486 
1552.000000	63.490533 
1551.000000	63.474273 
1550.000000	63.462495 
1549.000000	63.456940 
1548.000000	63.458037 
1547.000000	63.464665 
1546.000000	63.474464 
1545.000000	63.484501 
1544.000000	63.492083 
1543.000000	63.495516 
1542.000000	63.494253 
1541.000000	63.489174 
1540.000000	63.481879 
1539.000000	63.474249 
1538.000000	63.467669 
1537.000000	63.462662 
1536.000000	63.459014 
1535.000000	63.455724 
1534.000000	63.451552 
1533.000000	63.445687 
1532.000000	63.437819 
1531.000000	63.428187 
1530.000000	63.417577 
1529.000000	63.407063 
1528.000000	63.397812 
1527.000000	63.390779 
1526.000000	63.386750 
1525.000000	63.386225 
1524.000000	63.389587 
1523.000000	63.396906 
1522.000000	63.407945 
1521.000000	63.421988 
1520.000000	63.437843 
1519.000000	63.453888 
1518.000000	63.468050 
1517.000000	63.478422 
1516.000000	63.483762 
1515.000000	63.483715 
1514.000000	63.479065 
1513.000000	63.471436 
1512.000000	63.463020 
1511.000000	63.455986 
1510.000000	63.451790 
1509.000000	63.450980 
1508.000000	63.453006 
1507.000000	63.456773 
1506.000000	63.460850 
1505.000000	63.464188 
1504.000000	63.466405 
1503.000000	63.468003 
1502.000000	63.470029 
1501.000000	63.473868 
1500.000000	63.480710 
1499.000000	63.490915 
1498.000000	63.503813 
1497.000000	63.517737 
1496.000000	63.530182 
1495.000000	63.538575 
1494.000000	63.540577 
1493.000000	63.534665 
1492.000000	63.520336 
1491.000000	63.498401 
1490.000000	63.470673 
1489.000000	63.439726 
1488.000000	63.408517 
1487.000000	63.379812 
1486.000000	63.355898 
1485.000000	63.338279 
1484.000000	63.327574 
1483.000000	63.323378 
1482.000000	63.324618 
1481.000000	63.329553 
1480.000000	63.336324 
1479.000000	63.343095 
1478.000000	63.348746 
1477.000000	63.352847 
1476.000000	63.355731 
1475.000000	63.358235 
1474.000000	63.361287 
1473.000000	63.365530 
1472.000000	63.370990 
1471.000000	63.376998 
1470.000000	63.382411 
1469.000000	63.386178 
1468.000000	63.387632 
1467.000000	63.386774 
1466.000000	63.384366 
1465.000000	63.381576 
1464.000000	63.379597 
1463.000000	63.379335 
1462.000000	63.381004 
1461.000000	63.383984 
1460.000000	63.387227 
1459.000000	63.389396 
1458.000000	63.389587 
1457.000000	63.387298 
1456.000000	63.383078 
1455.000000	63.378024 
1454.000000	63.373279 
1453.000000	63.369798 
1452.000000	63.367700 
1451.000000	63.366389 
1450.000000	63.364434 
1449.000000	63.360166 
1448.000000	63.352298 
1447.000000	63.340330 
1446.000000	63.324928 
1445.000000	63.307857 
1444.000000	63.291573 
1443.000000	63.278722 
1442.000000	63.271450 
1441.000000	63.270807 
1440.000000	63.276338 
1439.000000	63.286232 
1438.000000	63.297653 
1437.000000	63.307261 
1436.000000	63.312268 
1435.000000	63.310956 
1434.000000	63.303232 
1433.000000	63.290238 
1432.000000	63.274312 
1431.000000	63.258361 
1430.000000	63.245034 
1429.000000	63.236451 
1428.000000	63.233613 
1427.000000	63.236403 
1426.000000	63.243865 
1425.000000	63.254857 
1424.000000	63.268256 
1423.000000	63.283419 
1422.000000	63.300013 
1421.000000	63.318037 
1420.000000	63.337421 
1419.000000	63.357710 
1418.000000	63.377737 
1417.000000	63.395786 
1416.000000	63.409852 
1415.000000	63.418245 
1414.000000	63.420009 
1413.000000	63.415098 
1412.000000	63.404440 
1411.000000	63.389420 
1410.000000	63.371872 
1409.000000	63.353395 
1408.000000	63.335156 
1407.000000	63.317584 
1406.000000	63.300728 
1405.000000	63.284659 
1404.000000	63.269615 
1403.000000	63.256573 
1402.000000	63.246870 
1401.000000	63.242101 
1400.000000	63.243436 
1399.000000	63.251280 
1398.000000	63.264942 
1397.000000	63.282322 
1396.000000	63.300347 
1395.000000	63.315463 
1394.000000	63.324308 
1393.000000	63.324403 
1392.000000	63.314557 
1391.000000	63.295197 
1390.000000	63.268184 
1389.000000	63.236808 
1388.000000	63.205146 
1387.000000	63.177490 
1386.000000	63.157463 
1385.000000	63.147449 
1384.000000	63.148164 
1383.000000	63.158726 
1382.000000	63.176560 
1381.000000	63.198113 
1380.000000	63.219523 
1379.000000	63.237285 
1378.000000	63.249039 
1377.000000	63.253593 
1376.000000	63.251495 
1375.000000	63.244366 
1374.000000	63.234901 
1373.000000	63.225984 
1372.000000	63.220167 
1371.000000	63.219356 
1370.000000	63.224196 
1369.000000	63.234400 
1368.000000	63.248562 
1367.000000	63.264679 
1366.000000	63.280391 
1365.000000	63.293600 
1364.000000	63.302683 
1363.000000	63.306689 
1362.000000	63.305521 
1361.000000	63.299798 
1360.000000	63.290762 
1359.000000	63.280034 
1358.000000	63.269162 
1357.000000	63.259649 
1356.000000	63.252687 
1355.000000	63.249039 
1354.000000	63.248920 
1353.000000	63.252162 
1352.000000	63.258123 
1351.000000	63.266015 
1350.000000	63.275003 
1349.000000	63.284277 
1348.000000	63.293004 
1347.000000	63.300418 
1346.000000	63.305759 
1345.000000	63.308453 
1344.000000	63.307976 
1343.000000	63.303923 
1342.000000	63.296270 
1341.000000	63.285493 
1340.000000	63.272666 
1339.000000	63.259315 
1338.000000	63.247275 
1337.000000	63.238430 
1336.000000	63.234162 
1335.000000	63.235402 
1334.000000	63.242244 
1333.000000	63.253903 
1332.000000	63.268852 
1331.000000	63.285136 
1330.000000	63.300609 
1329.000000	63.313412 
1328.000000	63.321971 
1327.000000	63.325285 
1326.000000	63.322782 
1325.000000	63.314366 
1324.000000	63.300538 
1323.000000	63.282275 
1322.000000	63.261008 
1321.000000	63.238739 
1320.000000	63.217592 
1319.000000	63.199949 
1318.000000	63.187861 
1317.000000	63.182878 
1316.000000	63.185501 
1315.000000	63.195347 
1314.000000	63.210773 
1313.000000	63.229107 
1312.000000	63.247108 
1311.000000	63.261413 
1310.000000	63.269042 
1309.000000	63.267993 
1308.000000	63.257813 
1307.000000	63.239622 
1306.000000	63.216018 
1305.000000	63.190364 
1304.000000	63.166451 
1303.000000	63.147330 
1302.000000	63.135027 
1301.000000	63.129925 
1300.000000	63.131022 
1299.000000	63.136076 
1298.000000	63.142275 
1297.000000	63.146901 
1296.000000	63.148021 
1295.000000	63.144946 
1294.000000	63.138079 
1293.000000	63.129091 
1292.000000	63.120198 
1291.000000	63.113999 
1290.000000	63.112521 
1289.000000	63.117027 
1288.000000	63.127541 
1287.000000	63.142943 
1286.000000	63.161134 
1285.000000	63.179159 
1284.000000	63.193750 
1283.000000	63.201832 
1282.000000	63.201069 
1281.000000	63.190197 
1280.000000	63.169550 
1279.000000	63.140940 
1278.000000	63.107252 
1277.000000	63.072276 
1276.000000	63.039803 
1275.000000	63.013386 
1274.000000	62.995266 
1273.000000	62.986564 
1272.000000	62.986755 
1271.000000	62.994241 
1270.000000	63.006353 
1269.000000	63.020253 
1268.000000	63.033103 
1267.000000	63.042569 
1266.000000	63.047432 
1265.000000	63.047409 
1264.000000	63.043475 
1263.000000	63.037204 
1262.000000	63.030672 
1261.000000	63.025760 
1260.000000	63.023877 
1259.000000	63.025641 
1258.000000	63.030576 
1257.000000	63.037252 
1256.000000	63.043594 
1255.000000	63.047528 
1254.000000	63.047432 
1253.000000	63.042593 
1252.000000	63.033485 
1251.000000	63.021588 
1250.000000	63.009023 
1249.000000	62.997865 
1248.000000	62.989807 
1247.000000	62.985610 
1246.000000	62.984633 
1245.000000	62.985491 
1244.000000	62.986302 
1243.000000	62.985515 
1242.000000	62.982225 
1241.000000	62.976861 
1240.000000	62.970781 
1239.000000	62.966251 
1238.000000	62.965750 
1237.000000	62.971138 
1236.000000	62.983036 
1235.000000	63.000917 
1234.000000	63.023257 
1233.000000	63.047885 
1232.000000	63.072514 
1231.000000	63.095140 
1230.000000	63.114523 
1229.000000	63.130092 
1228.000000	63.141775 
1227.000000	63.150024 
1226.000000	63.155579 
1225.000000	63.158941 
1224.000000	63.160681 
1223.000000	63.161253 
1222.000000	63.160943 
1221.000000	63.160181 
1220.000000	63.159418 
1219.000000	63.159155 
1218.000000	63.159608 
1217.000000	63.161158 
1216.000000	63.163518 
1215.000000	63.166141 
1214.000000	63.167834 
1213.000000	63.167285 
1212.000000	63.163161 
1211.000000	63.154554 
1210.000000	63.141107 
1209.000000	63.123178 
1208.000000	63.101720 
1207.000000	63.078498 
1206.000000	63.055324 
1205.000000	63.033747 
1204.000000	63.014769 
1203.000000	62.998867 
1202.000000	62.985587 
1201.000000	62.973761 
1200.000000	62.962055 
1199.000000	62.949275 
1198.000000	62.934517 
1197.000000	62.917685 
1196.000000	62.899589 
1195.000000	62.881970 
1194.000000	62.866878 
1193.000000	62.856674 
1192.000000	62.853097 
1191.000000	62.857365 
1190.000000	62.869453 
1189.000000	62.888169 
1188.000000	62.911510 
1187.000000	62.936735 
1186.000000	62.961006 
1185.000000	62.981748 
1184.000000	62.996912 
1183.000000	63.005304 
1182.000000	63.006448 
1181.000000	63.000559 
1180.000000	62.988352 
1179.000000	62.970829 
1178.000000	62.949204 
1177.000000	62.924814 
1176.000000	62.899017 
1175.000000	62.873315 
1174.000000	62.849330 
1173.000000	62.828493 
1172.000000	62.811994 
1171.000000	62.800574 
1170.000000	62.794446 
1169.000000	62.793111 
1168.000000	62.795495 
1167.000000	62.799954 
1166.000000	62.804818 
1165.000000	62.808346 
1164.000000	62.809228 
1163.000000	62.806653 
1162.000000	62.800502 
1161.000000	62.791299 
1160.000000	62.780046 
1159.000000	62.768054 
1158.000000	62.756729 
1157.000000	62.747240 
1156.000000	62.740349 
1155.000000	62.736463 
1154.000000	62.735319 
1153.000000	62.736320 
1152.000000	62.738680 
1151.000000	62.741565 
1150.000000	62.744498 
1149.000000	62.747335 
1148.000000	62.750697 
1147.000000	62.755537 
1146.000000	62.762928 
1145.000000	62.773609 
1144.000000	62.787747 
1143.000000	62.804889 
1142.000000	62.823891 
1141.000000	62.842822 
1140.000000	62.859797 
1139.000000	62.873101 
1138.000000	62.881183 
1137.000000	62.883210 
1136.000000	62.878918 
1135.000000	62.868952 
1134.000000	62.854886 
1133.000000	62.838721 
1132.000000	62.822866 
1131.000000	62.809205 
1130.000000	62.798905 
1129.000000	62.792110 
1128.000000	62.787938 
1127.000000	62.785100 
1126.000000	62.782287 
1125.000000	62.778806 
1124.000000	62.774825 
1123.000000	62.771320 
1122.000000	62.769603 
1121.000000	62.770986 
1120.000000	62.776160 
1119.000000	62.785673 
1118.000000	62.799525 
1117.000000	62.817645 
1116.000000	62.839722 
1115.000000	62.865233 
1114.000000	62.893128 
1113.000000	62.921833 
1112.000000	62.949252 
1111.000000	62.972998 
1110.000000	62.990641 
1109.000000	63.000106 
1108.000000	63.000059 
1107.000000	62.990427 
1106.000000	62.972235 
1105.000000	62.947583 
1104.000000	62.919521 
1103.000000	62.891507 
1102.000000	62.866783 
1101.000000	62.848091 
1100.000000	62.836551 
1099.000000	62.831926 
1098.000000	62.832331 
1097.000000	62.835097 
1096.000000	62.837171 
1095.000000	62.836027 
1094.000000	62.830233 
1093.000000	62.819981 
1092.000000	62.807011 
1091.000000	62.794184 
1090.000000	62.784671 
1089.000000	62.781310 
1088.000000	62.785816 
1087.000000	62.798357 
1086.000000	62.817454 
1085.000000	62.839841 
1084.000000	62.861824 
1083.000000	62.879347 
1082.000000	62.888979 
1081.000000	62.888431 
1080.000000	62.876844 
1079.000000	62.855148 
1078.000000	62.825441 
1077.000000	62.791204 
1076.000000	62.756371 
1075.000000	62.725305 
1074.000000	62.701964 
1073.000000	62.689518 
1072.000000	62.689852 
1071.000000	62.703323 
1070.000000	62.728810 
1069.000000	62.763476 
1068.000000	62.803435 
1067.000000	62.844085 
1066.000000	62.880825 
1065.000000	62.909531 
1064.000000	62.927103 
1063.000000	62.931847 
1062.000000	62.923622 
1061.000000	62.903594 
1060.000000	62.873888 
1059.000000	62.837362 
1058.000000	62.797188 
1057.000000	62.756419 
1056.000000	62.717866 
1055.000000	62.683701 
1054.000000	62.655711 
1053.000000	62.634992 
1052.000000	62.622165 
1051.000000	62.616991 
1050.000000	62.618780 
1049.000000	62.626361 
1048.000000	62.638354 
1047.000000	62.652802 
1046.000000	62.667775 
1045.000000	62.681126 
1044.000000	62.691140 
1043.000000	62.696504 
1042.000000	62.696838 
1041.000000	62.692570 
1040.000000	62.685179 
1039.000000	62.676978 
1038.000000	62.670636 
1037.000000	62.668657 
1036.000000	62.672805 
1035.000000	62.683749 
1034.000000	62.701106 
1033.000000	62.723159 
1032.000000	62.747550 
1031.000000	62.771368 
1030.000000	62.791848 
1029.000000	62.806391 
1028.000000	62.813568 
1027.000000	62.812542 
1026.000000	62.803220 
1025.000000	62.786078 
1024.000000	62.762355 
1023.000000	62.733483 
1022.000000	62.701249 
1021.000000	62.667465 
1020.000000	62.634325 
1019.000000	62.603878 
1018.000000	62.577939 
1017.000000	62.558054 
1016.000000	62.545156 
1015.000000	62.539863 
1014.000000	62.542009 
1013.000000	62.550997 
1012.000000	62.565684 
1011.000000	62.584280 
1010.000000	62.604594 
1009.000000	62.624192 
1008.000000	62.640881 
1007.000000	62.652945 
1006.000000	62.659907 
1005.000000	62.662076 
1004.000000	62.660765 
1003.000000	62.658143 
1002.000000	62.656331 
1001.000000	62.656903 
1000.000000	62.660789 
999.000000	 62.667822 
998.000000	 62.677168 
997.000000	 62.687277 
996.000000	 62.696671 
995.000000	 62.704205 
994.000000	 62.709665 
993.000000	 62.713551 
992.000000	 62.717199 
991.000000	 62.722301 
990.000000	 62.730813 
989.000000	 62.744259 
988.000000	 62.763452 
987.000000	 62.788534 
986.000000	 62.818717 
985.000000	 62.852454 
984.000000	 62.887215 
983.000000	 62.919878 
982.000000	 62.946987 
981.000000	 62.965226 
980.000000	 62.972092 
979.000000	 62.966299 
978.000000	 62.948226 
977.000000	 62.919831 
976.000000	 62.884640 
975.000000	 62.846732 
974.000000	 62.810349 
973.000000	 62.778997 
972.000000	 62.755084 
971.000000	 62.739300 
970.000000	 62.731003 
969.000000	 62.728357 
968.000000	 62.728929 
967.000000	 62.730360 
966.000000	 62.730503 
965.000000	 62.728071 
964.000000	 62.722444 
963.000000	 62.713813 
962.000000	 62.702727 
961.000000	 62.690186 
960.000000	 62.677359 
959.000000	 62.665367 
958.000000	 62.655210 
957.000000	 62.647724 
956.000000	 62.643313 
955.000000	 62.642002 
954.000000	 62.643361 
953.000000	 62.646722 
952.000000	 62.651133 
951.000000	 62.655544 
950.000000	 62.659025 
949.000000	 62.660598 
948.000000	 62.659406 
947.000000	 62.654876 
946.000000	 62.646675 
945.000000	 62.634611 
944.000000	 62.619042 
943.000000	 62.600755 
942.000000	 62.581014 
941.000000	 62.561416 
940.000000	 62.543678 
939.000000	 62.529468 
938.000000	 62.520337 
937.000000	 62.517142 
936.000000	 62.520194 
935.000000	 62.528800 
934.000000	 62.541794 
933.000000	 62.557363 
932.000000	 62.573552 
931.000000	 62.588739 
930.000000	 62.601852 
929.000000	 62.612581 
928.000000	 62.621569 
927.000000	 62.629914 
926.000000	 62.638759 
925.000000	 62.649083 
924.000000	 62.661194 
923.000000	 62.674593 
922.000000	 62.688207 
921.000000	 62.700557 
920.000000	 62.710380 
919.000000	 62.716841 
918.000000	 62.719964 
917.000000	 62.720251 
916.000000	 62.718844 
915.000000	 62.716937 
914.000000	 62.715506 
913.000000	 62.715029 
912.000000	 62.715339 
911.000000	 62.715935 
910.000000	 62.716269 
909.000000	 62.716031 
908.000000	 62.715435 
907.000000	 62.715148 
906.000000	 62.716126 
905.000000	 62.719392 
904.000000	 62.725520 
903.000000	 62.734580 
902.000000	 62.745952 
901.000000	 62.758517 
900.000000	 62.770771 
899.000000	 62.781333 
898.000000	 62.789082 
897.000000	 62.793540 
896.000000	 62.794923 
895.000000	 62.794041 
894.000000	 62.792015 
893.000000	 62.790322 
892.000000	 62.789845 
891.000000	 62.791299 
890.000000	 62.794446 
889.000000	 62.798523 
888.000000	 62.802076 
887.000000	 62.803316 
886.000000	 62.800288 
885.000000	 62.791490 
884.000000	 62.775897 
883.000000	 62.753272 
882.000000	 62.724304 
881.000000	 62.690448 
880.000000	 62.653565 
879.000000	 62.615847 
878.000000	 62.579345 
877.000000	 62.545967 
876.000000	 62.517547 
875.000000	 62.495803 
874.000000	 62.482166 
873.000000	 62.477755 
872.000000	 62.483239 
871.000000	 62.498736 
870.000000	 62.522935 
869.000000	 62.553715 
868.000000	 62.588095 
867.000000	 62.622833 
866.000000	 62.654376 
865.000000	 62.679719 
864.000000	 62.697029 
863.000000	 62.705659 
862.000000	 62.706255 
861.000000	 62.700510 
860.000000	 62.690615 
859.000000	 62.679123 
858.000000	 62.668466 
857.000000	 62.660646 
856.000000	 62.656974 
855.000000	 62.658047 
854.000000	 62.664031 
853.000000	 62.674403 
852.000000	 62.687969 
851.000000	 62.702965 
850.000000	 62.717270 
849.000000	 62.728452 
848.000000	 62.733960 
847.000000	 62.731647 
846.000000	 62.719941 
845.000000	 62.697935 
844.000000	 62.665319 
843.000000	 62.622785 
842.000000	 62.571620 
841.000000	 62.514042 
840.000000	 62.452697 
839.000000	 62.390780 
838.000000	 62.331938 
837.000000	 62.279915 
836.000000	 62.238788 
835.000000	 62.211680 
834.000000	 62.201452 
833.000000	 62.209725 
832.000000	 62.236905 
831.000000	 62.281370 
830.000000	 62.339735 
829.000000	 62.406492 
828.000000	 62.474966 
827.000000	 62.537956 
826.000000	 62.589335 
825.000000	 62.624812 
824.000000	 62.642788 
823.000000	 62.644577 
822.000000	 62.634086 
821.000000	 62.616610 
820.000000	 62.597727 
819.000000	 62.581992 
818.000000	 62.572288 
817.000000	 62.569069 
816.000000	 62.571167 
815.000000	 62.575697 
814.000000	 62.579011 
813.000000	 62.577652 
812.000000	 62.568998 
811.000000	 62.552285 
810.000000	 62.528228 
809.000000	 62.499809 
808.000000	 62.470960 
807.000000	 62.446570 
806.000000	 62.430882 
805.000000	 62.427139 
804.000000	 62.436819 
803.000000	 62.459111 
802.000000	 62.491130 
801.000000	 62.528109 
800.000000	 62.564182 
799.000000	 62.593317 
798.000000	 62.610387 
797.000000	 62.611699 
796.000000	 62.595796 
795.000000	 62.563920 
794.000000	 62.520122 
793.000000	 62.470316 
792.000000	 62.421226 
791.000000	 62.379550 
790.000000	 62.350440 
789.000000	 62.336897 
788.000000	 62.338924 
787.000000	 62.353610 
786.000000	 62.375903 
785.000000	 62.399435 
784.000000	 62.418437 
783.000000	 62.428474 
782.000000	 62.427711 
781.000000	 62.416887 
780.000000	 62.399029 
779.000000	 62.378573 
778.000000	 62.360262 
777.000000	 62.347793 
776.000000	 62.343096 
775.000000	 62.346005 
774.000000	 62.354135 
773.000000	 62.364172 
772.000000	 62.372207 
771.000000	 62.374973 
770.000000	 62.370491 
769.000000	 62.358427 
768.000000	 62.340068 
767.000000	 62.318038 
766.000000	 62.295651 
765.000000	 62.276148 
764.000000	 62.262177 
763.000000	 62.255239 
762.000000	 62.255692 
761.000000	 62.262606 
760.000000	 62.273502 
759.000000	 62.285256 
758.000000	 62.294507 
757.000000	 62.298488 
756.000000	 62.295269 
755.000000	 62.284421 
754.000000	 62.266945 
753.000000	 62.245130 
752.000000	 62.222123 
751.000000	 62.200903 
750.000000	 62.183856 
749.000000	 62.172174 
748.000000	 62.165760 
747.000000	 62.163329 
746.000000	 62.163090 
745.000000	 62.163376 
744.000000	 62.163066 
743.000000	 62.161922 
742.000000	 62.160587 
741.000000	 62.160086 
740.000000	 62.161540 
739.000000	 62.165498 
738.000000	 62.171745 
737.000000	 62.179589 
736.000000	 62.187767 
735.000000	 62.195324 
734.000000	 62.201690 
733.000000	 62.206649 
732.000000	 62.210273 
731.000000	 62.212610 
730.000000	 62.213730 
729.000000	 62.213349 
728.000000	 62.211132 
727.000000	 62.206554 
726.000000	 62.199282 
725.000000	 62.189698 
724.000000	 62.178564 
723.000000	 62.167286 
722.000000	 62.157225 
721.000000	 62.149477 
720.000000	 62.144231 
719.000000	 62.141084 
718.000000	 62.138652 
717.000000	 62.135219 
716.000000	 62.129259 
715.000000	 62.119865 
714.000000	 62.107324 
713.000000	 62.093162 
712.000000	 62.079954 
711.000000	 62.070775 
710.000000	 62.068295 
709.000000	 62.073922 
708.000000	 62.087631 
707.000000	 62.107205 
706.000000	 62.128877 
705.000000	 62.147593 
704.000000	 62.158155 
703.000000	 62.156295 
702.000000	 62.139654 
701.000000	 62.108325 
700.000000	 62.064766 
699.000000	 62.013888 
698.000000	 61.962246 
697.000000	 61.916518 
696.000000	 61.882376 
695.000000	 61.862874 
694.000000	 61.857962 
693.000000	 61.864423 
692.000000	 61.876940 
691.000000	 61.889195 
690.000000	 61.895394 
689.000000	 61.892271 
688.000000	 61.879539 
687.000000	 61.860203 
686.000000	 61.839509 
685.000000	 61.823391 
684.000000	 61.816859 
683.000000	 61.822533 
682.000000	 61.839890 
681.000000	 61.865305 
680.000000	 61.893010 
679.000000	 61.917090 
678.000000	 61.932349 
677.000000	 61.935830 
676.000000	 61.926507 
675.000000	 61.905479 
674.000000	 61.874866 
673.000000	 61.836481 
672.000000	 61.792302 
671.000000	 61.744141 
670.000000	 61.694383 
669.000000	 61.645960 
668.000000	 61.603116 
667.000000	 61.570906 
666.000000	 61.554503 
665.000000	 61.557841 
664.000000	 61.582493 
663.000000	 61.626982 
662.000000	 61.686491 
661.000000	 61.753487 
660.000000	 61.819243 
659.000000	 61.875319 
658.000000	 61.915421 
657.000000	 61.936235 
656.000000	 61.937379 
655.000000	 61.920738 
654.000000	 61.890530 
653.000000	 61.851334 
652.000000	 61.806678 
651.000000	 61.758375 
650.000000	 61.708045 
649.000000	 61.655926 
648.000000	 61.602497 
647.000000	 61.547970 
646.000000	 61.493539 
645.000000	 61.440205 
644.000000	 61.388731 
643.000000	 61.339235 
642.000000	 61.291241 
641.000000	 61.243319 
640.000000	 61.193108 
639.000000	 61.138820 
638.000000	 61.080050 
637.000000	 61.017894 
636.000000	 60.955095 
635.000000	 60.895609 
634.000000	 60.843992 
633.000000	 60.805392 
632.000000	 60.785222 
631.000000	 60.787963 
630.000000	 60.817289 
629.000000	 60.876107 
628.000000	 60.966348 
627.000000	 61.088013 
626.000000	 61.238145 
625.000000	 61.410140 
624.000000	 61.593365 
623.000000	 61.774587 
622.000000	 61.938905 
621.000000	 62.070560 
620.000000	 62.157988 
619.000000	 62.195754 
618.000000	 62.187433 
617.000000	 62.145280 
616.000000	 62.088513 
615.000000	 62.040328 
614.000000	 62.021493 
613.000000	 62.047004 
612.000000	 62.120079 
611.000000	 62.232303 
610.000000	 62.363791 
609.000000	 62.488818 
608.000000	 62.579774 
607.000000	 62.614107 
606.000000	 62.579679 
605.000000	 62.478160 
604.000000	 62.322902 
603.000000	 62.137031 
602.000000	 61.948418 
601.000000	 61.785602 
600.000000	 61.671924 
599.000000	 61.623311 
598.000000	 61.647486 
597.000000	 61.743378 
596.000000	 61.904072 
595.000000	 62.116003 
594.000000	 62.361264 
593.000000	 62.617754 
592.000000	 62.860608 
591.000000	 63.064980 
590.000000	 63.209199 
589.000000	 63.277029 
588.000000	 63.261270 
587.000000	 63.162946 
586.000000	 62.992644 
585.000000	 62.766265 
584.000000	 62.504410 
583.000000	 62.225079 
582.000000	 61.942338 
581.000000	 61.663460 
580.000000	 61.390781 
579.000000	 61.121678 
578.000000	 60.853576 
577.000000	 60.586166 
576.000000	 60.326051 
575.000000	 60.086941 
574.000000	 59.890437 
573.000000	 59.758973 
572.000000	 59.713530 
571.000000	 59.766006 
570.000000	 59.916925 
569.000000	 60.151743 
568.000000	 60.444021 
567.000000	 60.757708 
566.000000	 61.055564 
565.000000	 61.303377 
564.000000	 61.478805 
563.000000	 61.573767 
562.000000	 61.595845 
561.000000	 61.563324 
560.000000	 61.501622 
559.000000	 61.436676 
558.000000	 61.389660 
557.000000	 61.373782 
556.000000	 61.392807 
555.000000	 61.442732 
554.000000	 61.514949 
553.000000	 61.600184 
552.000000	 61.688852 
551.000000	 61.773180 
550.000000	 61.847352 
549.000000	 61.907601 
548.000000	 61.950159 
547.000000	 61.971950 
546.000000	 61.971497 
545.000000	 61.949372 
544.000000	 61.909294 
543.000000	 61.856865 
542.000000	 61.801671 
541.000000	 61.752080 
540.000000	 61.713528 
539.000000	 61.686491 
538.000000	 61.665582 
537.000000	 61.642980 
536.000000	 61.611080 
535.000000	 61.565756 
534.000000	 61.507916 
533.000000	 61.444640 
532.000000	 61.388063 
531.000000	 61.351203 
530.000000	 61.343288 
529.000000	 61.367940 
528.000000	 61.421155 
527.000000	 61.492013 
526.000000	 61.564970 
525.000000	 61.621451 
524.000000	 61.644387 
523.000000	 61.621093 
522.000000	 61.547255 
521.000000	 61.428427 
520.000000	 61.280202 
519.000000	 61.124658 
518.000000	 60.986781 
517.000000	 60.889530 
516.000000	 60.849213 
515.000000	 60.872340 
514.000000	 60.954308 
513.000000	 61.081719 
512.000000	 61.234498 
511.000000	 61.390352 
510.000000	 61.528396 
509.000000	 61.632442 
508.000000	 61.693358 
507.000000	 61.708378 
506.000000	 61.682128 
505.000000	 61.624002 
504.000000	 61.546993 
503.000000	 61.464571 
502.000000	 61.390328 
501.000000	 61.336088 
500.000000	 61.310362 
499.000000	 61.317563 
498.000000	 61.356163 
497.000000	 61.419248 
496.000000	 61.495137 
495.000000	 61.570072 
494.000000	 61.630535 
493.000000	 61.666274 
492.000000	 61.672163 
491.000000	 61.648988 
490.000000	 61.602854 
489.000000	 61.542844 
488.000000	 61.478805 
487.000000	 61.418056 
486.000000	 61.364698 
485.000000	 61.318063 
484.000000	 61.275339 
483.000000	 61.230826 
482.000000	 61.179566 
481.000000	 61.116600 
480.000000	 61.040139 
479.000000	 60.949325 
478.000000	 60.844373 
477.000000	 60.726332 
476.000000	 60.596013 
475.000000	 60.457944 
474.000000	 60.320472 
473.000000	 60.195899 
472.000000	 60.098576 
471.000000	 60.042428 
470.000000	 60.037374 
469.000000	 60.086250 
468.000000	 60.183215 
467.000000	 60.313606 
466.000000	 60.455894 
465.000000	 60.587430 
464.000000	 60.687303 
463.000000	 60.738372 
462.000000	 60.731673 
461.000000	 60.666394 
460.000000	 60.552382 
459.000000	 60.406398 
458.000000	 60.251975 
457.000000	 60.114812 
456.000000	 60.019421 
455.000000	 59.986972 
454.000000	 60.027980 
453.000000	 60.142970 
452.000000	 60.316348 
451.000000	 60.519981 
450.000000	 60.715603 
449.000000	 60.862135 
448.000000	 60.925197 
447.000000	 60.885143 
446.000000	 60.741877 
445.000000	 60.515713 
444.000000	 60.245132 
443.000000	 59.979844 
442.000000	 59.769105 
441.000000	 59.653449 
440.000000	 59.660577 
439.000000	 59.800457 
438.000000	 60.066390 
437.000000	 60.434770 
436.000000	 60.872101 
435.000000	 61.336398 
434.000000	 61.782193 
433.000000	 62.165474 
432.000000	 62.446880 
431.000000	 62.598395 
430.000000	 62.608575 
429.000000	 62.482595 
428.000000	 62.239193 
427.000000	 61.911201 
426.000000	 61.545515 
425.000000	 61.188745 
424.000000	 60.883498 
423.000000	 60.654830 
422.000000	 60.511374 
421.000000	 60.434579 
420.000000	 60.385918 
419.000000	 60.315871 
418.000000	 60.178637 
417.000000	 59.940767 
416.000000	 59.590721 
415.000000	 59.148311 
414.000000	 58.658194 
413.000000	 58.173489 
412.000000	 57.744312 
411.000000	 57.396841 
410.000000	 57.137250 
409.000000	 56.954622 
408.000000	 56.836581 
407.000000	 56.764674 
406.000000	 56.742095 
405.000000	 56.793904 
404.000000	 56.968140 
403.000000	 57.318067 
402.000000	 57.885408 
401.000000	 58.675432 
400.000000	 59.649515 
399.000000	 60.727429 
398.000000	 61.793851 
397.000000	 62.710118 
396.000000	 63.369202 
395.000000	 63.724803 
394.000000	 63.801717 
393.000000	 63.688898 
392.000000	 63.534188 
391.000000	 63.503170 
390.000000	 63.765716 
389.000000	 64.439630 
388.000000	 65.552926 
387.000000	 67.008972 
386.000000	 68.595576 
385.000000	 70.013451 
384.000000	 70.926618 
383.000000	 71.051454 
382.000000	 70.232272 
381.000000	 68.494009 
380.000000	 66.059875 
379.000000	 63.303351 
378.000000	 60.628128 
377.000000	 58.431053 
376.000000	 56.998324 
375.000000	 56.509208 
374.000000	 56.997656 
373.000000	 58.416509 
372.000000	 60.650181 
371.000000	 63.582515 
370.000000	 67.113280 

