PE IR       SPECTRUM    SPECTRUM    ASCII       PEDS        1.60        
  -1
BZ69A6~1.ASC
17/04/07
19:06:31.00
17/04/07
19:06:31.00
tln
$BZ1503107-1_t0071$<tbV0>[2.6,2.6,8.0,0.0,27,1,0]
370.000000
64









2002,4.07    
MIRTGS : RIGHTBACK : INTERNAL 2
MIR : ON : INTERNAL 2
OPTKBR

0.200000
8
8.000000
FILLER
RATIO
SPECTRUM
UNLOCKED 256

DOUBLE
64
COMBINED
1
0
0


1.000000
RATIO


1
0
TRUE
51149
0
LEFT NOT FITTED RIGHT NOT FITTED 0
NONE
NONE
15600
12.000000
4.427000
51148
TRUE
1 0 8 72 0 0 0 0 

15798.010000






#HDR
-1
-1
#GR
CM-1
%T
0.00002384185791015625
0.0
5000.000000
-1.000000
4631
8
71.023058
32.275152
#DATA
5000.000000	65.404653 
4999.000000	65.515995 
4998.000000	65.594983 
4997.000000	65.640306 
4996.000000	65.657091 
4995.000000	65.654826 
4994.000000	65.644145 
4993.000000	65.633940 
4992.000000	65.629100 
4991.000000	65.630888 
4990.000000	65.636324 
4989.000000	65.641832 
4988.000000	65.641474 
4987.000000	65.629792 
4986.000000	65.601778 
4985.000000	65.554165 
4984.000000	65.486407 
4983.000000	65.400958 
4982.000000	65.303087 
4981.000000	65.199780 
4980.000000	65.099000 
4979.000000	65.008091 
4978.000000	64.932107 
4977.000000	64.873099 
4976.000000	64.830017 
4975.000000	64.799404 
4974.000000	64.775896 
4973.000000	64.754557 
4972.000000	64.731669 
4971.000000	64.706373 
4970.000000	64.679169 
4969.000000	64.653301 
4968.000000	64.632678 
4967.000000	64.622402 
4966.000000	64.625597 
4965.000000	64.645004 
4964.000000	64.681816 
4963.000000	64.735817 
4962.000000	64.805555 
4961.000000	64.886951 
4960.000000	64.973425 
4959.000000	65.056133 
4958.000000	65.125179 
4957.000000	65.171098 
4956.000000	65.186929 
4955.000000	65.170264 
4954.000000	65.123748 
4953.000000	65.055060 
4952.000000	64.974713 
4951.000000	64.894366 
4950.000000	64.823484 
4949.000000	64.767527 
4948.000000	64.726877 
4947.000000	64.697289 
4946.000000	64.672064 
4945.000000	64.644622 
4944.000000	64.611077 
4943.000000	64.571332 
4942.000000	64.529991 
4941.000000	64.494371 
4940.000000	64.473366 
4939.000000	64.473557 
4938.000000	64.498805 
4937.000000	64.548039 
4936.000000	64.616489 
4935.000000	64.696550 
4934.000000	64.779782 
4933.000000	64.858603 
4932.000000	64.927196 
4931.000000	64.982271 
4930.000000	65.022516 
4929.000000	65.047693 
4928.000000	65.058088 
4927.000000	65.053558 
4926.000000	65.033292 
4925.000000	64.995622 
4924.000000	64.939904 
4923.000000	64.865899 
4922.000000	64.774680 
4921.000000	64.668226 
4920.000000	64.550256 
4919.000000	64.425897 
4918.000000	64.300370 
4917.000000	64.179944 
4916.000000	64.071059 
4915.000000	63.980865 
4914.000000	63.915681 
4913.000000	63.880872 
4912.000000	63.879394 
4911.000000	63.911056 
4910.000000	63.971471 
4909.000000	64.052677 
4908.000000	64.143252 
4907.000000	64.231443 
4906.000000	64.306449 
4905.000000	64.361357 
4904.000000	64.393782 
4903.000000	64.407229 
4902.000000	64.409589 
4901.000000	64.411139 
4900.000000	64.421391 
4899.000000	64.447569 
4898.000000	64.492654 
4897.000000	64.554882 
4896.000000	64.628696 
4895.000000	64.706563 
4894.000000	64.781141 
4893.000000	64.847230 
4892.000000	64.902782 
4891.000000	64.948463 
4890.000000	64.987206 
4889.000000	65.022706 
4888.000000	65.057969 
4887.000000	65.094208 
4886.000000	65.130424 
4885.000000	65.164780 
4884.000000	65.194368 
4883.000000	65.216803 
4882.000000	65.230393 
4881.000000	65.235495 
4880.000000	65.233254 
4879.000000	65.225887 
4878.000000	65.215039 
4877.000000	65.201520 
4876.000000	65.184855 
4875.000000	65.163731 
4874.000000	65.135955 
4873.000000	65.099310 
4872.000000	65.053105 
4871.000000	64.998722 
4870.000000	64.939260 
4869.000000	64.879536 
4868.000000	64.825129 
4867.000000	64.781308 
4866.000000	64.751839 
4865.000000	64.738225 
4864.000000	64.739513 
4863.000000	64.752388 
4862.000000	64.771461 
4861.000000	64.790749 
4860.000000	64.804935 
4859.000000	64.810132 
4858.000000	64.804244 
4857.000000	64.787626 
4856.000000	64.762663 
4855.000000	64.733195 
4854.000000	64.703369 
4853.000000	64.676690 
4852.000000	64.655327 
4851.000000	64.639377 
4850.000000	64.627385 
4849.000000	64.616084 
4848.000000	64.601635 
4847.000000	64.580607 
4846.000000	64.551329 
4845.000000	64.514064 
4844.000000	64.471602 
4843.000000	64.428544 
4842.000000	64.390802 
4841.000000	64.363956 
4840.000000	64.352130 
4839.000000	64.357161 
4838.000000	64.377808 
4837.000000	64.409947 
4836.000000	64.447283 
4835.000000	64.482998 
4834.000000	64.510989 
4833.000000	64.526414 
4832.000000	64.527201 
4831.000000	64.513707 
4830.000000	64.489126 
4829.000000	64.458417 
4828.000000	64.427685 
4827.000000	64.402842 
4826.000000	64.389204 
4825.000000	64.390492 
4824.000000	64.409017 
4823.000000	64.445447 
4822.000000	64.498376 
4821.000000	64.564323 
4820.000000	64.638352 
4819.000000	64.714574 
4818.000000	64.786243 
4817.000000	64.846730 
4816.000000	64.890527 
4815.000000	64.914202 
4814.000000	64.916801 
4813.000000	64.900326 
4812.000000	64.869642 
4811.000000	64.831447 
4810.000000	64.793634 
4809.000000	64.762949 
4808.000000	64.744853 
4807.000000	64.741182 
4806.000000	64.750623 
4805.000000	64.768671 
4804.000000	64.788722 
4803.000000	64.804482 
4802.000000	64.811468 
4801.000000	64.808797 
4800.000000	64.799070 
4799.000000	64.788293 
4798.000000	64.783835 
4797.000000	64.792943 
4796.000000	64.820456 
4795.000000	64.867591 
4794.000000	64.931440 
4793.000000	65.005588 
4792.000000	65.081453 
4791.000000	65.150046 
4790.000000	65.203595 
4789.000000	65.236759 
4788.000000	65.247082 
4787.000000	65.235447 
4786.000000	65.205264 
4785.000000	65.161275 
4784.000000	65.108704 
4783.000000	65.052890 
4782.000000	64.998173 
4781.000000	64.948415 
4780.000000	64.905977 
4779.000000	64.872360 
4778.000000	64.848089 
4777.000000	64.832925 
4776.000000	64.826416 
4775.000000	64.827752 
4774.000000	64.836144 
4773.000000	64.850568 
4772.000000	64.870238 
4771.000000	64.894199 
4770.000000	64.921259 
4769.000000	64.949512 
4768.000000	64.977025 
4767.000000	65.001606 
4766.000000	65.021252 
4765.000000	65.033864 
4764.000000	65.037751 
4763.000000	65.031576 
4762.000000	65.014791 
4761.000000	64.987611 
4760.000000	64.951157 
4759.000000	64.907455 
4758.000000	64.859747 
4757.000000	64.811897 
4756.000000	64.768290 
4755.000000	64.732909 
4754.000000	64.709186 
4753.000000	64.699077 
4752.000000	64.702582 
4751.000000	64.717864 
4750.000000	64.741754 
4749.000000	64.769864 
4748.000000	64.797449 
4747.000000	64.820218 
4746.000000	64.835023 
4745.000000	64.840030 
4744.000000	64.834642 
4743.000000	64.819264 
4742.000000	64.794802 
4741.000000	64.762830 
4740.000000	64.725589 
4739.000000	64.686036 
4738.000000	64.647936 
4737.000000	64.616107 
4736.000000	64.595937 
4735.000000	64.592790 
4734.000000	64.610719 
4733.000000	64.651584 
4732.000000	64.713859 
4731.000000	64.792418 
4730.000000	64.878726 
4729.000000	64.962053 
4728.000000	65.031766 
4727.000000	65.079164 
4726.000000	65.100026 
4725.000000	65.095281 
4724.000000	65.070962 
4723.000000	65.037393 
4722.000000	65.005493 
4721.000000	64.984607 
4720.000000	64.979362 
4719.000000	64.989209 
4718.000000	65.008187 
4717.000000	65.027356 
4716.000000	65.037131 
4715.000000	65.030336 
4714.000000	65.004515 
4713.000000	64.962792 
4712.000000	64.912796 
4711.000000	64.864611 
4710.000000	64.828348 
4709.000000	64.811444 
4708.000000	64.817047 
4707.000000	64.843511 
4706.000000	64.885163 
4705.000000	64.933896 
4704.000000	64.981651 
4703.000000	65.022158 
4702.000000	65.051674 
4701.000000	65.069794 
4700.000000	65.077972 
4699.000000	65.079236 
4698.000000	65.076828 
4697.000000	65.073251 
4696.000000	65.069890 
4695.000000	65.066790 
4694.000000	65.063714 
4693.000000	65.059661 
4692.000000	65.053987 
4691.000000	65.045666 
4690.000000	65.033507 
4689.000000	65.016102 
4688.000000	64.992022 
4687.000000	64.960050 
4686.000000	64.919662 
4685.000000	64.871668 
4684.000000	64.818406 
4683.000000	64.764094 
4682.000000	64.714241 
4681.000000	64.674878 
4680.000000	64.651131 
4679.000000	64.646100 
4678.000000	64.660286 
4677.000000	64.691376 
4676.000000	64.734816 
4675.000000	64.784526 
4674.000000	64.834237 
4673.000000	64.878225 
4672.000000	64.912319 
4671.000000	64.933991 
4670.000000	64.942693 
4669.000000	64.938974 
4668.000000	64.924979 
4667.000000	64.903664 
4666.000000	64.878702 
4665.000000	64.854216 
4664.000000	64.833688 
4663.000000	64.819979 
4662.000000	64.814329 
4661.000000	64.816498 
4660.000000	64.824104 
4659.000000	64.833259 
4658.000000	64.839506 
4657.000000	64.839267 
4656.000000	64.830422 
4655.000000	64.813327 
4654.000000	64.791011 
4653.000000	64.768505 
4652.000000	64.751243 
4651.000000	64.743995 
4650.000000	64.749264 
4649.000000	64.767122 
4648.000000	64.794921 
4647.000000	64.828300 
4646.000000	64.862418 
4645.000000	64.892721 
4644.000000	64.915800 
4643.000000	64.929723 
4642.000000	64.933967 
4641.000000	64.929246 
4640.000000	64.917087 
4639.000000	64.899754 
4638.000000	64.879488 
4637.000000	64.859008 
4636.000000	64.841365 
4635.000000	64.829754 
4634.000000	64.827156 
4633.000000	64.835929 
4632.000000	64.857411 
4631.000000	64.890980 
4630.000000	64.933919 
4629.000000	64.981794 
4628.000000	65.028834 
4627.000000	65.068912 
4626.000000	65.096855 
4625.000000	65.109109 
4624.000000	65.104913 
4623.000000	65.086150 
4622.000000	65.057539 
4621.000000	65.025663 
4620.000000	64.997911 
4619.000000	64.981102 
4618.000000	64.979791 
4617.000000	64.995741 
4616.000000	65.026855 
4615.000000	65.068197 
4614.000000	65.112400 
4613.000000	65.151739 
4612.000000	65.179014 
4611.000000	65.189409 
4610.000000	65.180420 
4609.000000	65.152359 
4608.000000	65.107798 
4607.000000	65.050840 
4606.000000	64.986324 
4605.000000	64.919161 
4604.000000	64.854025 
4603.000000	64.795184 
4602.000000	64.746618 
4601.000000	64.711976 
4600.000000	64.693856 
4599.000000	64.693331 
4598.000000	64.709329 
4597.000000	64.738416 
4596.000000	64.774394 
4595.000000	64.809751 
4594.000000	64.836764 
4593.000000	64.849400 
4592.000000	64.844393 
4591.000000	64.822292 
4590.000000	64.786839 
4589.000000	64.744615 
4588.000000	64.703154 
4587.000000	64.669656 
4586.000000	64.649438 
4585.000000	64.645242 
4584.000000	64.656901 
4583.000000	64.682030 
4582.000000	64.717173 
4581.000000	64.758062 
4580.000000	64.800381 
4579.000000	64.840221 
4578.000000	64.873957 
4577.000000	64.898228 
4576.000000	64.910054 
4575.000000	64.907145 
4574.000000	64.888381 
4573.000000	64.854884 
4572.000000	64.810180 
4571.000000	64.759612 
4570.000000	64.709997 
4569.000000	64.668655 
4568.000000	64.642167 
4567.000000	64.634943 
4566.000000	64.648127 
4565.000000	64.679956 
4564.000000	64.725494 
4563.000000	64.777946 
4562.000000	64.829540 
4561.000000	64.872694 
4560.000000	64.901208 
4559.000000	64.911293 
4558.000000	64.901685 
4557.000000	64.873456 
4556.000000	64.829587 
4555.000000	64.774203 
4554.000000	64.712071 
4553.000000	64.648151 
4552.000000	64.587020 
4551.000000	64.532542 
4550.000000	64.487719 
4549.000000	64.454722 
4548.000000	64.434814 
4547.000000	64.428782 
4546.000000	64.436388 
4545.000000	64.456963 
4544.000000	64.489221 
4543.000000	64.531564 
4542.000000	64.581871 
4541.000000	64.637231 
4540.000000	64.694142 
4539.000000	64.748311 
4538.000000	64.795160 
4537.000000	64.829874 
4536.000000	64.847993 
4535.000000	64.845991 
4534.000000	64.822459 
4533.000000	64.778661 
4532.000000	64.718794 
4531.000000	64.649820 
4530.000000	64.580607 
4529.000000	64.520168 
4528.000000	64.476299 
4527.000000	64.453983 
4526.000000	64.454698 
4525.000000	64.476323 
4524.000000	64.513897 
4523.000000	64.560890 
4522.000000	64.610743 
4521.000000	64.657068 
4520.000000	64.695072 
4519.000000	64.721989 
4518.000000	64.737534 
4517.000000	64.742732 
4516.000000	64.740061 
4515.000000	64.732766 
4514.000000	64.723849 
4513.000000	64.715862 
4512.000000	64.709758 
4511.000000	64.705324 
4510.000000	64.701223 
4509.000000	64.696025 
4508.000000	64.688992 
4507.000000	64.679694 
4506.000000	64.669871 
4505.000000	64.663243 
4504.000000	64.664483 
4503.000000	64.677739 
4502.000000	64.705324 
4501.000000	64.746546 
4500.000000	64.797234 
4499.000000	64.850449 
4498.000000	64.898991 
4497.000000	64.937281 
4496.000000	64.963293 
4495.000000	64.979219 
4494.000000	64.990901 
4493.000000	65.006184 
4492.000000	65.032243 
4491.000000	65.073227 
4490.000000	65.129685 
4489.000000	65.197300 
4488.000000	65.269160 
4487.000000	65.335774 
4486.000000	65.388083 
4485.000000	65.417814 
4484.000000	65.420341 
4483.000000	65.393877 
4482.000000	65.340209 
4481.000000	65.263247 
4480.000000	65.168929 
4479.000000	65.063691 
4478.000000	64.954519 
4477.000000	64.847278 
4476.000000	64.747166 
4475.000000	64.657616 
4474.000000	64.581131 
4473.000000	64.518022 
4472.000000	64.467024 
4471.000000	64.424800 
4470.000000	64.386963 
4469.000000	64.348363 
4468.000000	64.304757 
4467.000000	64.254307 
4466.000000	64.198660 
4465.000000	64.143729 
4464.000000	64.098691 
4463.000000	64.071297 
4462.000000	64.067506 
4461.000000	64.091992 
4460.000000	64.145684 
4459.000000	64.225292 
4458.000000	64.322948 
4457.000000	64.426112 
4456.000000	64.520835 
4455.000000	64.597702 
4454.000000	64.649176 
4453.000000	64.668631 
4452.000000	64.653134 
4451.000000	64.604568 
4450.000000	64.528322 
4449.000000	64.429974 
4448.000000	64.320921 
4447.000000	64.220046 
4446.000000	64.142918 
4445.000000	64.099431 
4444.000000	64.088559 
4443.000000	64.099693 
4442.000000	64.117550 
4441.000000	64.131689 
4440.000000	64.138317 
4439.000000	64.149141 
4438.000000	64.202952 
4437.000000	64.352989 
4436.000000	64.654946 
4435.000000	65.138506 
4434.000000	65.800118 
4433.000000	66.579461 
4432.000000	67.364764 
4431.000000	68.008399 
4430.000000	68.360161 
4429.000000	68.303179 
4428.000000	67.795634 
4427.000000	66.870498 
4426.000000	65.650463 
4425.000000	64.287877 
4424.000000	62.936782 
4423.000000	61.698436 
4422.000000	60.602164 
4421.000000	59.611415 
4420.000000	58.649134 
4419.000000	57.651090 
4418.000000	56.603193 
4417.000000	55.583071 
4416.000000	54.754424 
4415.000000	54.335165 
4414.000000	54.537963 
4413.000000	55.506563 
4412.000000	57.262110 
4411.000000	59.674096 
4410.000000	62.474966 
4409.000000	65.313386 
4408.000000	67.823529 
4407.000000	69.706082 
4406.000000	70.782876 
4405.000000	71.023058 
4404.000000	70.538759 
4403.000000	69.542360 
4402.000000	68.294763 
4401.000000	67.052817 
4400.000000	66.010928 
4399.000000	65.296649 
4398.000000	64.932966 
4397.000000	64.877104 
4396.000000	65.024685 
4395.000000	65.263581 
4394.000000	65.488696 
4393.000000	65.628242 
4392.000000	65.655112 
4391.000000	65.581798 
4390.000000	65.447044 
4389.000000	65.294361 
4388.000000	65.164041 
4387.000000	65.079855 
4386.000000	65.050578 
4385.000000	65.069413 
4384.000000	65.123534 
4383.000000	65.196990 
4382.000000	65.276384 
4381.000000	65.353107 
4380.000000	65.416836 
4379.000000	65.461564 
4378.000000	65.489745 
4377.000000	65.508365 
4376.000000	65.519571 
4375.000000	65.525937 
4374.000000	65.534782 
4373.000000	65.551376 
4372.000000	65.577435 
4371.000000	65.611267 
4370.000000	65.646457 
4369.000000	65.677189 
4368.000000	65.702676 
4367.000000	65.723705 
4366.000000	65.741705 
4365.000000	65.760040 
4364.000000	65.782546 
4363.000000	65.812206 
4362.000000	65.849852 
4361.000000	65.892672 
4360.000000	65.934371 
4359.000000	65.967488 
4358.000000	65.984606 
4357.000000	65.981364 
4356.000000	65.956282 
4355.000000	65.910339 
4354.000000	65.846109 
4353.000000	65.767359 
4352.000000	65.678071 
4351.000000	65.582680 
4350.000000	65.485167 
4349.000000	65.390229 
4348.000000	65.301895 
4347.000000	65.224194 
4346.000000	65.160012 
4345.000000	65.110325 
4344.000000	65.074849 
4343.000000	65.052151 
4342.000000	65.040111 
4341.000000	65.036106 
4340.000000	65.037369 
4339.000000	65.041112 
4338.000000	65.044403 
4337.000000	65.043950 
4336.000000	65.036702 
4335.000000	65.020132 
4334.000000	64.992809 
4333.000000	64.955163 
4332.000000	64.910149 
4331.000000	64.863252 
4330.000000	64.821791 
4329.000000	64.793658 
4328.000000	64.785861 
4327.000000	64.802789 
4326.000000	64.844894 
4325.000000	64.908146 
4324.000000	64.984798 
4323.000000	65.064477 
4322.000000	65.136790 
4321.000000	65.192747 
4320.000000	65.225791 
4319.000000	65.233349 
4318.000000	65.217041 
4317.000000	65.181994 
4316.000000	65.135288 
4315.000000	65.085053 
4314.000000	65.039038 
4313.000000	65.003609 
4312.000000	64.983129 
4311.000000	64.979386 
4310.000000	64.992189 
4309.000000	65.019059 
4308.000000	65.055942 
4307.000000	65.097737 
4306.000000	65.139031 
4305.000000	65.174436 
4304.000000	65.199613 
4303.000000	65.211534 
4302.000000	65.209078 
4301.000000	65.192890 
4300.000000	65.165615 
4299.000000	65.130853 
4298.000000	65.093517 
4297.000000	65.059328 
4296.000000	65.033721 
4295.000000	65.021300 
4294.000000	65.024471 
4293.000000	65.043854 
4292.000000	65.076780 
4291.000000	65.117883 
4290.000000	65.159893 
4289.000000	65.194916 
4288.000000	65.215873 
4287.000000	65.217661 
4286.000000	65.198802 
4285.000000	65.161371 
4284.000000	65.111088 
4283.000000	65.056228 
4282.000000	65.005803 
4281.000000	64.967560 
4280.000000	64.947009 
4279.000000	64.945936 
4278.000000	64.962410 
4277.000000	64.990854 
4276.000000	65.023446 
4275.000000	65.051412 
4274.000000	65.066432 
4273.000000	65.062093 
4272.000000	65.034651 
4271.000000	64.984130 
4270.000000	64.913749 
4269.000000	64.829921 
4268.000000	64.741063 
4267.000000	64.656615 
4266.000000	64.585280 
4265.000000	64.534044 
4264.000000	64.507198 
4263.000000	64.505672 
4262.000000	64.527130 
4261.000000	64.566659 
4260.000000	64.617586 
4259.000000	64.673256 
4258.000000	64.728069 
4257.000000	64.778184 
4256.000000	64.821600 
4255.000000	64.858031 
4254.000000	64.888262 
4253.000000	64.913272 
4252.000000	64.933872 
4251.000000	64.950919 
4250.000000	64.965176 
4249.000000	64.977931 
4248.000000	64.990496 
4247.000000	65.004324 
4246.000000	65.020298 
4245.000000	65.038657 
4244.000000	65.058541 
4243.000000	65.078234 
4242.000000	65.095376 
4241.000000	65.108013 
4240.000000	65.114736 
4239.000000	65.115237 
4238.000000	65.110373 
4237.000000	65.102481 
4236.000000	65.094017 
4235.000000	65.086913 
4234.000000	65.082144 
4233.000000	65.080046 
4232.000000	65.079689 
4231.000000	65.079641 
4230.000000	65.077900 
4229.000000	65.072607 
4228.000000	65.061759 
4227.000000	65.043449 
4226.000000	65.015459 
4225.000000	64.975857 
4224.000000	64.923763 
4223.000000	64.860129 
4222.000000	64.787912 
4221.000000	64.712309 
4220.000000	64.640259 
4219.000000	64.579367 
4218.000000	64.535975 
4217.000000	64.514374 
4216.000000	64.515614 
4215.000000	64.537978 
4214.000000	64.576292 
4213.000000	64.624524 
4212.000000	64.676570 
4211.000000	64.728069 
4210.000000	64.776587 
4209.000000	64.822006 
4208.000000	64.865422 
4207.000000	64.908194 
4206.000000	64.950752 
4205.000000	64.991950 
4204.000000	65.028858 
4203.000000	65.057778 
4202.000000	65.075469 
4201.000000	65.079808 
4200.000000	65.070748 
4199.000000	65.050721 
4198.000000	65.024161 
4197.000000	64.996027 
4196.000000	64.970660 
4195.000000	64.950847 
4194.000000	64.937067 
4193.000000	64.927601 
4192.000000	64.918994 
4191.000000	64.907550 
4190.000000	64.890265 
4189.000000	64.865589 
4188.000000	64.834380 
4187.000000	64.799070 
4186.000000	64.764022 
4185.000000	64.734268 
4184.000000	64.714908 
4183.000000	64.709520 
4182.000000	64.719724 
4181.000000	64.744925 
4180.000000	64.782381 
4179.000000	64.827394 
4178.000000	64.874911 
4177.000000	64.920473 
4176.000000	64.961361 
4175.000000	64.996552 
4174.000000	65.027189 
4173.000000	65.055727 
4172.000000	65.085005 
4171.000000	65.117096 
4170.000000	65.152287 
4169.000000	65.188646 
4168.000000	65.222644 
4167.000000	65.249252 
4166.000000	65.264129 
4165.000000	65.263581 
4164.000000	65.246748 
4163.000000	65.214443 
4162.000000	65.169095 
4161.000000	65.113759 
4160.000000	65.051555 
4159.000000	64.985108 
4158.000000	64.916849 
4157.000000	64.848804 
4156.000000	64.783453 
4155.000000	64.723491 
4154.000000	64.671826 
4153.000000	64.631390 
4152.000000	64.604187 
4151.000000	64.591550 
4150.000000	64.593267 
4149.000000	64.607954 
4148.000000	64.632916 
4147.000000	64.664888 
4146.000000	64.700126 
4145.000000	64.735102 
4144.000000	64.766621 
4143.000000	64.792037 
4142.000000	64.809465 
4141.000000	64.817833 
4140.000000	64.817214 
4139.000000	64.808583 
4138.000000	64.794015 
4137.000000	64.776563 
4136.000000	64.759421 
4135.000000	64.745640 
4134.000000	64.737010 
4133.000000	64.734220 
4132.000000	64.736247 
4131.000000	64.740872 
4130.000000	64.745306 
4129.000000	64.747190 
4128.000000	64.744901 
4127.000000	64.737772 
4126.000000	64.726614 
4125.000000	64.713215 
4124.000000	64.700508 
4123.000000	64.691376 
4122.000000	64.688873 
4121.000000	64.695453 
4120.000000	64.712929 
4119.000000	64.742279 
4118.000000	64.783382 
4117.000000	64.834976 
4116.000000	64.894628 
4115.000000	64.958786 
4114.000000	65.022945 
4113.000000	65.082192 
4112.000000	65.131878 
4111.000000	65.168333 
4110.000000	65.189456 
4109.000000	65.195059 
4108.000000	65.187096 
4107.000000	65.168833 
4106.000000	65.145063 
4105.000000	65.120577 
4104.000000	65.099835 
4103.000000	65.085816 
4102.000000	65.080285 
4101.000000	65.083026 
4100.000000	65.092635 
4099.000000	65.106296 
4098.000000	65.120649 
4097.000000	65.132093 
4096.000000	65.137577 
4095.000000	65.134978 
4094.000000	65.123105 
4093.000000	65.102267 
4092.000000	65.074086 
4091.000000	65.041303 
4090.000000	65.007257 
4089.000000	64.975380 
4088.000000	64.948654 
4087.000000	64.929032 
4086.000000	64.917254 
4085.000000	64.912891 
4084.000000	64.914774 
4083.000000	64.921236 
4082.000000	64.930725 
4081.000000	64.942312 
4080.000000	64.955401 
4079.000000	64.969801 
4078.000000	64.985179 
4077.000000	65.000891 
4076.000000	65.015339 
4075.000000	65.026402 
4074.000000	65.031147 
4073.000000	65.026640 
4072.000000	65.010643 
4071.000000	64.982604 
4070.000000	64.943838 
4069.000000	64.897680 
4068.000000	64.848852 
4067.000000	64.802765 
4066.000000	64.763975 
4065.000000	64.735460 
4064.000000	64.717984 
4063.000000	64.710426 
4062.000000	64.710307 
4061.000000	64.715027 
4060.000000	64.722633 
4059.000000	64.732813 
4058.000000	64.746761 
4057.000000	64.766621 
4056.000000	64.794468 
4055.000000	64.831137 
4054.000000	64.875268 
4053.000000	64.923310 
4052.000000	64.969825 
4051.000000	65.009021 
4050.000000	65.036201 
4049.000000	65.048646 
4048.000000	65.046715 
4047.000000	65.033268 
4046.000000	65.013074 
4045.000000	64.991378 
4044.000000	64.972734 
4043.000000	64.960432 
4042.000000	64.955973 
4041.000000	64.959549 
4040.000000	64.970541 
4039.000000	64.987564 
4038.000000	65.008950 
4037.000000	65.032744 
4036.000000	65.056800 
4035.000000	65.078401 
4034.000000	65.094685 
4033.000000	65.102720 
4032.000000	65.100717 
4031.000000	65.088248 
4030.000000	65.066838 
4029.000000	65.039849 
4028.000000	65.011501 
4027.000000	64.986276 
4026.000000	64.967536 
4025.000000	64.956498 
4024.000000	64.952254 
4023.000000	64.952301 
4022.000000	64.953327 
4021.000000	64.952397 
4020.000000	64.947986 
4019.000000	64.940381 
4018.000000	64.931869 
4017.000000	64.925575 
4016.000000	64.925074 
4015.000000	64.932990 
4014.000000	64.950609 
4013.000000	64.977145 
4012.000000	65.009927 
4011.000000	65.044903 
4010.000000	65.077376 
4009.000000	65.102934 
4008.000000	65.117907 
4007.000000	65.120172 
4006.000000	65.109014 
4005.000000	65.085315 
4004.000000	65.051221 
4003.000000	65.009713 
4002.000000	64.964461 
4001.000000	64.919185 
4000.000000	64.877033 
3999.000000	64.840602 
3998.000000	64.811587 
3997.000000	64.791131 
3996.000000	64.779782 
3995.000000	64.777779 
3994.000000	64.785099 
3993.000000	64.801287 
3992.000000	64.825248 
3991.000000	64.855074 
3990.000000	64.887666 
3989.000000	64.919233 
3988.000000	64.945650 
3987.000000	64.963126 
3986.000000	64.968776 
3985.000000	64.961338 
3984.000000	64.941501 
3983.000000	64.911985 
3982.000000	64.876961 
3981.000000	64.841485 
3980.000000	64.810466 
3979.000000	64.788007 
3978.000000	64.776730 
3977.000000	64.777755 
3976.000000	64.790749 
3975.000000	64.814233 
3974.000000	64.846038 
3973.000000	64.883613 
3972.000000	64.924287 
3971.000000	64.965581 
3970.000000	65.004944 
3969.000000	65.039849 
3968.000000	65.067625 
3967.000000	65.085864 
3966.000000	65.092420 
3965.000000	65.086054 
3964.000000	65.066194 
3963.000000	65.033841 
3962.000000	64.991116 
3961.000000	64.941477 
3960.000000	64.889025 
3959.000000	64.838409 
3958.000000	64.794087 
3957.000000	64.759874 
3956.000000	64.738440 
3955.000000	64.730858 
3954.000000	64.736628 
3953.000000	64.753937 
3952.000000	64.779686 
3951.000000	64.810323 
3950.000000	64.842057 
3949.000000	64.871835 
3948.000000	64.897727 
3947.000000	64.918994 
3946.000000	64.935946 
3945.000000	64.949607 
3944.000000	64.961147 
3943.000000	64.971137 
3942.000000	64.979314 
3941.000000	64.984369 
3940.000000	64.984440 
3939.000000	64.977717 
3938.000000	64.963412 
3937.000000	64.942240 
3936.000000	64.916849 
3935.000000	64.890837 
3934.000000	64.868378 
3933.000000	64.852952 
3932.000000	64.846611 
3931.000000	64.849233 
3930.000000	64.858341 
3929.000000	64.870119 
3928.000000	64.880180 
3927.000000	64.884996 
3926.000000	64.882802 
3925.000000	64.873957 
3924.000000	64.861083 
3923.000000	64.848089 
3922.000000	64.839220 
3921.000000	64.837932 
3920.000000	64.846014 
3919.000000	64.863419 
3918.000000	64.888358 
3917.000000	64.917802 
3916.000000	64.948034 
3915.000000	64.975619 
3914.000000	64.998054 
3913.000000	65.013670 
3912.000000	65.022683 
3911.000000	65.026593 
3910.000000	65.028333 
3909.000000	65.031170 
3908.000000	65.038251 
3907.000000	65.051841 
3906.000000	65.072536 
3905.000000	65.099215 
3904.000000	65.128588 
3903.000000	65.155935 
3902.000000	65.176177 
3901.000000	65.184950 
3900.000000	65.179634 
3899.000000	65.160012 
3898.000000	65.128731 
3897.000000	65.090918 
3896.000000	65.053272 
3895.000000	65.022468 
3894.000000	65.004038 
3893.000000	65.000891 
3892.000000	65.013360 
3891.000000	65.038323 
3890.000000	65.070962 
3889.000000	65.104722 
3888.000000	65.133070 
3887.000000	65.150427 
3886.000000	65.152835 
3885.000000	65.138888 
3884.000000	65.109515 
3883.000000	65.067815 
3882.000000	65.018177 
3881.000000	64.965867 
3880.000000	64.916276 
3879.000000	64.874219 
3878.000000	64.843416 
3877.000000	64.826273 
3876.000000	64.824056 
3875.000000	64.836502 
3874.000000	64.861869 
3873.000000	64.897203 
3872.000000	64.938640 
3871.000000	64.981675 
3870.000000	65.021777 
3869.000000	65.055036 
3868.000000	65.079092 
3867.000000	65.093159 
3866.000000	65.098237 
3865.000000	65.096855 
3864.000000	65.092253 
3863.000000	65.088224 
3862.000000	65.087604 
3861.000000	65.092062 
3860.000000	65.101242 
3859.000000	65.113687 
3858.000000	65.126419 
3857.000000	65.136075 
3856.000000	65.139317 
3855.000000	65.133786 
3854.000000	65.118265 
3853.000000	65.092992 
3852.000000	65.059566 
3851.000000	65.020513 
3850.000000	64.978981 
3849.000000	64.938330 
3848.000000	64.901733 
3847.000000	64.872026 
3846.000000	64.851140 
3845.000000	64.840102 
3844.000000	64.838790 
3843.000000	64.846253 
3842.000000	64.860701 
3841.000000	64.880156 
3840.000000	64.902043 
3839.000000	64.924025 
3838.000000	64.944314 
3837.000000	64.962029 
3836.000000	64.976716 
3835.000000	64.988780 
3834.000000	64.998841 
3833.000000	65.007901 
3832.000000	65.016794 
3831.000000	65.025854 
3830.000000	65.034985 
3829.000000	65.043306 
3828.000000	65.049982 
3827.000000	65.053772 
3826.000000	65.053749 
3825.000000	65.049505 
3824.000000	65.041446 
3823.000000	65.031123 
3822.000000	65.020918 
3821.000000	65.013790 
3820.000000	65.012478 
3819.000000	65.018773 
3818.000000	65.032672 
3817.000000	65.052437 
3816.000000	65.074443 
3815.000000	65.093994 
3814.000000	65.106344 
3813.000000	65.107822 
3812.000000	65.096783 
3811.000000	65.074110 
3810.000000	65.043210 
3809.000000	65.008926 
3808.000000	64.977049 
3807.000000	64.952921 
3806.000000	64.940500 
3805.000000	64.941525 
3804.000000	64.955520 
3803.000000	64.980053 
3802.000000	65.011548 
3801.000000	65.045928 
3800.000000	65.079569 
3799.000000	65.109872 
3798.000000	65.135169 
3797.000000	65.154743 
3796.000000	65.168547 
3795.000000	65.176749 
3794.000000	65.179634 
3793.000000	65.177273 
3792.000000	65.169715 
3791.000000	65.157079 
3790.000000	65.140056 
3789.000000	65.119910 
3788.000000	65.098357 
3787.000000	65.077614 
3786.000000	65.059924 
3785.000000	65.047240 
3784.000000	65.041041 
3783.000000	65.041828 
3782.000000	65.049338 
3781.000000	65.062332 
3780.000000	65.078902 
3779.000000	65.096592 
3778.000000	65.112996 
3777.000000	65.125989 
3776.000000	65.133738 
3775.000000	65.135002 
3774.000000	65.129494 
3773.000000	65.117454 
3772.000000	65.099692 
3771.000000	65.077638 
3770.000000	65.053129 
3769.000000	65.028405 
3768.000000	65.006065 
3767.000000	64.988541 
3766.000000	64.977836 
3765.000000	64.975309 
3764.000000	64.981269 
3763.000000	64.994788 
3762.000000	65.013909 
3761.000000	65.035796 
3760.000000	65.057563 
3759.000000	65.076541 
3758.000000	65.091061 
3757.000000	65.100836 
3756.000000	65.106773 
3755.000000	65.110850 
3754.000000	65.115356 
3753.000000	65.122008 
3752.000000	65.131711 
3751.000000	65.144228 
3750.000000	65.158557 
3749.000000	65.173339 
3748.000000	65.187191 
3747.000000	65.199542 
3746.000000	65.210366 
3745.000000	65.220141 
3744.000000	65.229177 
3743.000000	65.237379 
3742.000000	65.243816 
3741.000000	65.246748 
3740.000000	65.244030 
3739.000000	65.233898 
3738.000000	65.215468 
3737.000000	65.189099 
3736.000000	65.156817 
3735.000000	65.121746 
3734.000000	65.087485 
3733.000000	65.057325 
3732.000000	65.033507 
3731.000000	65.017032 
3730.000000	65.008020 
3729.000000	65.005850 
3728.000000	65.009593 
3727.000000	65.018534 
3726.000000	65.032076 
3725.000000	65.049910 
3724.000000	65.071487 
3723.000000	65.095853 
3722.000000	65.121316 
3721.000000	65.145778 
3720.000000	65.166878 
3719.000000	65.182614 
3718.000000	65.191698 
3717.000000	65.193676 
3716.000000	65.189242 
3715.000000	65.179657 
3714.000000	65.166592 
3713.000000	65.151715 
3712.000000	65.136313 
3711.000000	65.121316 
3710.000000	65.107226 
3709.000000	65.094423 
3708.000000	65.083098 
3707.000000	65.072989 
3706.000000	65.063762 
3705.000000	65.054702 
3704.000000	65.045523 
3703.000000	65.035700 
3702.000000	65.025973 
3701.000000	65.017628 
3700.000000	65.013194 
3699.000000	65.015339 
3698.000000	65.026760 
3697.000000	65.049028 
3696.000000	65.082001 
3695.000000	65.123510 
3694.000000	65.169215 
3693.000000	65.213608 
3692.000000	65.251088 
3691.000000	65.277290 
3690.000000	65.289783 
3689.000000	65.288639 
3688.000000	65.276122 
3687.000000	65.256047 
3686.000000	65.232586 
3685.000000	65.209412 
3684.000000	65.189242 
3683.000000	65.173506 
3682.000000	65.162897 
3681.000000	65.157365 
3680.000000	65.156841 
3679.000000	65.161275 
3678.000000	65.170502 
3677.000000	65.184259 
3676.000000	65.201735 
3675.000000	65.221714 
3674.000000	65.242457 
3673.000000	65.261936 
3672.000000	65.278387 
3671.000000	65.290474 
3670.000000	65.297865 
3669.000000	65.300774 
3668.000000	65.299987 
3667.000000	65.296053 
3666.000000	65.289306 
3665.000000	65.279555 
3664.000000	65.266346 
3663.000000	65.249276 
3662.000000	65.228533 
3661.000000	65.205335 
3660.000000	65.181970 
3659.000000	65.161180 
3658.000000	65.145635 
3657.000000	65.137243 
3656.000000	65.136361 
3655.000000	65.141510 
3654.000000	65.149545 
3653.000000	65.156197 
3652.000000	65.157532 
3651.000000	65.150690 
3650.000000	65.135240 
3649.000000	65.113019 
3648.000000	65.088152 
3647.000000	65.065717 
3646.000000	65.051007 
3645.000000	65.047478 
3644.000000	65.056490 
3643.000000	65.076637 
3642.000000	65.104508 
3641.000000	65.135622 
3640.000000	65.165615 
3639.000000	65.191173 
3638.000000	65.210652 
3637.000000	65.224266 
3636.000000	65.232944 
3635.000000	65.237903 
3634.000000	65.239405 
3633.000000	65.236663 
3632.000000	65.227723 
3631.000000	65.210294 
3630.000000	65.182757 
3629.000000	65.144896 
3628.000000	65.098834 
3627.000000	65.048766 
3626.000000	65.000200 
3625.000000	64.959120 
3624.000000	64.930558 
3623.000000	64.917683 
3622.000000	64.921331 
3621.000000	64.940166 
3620.000000	64.971113 
3619.000000	65.010023 
3618.000000	65.052676 
3617.000000	65.095186 
3616.000000	65.134286 
3615.000000	65.167713 
3614.000000	65.193581 
3613.000000	65.210580 
3612.000000	65.217828 
3611.000000	65.214705 
3610.000000	65.201210 
3609.000000	65.177822 
3608.000000	65.145897 
3607.000000	65.107274 
3606.000000	65.064072 
3605.000000	65.018773 
3604.000000	64.973759 
3603.000000	64.931201 
3602.000000	64.892935 
3601.000000	64.860725 
3600.000000	64.835739 
3599.000000	64.818549 
3598.000000	64.809083 
3597.000000	64.806365 
3596.000000	64.808845 
3595.000000	64.814352 
3594.000000	64.820790 
3593.000000	64.826202 
3592.000000	64.829444 
3591.000000	64.829874 
3590.000000	64.827704 
3589.000000	64.823603 
3588.000000	64.818692 
3587.000000	64.814043 
3586.000000	64.810681 
3585.000000	64.809322 
3584.000000	64.810848 
3583.000000	64.816308 
3582.000000	64.826917 
3581.000000	64.843821 
3580.000000	64.867711 
3579.000000	64.898395 
3578.000000	64.934515 
3577.000000	64.973521 
3576.000000	65.011930 
3575.000000	65.046024 
3574.000000	65.072655 
3573.000000	65.089845 
3572.000000	65.096950 
3571.000000	65.094804 
3570.000000	65.085673 
3569.000000	65.072393 
3568.000000	65.057897 
3567.000000	65.044474 
3566.000000	65.034103 
3565.000000	65.027570 
3564.000000	65.025329 
3563.000000	65.027022 
3562.000000	65.032172 
3561.000000	65.040063 
3560.000000	65.049982 
3559.000000	65.061187 
3558.000000	65.072512 
3557.000000	65.083074 
3556.000000	65.091919 
3555.000000	65.098381 
3554.000000	65.101981 
3553.000000	65.102338 
3552.000000	65.099239 
3551.000000	65.092182 
3550.000000	65.080833 
3549.000000	65.064883 
3548.000000	65.044188 
3547.000000	65.019249 
3546.000000	64.991354 
3545.000000	64.962768 
3544.000000	64.936518 
3543.000000	64.915823 
3542.000000	64.903664 
3541.000000	64.901924 
3540.000000	64.911079 
3539.000000	64.929747 
3538.000000	64.955091 
3537.000000	64.983153 
3536.000000	65.009689 
3535.000000	65.031051 
3534.000000	65.044713 
3533.000000	65.049195 
3532.000000	65.044426 
3531.000000	65.031385 
3530.000000	65.012001 
3529.000000	64.988875 
3528.000000	64.964962 
3527.000000	64.943242 
3526.000000	64.926505 
3525.000000	64.916992 
3524.000000	64.916038 
3523.000000	64.924144 
3522.000000	64.940738 
3521.000000	64.964413 
3520.000000	64.992952 
3519.000000	65.023660 
3518.000000	65.053725 
3517.000000	65.080499 
3516.000000	65.101814 
3515.000000	65.116548 
3514.000000	65.124630 
3513.000000	65.127158 
3512.000000	65.126156 
3511.000000	65.124177 
3510.000000	65.123724 
3509.000000	65.126585 
3508.000000	65.133857 
3507.000000	65.145087 
3506.000000	65.158677 
3505.000000	65.172004 
3504.000000	65.182232 
3503.000000	65.186905 
3502.000000	65.184712 
3501.000000	65.175843 
3500.000000	65.161752 
3499.000000	65.144610 
3498.000000	65.126657 
3497.000000	65.109634 
3496.000000	65.094256 
3495.000000	65.080332 
3494.000000	65.066909 
3493.000000	65.052819 
3492.000000	65.037035 
3491.000000	65.018963 
3490.000000	64.998865 
3489.000000	64.977216 
3488.000000	64.955067 
3487.000000	64.933609 
3486.000000	64.914369 
3485.000000	64.898657 
3484.000000	64.887762 
3483.000000	64.882755 
3482.000000	64.884519 
3481.000000	64.893364 
3480.000000	64.909124 
3479.000000	64.930748 
3478.000000	64.956641 
3477.000000	64.984560 
3476.000000	65.012311 
3475.000000	65.038013 
3474.000000	65.060424 
3473.000000	65.078973 
3472.000000	65.093517 
3471.000000	65.104103 
3470.000000	65.110635 
3469.000000	65.112590 
3468.000000	65.109205 
3467.000000	65.099740 
3466.000000	65.084004 
3465.000000	65.062618 
3464.000000	65.037059 
3463.000000	65.009546 
3462.000000	64.982843 
3461.000000	64.959883 
3460.000000	64.943265 
3459.000000	64.934635 
3458.000000	64.934754 
3457.000000	64.942979 
3456.000000	64.957594 
3455.000000	64.976096 
3454.000000	64.995527 
3453.000000	65.013146 
3452.000000	65.026593 
3451.000000	65.034532 
3450.000000	65.036559 
3449.000000	65.033102 
3448.000000	65.025281 
3447.000000	65.014505 
3446.000000	65.002059 
3445.000000	64.988851 
3444.000000	64.975357 
3443.000000	64.961576 
3442.000000	64.947319 
3441.000000	64.932870 
3440.000000	64.919257 
3439.000000	64.907979 
3438.000000	64.901018 
3437.000000	64.900231 
3436.000000	64.906597 
3435.000000	64.919781 
3434.000000	64.937996 
3433.000000	64.957833 
3432.000000	64.975237 
3431.000000	64.986228 
3430.000000	64.988040 
3429.000000	64.979410 
3428.000000	64.961290 
3427.000000	64.936637 
3426.000000	64.910101 
3425.000000	64.886736 
3424.000000	64.871335 
3423.000000	64.867091 
3422.000000	64.875292 
3421.000000	64.895129 
3420.000000	64.923810 
3419.000000	64.957213 
3418.000000	64.990687 
3417.000000	65.019941 
3416.000000	65.041565 
3415.000000	65.053653 
3414.000000	65.055751 
3413.000000	65.048837 
3412.000000	65.034890 
3411.000000	65.016674 
3410.000000	64.997124 
3409.000000	64.979004 
3408.000000	64.964771 
3407.000000	64.956402 
3406.000000	64.955067 
3405.000000	64.961338 
3404.000000	64.975094 
3403.000000	64.995574 
3402.000000	65.021514 
3401.000000	65.051078 
3400.000000	65.081977 
3399.000000	65.111589 
3398.000000	65.137314 
3397.000000	65.156626 
3396.000000	65.167570 
3395.000000	65.168881 
3394.000000	65.160202 
3393.000000	65.142130 
3392.000000	65.116381 
3391.000000	65.085196 
3390.000000	65.051221 
3389.000000	65.017032 
3388.000000	64.984869 
3387.000000	64.956378 
3386.000000	64.932680 
3385.000000	64.914250 
3384.000000	64.901375 
3383.000000	64.894533 
3382.000000	64.894342 
3381.000000	64.901447 
3380.000000	64.916038 
3379.000000	64.937543 
3378.000000	64.964318 
3377.000000	64.993596 
3376.000000	65.021872 
3375.000000	65.045309 
3374.000000	65.060710 
3373.000000	65.066266 
3372.000000	65.061783 
3371.000000	65.048909 
3370.000000	65.030574 
3369.000000	65.010285 
3368.000000	64.991426 
3367.000000	64.976501 
3366.000000	64.967012 
3365.000000	64.963054 
3364.000000	64.964103 
3363.000000	64.969301 
3362.000000	64.977836 
3361.000000	64.989066 
3360.000000	65.002274 
3359.000000	65.016484 
3358.000000	65.030050 
3357.000000	65.041065 
3356.000000	65.047144 
3355.000000	65.046548 
3354.000000	65.038418 
3353.000000	65.023446 
3352.000000	65.004062 
3351.000000	64.983892 
3350.000000	64.967203 
3349.000000	64.957737 
3348.000000	64.958214 
3347.000000	64.969348 
3346.000000	64.989805 
3345.000000	65.016531 
3344.000000	65.045547 
3343.000000	65.072774 
3342.000000	65.094947 
3341.000000	65.110135 
3340.000000	65.117835 
3339.000000	65.118885 
3338.000000	65.114808 
3337.000000	65.107464 
3336.000000	65.098404 
3335.000000	65.088939 
3334.000000	65.079736 
3333.000000	65.071249 
3332.000000	65.063476 
3331.000000	65.056538 
3330.000000	65.050554 
3329.000000	65.045762 
3328.000000	65.042495 
3327.000000	65.040922 
3326.000000	65.040898 
3325.000000	65.041851 
3324.000000	65.042948 
3323.000000	65.043091 
3322.000000	65.041351 
3321.000000	65.037250 
3320.000000	65.031075 
3319.000000	65.023732 
3318.000000	65.016865 
3317.000000	65.012335 
3316.000000	65.011930 
3315.000000	65.016722 
3314.000000	65.026903 
3313.000000	65.041542 
3312.000000	65.058517 
3311.000000	65.075087 
3310.000000	65.088391 
3309.000000	65.096306 
3308.000000	65.097689 
3307.000000	65.092706 
3306.000000	65.082526 
3305.000000	65.069055 
3304.000000	65.054535 
3303.000000	65.040755 
3302.000000	65.028953 
3301.000000	65.019321 
3300.000000	65.011382 
3299.000000	65.003991 
3298.000000	64.995789 
3297.000000	64.985728 
3296.000000	64.973187 
3295.000000	64.958715 
3294.000000	64.943575 
3293.000000	64.929914 
3292.000000	64.919948 
3291.000000	64.915633 
3290.000000	64.918112 
3289.000000	64.927244 
3288.000000	64.941549 
3287.000000	64.958381 
3286.000000	64.974403 
3285.000000	64.986491 
3284.000000	64.992427 
3283.000000	64.991354 
3282.000000	64.984202 
3281.000000	64.973354 
3280.000000	64.961981 
3279.000000	64.953136 
3278.000000	64.948868 
3277.000000	64.949774 
3276.000000	64.954996 
3275.000000	64.962792 
3274.000000	64.971017 
3273.000000	64.978098 
3272.000000	64.983320 
3271.000000	64.986658 
3270.000000	64.988756 
3269.000000	64.990234 
3268.000000	64.991331 
3267.000000	64.991497 
3266.000000	64.989614 
3265.000000	64.984393 
3264.000000	64.974832 
3263.000000	64.960741 
3262.000000	64.943027 
3261.000000	64.923620 
3260.000000	64.905238 
3259.000000	64.890623 
3258.000000	64.882063 
3257.000000	64.880824 
3256.000000	64.887428 
3255.000000	64.901423 
3254.000000	64.921903 
3253.000000	64.947485 
3252.000000	64.976668 
3251.000000	65.007877 
3250.000000	65.039277 
3249.000000	65.068912 
3248.000000	65.094947 
3247.000000	65.115976 
3246.000000	65.131187 
3245.000000	65.140724 
3244.000000	65.145754 
3243.000000	65.147924 
3242.000000	65.149569 
3241.000000	65.152621 
3240.000000	65.158629 
3239.000000	65.167927 
3238.000000	65.180015 
3237.000000	65.193033 
3236.000000	65.204524 
3235.000000	65.211653 
3234.000000	65.212249 
3233.000000	65.204954 
3232.000000	65.189886 
3231.000000	65.168428 
3230.000000	65.142893 
3229.000000	65.116047 
3228.000000	65.090513 
3227.000000	65.068316 
3226.000000	65.050554 
3225.000000	65.037345 
3224.000000	65.027999 
3223.000000	65.021467 
3222.000000	65.016531 
3221.000000	65.012502 
3220.000000	65.009117 
3219.000000	65.006446 
3218.000000	65.004730 
3217.000000	65.004205 
3216.000000	65.004944 
3215.000000	65.006542 
3214.000000	65.008592 
3213.000000	65.010857 
3212.000000	65.013456 
3211.000000	65.016937 
3210.000000	65.021872 
3209.000000	65.028619 
3208.000000	65.036916 
3207.000000	65.045738 
3206.000000	65.053582 
3205.000000	65.058732 
3204.000000	65.059947 
3203.000000	65.056705 
3202.000000	65.049672 
3201.000000	65.040445 
3200.000000	65.031170 
3199.000000	65.023970 
3198.000000	65.020251 
3197.000000	65.020203 
3196.000000	65.023040 
3195.000000	65.027022 
3194.000000	65.030121 
3193.000000	65.030741 
3192.000000	65.028095 
3191.000000	65.022444 
3190.000000	65.014815 
3189.000000	65.006637 
3188.000000	64.998984 
3187.000000	64.992570 
3186.000000	64.987683 
3185.000000	64.984202 
3184.000000	64.982008 
3183.000000	64.981007 
3182.000000	64.981389 
3181.000000	64.983677 
3180.000000	64.988398 
3179.000000	64.995694 
3178.000000	65.005087 
3177.000000	65.015673 
3176.000000	65.025925 
3175.000000	65.034389 
3174.000000	65.039896 
3173.000000	65.042018 
3172.000000	65.041232 
3171.000000	65.038681 
3170.000000	65.035939 
3169.000000	65.034651 
3168.000000	65.035772 
3167.000000	65.039634 
3166.000000	65.045833 
3165.000000	65.053272 
3164.000000	65.060377 
3163.000000	65.065217 
3162.000000	65.066027 
3161.000000	65.061283 
3160.000000	65.050268 
3159.000000	65.032935 
3158.000000	65.010309 
3157.000000	64.984607 
3156.000000	64.958810 
3155.000000	64.936017 
3154.000000	64.919447 
3153.000000	64.911770 
3152.000000	64.914584 
3151.000000	64.927935 
3150.000000	64.950323 
3149.000000	64.978933 
3148.000000	65.009784 
3147.000000	65.038371 
3146.000000	65.060234 
3145.000000	65.071725 
3144.000000	65.070557 
3143.000000	65.056252 
3142.000000	65.030074 
3141.000000	64.994692 
3140.000000	64.954018 
3139.000000	64.912533 
3138.000000	64.874577 
3137.000000	64.843654 
3136.000000	64.822030 
3135.000000	64.810609 
3134.000000	64.808964 
3133.000000	64.815855 
3132.000000	64.829397 
3131.000000	64.847993 
3130.000000	64.869976 
3129.000000	64.894628 
3128.000000	64.921402 
3127.000000	64.950156 
3126.000000	64.980649 
3125.000000	65.012264 
3124.000000	65.043878 
3123.000000	65.073752 
3122.000000	65.099906 
3121.000000	65.119934 
3120.000000	65.131640 
3119.000000	65.133142 
3118.000000	65.123414 
3117.000000	65.102434 
3116.000000	65.071344 
3115.000000	65.032267 
3114.000000	64.988350 
3113.000000	64.943385 
3112.000000	64.901399 
3111.000000	64.866185 
3110.000000	64.840769 
3109.000000	64.826941 
3108.000000	64.825081 
3107.000000	64.834117 
3106.000000	64.851951 
3105.000000	64.875507 
3104.000000	64.901542 
3103.000000	64.926815 
3102.000000	64.948773 
3101.000000	64.965534 
3100.000000	64.976048 
3099.000000	64.979910 
3098.000000	64.977574 
3097.000000	64.969921 
3096.000000	64.958238 
3095.000000	64.944028 
3094.000000	64.928770 
3093.000000	64.913749 
3092.000000	64.899897 
3091.000000	64.887857 
3090.000000	64.877963 
3089.000000	64.870190 
3088.000000	64.864516 
3087.000000	64.860820 
3086.000000	64.858984 
3085.000000	64.858961 
3084.000000	64.860653 
3083.000000	64.863801 
3082.000000	64.867997 
3081.000000	64.872598 
3080.000000	64.876675 
3079.000000	64.879655 
3078.000000	64.880895 
3077.000000	64.880442 
3076.000000	64.878845 
3075.000000	64.877223 
3074.000000	64.877080 
3073.000000	64.879941 
3072.000000	64.886951 
3071.000000	64.898753 
3070.000000	64.915251 
3069.000000	64.935564 
3068.000000	64.958262 
3067.000000	64.981603 
3066.000000	65.003943 
3065.000000	65.023899 
3064.000000	65.040659 
3063.000000	65.053915 
3062.000000	65.063714 
3061.000000	65.070295 
3060.000000	65.073776 
3059.000000	65.074133 
3058.000000	65.071010 
3057.000000	65.064120 
3056.000000	65.053176 
3055.000000	65.038228 
3054.000000	65.019726 
3053.000000	64.998769 
3052.000000	64.976859 
3051.000000	64.955687 
3050.000000	64.936852 
3049.000000	64.921426 
3048.000000	64.910054 
3047.000000	64.902710 
3046.000000	64.899110 
3045.000000	64.898538 
3044.000000	64.900422 
3043.000000	64.904236 
3042.000000	64.909672 
3041.000000	64.916491 
3040.000000	64.924383 
3039.000000	64.932513 
3038.000000	64.939689 
3037.000000	64.944314 
3036.000000	64.944672 
3035.000000	64.939475 
3034.000000	64.928197 
3033.000000	64.911484 
3032.000000	64.891505 
3031.000000	64.871382 
3030.000000	64.854812 
3029.000000	64.845156 
3028.000000	64.844703 
3027.000000	64.854097 
3026.000000	64.872026 
3025.000000	64.895629 
3024.000000	64.920949 
3023.000000	64.943861 
3022.000000	64.961051 
3021.000000	64.970684 
3020.000000	64.972448 
3019.000000	64.967608 
3018.000000	64.958310 
3017.000000	64.947271 
3016.000000	64.936804 
3015.000000	64.928627 
3014.000000	64.923691 
3013.000000	64.922237 
3012.000000	64.924383 
3011.000000	64.930081 
3010.000000	64.939284 
3009.000000	64.951658 
3008.000000	64.966368 
3007.000000	64.981842 
3006.000000	64.995908 
3005.000000	65.005803 
3004.000000	65.008902 
3003.000000	65.003371 
3002.000000	64.988517 
3001.000000	64.965271 
3000.000000	64.936184 
2999.000000	64.904880 
2998.000000	64.875483 
2997.000000	64.851713 
2996.000000	64.836096 
2995.000000	64.829683 
2994.000000	64.831399 
2993.000000	64.838838 
2992.000000	64.848232 
2991.000000	64.855384 
2990.000000	64.856696 
2989.000000	64.849686 
2988.000000	64.833641 
2987.000000	64.809513 
2986.000000	64.780116 
2985.000000	64.749431 
2984.000000	64.721965 
2983.000000	64.701938 
2982.000000	64.692640 
2981.000000	64.695668 
2980.000000	64.710760 
2979.000000	64.735794 
2978.000000	64.767336 
2977.000000	64.801359 
2976.000000	64.833617 
2975.000000	64.860963 
2974.000000	64.881467 
2973.000000	64.894652 
2972.000000	64.901423 
2971.000000	64.903450 
2970.000000	64.902877 
2969.000000	64.901089 
2968.000000	64.899253 
2967.000000	64.897131 
2966.000000	64.893746 
2965.000000	64.887499 
2964.000000	64.877009 
2963.000000	64.861345 
2962.000000	64.840579 
2961.000000	64.815640 
2960.000000	64.788389 
2959.000000	64.761328 
2958.000000	64.736914 
2957.000000	64.717268 
2956.000000	64.703822 
2955.000000	64.697003 
2954.000000	64.696359 
2953.000000	64.700889 
2952.000000	64.709067 
2951.000000	64.719009 
2950.000000	64.728856 
2949.000000	64.736890 
2948.000000	64.741778 
2947.000000	64.742684 
2946.000000	64.739441 
2945.000000	64.732313 
2944.000000	64.722394 
2943.000000	64.711594 
2942.000000	64.702224 
2941.000000	64.696574 
2940.000000	64.696311 
2939.000000	64.702057 
2938.000000	64.713215 
2937.000000	64.728021 
2936.000000	64.743757 
2935.000000	64.757466 
2934.000000	64.766669 
2933.000000	64.769959 
2932.000000	64.767313 
2931.000000	64.759993 
2930.000000	64.750456 
2929.000000	64.741706 
2928.000000	64.736938 
2927.000000	64.738774 
2926.000000	64.749121 
2925.000000	64.768648 
2924.000000	64.796972 
2923.000000	64.832019 
2922.000000	64.870905 
2921.000000	64.909577 
2920.000000	64.943552 
2919.000000	64.968299 
2918.000000	64.980006 
2917.000000	64.976334 
2916.000000	64.957046 
2915.000000	64.923954 
2914.000000	64.881110 
2913.000000	64.833927 
2912.000000	64.788246 
2911.000000	64.749193 
2910.000000	64.720511 
2909.000000	64.703726 
2908.000000	64.698362 
2907.000000	64.702200 
2906.000000	64.712119 
2905.000000	64.724683 
2904.000000	64.736890 
2903.000000	64.746427 
2902.000000	64.752101 
2901.000000	64.753651 
2900.000000	64.751529 
2899.000000	64.746737 
2898.000000	64.740347 
2897.000000	64.733576 
2896.000000	64.727592 
2895.000000	64.723587 
2894.000000	64.722442 
2893.000000	64.724445 
2892.000000	64.729404 
2891.000000	64.736366 
2890.000000	64.743828 
2889.000000	64.750242 
2888.000000	64.754009 
2887.000000	64.753913 
2886.000000	64.749503 
2885.000000	64.741015 
2884.000000	64.729547 
2883.000000	64.716768 
2882.000000	64.704799 
2881.000000	64.695787 
2880.000000	64.691805 
2879.000000	64.694380 
2878.000000	64.704203 
2877.000000	64.720916 
2876.000000	64.742922 
2875.000000	64.767837 
2874.000000	64.792561 
2873.000000	64.814090 
2872.000000	64.829921 
2871.000000	64.838719 
2870.000000	64.840722 
2869.000000	64.837813 
2868.000000	64.833092 
2867.000000	64.829921 
2866.000000	64.831423 
2865.000000	64.839053 
2864.000000	64.852714 
2863.000000	64.870285 
2862.000000	64.888501 
2861.000000	64.903473 
2860.000000	64.911913 
2859.000000	64.911842 
2858.000000	64.903116 
2857.000000	64.887332 
2856.000000	64.867377 
2855.000000	64.846491 
2854.000000	64.827561 
2853.000000	64.812493 
2852.000000	64.802026 
2851.000000	64.795613 
2850.000000	64.791989 
2849.000000	64.789772 
2848.000000	64.788150 
2847.000000	64.786911 
2846.000000	64.786624 
2845.000000	64.788174 
2844.000000	64.792442 
2843.000000	64.799809 
2842.000000	64.809989 
2841.000000	64.821863 
2840.000000	64.833545 
2839.000000	64.842987 
2838.000000	64.848399 
2837.000000	64.848399 
2836.000000	64.842510 
2835.000000	64.830970 
2834.000000	64.815068 
2833.000000	64.796447 
2832.000000	64.777183 
2831.000000	64.759588 
2830.000000	64.745879 
2829.000000	64.737963 
2828.000000	64.737248 
2827.000000	64.744639 
2826.000000	64.760160 
2825.000000	64.783143 
2824.000000	64.812111 
2823.000000	64.844965 
2822.000000	64.879441 
2821.000000	64.913201 
2820.000000	64.944267 
2819.000000	64.971017 
2818.000000	64.992499 
2817.000000	65.008354 
2816.000000	65.018677 
2815.000000	65.023612 
2814.000000	65.023851 
2813.000000	65.019726 
2812.000000	65.011954 
2811.000000	65.001010 
2810.000000	64.987730 
2809.000000	64.972686 
2808.000000	64.956617 
2807.000000	64.939928 
2806.000000	64.922904 
2805.000000	64.905691 
2804.000000	64.888453 
2803.000000	64.871478 
2802.000000	64.855289 
2801.000000	64.840745 
2800.000000	64.829039 
2799.000000	64.821290 
2798.000000	64.818453 
2797.000000	64.820861 
2796.000000	64.828133 
2795.000000	64.839172 
2794.000000	64.852142 
2793.000000	64.865112 
2792.000000	64.876341 
2791.000000	64.884638 
2790.000000	64.889740 
2789.000000	64.892292 
2788.000000	64.893794 
2787.000000	64.895796 
2786.000000	64.899826 
2785.000000	64.906573 
2784.000000	64.915943 
2783.000000	64.927005 
2782.000000	64.937973 
2781.000000	64.946842 
2780.000000	64.951682 
2779.000000	64.951229 
2778.000000	64.944863 
2777.000000	64.932847 
2776.000000	64.916181 
2775.000000	64.896368 
2774.000000	64.875197 
2773.000000	64.854502 
2772.000000	64.836049 
2771.000000	64.821338 
2770.000000	64.811658 
2769.000000	64.807772 
2768.000000	64.809918 
2767.000000	64.817762 
2766.000000	64.830231 
2765.000000	64.845585 
2764.000000	64.861536 
2763.000000	64.875721 
2762.000000	64.886021 
2761.000000	64.890933 
2760.000000	64.889907 
2759.000000	64.883470 
2758.000000	64.872932 
2757.000000	64.860177 
2756.000000	64.847230 
2755.000000	64.835715 
2754.000000	64.826583 
2753.000000	64.819931 
2752.000000	64.815258 
2751.000000	64.811682 
2750.000000	64.808535 
2749.000000	64.805483 
2748.000000	64.802765 
2747.000000	64.801406 
2746.000000	64.802551 
2745.000000	64.807510 
2744.000000	64.817166 
2743.000000	64.831542 
2742.000000	64.849901 
2741.000000	64.870738 
2740.000000	64.891886 
2739.000000	64.911055 
2738.000000	64.926266 
2737.000000	64.936232 
2736.000000	64.940500 
2735.000000	64.939808 
2734.000000	64.935970 
2733.000000	64.931225 
2732.000000	64.927983 
2731.000000	64.928507 
2730.000000	64.933967 
2729.000000	64.944624 
2728.000000	64.959287 
2727.000000	64.975929 
2726.000000	64.991855 
2725.000000	65.004301 
2724.000000	65.011405 
2723.000000	65.012264 
2722.000000	65.007400 
2721.000000	64.998555 
2720.000000	64.988160 
2719.000000	64.978599 
2718.000000	64.971661 
2717.000000	64.968085 
2716.000000	64.967322 
2715.000000	64.967846 
2714.000000	64.967513 
2713.000000	64.964246 
2712.000000	64.956474 
2711.000000	64.943408 
2710.000000	64.925193 
2709.000000	64.902687 
2708.000000	64.877438 
2707.000000	64.851260 
2706.000000	64.825892 
2705.000000	64.802789 
2704.000000	64.783072 
2703.000000	64.767456 
2702.000000	64.756345 
2701.000000	64.749503 
2700.000000	64.746403 
2699.000000	64.746260 
2698.000000	64.747786 
2697.000000	64.750003 
2696.000000	64.752030 
2695.000000	64.753675 
2694.000000	64.755153 
2693.000000	64.757418 
2692.000000	64.761853 
2691.000000	64.769792 
2690.000000	64.782285 
2689.000000	64.799833 
2688.000000	64.822030 
2687.000000	64.847588 
2686.000000	64.874625 
2685.000000	64.900708 
2684.000000	64.923143 
2683.000000	64.939737 
2682.000000	64.948773 
2681.000000	64.949584 
2680.000000	64.942502 
2679.000000	64.928984 
2678.000000	64.911270 
2677.000000	64.891791 
2676.000000	64.872765 
2675.000000	64.856147 
2674.000000	64.842891 
2673.000000	64.833021 
2672.000000	64.825725 
2671.000000	64.819693 
2670.000000	64.813613 
2669.000000	64.806485 
2668.000000	64.798045 
2667.000000	64.788675 
2666.000000	64.779543 
2665.000000	64.772224 
2664.000000	64.768028 
2663.000000	64.767909 
2662.000000	64.771938 
2661.000000	64.779400 
2660.000000	64.788842 
2659.000000	64.798498 
2658.000000	64.806461 
2657.000000	64.811348 
2656.000000	64.812278 
2655.000000	64.809203 
2654.000000	64.802885 
2653.000000	64.794707 
2652.000000	64.786243 
2651.000000	64.779186 
2650.000000	64.775013 
2649.000000	64.774513 
2648.000000	64.778161 
2647.000000	64.785671 
2646.000000	64.796185 
2645.000000	64.808201 
2644.000000	64.820027 
2643.000000	64.829683 
2642.000000	64.835190 
2641.000000	64.835119 
2640.000000	64.828586 
2639.000000	64.815688 
2638.000000	64.797639 
2637.000000	64.776706 
2636.000000	64.755797 
2635.000000	64.737963 
2634.000000	64.725875 
2633.000000	64.721298 
2632.000000	64.724636 
2631.000000	64.735126 
2630.000000	64.751124 
2629.000000	64.770269 
2628.000000	64.790129 
2627.000000	64.808607 
2626.000000	64.824557 
2625.000000	64.837288 
2624.000000	64.846968 
2623.000000	64.854073 
2622.000000	64.859175 
2621.000000	64.862895 
2620.000000	64.865422 
2619.000000	64.866805 
2618.000000	64.866542 
2617.000000	64.864325 
2616.000000	64.859557 
2615.000000	64.851951 
2614.000000	64.841437 
2613.000000	64.828300 
2612.000000	64.812994 
2611.000000	64.796376 
2610.000000	64.779424 
2609.000000	64.763283 
2608.000000	64.748859 
2607.000000	64.736700 
2606.000000	64.727067 
2605.000000	64.719629 
2604.000000	64.713740 
2603.000000	64.708352 
2602.000000	64.702510 
2601.000000	64.695739 
2600.000000	64.688348 
2599.000000	64.681529 
2598.000000	64.677095 
2597.000000	64.676690 
2596.000000	64.681720 
2595.000000	64.692354 
2594.000000	64.707446 
2593.000000	64.724421 
2592.000000	64.740085 
2591.000000	64.751482 
2590.000000	64.756226 
2589.000000	64.753603 
2588.000000	64.744377 
2587.000000	64.731049 
2586.000000	64.716696 
2585.000000	64.704656 
2584.000000	64.697670 
2583.000000	64.697360 
2582.000000	64.703869 
2581.000000	64.716243 
2580.000000	64.732670 
2579.000000	64.750933 
2578.000000	64.768958 
2577.000000	64.784836 
2576.000000	64.797210 
2575.000000	64.804935 
2574.000000	64.807415 
2573.000000	64.804506 
2572.000000	64.796495 
2571.000000	64.784479 
2570.000000	64.770102 
2569.000000	64.755249 
2568.000000	64.741873 
2567.000000	64.731717 
2566.000000	64.725804 
2565.000000	64.724135 
2564.000000	64.725685 
2563.000000	64.728736 
2562.000000	64.731073 
2561.000000	64.730834 
2560.000000	64.726734 
2559.000000	64.718341 
2558.000000	64.706397 
2557.000000	64.692473 
2556.000000	64.678788 
2555.000000	64.667463 
2554.000000	64.660310 
2553.000000	64.658403 
2552.000000	64.662003 
2551.000000	64.670610 
2550.000000	64.682865 
2549.000000	64.697074 
2548.000000	64.711403 
2547.000000	64.724087 
2546.000000	64.734005 
2545.000000	64.740753 
2544.000000	64.744591 
2543.000000	64.746570 
2542.000000	64.748191 
2541.000000	64.751052 
2540.000000	64.756584 
2539.000000	64.765429 
2538.000000	64.777517 
2537.000000	64.791750 
2536.000000	64.806580 
2535.000000	64.820098 
2534.000000	64.830708 
2533.000000	64.837360 
2532.000000	64.839911 
2531.000000	64.838957 
2530.000000	64.835691 
2529.000000	64.831304 
2528.000000	64.826869 
2527.000000	64.822912 
2526.000000	64.819526 
2525.000000	64.816379 
2524.000000	64.813113 
2523.000000	64.809226 
2522.000000	64.804530 
2521.000000	64.799070 
2520.000000	64.793038 
2519.000000	64.786577 
2518.000000	64.779639 
2517.000000	64.771938 
2516.000000	64.762949 
2515.000000	64.752316 
2514.000000	64.739656 
2513.000000	64.725303 
2512.000000	64.709782 
2511.000000	64.694094 
2510.000000	64.679408 
2509.000000	64.666795 
2508.000000	64.657020 
2507.000000	64.650344 
2506.000000	64.646649 
2505.000000	64.645433 
2504.000000	64.646077 
2503.000000	64.648103 
2502.000000	64.651179 
2501.000000	64.654970 
2500.000000	64.659309 
2499.000000	64.664030 
2498.000000	64.668846 
2497.000000	64.673352 
2496.000000	64.677357 
2495.000000	64.680790 
2494.000000	64.684033 
2493.000000	64.687848 
2492.000000	64.693069 
2491.000000	64.700531 
2490.000000	64.710688 
2489.000000	64.723443 
2488.000000	64.737963 
2487.000000	64.753007 
2486.000000	64.767146 
2485.000000	64.779281 
2484.000000	64.788937 
2483.000000	64.796185 
2482.000000	64.801740 
2481.000000	64.806485 
2480.000000	64.810895 
2479.000000	64.814734 
2478.000000	64.817118 
2477.000000	64.816474 
2476.000000	64.811134 
2475.000000	64.799809 
2474.000000	64.782357 
2473.000000	64.759850 
2472.000000	64.734554 
2471.000000	64.709281 
2470.000000	64.686965 
2469.000000	64.670014 
2468.000000	64.659762 
2467.000000	64.656496 
2466.000000	64.659428 
2465.000000	64.667201 
2464.000000	64.678502 
2463.000000	64.692187 
2462.000000	64.707422 
2461.000000	64.723587 
2460.000000	64.740061 
2459.000000	64.755797 
2458.000000	64.769721 
2457.000000	64.780473 
2456.000000	64.786982 
2455.000000	64.788866 
2454.000000	64.786362 
2453.000000	64.780664 
2452.000000	64.773440 
2451.000000	64.766597 
2450.000000	64.761471 
2449.000000	64.758682 
2448.000000	64.757680 
2447.000000	64.757251 
2446.000000	64.755511 
2445.000000	64.750552 
2444.000000	64.741015 
2443.000000	64.726710 
2442.000000	64.708256 
2441.000000	64.687442 
2440.000000	64.666724 
2439.000000	64.648890 
2438.000000	64.636540 
2437.000000	64.631652 
2436.000000	64.635372 
2435.000000	64.647603 
2434.000000	64.666986 
2433.000000	64.691019 
2432.000000	64.716267 
2431.000000	64.739060 
2430.000000	64.756083 
2429.000000	64.764928 
2428.000000	64.764380 
2427.000000	64.754843 
2426.000000	64.738082 
2425.000000	64.717006 
2424.000000	64.694952 
2423.000000	64.675235 
2422.000000	64.660716 
2421.000000	64.653301 
2420.000000	64.654016 
2419.000000	64.662623 
2418.000000	64.678192 
2417.000000	64.698982 
2416.000000	64.722895 
2415.000000	64.747476 
2414.000000	64.770269 
2413.000000	64.788889 
2412.000000	64.801478 
2411.000000	64.807081 
2410.000000	64.805555 
2409.000000	64.798092 
2408.000000	64.786481 
2407.000000	64.773058 
2406.000000	64.759778 
2405.000000	64.748406 
2404.000000	64.739489 
2403.000000	64.732670 
2402.000000	64.726614 
2401.000000	64.719557 
2400.000000	64.709806 
2399.000000	64.696311 
2398.000000	64.678788 
2397.000000	64.657783 
2396.000000	64.634919 
2395.000000	64.612245 
2394.000000	64.592051 
2393.000000	64.576220 
2392.000000	64.566111 
2391.000000	64.562177 
2390.000000	64.564061 
2389.000000	64.570617 
2388.000000	64.580154 
2387.000000	64.590883 
2386.000000	64.600682 
2385.000000	64.608049 
2384.000000	64.612102 
2383.000000	64.613103 
2382.000000	64.611983 
2381.000000	64.610791 
2380.000000	64.611673 
2379.000000	64.616751 
2378.000000	64.627599 
2377.000000	64.644503 
2376.000000	64.666390 
2375.000000	64.690685 
2374.000000	64.713978 
2373.000000	64.732456 
2372.000000	64.742779 
2371.000000	64.742875 
2370.000000	64.732408 
2369.000000	64.713048 
2368.000000	64.688014 
2367.000000	64.661598 
2366.000000	64.638113 
2365.000000	64.620804 
2364.000000	64.611220 
2363.000000	64.608860 
2362.000000	64.611554 
2361.000000	64.615917 
2360.000000	64.618492 
2359.000000	64.616465 
2358.000000	64.608836 
2357.000000	64.596414 
2356.000000	64.582037 
2355.000000	64.569282 
2354.000000	64.561867 
2353.000000	64.562678 
2352.000000	64.572715 
2351.000000	64.590978 
2350.000000	64.614653 
2349.000000	64.639687 
2348.000000	64.661765 
2347.000000	64.677286 
2346.000000	64.684152 
2345.000000	64.682078 
2344.000000	64.672803 
2343.000000	64.659214 
2342.000000	64.644956 
2341.000000	64.633607 
2340.000000	64.627909 
2339.000000	64.629387 
2338.000000	64.638066 
2337.000000	64.652729 
2336.000000	64.671087 
2335.000000	64.690423 
2334.000000	64.707756 
2333.000000	64.720559 
2332.000000	64.726972 
2331.000000	64.726066 
2330.000000	64.718079 
2329.000000	64.704346 
2328.000000	64.686918 
2327.000000	64.668345 
2326.000000	64.651131 
2325.000000	64.637255 
2324.000000	64.628124 
2323.000000	64.623975 
2322.000000	64.624404 
2321.000000	64.628171 
2320.000000	64.633703 
2319.000000	64.639544 
2318.000000	64.644336 
2317.000000	64.647245 
2316.000000	64.647722 
2315.000000	64.645671 
2314.000000	64.641332 
2313.000000	64.635252 
2312.000000	64.628005 
2311.000000	64.620304 
2310.000000	64.612722 
2309.000000	64.605879 
2308.000000	64.600324 
2307.000000	64.596128 
2306.000000	64.593029 
2305.000000	64.590311 
2304.000000	64.587116 
2303.000000	64.582777 
2302.000000	64.576983 
2301.000000	64.570045 
2300.000000	64.562988 
2299.000000	64.557075 
2298.000000	64.553785 
2297.000000	64.554262 
2296.000000	64.558982 
2295.000000	64.567494 
2294.000000	64.578580 
2293.000000	64.590525 
2292.000000	64.601397 
2291.000000	64.609599 
2290.000000	64.614200 
2289.000000	64.615058 
2288.000000	64.612936 
2287.000000	64.609098 
2286.000000	64.605164 
2285.000000	64.602541 
2284.000000	64.602327 
2283.000000	64.605116 
2282.000000	64.610958 
2281.000000	64.619445 
2280.000000	64.629840 
2279.000000	64.641213 
2278.000000	64.652538 
2277.000000	64.662790 
2276.000000	64.671111 
2275.000000	64.677023 
2274.000000	64.680409 
2273.000000	64.681410 
2272.000000	64.680457 
2271.000000	64.678263 
2270.000000	64.675569 
2269.000000	64.673209 
2268.000000	64.672112 
2267.000000	64.672780 
2266.000000	64.675569 
2265.000000	64.680361 
2264.000000	64.686703 
2263.000000	64.693713 
2262.000000	64.700222 
2261.000000	64.705181 
2260.000000	64.707612 
2259.000000	64.706993 
2258.000000	64.703202 
2257.000000	64.696431 
2256.000000	64.687108 
2255.000000	64.675617 
2254.000000	64.662432 
2253.000000	64.647746 
2252.000000	64.631748 
2251.000000	64.614629 
2250.000000	64.596819 
2249.000000	64.579224 
2248.000000	64.563059 
2247.000000	64.549899 
2246.000000	64.540982 
2245.000000	64.537334 
2244.000000	64.539003 
2243.000000	64.545059 
2242.000000	64.553785 
2241.000000	64.562916 
2240.000000	64.570283 
2239.000000	64.574050 
2238.000000	64.573335 
2237.000000	64.568448 
2236.000000	64.560651 
2235.000000	64.551806 
2234.000000	64.544177 
2233.000000	64.539885 
2232.000000	64.540362 
2231.000000	64.546227 
2230.000000	64.557027 
2229.000000	64.571523 
2228.000000	64.587712 
2227.000000	64.603447 
2226.000000	64.616703 
2225.000000	64.626073 
2224.000000	64.630913 
2223.000000	64.631533 
2222.000000	64.628839 
2221.000000	64.624166 
2220.000000	64.619112 
2219.000000	64.615130 
2218.000000	64.613151 
2217.000000	64.613437 
2216.000000	64.615774 
2215.000000	64.619398 
2214.000000	64.623117 
2213.000000	64.625573 
2212.000000	64.625501 
2211.000000	64.621996 
2210.000000	64.614510 
2209.000000	64.602947 
2208.000000	64.587759 
2207.000000	64.569830 
2206.000000	64.550328 
2205.000000	64.530515 
2204.000000	64.511680 
2203.000000	64.494705 
2202.000000	64.480066 
2201.000000	64.467859 
2200.000000	64.457917 
2199.000000	64.449906 
2198.000000	64.443755 
2197.000000	64.439582 
2196.000000	64.438056 
2195.000000	64.440155 
2194.000000	64.447021 
2193.000000	64.459443 
2192.000000	64.477515 
2191.000000	64.500474 
2190.000000	64.526653 
2189.000000	64.553570 
2188.000000	64.578294 
2187.000000	64.598107 
2186.000000	64.611029 
2185.000000	64.616131 
2184.000000	64.613723 
2183.000000	64.605093 
2182.000000	64.592266 
2181.000000	64.577484 
2180.000000	64.562582 
2179.000000	64.548754 
2178.000000	64.536428 
2177.000000	64.525699 
2176.000000	64.516520 
2175.000000	64.509177 
2174.000000	64.504384 
2173.000000	64.503479 
2172.000000	64.507746 
2171.000000	64.517855 
2170.000000	64.533519 
2169.000000	64.553070 
2168.000000	64.573526 
2167.000000	64.591026 
2166.000000	64.601778 
2165.000000	64.602804 
2164.000000	64.592671 
2163.000000	64.571809 
2162.000000	64.542627 
2161.000000	64.508914 
2160.000000	64.475178 
2159.000000	64.445447 
2158.000000	64.422774 
2157.000000	64.408445 
2156.000000	64.402055 
2155.000000	64.401912 
2154.000000	64.405584 
2153.000000	64.410638 
2152.000000	64.415597 
2151.000000	64.419913 
2150.000000	64.424109 
2149.000000	64.429283 
2148.000000	64.436507 
2147.000000	64.446377 
2146.000000	64.458751 
2145.000000	64.472675 
2144.000000	64.486837 
2143.000000	64.500117 
2142.000000	64.511847 
2141.000000	64.522004 
2140.000000	64.531135 
2139.000000	64.540219 
2138.000000	64.550089 
2137.000000	64.561152 
2136.000000	64.573097 
2135.000000	64.584898 
2134.000000	64.595007 
2133.000000	64.601874 
2132.000000	64.604210 
2131.000000	64.601612 
2130.000000	64.594197 
2129.000000	64.582967 
2128.000000	64.569163 
2127.000000	64.554238 
2126.000000	64.539265 
2125.000000	64.524865 
2124.000000	64.511156 
2123.000000	64.497923 
2122.000000	64.484977 
2121.000000	64.472365 
2120.000000	64.460563 
2119.000000	64.450383 
2118.000000	64.442992 
2117.000000	64.439797 
2116.000000	64.441823 
2115.000000	64.449429 
2114.000000	64.462566 
2113.000000	64.480447 
2112.000000	64.501714 
2111.000000	64.524555 
2110.000000	64.546990 
2109.000000	64.567303 
2108.000000	64.584016 
2107.000000	64.596080 
2106.000000	64.602732 
2105.000000	64.603686 
2104.000000	64.599180 
2103.000000	64.589953 
2102.000000	64.577150 
2101.000000	64.562201 
2100.000000	64.546871 
2099.000000	64.532852 
2098.000000	64.521718 
2097.000000	64.514589 
2096.000000	64.512014 
2095.000000	64.513540 
2094.000000	64.518213 
2093.000000	64.524269 
2092.000000	64.529871 
2091.000000	64.533138 
2090.000000	64.532732 
2089.000000	64.528036 
2088.000000	64.519238 
2087.000000	64.507436 
2086.000000	64.494299 
2085.000000	64.481711 
2084.000000	64.471673 
2083.000000	64.465808 
2082.000000	64.465355 
2081.000000	64.470672 
2080.000000	64.481377 
2079.000000	64.496588 
2078.000000	64.514613 
2077.000000	64.533400 
2076.000000	64.550590 
2075.000000	64.563918 
2074.000000	64.571475 
2073.000000	64.571928 
2072.000000	64.564847 
2071.000000	64.550638 
2070.000000	64.530754 
2069.000000	64.507365 
2068.000000	64.483189 
2067.000000	64.460897 
2066.000000	64.442896 
2065.000000	64.431023 
2064.000000	64.426231 
2063.000000	64.428400 
2062.000000	64.436411 
2061.000000	64.448285 
2060.000000	64.461588 
2059.000000	64.473748 
2058.000000	64.482235 
2057.000000	64.485096 
2056.000000	64.480972 
2055.000000	64.469385 
2054.000000	64.450836 
2053.000000	64.426636 
2052.000000	64.398670 
2051.000000	64.369201 
2050.000000	64.340400 
2049.000000	64.314460 
2048.000000	64.292907 
2047.000000	64.276933 
2046.000000	64.267039 
2045.000000	64.263391 
2044.000000	64.265942 
2043.000000	64.274501 
2042.000000	64.288592 
2041.000000	64.307618 
2040.000000	64.330530 
2039.000000	64.355874 
2038.000000	64.381599 
2037.000000	64.405155 
2036.000000	64.423918 
2035.000000	64.435529 
2034.000000	64.438605 
2033.000000	64.432787 
2032.000000	64.419221 
2031.000000	64.400315 
2030.000000	64.379262 
2029.000000	64.359855 
2028.000000	64.345335 
2027.000000	64.338040 
2026.000000	64.338803 
2025.000000	64.347028 
2024.000000	64.360952 
2023.000000	64.377880 
2022.000000	64.395189 
2021.000000	64.410638 
2020.000000	64.422917 
2019.000000	64.431762 
2018.000000	64.437842 
2017.000000	64.442181 
2016.000000	64.446020 
2015.000000	64.450359 
2014.000000	64.455819 
2013.000000	64.462327 
2012.000000	64.469575 
2011.000000	64.477109 
2010.000000	64.484429 
2009.000000	64.491009 
2008.000000	64.496469 
2007.000000	64.500355 
2006.000000	64.502167 
2005.000000	64.501166 
2004.000000	64.496660 
2003.000000	64.488053 
2002.000000	64.475059 
2001.000000	64.457941 
2000.000000	64.437484 
1999.000000	64.415144 
1998.000000	64.392423 
1997.000000	64.371061 
1996.000000	64.352488 
1995.000000	64.337730 
1994.000000	64.327311 
1993.000000	64.321422 
1992.000000	64.319968 
1991.000000	64.322638 
1990.000000	64.329075 
1989.000000	64.338874 
1988.000000	64.351248 
1987.000000	64.365386 
1986.000000	64.380288 
1985.000000	64.394807 
1984.000000	64.407777 
1983.000000	64.418363 
1982.000000	64.426016 
1981.000000	64.430713 
1980.000000	64.432787 
1979.000000	64.432883 
1978.000000	64.431762 
1977.000000	64.429926 
1976.000000	64.427590 
1975.000000	64.424538 
1974.000000	64.420318 
1973.000000	64.414262 
1972.000000	64.406013 
1971.000000	64.395713 
1970.000000	64.384126 
1969.000000	64.372467 
1968.000000	64.362525 
1967.000000	64.355969 
1966.000000	64.354276 
1965.000000	64.358139 
1964.000000	64.367389 
1963.000000	64.380836 
1962.000000	64.396548 
1961.000000	64.412164 
1960.000000	64.425373 
1959.000000	64.434266 
1958.000000	64.437723 
1957.000000	64.435529 
1956.000000	64.428448 
1955.000000	64.417839 
1954.000000	64.405465 
1953.000000	64.393067 
1952.000000	64.382171 
1951.000000	64.373660 
1950.000000	64.367961 
1949.000000	64.364767 
1948.000000	64.363336 
1947.000000	64.362430 
1946.000000	64.360785 
1945.000000	64.357137 
1944.000000	64.350605 
1943.000000	64.340901 
1942.000000	64.328217 
1941.000000	64.313340 
1940.000000	64.297318 
1939.000000	64.281558 
1938.000000	64.267325 
1937.000000	64.255714 
1936.000000	64.247512 
1935.000000	64.243078 
1934.000000	64.242529 
1933.000000	64.245533 
1932.000000	64.251542 
1931.000000	64.259719 
1930.000000	64.269042 
1929.000000	64.278316 
1928.000000	64.286470 
1927.000000	64.292526 
1926.000000	64.295673 
1925.000000	64.295697 
1924.000000	64.292907 
1923.000000	64.288210 
1922.000000	64.282822 
1921.000000	64.278006 
1920.000000	64.274501 
1919.000000	64.272880 
1918.000000	64.272928 
1917.000000	64.274191 
1916.000000	64.275789 
1915.000000	64.277100 
1914.000000	64.277672 
1913.000000	64.277505 
1912.000000	64.276933 
1911.000000	64.276528 
1910.000000	64.276957 
1909.000000	64.278483 
1908.000000	64.281082 
1907.000000	64.284348 
1906.000000	64.287614 
1905.000000	64.290165 
1904.000000	64.291357 
1903.000000	64.290881 
1902.000000	64.288711 
1901.000000	64.285182 
1900.000000	64.280796 
1899.000000	64.276099 
1898.000000	64.271759 
1897.000000	64.268517 
1896.000000	64.266872 
1895.000000	64.267349 
1894.000000	64.270257 
1893.000000	64.275693 
1892.000000	64.283370 
1891.000000	64.292693 
1890.000000	64.302945 
1889.000000	64.313316 
1888.000000	64.323043 
1887.000000	64.331507 
1886.000000	64.338254 
1885.000000	64.343094 
1884.000000	64.346122 
1883.000000	64.347338 
1882.000000	64.346742 
1881.000000	64.344310 
1880.000000	64.340019 
1879.000000	64.333891 
1878.000000	64.326333 
1877.000000	64.318037 
1876.000000	64.310050 
1875.000000	64.303326 
1874.000000	64.298820 
1873.000000	64.297103 
1872.000000	64.298105 
1871.000000	64.301180 
1870.000000	64.305377 
1869.000000	64.309310 
1868.000000	64.311885 
1867.000000	64.312195 
1866.000000	64.309906 
1865.000000	64.305138 
1864.000000	64.298677 
1863.000000	64.291620 
1862.000000	64.285278 
1861.000000	64.280772 
1860.000000	64.278984 
1859.000000	64.280366 
1858.000000	64.284801 
1857.000000	64.291524 
1856.000000	64.299345 
1855.000000	64.306855 
1854.000000	64.312529 
1853.000000	64.315104 
1852.000000	64.313936 
1851.000000	64.309144 
1850.000000	64.301586 
1849.000000	64.292788 
1848.000000	64.284443 
1847.000000	64.278054 
1846.000000	64.274573 
1845.000000	64.274191 
1844.000000	64.276409 
1843.000000	64.280104 
1842.000000	64.284110 
1841.000000	64.287328 
1840.000000	64.289045 
1839.000000	64.289069 
1838.000000	64.287638 
1837.000000	64.285182 
1836.000000	64.282226 
1835.000000	64.279222 
1834.000000	64.276218 
1833.000000	64.272856 
1832.000000	64.268612 
1831.000000	64.262700 
1830.000000	64.254546 
1829.000000	64.243888 
1828.000000	64.230895 
1827.000000	64.216327 
1826.000000	64.201259 
1825.000000	64.187216 
1824.000000	64.175724 
1823.000000	64.168214 
1822.000000	64.165496 
1821.000000	64.167833 
1820.000000	64.174771 
1819.000000	64.185261 
1818.000000	64.197850 
1817.000000	64.210891 
1816.000000	64.222931 
1815.000000	64.232897 
1814.000000	64.240121 
1813.000000	64.244365 
1812.000000	64.245557 
1811.000000	64.243865 
1810.000000	64.239406 
1809.000000	64.232277 
1808.000000	64.222645 
1807.000000	64.210867 
1806.000000	64.197826 
1805.000000	64.184522 
1804.000000	64.172434 
1803.000000	64.163136 
1802.000000	64.158105 
1801.000000	64.158177 
1800.000000	64.163351 
1799.000000	64.172768 
1798.000000	64.184570 
1797.000000	64.196348 
1796.000000	64.205694 
1795.000000	64.210629 
1794.000000	64.210176 
1793.000000	64.204454 
1792.000000	64.194703 
1791.000000	64.183115 
1790.000000	64.172029 
1789.000000	64.163517 
1788.000000	64.158725 
1787.000000	64.157938 
1786.000000	64.160537 
1785.000000	64.165616 
1784.000000	64.171862 
1783.000000	64.178347 
1782.000000	64.184975 
1781.000000	64.192271 
1780.000000	64.201021 
1779.000000	64.212179 
1778.000000	64.226245 
1777.000000	64.243078 
1776.000000	64.261507 
1775.000000	64.279747 
1774.000000	64.295721 
1773.000000	64.307379 
1772.000000	64.313364 
1771.000000	64.313316 
1770.000000	64.307999 
1769.000000	64.299178 
1768.000000	64.289188 
1767.000000	64.280486 
1766.000000	64.275097 
1765.000000	64.274239 
1764.000000	64.277601 
1763.000000	64.283704 
1762.000000	64.289927 
1761.000000	64.293074 
1760.000000	64.290022 
1759.000000	64.278268 
1758.000000	64.256668 
1757.000000	64.225649 
1756.000000	64.187526 
1755.000000	64.145684 
1754.000000	64.104318 
1753.000000	64.067602 
1752.000000	64.038729 
1751.000000	64.019250 
1750.000000	64.008831 
1749.000000	64.005541 
1748.000000	64.006042 
1747.000000	64.006638 
1746.000000	64.003992 
1745.000000	63.995933 
1744.000000	63.981723 
1743.000000	63.961982 
1742.000000	63.938426 
1741.000000	63.913202 
1740.000000	63.888525 
1739.000000	63.866019 
1738.000000	63.846611 
1737.000000	63.830614 
1736.000000	63.817977 
1735.000000	63.808608 
1734.000000	63.802480 
1733.000000	63.800024 
1732.000000	63.801860 
1731.000000	63.808727 
1730.000000	63.821005 
1729.000000	63.838791 
1728.000000	63.861417 
1727.000000	63.887858 
1726.000000	63.916635 
1725.000000	63.946175 
1724.000000	63.974666 
1723.000000	64.000821 
1722.000000	64.023756 
1721.000000	64.043354 
1720.000000	64.059782 
1719.000000	64.073681 
1718.000000	64.086031 
1717.000000	64.097738 
1716.000000	64.109373 
1715.000000	64.121079 
1714.000000	64.132452 
1713.000000	64.142513 
1712.000000	64.149785 
1711.000000	64.152908 
1710.000000	64.150714 
1709.000000	64.142560 
1708.000000	64.128470 
1707.000000	64.109396 
1706.000000	64.086866 
1705.000000	64.062738 
1704.000000	64.038991 
1703.000000	64.017343 
1702.000000	63.999199 
1701.000000	63.985466 
1700.000000	63.976764 
1699.000000	63.973283 
1698.000000	63.975024 
1697.000000	63.981723 
1696.000000	63.992857 
1695.000000	64.007329 
1694.000000	64.023733 
1693.000000	64.040398 
1692.000000	64.055609 
1691.000000	64.067554 
1690.000000	64.074945 
1689.000000	64.077258 
1688.000000	64.074611 
1687.000000	64.068055 
1686.000000	64.058995 
1685.000000	64.049029 
1684.000000	64.039587 
1683.000000	64.031672 
1682.000000	64.025783 
1681.000000	64.021754 
1680.000000	64.019274 
1679.000000	64.017820 
1678.000000	64.016866 
1677.000000	64.016246 
1676.000000	64.015889 
1675.000000	64.015913 
1674.000000	64.016437 
1673.000000	64.017462 
1672.000000	64.018774 
1671.000000	64.019918 
1670.000000	64.020228 
1669.000000	64.019107 
1668.000000	64.015936 
1667.000000	64.010524 
1666.000000	64.003086 
1665.000000	63.994216 
1664.000000	63.984847 
1663.000000	63.976097 
1662.000000	63.969087 
1661.000000	63.964676 
1660.000000	63.963413 
1659.000000	63.965439 
1658.000000	63.970232 
1657.000000	63.977026 
1656.000000	63.984918 
1655.000000	63.993000 
1654.000000	64.000511 
1653.000000	64.007139 
1652.000000	64.012861 
1651.000000	64.017820 
1650.000000	64.022159 
1649.000000	64.025902 
1648.000000	64.028787 
1647.000000	64.030194 
1646.000000	64.029359 
1645.000000	64.025425 
1644.000000	64.018034 
1643.000000	64.007210 
1642.000000	63.993835 
1641.000000	63.979315 
1640.000000	63.965678 
1639.000000	63.955140 
1638.000000	63.949775 
1637.000000	63.950991 
1636.000000	63.959431 
1635.000000	63.974833 
1634.000000	63.996100 
1633.000000	64.021682 
1632.000000	64.049816 
1631.000000	64.078736 
1630.000000	64.107179 
1629.000000	64.134168 
1628.000000	64.158987 
1627.000000	64.181089 
1626.000000	64.199852 
1625.000000	64.214682 
1624.000000	64.225053 
1623.000000	64.230608 
1622.000000	64.231371 
1621.000000	64.227557 
1620.000000	64.219713 
1619.000000	64.208436 
1618.000000	64.194440 
1617.000000	64.178037 
1616.000000	64.159321 
1615.000000	64.138221 
1614.000000	64.114737 
1613.000000	64.089059 
1612.000000	64.061951 
1611.000000	64.034700 
1610.000000	64.009046 
1609.000000	63.986897 
1608.000000	63.969993 
1607.000000	63.959550 
1606.000000	63.955760 
1605.000000	63.958120 
1604.000000	63.965415 
1603.000000	63.975691 
1602.000000	63.986992 
1601.000000	63.997220 
1600.000000	64.004778 
1599.000000	64.008259 
1598.000000	64.006924 
1597.000000	64.000868 
1596.000000	63.991236 
1595.000000	63.979530 
1594.000000	63.967967 
1593.000000	63.958930 
1592.000000	63.954639 
1591.000000	63.956689 
1590.000000	63.965511 
1589.000000	63.980531 
1588.000000	63.999819 
1587.000000	64.020609 
1586.000000	64.039707 
1585.000000	64.053940 
1584.000000	64.060854 
1583.000000	64.059090 
1582.000000	64.048814 
1581.000000	64.031481 
1580.000000	64.009761 
1579.000000	63.986897 
1578.000000	63.966131 
1577.000000	63.950133 
1576.000000	63.940501 
1575.000000	63.937735 
1574.000000	63.941121 
1573.000000	63.949012 
1572.000000	63.959121 
1571.000000	63.969206 
1570.000000	63.977003 
1569.000000	63.980937 
1568.000000	63.980007 
1567.000000	63.974118 
1566.000000	63.963890 
1565.000000	63.950824 
1564.000000	63.936638 
1563.000000	63.923287 
1562.000000	63.912463 
1561.000000	63.905215 
1560.000000	63.901996 
1559.000000	63.902378 
1558.000000	63.905334 
1557.000000	63.909316 
1556.000000	63.912749 
1555.000000	63.914275 
1554.000000	63.912916 
1553.000000	63.908243 
1552.000000	63.900589 
1551.000000	63.890767 
1550.000000	63.879942 
1549.000000	63.869643 
1548.000000	63.861322 
1547.000000	63.856339 
1546.000000	63.855433 
1545.000000	63.858985 
1544.000000	63.866567 
1543.000000	63.877129 
1542.000000	63.888907 
1541.000000	63.899731 
1540.000000	63.907408 
1539.000000	63.910293 
1538.000000	63.907670 
1537.000000	63.899636 
1536.000000	63.887453 
1535.000000	63.872861 
1534.000000	63.858127 
1533.000000	63.845348 
1532.000000	63.836359 
1531.000000	63.832521 
1530.000000	63.834691 
1529.000000	63.843059 
1528.000000	63.857412 
1527.000000	63.877010 
1526.000000	63.900709 
1525.000000	63.927054 
1524.000000	63.954401 
1523.000000	63.981223 
1522.000000	64.006114 
1521.000000	64.027857 
1520.000000	64.045476 
1519.000000	64.057970 
1518.000000	64.064955 
1517.000000	64.066100 
1516.000000	64.061641 
1515.000000	64.052009 
1514.000000	64.038372 
1513.000000	64.022183 
1512.000000	64.005327 
1511.000000	63.989377 
1510.000000	63.975906 
1509.000000	63.965582 
1508.000000	63.958334 
1507.000000	63.953256 
1506.000000	63.948774 
1505.000000	63.942956 
1504.000000	63.934183 
1503.000000	63.921427 
1502.000000	63.904643 
1501.000000	63.884711 
1500.000000	63.863468 
1499.000000	63.843202 
1498.000000	63.826251 
1497.000000	63.814568 
1496.000000	63.809418 
1495.000000	63.811111 
1494.000000	63.819122 
1493.000000	63.832449 
1492.000000	63.849878 
1491.000000	63.870000 
1490.000000	63.891577 
1489.000000	63.913178 
1488.000000	63.933491 
1487.000000	63.951206 
1486.000000	63.965129 
1485.000000	63.974499 
1484.000000	63.978838 
1483.000000	63.978576 
1482.000000	63.974356 
1481.000000	63.967180 
1480.000000	63.957834 
1479.000000	63.947200 
1478.000000	63.935613 
1477.000000	63.923311 
1476.000000	63.910341 
1475.000000	63.896989 
1474.000000	63.883423 
1473.000000	63.869905 
1472.000000	63.856649 
1471.000000	63.843679 
1470.000000	63.831043 
1469.000000	63.818717 
1468.000000	63.806772 
1467.000000	63.795828 
1466.000000	63.787102 
1465.000000	63.782262 
1464.000000	63.783311 
1463.000000	63.791775 
1462.000000	63.808393 
1461.000000	63.832402 
1460.000000	63.861584 
1459.000000	63.892292 
1458.000000	63.920259 
1457.000000	63.941550 
1456.000000	63.953185 
1455.000000	63.953995 
1454.000000	63.944864 
1453.000000	63.928437 
1452.000000	63.908457 
1451.000000	63.889026 
1450.000000	63.873744 
1449.000000	63.864970 
1448.000000	63.863611 
1447.000000	63.869237 
1446.000000	63.880419 
1445.000000	63.895034 
1444.000000	63.910937 
1443.000000	63.926100 
1442.000000	63.938903 
1441.000000	63.947916 
1440.000000	63.952231 
1439.000000	63.951516 
1438.000000	63.946104 
1437.000000	63.937163 
1436.000000	63.926243 
1435.000000	63.915324 
1434.000000	63.906216 
1433.000000	63.900470 
1432.000000	63.899064 
1431.000000	63.902091 
1430.000000	63.909053 
1429.000000	63.918805 
1428.000000	63.929867 
1427.000000	63.940620 
1426.000000	63.949418 
1425.000000	63.954877 
1424.000000	63.955998 
1423.000000	63.952302 
1422.000000	63.943815 
1421.000000	63.931035 
1420.000000	63.914585 
1419.000000	63.895201 
1418.000000	63.873457 
1417.000000	63.849830 
1416.000000	63.824415 
1415.000000	63.797330 
1414.000000	63.768720 
1413.000000	63.738894 
1412.000000	63.708806 
1411.000000	63.679981 
1410.000000	63.654375 
1409.000000	63.634204 
1408.000000	63.621449 
1407.000000	63.617658 
1406.000000	63.623285 
1405.000000	63.637638 
1404.000000	63.658928 
1403.000000	63.684582 
1402.000000	63.711714 
1401.000000	63.737487 
1400.000000	63.759493 
1399.000000	63.776159 
1398.000000	63.786768 
1397.000000	63.791584 
1396.000000	63.791441 
1395.000000	63.787651 
1394.000000	63.781595 
1393.000000	63.774275 
1392.000000	63.766312 
1391.000000	63.757920 
1390.000000	63.749122 
1389.000000	63.739752 
1388.000000	63.729619 
1387.000000	63.718795 
1386.000000	63.707637 
1385.000000	63.696432 
1384.000000	63.685488 
1383.000000	63.674902 
1382.000000	63.664555 
1381.000000	63.654017 
1380.000000	63.642954 
1379.000000	63.631176 
1378.000000	63.619089 
1377.000000	63.607549 
1376.000000	63.598036 
1375.000000	63.592171 
1374.000000	63.591456 
1373.000000	63.596773 
1372.000000	63.608098 
1371.000000	63.624286 
1370.000000	63.643264 
1369.000000	63.662576 
1368.000000	63.679909 
1367.000000	63.693523 
1366.000000	63.702464 
1365.000000	63.706755 
1364.000000	63.707184 
1363.000000	63.704943 
1362.000000	63.701343 
1361.000000	63.697338 
1360.000000	63.693404 
1359.000000	63.689637 
1358.000000	63.685822 
1357.000000	63.681650 
1356.000000	63.677144 
1355.000000	63.672780 
1354.000000	63.669490 
1353.000000	63.668465 
1352.000000	63.670897 
1351.000000	63.677453 
1350.000000	63.687992 
1349.000000	63.701343 
1348.000000	63.715577 
1347.000000	63.728523 
1346.000000	63.738179 
1345.000000	63.743591 
1344.000000	63.744926 
1343.000000	63.743782 
1342.000000	63.742566 
1341.000000	63.743829 
1340.000000	63.749694 
1339.000000	63.760805 
1338.000000	63.776278 
1337.000000	63.793730 
1336.000000	63.809871 
1335.000000	63.821434 
1334.000000	63.825988 
1333.000000	63.822746 
1332.000000	63.812565 
1331.000000	63.797807 
1330.000000	63.781738 
1329.000000	63.767266 
1328.000000	63.756752 
1327.000000	63.751339 
1326.000000	63.750791 
1325.000000	63.753914 
1324.000000	63.759016 
1323.000000	63.764452 
1322.000000	63.768911 
1321.000000	63.771629 
1320.000000	63.772535 
1319.000000	63.771677 
1318.000000	63.769412 
1317.000000	63.765978 
1316.000000	63.761591 
1315.000000	63.756537 
1314.000000	63.751292 
1313.000000	63.746643 
1312.000000	63.743615 
1311.000000	63.743448 
1310.000000	63.747215 
1309.000000	63.755488 
1308.000000	63.768029 
1307.000000	63.783574 
1306.000000	63.800096 
1305.000000	63.814926 
1304.000000	63.825273 
1303.000000	63.828778 
1302.000000	63.823795 
1301.000000	63.809919 
1300.000000	63.787841 
1299.000000	63.759303 
1298.000000	63.726902 
1297.000000	63.693761 
1296.000000	63.662910 
1295.000000	63.636970 
1294.000000	63.617873 
1293.000000	63.606548 
1292.000000	63.602972 
1291.000000	63.606047 
1290.000000	63.613891 
1289.000000	63.624095 
1288.000000	63.634109 
1287.000000	63.641858 
1286.000000	63.645792 
1285.000000	63.645339 
1284.000000	63.640666 
1283.000000	63.632702 
1282.000000	63.622736 
1281.000000	63.612127 
1280.000000	63.601779 
1279.000000	63.592243 
1278.000000	63.583540 
1277.000000	63.575434 
1276.000000	63.567733 
1275.000000	63.560485 
1274.000000	63.554072 
1273.000000	63.549017 
1272.000000	63.545989 
1271.000000	63.545274 
1270.000000	63.546848 
1269.000000	63.550019 
1268.000000	63.553762 
1267.000000	63.557004 
1266.000000	63.558745 
1265.000000	63.558316 
1264.000000	63.555836 
1263.000000	63.551974 
1262.000000	63.548088 
1261.000000	63.545584 
1260.000000	63.545846 
1259.000000	63.549613 
1258.000000	63.556933 
1257.000000	63.567090 
1256.000000	63.578748 
1255.000000	63.590264 
1254.000000	63.599896 
1253.000000	63.606190 
1252.000000	63.608264 
1251.000000	63.605999 
1250.000000	63.600063 
1249.000000	63.591670 
1248.000000	63.582539 
1247.000000	63.574552 
1246.000000	63.569188 
1245.000000	63.567590 
1244.000000	63.570404 
1243.000000	63.577699 
1242.000000	63.589143 
1241.000000	63.604021 
1240.000000	63.621354 
1239.000000	63.639831 
1238.000000	63.657712 
1237.000000	63.672971 
1236.000000	63.683342 
1235.000000	63.686823 
1234.000000	63.682007 
1233.000000	63.668560 
1232.000000	63.647460 
1231.000000	63.621044 
1230.000000	63.592672 
1229.000000	63.566160 
1228.000000	63.545179 
1227.000000	63.532304 
1226.000000	63.528633 
1225.000000	63.533473 
1224.000000	63.544821 
1223.000000	63.559770 
1222.000000	63.575601 
1221.000000	63.590025 
1220.000000	63.601803 
1219.000000	63.610601 
1218.000000	63.617205 
1217.000000	63.622450 
1216.000000	63.627457 
1215.000000	63.632941 
1214.000000	63.639283 
1213.000000	63.646602 
1212.000000	63.654470 
1211.000000	63.662385 
1210.000000	63.669538 
1209.000000	63.675045 
1208.000000	63.678216 
1207.000000	63.678836 
1206.000000	63.676881 
1205.000000	63.672876 
1204.000000	63.667726 
1203.000000	63.662576 
1202.000000	63.658761 
1201.000000	63.657069 
1200.000000	63.657784 
1199.000000	63.660359 
1198.000000	63.663530 
1197.000000	63.665580 
1196.000000	63.664770 
1195.000000	63.659930 
1194.000000	63.650631 
1193.000000	63.637638 
1192.000000	63.622498 
1191.000000	63.607382 
1190.000000	63.594436 
1189.000000	63.585257 
1188.000000	63.580822 
1187.000000	63.580799 
1186.000000	63.584065 
1185.000000	63.588571 
1184.000000	63.591980 
1183.000000	63.591742 
1182.000000	63.585925 
1181.000000	63.573431 
1180.000000	63.554477 
1179.000000	63.530468 
1178.000000	63.503742 
1177.000000	63.477110 
1176.000000	63.453245 
1175.000000	63.434362 
1174.000000	63.421702 
1173.000000	63.415193 
1172.000000	63.413619 
1171.000000	63.415050 
1170.000000	63.417363 
1169.000000	63.418602 
1168.000000	63.417601 
1167.000000	63.414049 
1166.000000	63.408827 
1165.000000	63.403463 
1164.000000	63.399982 
1163.000000	63.400053 
1162.000000	63.404965 
1161.000000	63.415288 
1160.000000	63.430595 
1159.000000	63.449716 
1158.000000	63.470530 
1157.000000	63.490629 
1156.000000	63.507413 
1155.000000	63.518762 
1154.000000	63.523364 
1153.000000	63.521003 
1152.000000	63.512921 
1151.000000	63.501358 
1150.000000	63.489246 
1149.000000	63.479638 
1148.000000	63.475036 
1147.000000	63.477063 
1146.000000	63.486099 
1145.000000	63.501167 
1144.000000	63.520550 
1143.000000	63.542032 
1142.000000	63.563466 
1141.000000	63.582897 
1140.000000	63.598871 
1139.000000	63.610363 
1138.000000	63.616800 
1137.000000	63.617563 
1136.000000	63.612294 
1135.000000	63.600778 
1134.000000	63.583445 
1133.000000	63.561344 
1132.000000	63.536357 
1131.000000	63.510966 
1130.000000	63.488078 
1129.000000	63.470315 
1128.000000	63.459491 
1127.000000	63.456177 
1126.000000	63.459706 
1125.000000	63.468384 
1124.000000	63.479757 
1123.000000	63.491559 
1122.000000	63.502025 
1121.000000	63.510370 
1120.000000	63.516759 
1119.000000	63.521790 
1118.000000	63.526248 
1117.000000	63.530516 
1116.000000	63.534379 
1115.000000	63.536906 
1114.000000	63.536787 
1113.000000	63.532876 
1112.000000	63.524413 
1111.000000	63.511657 
1110.000000	63.495445 
1109.000000	63.477396 
1108.000000	63.458943 
1107.000000	63.441228 
1106.000000	63.424801 
1105.000000	63.409352 
1104.000000	63.394308 
1103.000000	63.378882 
1102.000000	63.362956 
1101.000000	63.347101 
1100.000000	63.332891 
1099.000000	63.322377 
1098.000000	63.317728 
1097.000000	63.320517 
1096.000000	63.331556 
1095.000000	63.350343 
1094.000000	63.375306 
1093.000000	63.404059 
1092.000000	63.433980 
1091.000000	63.462638 
1090.000000	63.488054 
1089.000000	63.509035 
1088.000000	63.524746 
1087.000000	63.534903 
1086.000000	63.539528 
1085.000000	63.538694 
1084.000000	63.532567 
1083.000000	63.521385 
1082.000000	63.506102 
1081.000000	63.488006 
1080.000000	63.469076 
1079.000000	63.451600 
1078.000000	63.438081 
1077.000000	63.430452 
1076.000000	63.429713 
1075.000000	63.435792 
1074.000000	63.447499 
1073.000000	63.462853 
1072.000000	63.479423 
1071.000000	63.495039 
1070.000000	63.508105 
1069.000000	63.517856 
1068.000000	63.524413 
1067.000000	63.528370 
1066.000000	63.530540 
1065.000000	63.531494 
1064.000000	63.531684 
1063.000000	63.531231 
1062.000000	63.530158 
1061.000000	63.529014 
1060.000000	63.528609 
1059.000000	63.530278 
1058.000000	63.535213 
1057.000000	63.544178 
1056.000000	63.557219 
1055.000000	63.573145 
1054.000000	63.590097 
1053.000000	63.605737 
1052.000000	63.618159 
1051.000000	63.626408 
1050.000000	63.630604 
1049.000000	63.632106 
1048.000000	63.632750 
1047.000000	63.634395 
1046.000000	63.637804 
1045.000000	63.642644 
1044.000000	63.647103 
1043.000000	63.648509 
1042.000000	63.643836 
1041.000000	63.630890 
1040.000000	63.608551 
1039.000000	63.577628 
1038.000000	63.540339 
1037.000000	63.499903 
1036.000000	63.459753 
1035.000000	63.422942 
1034.000000	63.391637 
1033.000000	63.366889 
1032.000000	63.348960 
1031.000000	63.337469 
1030.000000	63.331532 
1029.000000	63.330316 
1028.000000	63.332819 
1027.000000	63.338160 
1026.000000	63.345217 
1025.000000	63.352870 
1024.000000	63.359737 
1023.000000	63.364505 
1022.000000	63.365888 
1021.000000	63.363218 
1020.000000	63.356399 
1019.000000	63.346362 
1018.000000	63.334703 
1017.000000	63.323760 
1016.000000	63.316082 
1015.000000	63.313817 
1014.000000	63.318276 
1013.000000	63.329720 
1012.000000	63.347434 
1011.000000	63.369536 
1010.000000	63.393640 
1009.000000	63.417077 
1008.000000	63.437533 
1007.000000	63.453412 
1006.000000	63.464021 
1005.000000	63.469409 
1004.000000	63.470482 
1003.000000	63.468241 
1002.000000	63.464021 
1001.000000	63.459110 
1000.000000	63.454723 
999.000000	 63.451981 
998.000000	 63.451743 
997.000000	 63.454747 
996.000000	 63.461375 
995.000000	 63.471102 
994.000000	 63.483119 
993.000000	 63.495850 
992.000000	 63.507962 
991.000000	 63.518691 
990.000000	 63.528251 
989.000000	 63.538050 
988.000000	 63.550209 
987.000000	 63.567185 
986.000000	 63.590502 
985.000000	 63.620209 
984.000000	 63.654136 
983.000000	 63.688015 
982.000000	 63.716030 
981.000000	 63.732194 
980.000000	 63.731884 
979.000000	 63.713097 
978.000000	 63.676977 
977.000000	 63.627958 
976.000000	 63.572740 
975.000000	 63.518810 
974.000000	 63.472962 
973.000000	 63.439917 
972.000000	 63.421940 
971.000000	 63.418412 
970.000000	 63.426566 
969.000000	 63.442349 
968.000000	 63.461327 
967.000000	 63.479614 
966.000000	 63.494229 
965.000000	 63.503956 
964.000000	 63.508582 
963.000000	 63.509035 
962.000000	 63.506650 
961.000000	 63.502645 
960.000000	 63.497734 
959.000000	 63.491940 
958.000000	 63.484716 
957.000000	 63.475012 
956.000000	 63.461732 
955.000000	 63.444137 
954.000000	 63.422393 
953.000000	 63.397741 
952.000000	 63.372492 
951.000000	 63.349723 
950.000000	 63.332438 
949.000000	 63.322901 
948.000000	 63.321995 
947.000000	 63.328838 
946.000000	 63.340973 
945.000000	 63.354659 
944.000000	 63.366127 
943.000000	 63.372063 
942.000000	 63.370966 
941.000000	 63.362836 
940.000000	 63.350033 
939.000000	 63.335871 
938.000000	 63.324713 
937.000000	 63.320732 
936.000000	 63.327145 
935.000000	 63.345479 
934.000000	 63.375449 
933.000000	 63.414883 
932.000000	 63.460183 
931.000000	 63.507008 
930.000000	 63.550758 
929.000000	 63.587522 
928.000000	 63.614439 
927.000000	 63.630366 
926.000000	 63.635945 
925.000000	 63.633298 
924.000000	 63.626098 
923.000000	 63.618350 
922.000000	 63.614177 
921.000000	 63.616180 
920.000000	 63.625931 
919.000000	 63.642668 
918.000000	 63.663959 
917.000000	 63.685512 
916.000000	 63.702869 
915.000000	 63.711762 
914.000000	 63.709139 
913.000000	 63.694024 
912.000000	 63.667392 
911.000000	 63.632535 
910.000000	 63.594150 
909.000000	 63.557505 
908.000000	 63.527345 
907.000000	 63.507008 
906.000000	 63.497948 
905.000000	 63.499546 
904.000000	 63.509345 
903.000000	 63.523817 
902.000000	 63.539123 
901.000000	 63.551735 
900.000000	 63.559293 
899.000000	 63.560771 
898.000000	 63.556861 
897.000000	 63.549041 
896.000000	 63.539695 
895.000000	 63.531637 
894.000000	 63.527560 
893.000000	 63.529682 
892.000000	 63.538908 
891.000000	 63.555288 
890.000000	 63.577318 
889.000000	 63.602566 
888.000000	 63.627576 
887.000000	 63.648676 
886.000000	 63.662362 
885.000000	 63.665962 
884.000000	 63.658165 
883.000000	 63.639330 
882.000000	 63.611626 
881.000000	 63.578605 
880.000000	 63.544750 
879.000000	 63.514423 
878.000000	 63.491606 
877.000000	 63.479065 
876.000000	 63.477921 
875.000000	 63.487219 
874.000000	 63.504505 
873.000000	 63.525915 
872.000000	 63.546681 
871.000000	 63.561940 
870.000000	 63.567280 
869.000000	 63.559889 
868.000000	 63.538908 
867.000000	 63.506031 
866.000000	 63.464784 
865.000000	 63.420152 
864.000000	 63.377928 
863.000000	 63.343214 
862.000000	 63.319563 
861.000000	 63.307929 
860.000000	 63.307070 
859.000000	 63.313508 
858.000000	 63.322663 
857.000000	 63.330078 
856.000000	 63.332414 
855.000000	 63.328409 
854.000000	 63.318824 
853.000000	 63.306403 
852.000000	 63.294863 
851.000000	 63.287973 
850.000000	 63.288640 
849.000000	 63.298392 
848.000000	 63.317084 
847.000000	 63.343334 
846.000000	 63.374686 
845.000000	 63.408184 
844.000000	 63.440489 
843.000000	 63.468313 
842.000000	 63.488411 
841.000000	 63.497757 
840.000000	 63.493943 
839.000000	 63.475370 
838.000000	 63.442158 
837.000000	 63.396096 
836.000000	 63.341164 
835.000000	 63.283061 
834.000000	 63.228678 
833.000000	 63.184618 
832.000000	 63.156366 
831.000000	 63.147020 
830.000000	 63.156628 
829.000000	 63.181996 
828.000000	 63.217425 
827.000000	 63.255715 
826.000000	 63.290357 
825.000000	 63.316726 
824.000000	 63.332629 
823.000000	 63.338327 
822.000000	 63.335776 
821.000000	 63.327717 
820.000000	 63.316488 
819.000000	 63.303732 
818.000000	 63.290786 
817.000000	 63.278579 
816.000000	 63.268804 
815.000000	 63.263010 
814.000000	 63.262772 
813.000000	 63.268685 
812.000000	 63.280344 
811.000000	 63.296079 
810.000000	 63.312554 
809.000000	 63.326358 
808.000000	 63.335084 
807.000000	 63.337588 
806.000000	 63.334441 
805.000000	 63.327288 
804.000000	 63.318777 
803.000000	 63.310480 
802.000000	 63.302350 
801.000000	 63.292241 
800.000000	 63.276505 
799.000000	 63.251495 
798.000000	 63.215088 
797.000000	 63.167834 
796.000000	 63.113260 
795.000000	 63.057351 
794.000000	 63.007569 
793.000000	 62.970018 
792.000000	 62.948727 
791.000000	 62.944650 
790.000000	 62.956881 
789.000000	 62.982487 
788.000000	 63.019323 
787.000000	 63.066411 
786.000000	 63.125562 
785.000000	 63.199877 
784.000000	 63.292860 
783.000000	 63.406205 
782.000000	 63.538193 
781.000000	 63.682556 
780.000000	 63.828468 
779.000000	 63.962984 
778.000000	 64.072108 
777.000000	 64.144635 
776.000000	 64.173150 
775.000000	 64.156484 
774.000000	 64.098572 
773.000000	 64.008140 
772.000000	 63.896393 
771.000000	 63.775467 
770.000000	 63.656210 
769.000000	 63.547348 
768.000000	 63.454031 
767.000000	 63.378262 
766.000000	 63.319468 
765.000000	 63.275718 
764.000000	 63.244199 
763.000000	 63.222432 
762.000000	 63.208651 
761.000000	 63.202190 
760.000000	 63.202190 
759.000000	 63.207983 
758.000000	 63.218355 
757.000000	 63.231134 
756.000000	 63.243794 
755.000000	 63.252520 
754.000000	 63.252711 
753.000000	 63.239645 
752.000000	 63.210153 
751.000000	 63.162255 
750.000000	 63.095521 
749.000000	 63.012099 
748.000000	 62.917208 
747.000000	 62.818121 
746.000000	 62.723135 
745.000000	 62.641048 
744.000000	 62.579870 
743.000000	 62.545394 
742.000000	 62.540483 
741.000000	 62.563776 
740.000000	 62.610530 
739.000000	 62.673902 
738.000000	 62.747049 
737.000000	 62.824678 
736.000000	 62.904381 
735.000000	 62.987232 
734.000000	 63.075542 
733.000000	 63.171339 
732.000000	 63.272809 
731.000000	 63.374471 
730.000000	 63.465404 
729.000000	 63.531541 
728.000000	 63.557577 
727.000000	 63.532519 
726.000000	 63.450741 
725.000000	 63.315010 
724.000000	 63.135933 
723.000000	 62.931418 
722.000000	 62.722611 
721.000000	 62.530088 
720.000000	 62.371158 
719.000000	 62.257289 
718.000000	 62.193918 
717.000000	 62.180685 
716.000000	 62.212729 
715.000000	 62.282013 
714.000000	 62.377953 
713.000000	 62.488698 
712.000000	 62.601161 
711.000000	 62.703108 
710.000000	 62.783765 
709.000000	 62.836408 
708.000000	 62.859129 
707.000000	 62.855577 
706.000000	 62.834310 
705.000000	 62.806940 
704.000000	 62.785696 
703.000000	 62.780809 
702.000000	 62.798929 
701.000000	 62.841629 
700.000000	 62.905645 
699.000000	 62.984299 
698.000000	 63.070511 
697.000000	 63.157391 
696.000000	 63.240170 
695.000000	 63.315510 
694.000000	 63.381576 
693.000000	 63.436436 
692.000000	 63.477945 
691.000000	 63.502597 
690.000000	 63.506150 
689.000000	 63.485908 
688.000000	 63.442349 
687.000000	 63.379979 
686.000000	 63.307380 
685.000000	 63.236117 
684.000000	 63.178944 
683.000000	 63.147592 
682.000000	 63.149929 
681.000000	 63.188219 
680.000000	 63.257837 
679.000000	 63.349580 
678.000000	 63.449764 
677.000000	 63.543653 
676.000000	 63.616466 
675.000000	 63.656401 
674.000000	 63.655424 
673.000000	 63.609814 
672.000000	 63.521528 
671.000000	 63.397479 
670.000000	 63.249540 
669.000000	 63.092660 
668.000000	 62.943792 
667.000000	 62.820148 
666.000000	 62.735724 
665.000000	 62.699341 
664.000000	 62.712216 
663.000000	 62.767839 
662.000000	 62.851977 
661.000000	 62.945485 
660.000000	 63.027524 
659.000000	 63.079857 
658.000000	 63.089823 
657.000000	 63.053178 
656.000000	 62.973928 
655.000000	 62.863683 
654.000000	 62.738847 
653.000000	 62.617111 
652.000000	 62.514209 
651.000000	 62.440466 
650.000000	 62.401199 
649.000000	 62.394213 
648.000000	 62.411975 
647.000000	 62.442207 
646.000000	 62.471556 
645.000000	 62.487721 
644.000000	 62.480998 
643.000000	 62.447500 
642.000000	 62.388396 
641.000000	 62.311077 
640.000000	 62.226152 
639.000000	 62.146949 
638.000000	 62.086367 
637.000000	 62.054014 
636.000000	 62.053966 
635.000000	 62.084436 
634.000000	 62.138366 
633.000000	 62.204432 
632.000000	 62.269926 
631.000000	 62.323045 
630.000000	 62.355923 
629.000000	 62.366247 
628.000000	 62.357783 
627.000000	 62.337875 
626.000000	 62.316727 
625.000000	 62.304472 
624.000000	 62.310051 
623.000000	 62.338829 
622.000000	 62.392830 
621.000000	 62.470531 
620.000000	 62.568259 
619.000000	 62.681508 
618.000000	 62.805557 
617.000000	 62.935853 
616.000000	 63.067746 
615.000000	 63.196349 
614.000000	 63.316249 
613.000000	 63.421320 
612.000000	 63.505983 
611.000000	 63.566064 
610.000000	 63.600039 
609.000000	 63.609623 
608.000000	 63.600039 
607.000000	 63.579130 
606.000000	 63.553762 
605.000000	 63.527750 
604.000000	 63.501191 
603.000000	 63.469839 
602.000000	 63.426375 
601.000000	 63.362669 
600.000000	 63.273406 
599.000000	 63.157868 
598.000000	 63.021445 
597.000000	 62.874960 
596.000000	 62.732005 
595.000000	 62.606739 
594.000000	 62.510657 
593.000000	 62.450623 
592.000000	 62.426733 
591.000000	 62.433934 
590.000000	 62.463116 
589.000000	 62.504076 
588.000000	 62.546658 
587.000000	 62.584638 
586.000000	 62.615656 
585.000000	 62.641716 
584.000000	 62.666249 
583.000000	 62.694764 
582.000000	 62.732434 
581.000000	 62.783122 
580.000000	 62.848186 
579.000000	 62.927341 
578.000000	 63.018465 
577.000000	 63.118648 
576.000000	 63.223934 
575.000000	 63.330101 
574.000000	 63.432002 
573.000000	 63.524556 
572.000000	 63.601922 
571.000000	 63.657999 
570.000000	 63.686800 
569.000000	 63.684558 
568.000000	 63.649892 
567.000000	 63.585448 
566.000000	 63.497138 
565.000000	 63.395428 
564.000000	 63.291573 
563.000000	 63.196015 
562.000000	 63.116025 
561.000000	 63.055491 
560.000000	 63.014078 
559.000000	 62.988257 
558.000000	 62.972950 
557.000000	 62.963128 
556.000000	 62.955236 
555.000000	 62.947964 
554.000000	 62.941789 
553.000000	 62.938141 
552.000000	 62.939405 
551.000000	 62.947845 
550.000000	 62.964367 
549.000000	 62.987828 
548.000000	 63.015723 
547.000000	 63.044118 
546.000000	 63.067817 
545.000000	 63.082003 
544.000000	 63.082957 
543.000000	 63.069510 
542.000000	 63.042759 
541.000000	 63.007092 
540.000000	 62.969589 
539.000000	 62.938356 
538.000000	 62.920975 
537.000000	 62.922477 
536.000000	 62.944173 
535.000000	 62.983250 
534.000000	 63.033413 
533.000000	 63.086485 
532.000000	 63.134264 
531.000000	 63.170909 
530.000000	 63.194179 
529.000000	 63.205099 
528.000000	 63.206863 
527.000000	 63.203358 
526.000000	 63.197469 
525.000000	 63.189101 
524.000000	 63.175439 
523.000000	 63.152313 
522.000000	 63.116359 
521.000000	 63.067698 
520.000000	 63.010501 
519.000000	 62.953948 
518.000000	 62.908554 
517.000000	 62.882733 
516.000000	 62.879848 
515.000000	 62.895894 
514.000000	 62.920928 
513.000000	 62.942075 
512.000000	 62.947106 
511.000000	 62.928509 
510.000000	 62.884998 
509.000000	 62.822151 
508.000000	 62.750101 
507.000000	 62.679362 
506.000000	 62.619924 
505.000000	 62.578558 
504.000000	 62.558341 
503.000000	 62.558388 
502.000000	 62.575864 
501.000000	 62.607383 
500.000000	 62.649965 
499.000000	 62.701368 
498.000000	 62.760543 
497.000000	 62.827134 
496.000000	 62.900042 
495.000000	 62.977313 
494.000000	 63.055872 
493.000000	 63.132190 
492.000000	 63.203668 
491.000000	 63.268280 
490.000000	 63.325834 
489.000000	 63.375878 
488.000000	 63.419008 
487.000000	 63.453269 
486.000000	 63.475990 
485.000000	 63.480854 
484.000000	 63.461136 
483.000000	 63.408613 
482.000000	 63.317346 
481.000000	 63.184285 
480.000000	 63.012480 
479.000000	 62.810397 
478.000000	 62.591624 
477.000000	 62.373208 
476.000000	 62.173390 
475.000000	 62.007141 
474.000000	 61.883831 
473.000000	 61.805701 
472.000000	 61.768102 
471.000000	 61.761736 
470.000000	 61.775755 
469.000000	 61.800336 
468.000000	 61.829376 
467.000000	 61.860895 
466.000000	 61.896419 
465.000000	 61.938309 
464.000000	 61.987090 
463.000000	 62.040376 
462.000000	 62.090802 
461.000000	 62.126994 
460.000000	 62.135624 
459.000000	 62.104272 
458.000000	 62.026715 
457.000000	 61.905074 
456.000000	 61.752820 
455.000000	 61.591887 
454.000000	 61.450839 
453.000000	 61.359357 
452.000000	 61.340284 
451.000000	 61.403512 
450.000000	 61.543536 
449.000000	 61.740851 
448.000000	 61.963915 
447.000000	 62.175798 
446.000000	 62.343883 
445.000000	 62.447166 
444.000000	 62.481355 
443.000000	 62.457966 
442.000000	 62.400555 
441.000000	 62.335968 
440.000000	 62.287259 
439.000000	 62.266612 
438.000000	 62.270164 
437.000000	 62.281990 
436.000000	 62.283158 
435.000000	 62.258625 
434.000000	 62.202954 
433.000000	 62.124490 
432.000000	 62.044548 
431.000000	 61.992144 
430.000000	 61.990189 
429.000000	 62.055921 
428.000000	 62.195014 
427.000000	 62.401843 
426.000000	 62.656903 
425.000000	 62.938284 
424.000000	 63.227748 
423.000000	 63.513016 
422.000000	 63.789653 
421.000000	 64.054536 
420.000000	 64.301133 
419.000000	 64.518713 
418.000000	 64.691448 
417.000000	 64.793038 
416.000000	 64.790534 
415.000000	 64.659929 
414.000000	 64.389944 
413.000000	 63.981461 
412.000000	 63.449549 
411.000000	 62.827277 
410.000000	 62.157225 
409.000000	 61.491417 
408.000000	 60.875105 
407.000000	 60.339403 
406.000000	 59.890937 
405.000000	 59.529447 
404.000000	 59.229063 
403.000000	 58.935093 
402.000000	 58.586287 
401.000000	 58.136272 
400.000000	 57.561111 
399.000000	 56.853008 
398.000000	 56.049013 
397.000000	 55.211830 
396.000000	 54.449081 
395.000000	 53.893542 
394.000000	 53.667259 
393.000000	 53.844904 
392.000000	 54.464960 
391.000000	 55.518507 
390.000000	 56.959819 
389.000000	 58.709001 
388.000000	 60.675835 
387.000000	 62.754559 
386.000000	 64.819192 
385.000000	 66.717219 
384.000000	 68.297243 
383.000000	 69.395208 
382.000000	 69.885611 
381.000000	 69.644498 
380.000000	 68.642497 
379.000000	 66.859102 
378.000000	 64.271879 
377.000000	 60.880494 
376.000000	 56.770992 
375.000000	 52.115917 
374.000000	 47.109961 
373.000000	 42.110443 
372.000000	 37.568616 
371.000000	 34.078526 
370.000000	 32.275152 

