PE IR       SPECTRUM    SPECTRUM    ASCII       PEDS        1.60        
  -1
BZ6921~1.ASC
17/04/07
18:13:35.00
17/04/07
18:13:35.00
tln
$BZ1503107-1_t0061$<tbV0>[0.0,0.0,8.0,0.0,27,1,0]
370.000000
64









2002,4.07    
MIRTGS : RIGHTBACK : INTERNAL 2
MIR : ON : INTERNAL 2
OPTKBR

0.200000
8
8.000000
FILLER
RATIO
SPECTRUM
UNLOCKED 256

DOUBLE
64
COMBINED
1
0
0


1.000000
RATIO


1
0
TRUE
51149
0
LEFT NOT FITTED RIGHT NOT FITTED 0
NONE
NONE
15600
12.000000
4.427000
51148
TRUE
1 0 8 72 0 0 0 0 

15798.010000






#HDR
-1
-1
#GR
CM-1
%T
0.00002384185791015625
0.0
5000.000000
-1.000000
4631
8
74.552059
50.540781
#DATA
5000.000000	64.762783 
4999.000000	65.028834 
4998.000000	65.264177 
4997.000000	65.451502 
4996.000000	65.577983 
4995.000000	65.636324 
4994.000000	65.625643 
4993.000000	65.550422 
4992.000000	65.422511 
4991.000000	65.261912 
4990.000000	65.093255 
4989.000000	64.942455 
4988.000000	64.834380 
4987.000000	64.790368 
4986.000000	64.822316 
4985.000000	64.930725 
4984.000000	65.105271 
4983.000000	65.326809 
4982.000000	65.569043 
4981.000000	65.803647 
4980.000000	66.003632 
4979.000000	66.149425 
4978.000000	66.231060 
4977.000000	66.251993 
4976.000000	66.227316 
4975.000000	66.181635 
4974.000000	66.146755 
4973.000000	66.151237 
4972.000000	66.217231 
4971.000000	66.348385 
4970.000000	66.534256 
4969.000000	66.742587 
4968.000000	66.931605 
4967.000000	67.050433 
4966.000000	67.054510 
4965.000000	66.910123 
4964.000000	66.604733 
4963.000000	66.147780 
4962.000000	65.571665 
4961.000000	64.922571 
4960.000000	64.252257 
4959.000000	63.609480 
4958.000000	63.033366 
4957.000000	62.550091 
4956.000000	62.173247 
4955.000000	61.905241 
4954.000000	61.742281 
4953.000000	61.677408 
4952.000000	61.705756 
4951.000000	61.820292 
4950.000000	62.015533 
4949.000000	62.283420 
4948.000000	62.613654 
4947.000000	62.988138 
4946.000000	63.382315 
4945.000000	63.764667 
4944.000000	64.101696 
4943.000000	64.360952 
4942.000000	64.520001 
4941.000000	64.569687 
4940.000000	64.520192 
4939.000000	64.400148 
4938.000000	64.252281 
4937.000000	64.126563 
4936.000000	64.066958 
4935.000000	64.105272 
4934.000000	64.247107 
4933.000000	64.472389 
4932.000000	64.737105 
4931.000000	64.985942 
4930.000000	65.163016 
4929.000000	65.226483 
4928.000000	65.161228 
4927.000000	64.982843 
4926.000000	64.731383 
4925.000000	64.461803 
4924.000000	64.231061 
4923.000000	64.084291 
4922.000000	64.046025 
4921.000000	64.114618 
4920.000000	64.267516 
4919.000000	64.465665 
4918.000000	64.666938 
4917.000000	64.833927 
4916.000000	64.940428 
4915.000000	64.977288 
4914.000000	64.949941 
4913.000000	64.876747 
4912.000000	64.778971 
4911.000000	64.678835 
4910.000000	64.594316 
4909.000000	64.536476 
4908.000000	64.509940 
4907.000000	64.512658 
4906.000000	64.539504 
4905.000000	64.582610 
4904.000000	64.634418 
4903.000000	64.687585 
4902.000000	64.735984 
4901.000000	64.774346 
4900.000000	64.798521 
4899.000000	64.805960 
4898.000000	64.795756 
4897.000000	64.768481 
4896.000000	64.726138 
4895.000000	64.672040 
4894.000000	64.610910 
4893.000000	64.548802 
4892.000000	64.492607 
4891.000000	64.448618 
4890.000000	64.422440 
4889.000000	64.418292 
4888.000000	64.438271 
4887.000000	64.482641 
4886.000000	64.548516 
4885.000000	64.629364 
4884.000000	64.716148 
4883.000000	64.798808 
4882.000000	64.867377 
4881.000000	64.913415 
4880.000000	64.931654 
4879.000000	64.920282 
4878.000000	64.881920 
4877.000000	64.823198 
4876.000000	64.753031 
4875.000000	64.681005 
4874.000000	64.616012 
4873.000000	64.565300 
4872.000000	64.533853 
4871.000000	64.524030 
4870.000000	64.535880 
4869.000000	64.567065 
4868.000000	64.613747 
4867.000000	64.670562 
4866.000000	64.730262 
4865.000000	64.784884 
4864.000000	64.826488 
4863.000000	64.848494 
4862.000000	64.846324 
4861.000000	64.818286 
4860.000000	64.765834 
4859.000000	64.693832 
4858.000000	64.609909 
4857.000000	64.523530 
4856.000000	64.444684 
4855.000000	64.382433 
4854.000000	64.343309 
4853.000000	64.331102 
4852.000000	64.346194 
4851.000000	64.385914 
4850.000000	64.445042 
4849.000000	64.517283 
4848.000000	64.596152 
4847.000000	64.675760 
4846.000000	64.750766 
4845.000000	64.816093 
4844.000000	64.866590 
4843.000000	64.897441 
4842.000000	64.904046 
4841.000000	64.882159 
4840.000000	64.828968 
4839.000000	64.745068 
4838.000000	64.635205 
4837.000000	64.508891 
4836.000000	64.379096 
4835.000000	64.260697 
4834.000000	64.167213 
4833.000000	64.108562 
4832.000000	64.088678 
4831.000000	64.104175 
4830.000000	64.146065 
4829.000000	64.201736 
4828.000000	64.258432 
4827.000000	64.305782 
4826.000000	64.337778 
4825.000000	64.352750 
4824.000000	64.353394 
4823.000000	64.344549 
4822.000000	64.331889 
4821.000000	64.320087 
4820.000000	64.312362 
4819.000000	64.310312 
4818.000000	64.315295 
4817.000000	64.328408 
4816.000000	64.351367 
4815.000000	64.385604 
4814.000000	64.431619 
4813.000000	64.487791 
4812.000000	64.549756 
4811.000000	64.610767 
4810.000000	64.662361 
4809.000000	64.696264 
4808.000000	64.706945 
4807.000000	64.692473 
4806.000000	64.654707 
4805.000000	64.599847 
4804.000000	64.537119 
4803.000000	64.477324 
4802.000000	64.430522 
4801.000000	64.404749 
4800.000000	64.405012 
4799.000000	64.431905 
4798.000000	64.481949 
4797.000000	64.547729 
4796.000000	64.619493 
4795.000000	64.686799 
4794.000000	64.740705 
4793.000000	64.774632 
4792.000000	64.785695 
4791.000000	64.775180 
4790.000000	64.748406 
4789.000000	64.713335 
4788.000000	64.679312 
4787.000000	64.655518 
4786.000000	64.649128 
4785.000000	64.664030 
4784.000000	64.700055 
4783.000000	64.753818 
4782.000000	64.819002 
4781.000000	64.887523 
4780.000000	64.951491 
4779.000000	65.004563 
4778.000000	65.043187 
4777.000000	65.066313 
4776.000000	65.075874 
4775.000000	65.075635 
4774.000000	65.070033 
4773.000000	65.063333 
4772.000000	65.057778 
4771.000000	65.053319 
4770.000000	65.047788 
4769.000000	65.038061 
4768.000000	65.020799 
4767.000000	64.993858 
4766.000000	64.957118 
4765.000000	64.912748 
4764.000000	64.864754 
4763.000000	64.817929 
4762.000000	64.776229 
4761.000000	64.741778 
4760.000000	64.714598 
4759.000000	64.692401 
4758.000000	64.671397 
4757.000000	64.647293 
4756.000000	64.616489 
4755.000000	64.577603 
4754.000000	64.531183 
4753.000000	64.480781 
4752.000000	64.431834 
4751.000000	64.391326 
4750.000000	64.365291 
4749.000000	64.358139 
4748.000000	64.371681 
4747.000000	64.404582 
4746.000000	64.452242 
4745.000000	64.508485 
4744.000000	64.566516 
4743.000000	64.620494 
4742.000000	64.666414 
4741.000000	64.702177 
4740.000000	64.727497 
4739.000000	64.743685 
4738.000000	64.752602 
4737.000000	64.756178 
4736.000000	64.755582 
4735.000000	64.751791 
4734.000000	64.745044 
4733.000000	64.735460 
4732.000000	64.722418 
4731.000000	64.706182 
4730.000000	64.686608 
4729.000000	64.663052 
4728.000000	64.634728 
4727.000000	64.601111 
4726.000000	64.562559 
4725.000000	64.520072 
4724.000000	64.475774 
4723.000000	64.433264 
4722.000000	64.396238 
4721.000000	64.367842 
4720.000000	64.350032 
4719.000000	64.342904 
4718.000000	64.345860 
4717.000000	64.357471 
4716.000000	64.376854 
4715.000000	64.403486 
4714.000000	64.437770 
4713.000000	64.480113 
4712.000000	64.530491 
4711.000000	64.587426 
4710.000000	64.647889 
4709.000000	64.707541 
4708.000000	64.761447 
4707.000000	64.805626 
4706.000000	64.838242 
4705.000000	64.860391 
4704.000000	64.876127 
4703.000000	64.891481 
4702.000000	64.913225 
4701.000000	64.946770 
4700.000000	64.995050 
4699.000000	65.057301 
4698.000000	65.129852 
4697.000000	65.205931 
4696.000000	65.277957 
4695.000000	65.337753 
4694.000000	65.378546 
4693.000000	65.395331 
4692.000000	65.386056 
4691.000000	65.351843 
4690.000000	65.297031 
4689.000000	65.229249 
4688.000000	65.158462 
4687.000000	65.095829 
4686.000000	65.051794 
4685.000000	65.034317 
4684.000000	65.047264 
4683.000000	65.089106 
4682.000000	65.152668 
4681.000000	65.226411 
4680.000000	65.296649 
4679.000000	65.350174 
4678.000000	65.377306 
4677.000000	65.373420 
4676.000000	65.339851 
4675.000000	65.283441 
4674.000000	65.214109 
4673.000000	65.142273 
4672.000000	65.076279 
4671.000000	65.020942 
4670.000000	64.976954 
4669.000000	64.941787 
4668.000000	64.911365 
4667.000000	64.882469 
4666.000000	64.853811 
4665.000000	64.826679 
4664.000000	64.804697 
4663.000000	64.792418 
4662.000000	64.793825 
4661.000000	64.810228 
4660.000000	64.840841 
4659.000000	64.882540 
4658.000000	64.931344 
4657.000000	64.983320 
4656.000000	65.035867 
4655.000000	65.087985 
4654.000000	65.139842 
4653.000000	65.191864 
4652.000000	65.243768 
4651.000000	65.293645 
4650.000000	65.337848 
4649.000000	65.371561 
4648.000000	65.390849 
4647.000000	65.393018 
4646.000000	65.378570 
4645.000000	65.350270 
4644.000000	65.313196 
4643.000000	65.273189 
4642.000000	65.235948 
4641.000000	65.205407 
4640.000000	65.183401 
4639.000000	65.169668 
4638.000000	65.163040 
4637.000000	65.161585 
4636.000000	65.163445 
4635.000000	65.167140 
4634.000000	65.171790 
4633.000000	65.176558 
4632.000000	65.180182 
4631.000000	65.180826 
4630.000000	65.176200 
4629.000000	65.163850 
4628.000000	65.141463 
4627.000000	65.107846 
4626.000000	65.063023 
4625.000000	65.008401 
4624.000000	64.946579 
4623.000000	64.880752 
4622.000000	64.814591 
4621.000000	64.752006 
4620.000000	64.696812 
4619.000000	64.652371 
4618.000000	64.621400 
4617.000000	64.605283 
4616.000000	64.604353 
4615.000000	64.616727 
4614.000000	64.639830 
4613.000000	64.669847 
4612.000000	64.703464 
4611.000000	64.737391 
4610.000000	64.770174 
4609.000000	64.801645 
4608.000000	64.833331 
4607.000000	64.867448 
4606.000000	64.906287 
4605.000000	64.951086 
4604.000000	65.001606 
4603.000000	65.055727 
4602.000000	65.110135 
4601.000000	65.161037 
4600.000000	65.205311 
4599.000000	65.241026 
4598.000000	65.267753 
4597.000000	65.286636 
4596.000000	65.300297 
4595.000000	65.311861 
4594.000000	65.324497 
4593.000000	65.340065 
4592.000000	65.360045 
4591.000000	65.383481 
4590.000000	65.407538 
4589.000000	65.427494 
4588.000000	65.438485 
4587.000000	65.435814 
4586.000000	65.416359 
4585.000000	65.379524 
4584.000000	65.327692 
4583.000000	65.265846 
4582.000000	65.201020 
4581.000000	65.140318 
4580.000000	65.089797 
4579.000000	65.052843 
4578.000000	65.030050 
4577.000000	65.018939 
4576.000000	65.015101 
4575.000000	65.013885 
4574.000000	65.012097 
4573.000000	65.008544 
4572.000000	65.004539 
4571.000000	65.002846 
4570.000000	65.007138 
4569.000000	65.019559 
4568.000000	65.041136 
4567.000000	65.071606 
4566.000000	65.109586 
4565.000000	65.153217 
4564.000000	65.200066 
4563.000000	65.247964 
4562.000000	65.294599 
4561.000000	65.337657 
4560.000000	65.374493 
4559.000000	65.402603 
4558.000000	65.419697 
4557.000000	65.424633 
4556.000000	65.417361 
4555.000000	65.399169 
4554.000000	65.372705 
4553.000000	65.342044 
4552.000000	65.311503 
4551.000000	65.284824 
4550.000000	65.265321 
4549.000000	65.255331 
4548.000000	65.255975 
4547.000000	65.267014 
4546.000000	65.287423 
4545.000000	65.314793 
4544.000000	65.345430 
4543.000000	65.374279 
4542.000000	65.395689 
4541.000000	65.404057 
4540.000000	65.394830 
4539.000000	65.365934 
4538.000000	65.317893 
4537.000000	65.254974 
4536.000000	65.184164 
4535.000000	65.114307 
4534.000000	65.054011 
4533.000000	65.010547 
4532.000000	64.988470 
4531.000000	64.989447 
4530.000000	65.011882 
4529.000000	65.052771 
4528.000000	65.108680 
4527.000000	65.176177 
4526.000000	65.252065 
4525.000000	65.332818 
4524.000000	65.414237 
4523.000000	65.490770 
4522.000000	65.556049 
4521.000000	65.604162 
4520.000000	65.631389 
4519.000000	65.637469 
4518.000000	65.626263 
4517.000000	65.606331 
4516.000000	65.587830 
4515.000000	65.581321 
4514.000000	65.593099 
4513.000000	65.623712 
4512.000000	65.666675 
4511.000000	65.710449 
4510.000000	65.741324 
4509.000000	65.748381 
4508.000000	65.725708 
4507.000000	65.675377 
4506.000000	65.605211 
4505.000000	65.526556 
4504.000000	65.450787 
4503.000000	65.385937 
4502.000000	65.335750 
4501.000000	65.299272 
4500.000000	65.273165 
4499.000000	65.254187 
4498.000000	65.238976 
4497.000000	65.225028 
4496.000000	65.210247 
4495.000000	65.192627 
4494.000000	65.169525 
4493.000000	65.138173 
4492.000000	65.095567 
4491.000000	65.040326 
4490.000000	64.973926 
4489.000000	64.901447 
4488.000000	64.831709 
4487.000000	64.774608 
4486.000000	64.739823 
4485.000000	64.732933 
4484.000000	64.751696 
4483.000000	64.788150 
4482.000000	64.831423 
4481.000000	64.869427 
4480.000000	64.889979 
4479.000000	64.886713 
4478.000000	64.861226 
4477.000000	64.822053 
4476.000000	64.777421 
4475.000000	64.743399 
4474.000000	64.742207 
4473.000000	64.792561 
4472.000000	64.904594 
4471.000000	65.074610 
4470.000000	65.284395 
4469.000000	65.506029 
4468.000000	65.709185 
4467.000000	65.864443 
4466.000000	65.951156 
4465.000000	65.971517 
4464.000000	65.944218 
4463.000000	65.896511 
4462.000000	65.852022 
4461.000000	65.824198 
4460.000000	65.807032 
4459.000000	65.780019 
4458.000000	65.708303 
4457.000000	65.560078 
4456.000000	65.306663 
4455.000000	64.945030 
4454.000000	64.478564 
4453.000000	63.930749 
4452.000000	63.311743 
4451.000000	62.619137 
4450.000000	61.827492 
4449.000000	60.895156 
4448.000000	59.790062 
4447.000000	58.506345 
4446.000000	57.096862 
4445.000000	55.674028 
4444.000000	54.412579 
4443.000000	53.516674 
4442.000000	53.182911 
4441.000000	53.550410 
4440.000000	54.666662 
4439.000000	56.461858 
4438.000000	58.753895 
4437.000000	61.271667 
4436.000000	63.698959 
4435.000000	65.732479 
4434.000000	67.132639 
4433.000000	67.768764 
4432.000000	67.633032 
4431.000000	66.836023 
4430.000000	65.581202 
4429.000000	64.109587 
4428.000000	62.656235 
4427.000000	61.400198 
4426.000000	60.457801 
4425.000000	59.859132 
4424.000000	59.578156 
4423.000000	59.543919 
4422.000000	59.682178 
4421.000000	59.924530 
4420.000000	60.221695 
4419.000000	60.548686 
4418.000000	60.893464 
4417.000000	61.258792 
4416.000000	61.646962 
4415.000000	62.062239 
4414.000000	62.502670 
4413.000000	62.958574 
4412.000000	63.411784 
4411.000000	63.840651 
4410.000000	64.223146 
4409.000000	64.543461 
4408.000000	64.793610 
4407.000000	64.974999 
4406.000000	65.096259 
4405.000000	65.177631 
4404.000000	65.240120 
4403.000000	65.298223 
4402.000000	65.359115 
4401.000000	65.429615 
4400.000000	65.508389 
4399.000000	65.594244 
4398.000000	65.678715 
4397.000000	65.748429 
4396.000000	65.788674 
4395.000000	65.790271 
4394.000000	65.747070 
4393.000000	65.657210 
4392.000000	65.526580 
4391.000000	65.368723 
4390.000000	65.201091 
4389.000000	65.042233 
4388.000000	64.906382 
4387.000000	64.801311 
4386.000000	64.729881 
4385.000000	64.691042 
4384.000000	64.679408 
4383.000000	64.688420 
4382.000000	64.713191 
4381.000000	64.751529 
4380.000000	64.799928 
4379.000000	64.856147 
4378.000000	64.918637 
4377.000000	64.986443 
4376.000000	65.056180 
4375.000000	65.124249 
4374.000000	65.187430 
4373.000000	65.242981 
4372.000000	65.288734 
4371.000000	65.324211 
4370.000000	65.350818 
4369.000000	65.371513 
4368.000000	65.390133 
4367.000000	65.410876 
4366.000000	65.437412 
4365.000000	65.472269 
4364.000000	65.516448 
4363.000000	65.568614 
4362.000000	65.625023 
4361.000000	65.679788 
4360.000000	65.725684 
4359.000000	65.754294 
4358.000000	65.757656 
4357.000000	65.730404 
4356.000000	65.671157 
4355.000000	65.583205 
4354.000000	65.474319 
4353.000000	65.356636 
4352.000000	65.243411 
4351.000000	65.146923 
4350.000000	65.075230 
4349.000000	65.030765 
4348.000000	65.010023 
4347.000000	65.004706 
4346.000000	65.004920 
4345.000000	65.000557 
4344.000000	64.986133 
4343.000000	64.961481 
4342.000000	64.932656 
4341.000000	64.908695 
4340.000000	64.899992 
4339.000000	64.914464 
4338.000000	64.955043 
4337.000000	65.018033 
4336.000000	65.094351 
4335.000000	65.171694 
4334.000000	65.237283 
4333.000000	65.281081 
4332.000000	65.297698 
4331.000000	65.287542 
4330.000000	65.255832 
4329.000000	65.211391 
4328.000000	65.164470 
4327.000000	65.124368 
4326.000000	65.098595 
4325.000000	65.090799 
4324.000000	65.101480 
4323.000000	65.127277 
4322.000000	65.163302 
4321.000000	65.203046 
4320.000000	65.239405 
4319.000000	65.266442 
4318.000000	65.279722 
4317.000000	65.277910 
4316.000000	65.262198 
4315.000000	65.236663 
4314.000000	65.207242 
4313.000000	65.179753 
4312.000000	65.158605 
4311.000000	65.145444 
4310.000000	65.138936 
4309.000000	65.135526 
4308.000000	65.130925 
4307.000000	65.121698 
4306.000000	65.106630 
4305.000000	65.087413 
4304.000000	65.068364 
4303.000000	65.054678 
4302.000000	65.050911 
4301.000000	65.059685 
4300.000000	65.080261 
4299.000000	65.108680 
4298.000000	65.138220 
4297.000000	65.161323 
4296.000000	65.171265 
4295.000000	65.163922 
4294.000000	65.138792 
4293.000000	65.098404 
4292.000000	65.048599 
4291.000000	64.996242 
4290.000000	64.948916 
4289.000000	64.913344 
4288.000000	64.894247 
4287.000000	64.893984 
4286.000000	64.911770 
4285.000000	64.944219 
4284.000000	64.985585 
4283.000000	65.028762 
4282.000000	65.066742 
4281.000000	65.093779 
4280.000000	65.106463 
4279.000000	65.104269 
4278.000000	65.089392 
4277.000000	65.065979 
4276.000000	65.039205 
4275.000000	65.013742 
4274.000000	64.992761 
4273.000000	64.977383 
4272.000000	64.967036 
4271.000000	64.959907 
4270.000000	64.953970 
4269.000000	64.947867 
4268.000000	64.941716 
4267.000000	64.937043 
4266.000000	64.935731 
4265.000000	64.939689 
4264.000000	64.949464 
4263.000000	64.964199 
4262.000000	64.981555 
4261.000000	64.998221 
4260.000000	65.010738 
4259.000000	65.016460 
4258.000000	65.014362 
4257.000000	65.004968 
4256.000000	64.990425 
4255.000000	64.973473 
4254.000000	64.956855 
4253.000000	64.942598 
4252.000000	64.931678 
4251.000000	64.924263 
4250.000000	64.920115 
4249.000000	64.918875 
4248.000000	64.920616 
4247.000000	64.925646 
4246.000000	64.935016 
4245.000000	64.949464 
4244.000000	64.970111 
4243.000000	64.997577 
4242.000000	65.032005 
4241.000000	65.073180 
4240.000000	65.119647 
4239.000000	65.169072 
4238.000000	65.217256 
4237.000000	65.259432 
4236.000000	65.289616 
4235.000000	65.301799 
4234.000000	65.291070 
4233.000000	65.255188 
4232.000000	65.195345 
4231.000000	65.116691 
4230.000000	65.027952 
4229.000000	64.940023 
4228.000000	64.863896 
4227.000000	64.808607 
4226.000000	64.779329 
4225.000000	64.776611 
4224.000000	64.796495 
4223.000000	64.831757 
4222.000000	64.873862 
4221.000000	64.914798 
4220.000000	64.948558 
4219.000000	64.972209 
4218.000000	64.985060 
4217.000000	64.989018 
4216.000000	64.987158 
4215.000000	64.983677 
4214.000000	64.981794 
4213.000000	64.984512 
4212.000000	64.994454 
4211.000000	65.013456 
4210.000000	65.042686 
4209.000000	65.082144 
4208.000000	65.131139 
4207.000000	65.187191 
4206.000000	65.246272 
4205.000000	65.302991 
4204.000000	65.351676 
4203.000000	65.387392 
4202.000000	65.407109 
4201.000000	65.410518 
4200.000000	65.400290 
4199.000000	65.381717 
4198.000000	65.361571 
4197.000000	65.345954 
4196.000000	65.338540 
4195.000000	65.340471 
4194.000000	65.349292 
4193.000000	65.359640 
4192.000000	65.364480 
4191.000000	65.357398 
4190.000000	65.333509 
4189.000000	65.291428 
4188.000000	65.232729 
4187.000000	65.161776 
4186.000000	65.084385 
4185.000000	65.006327 
4184.000000	64.932489 
4183.000000	64.865660 
4182.000000	64.807176 
4181.000000	64.757466 
4180.000000	64.716649 
4179.000000	64.685034 
4178.000000	64.663195 
4177.000000	64.651751 
4176.000000	64.650774 
4175.000000	64.659047 
4174.000000	64.674663 
4173.000000	64.695215 
4172.000000	64.718246 
4171.000000	64.741778 
4170.000000	64.765405 
4169.000000	64.790105 
4168.000000	64.817929 
4167.000000	64.851045 
4166.000000	64.890956 
4165.000000	64.937734 
4164.000000	64.989686 
4163.000000	65.043449 
4162.000000	65.094804 
4161.000000	65.138816 
4160.000000	65.171837 
4159.000000	65.191292 
4158.000000	65.195965 
4157.000000	65.186309 
4156.000000	65.164184 
4155.000000	65.132904 
4154.000000	65.096354 
4153.000000	65.059161 
4152.000000	65.026545 
4151.000000	65.002775 
4150.000000	64.990615 
4149.000000	64.990687 
4148.000000	65.001511 
4147.000000	65.019273 
4146.000000	65.038752 
4145.000000	65.054249 
4144.000000	65.060925 
4143.000000	65.055847 
4142.000000	65.038895 
4141.000000	65.012431 
4140.000000	64.980912 
4139.000000	64.949989 
4138.000000	64.925312 
4137.000000	64.911055 
4136.000000	64.909195 
4135.000000	64.919781 
4134.000000	64.940857 
4133.000000	64.969205 
4132.000000	65.001010 
4131.000000	65.032553 
4130.000000	65.060949 
4129.000000	65.083932 
4128.000000	65.100622 
4127.000000	65.111088 
4126.000000	65.116381 
4125.000000	65.118145 
4124.000000	65.117812 
4123.000000	65.116286 
4122.000000	65.113902 
4121.000000	65.110397 
4120.000000	65.104961 
4119.000000	65.096688 
4118.000000	65.085053 
4117.000000	65.070295 
4116.000000	65.053200 
4115.000000	65.035152 
4114.000000	65.017461 
4113.000000	65.001249 
4112.000000	64.987134 
4111.000000	64.975023 
4110.000000	64.964199 
4109.000000	64.953899 
4108.000000	64.943242 
4107.000000	64.932155 
4106.000000	64.921116 
4105.000000	64.911293 
4104.000000	64.903998 
4103.000000	64.900588 
4102.000000	64.901566 
4101.000000	64.907193 
4100.000000	64.917039 
4099.000000	64.930415 
4098.000000	64.946365 
4097.000000	64.964222 
4096.000000	64.983701 
4095.000000	65.004467 
4094.000000	65.026211 
4093.000000	65.048074 
4092.000000	65.068697 
4091.000000	65.086197 
4090.000000	65.098309 
4089.000000	65.102934 
4088.000000	65.098357 
4087.000000	65.084075 
4086.000000	65.060901 
4085.000000	65.030956 
4084.000000	64.997363 
4083.000000	64.963865 
4082.000000	64.934134 
4081.000000	64.911055 
4080.000000	64.896583 
4079.000000	64.891552 
4078.000000	64.895558 
4077.000000	64.907288 
4076.000000	64.924645 
4075.000000	64.945125 
4074.000000	64.965844 
4073.000000	64.983773 
4072.000000	64.996123 
4071.000000	65.000367 
4070.000000	64.995098 
4069.000000	64.980244 
4068.000000	64.957690 
4067.000000	64.930748 
4066.000000	64.904212 
4065.000000	64.883303 
4064.000000	64.872765 
4063.000000	64.875674 
4062.000000	64.892649 
4061.000000	64.921545 
4060.000000	64.957809 
4059.000000	64.995431 
4058.000000	65.028476 
4057.000000	65.052390 
4056.000000	65.064811 
4055.000000	65.066146 
4054.000000	65.059113 
4053.000000	65.048050 
4052.000000	65.037727 
4051.000000	65.031981 
4050.000000	65.033197 
4049.000000	65.041446 
4048.000000	65.055418 
4047.000000	65.071988 
4046.000000	65.087604 
4045.000000	65.098738 
4044.000000	65.102839 
4043.000000	65.098929 
4042.000000	65.087676 
4041.000000	65.071487 
4040.000000	65.053677 
4039.000000	65.038228 
4038.000000	65.028786 
4037.000000	65.028023 
4036.000000	65.036964 
4035.000000	65.054607 
4034.000000	65.077972 
4033.000000	65.102744 
4032.000000	65.124201 
4031.000000	65.138101 
4030.000000	65.141701 
4029.000000	65.134263 
4028.000000	65.117406 
4027.000000	65.094757 
4026.000000	65.071105 
4025.000000	65.051174 
4024.000000	65.038657 
4023.000000	65.035676 
4022.000000	65.042352 
4021.000000	65.057182 
4020.000000	65.077424 
4019.000000	65.099835 
4018.000000	65.121245 
4017.000000	65.139365 
4016.000000	65.152621 
4015.000000	65.160202 
4014.000000	65.161752 
4013.000000	65.157079 
4012.000000	65.146446 
4011.000000	65.130543 
4010.000000	65.110826 
4009.000000	65.089368 
4008.000000	65.068984 
4007.000000	65.052533 
4006.000000	65.042686 
4005.000000	65.040898 
4004.000000	65.047001 
4003.000000	65.059089 
4002.000000	65.073394 
4001.000000	65.085768 
4000.000000	65.092587 
3999.000000	65.091919 
3998.000000	65.083837 
3997.000000	65.070629 
3996.000000	65.056252 
3995.000000	65.045404 
3994.000000	65.042185 
3993.000000	65.049147 
3992.000000	65.066695 
3991.000000	65.093016 
3990.000000	65.124750 
3989.000000	65.157532 
3988.000000	65.187025 
3987.000000	65.209531 
3986.000000	65.222740 
3985.000000	65.225982 
3984.000000	65.220308 
3983.000000	65.207910 
3982.000000	65.191698 
3981.000000	65.175032 
3980.000000	65.160775 
3979.000000	65.151190 
3978.000000	65.146970 
3977.000000	65.147423 
3976.000000	65.150165 
3975.000000	65.151619 
3974.000000	65.147781 
3973.000000	65.135145 
3972.000000	65.111756 
3971.000000	65.077805 
3970.000000	65.035986 
3969.000000	64.990878 
3968.000000	64.948344 
3967.000000	64.914321 
3966.000000	64.893579 
3965.000000	64.888501 
3964.000000	64.898800 
3963.000000	64.921736 
3962.000000	64.952492 
3961.000000	64.985466 
3960.000000	65.015006 
3959.000000	65.036630 
3958.000000	65.047168 
3957.000000	65.045118 
3956.000000	65.030550 
3955.000000	65.004634 
3954.000000	64.969396 
3953.000000	64.927268 
3952.000000	64.881157 
3951.000000	64.833998 
3950.000000	64.788627 
3949.000000	64.747595 
3948.000000	64.712691 
3947.000000	64.685440 
3946.000000	64.666604 
3945.000000	64.657163 
3944.000000	64.657473 
3943.000000	64.668154 
3942.000000	64.689469 
3941.000000	64.721417 
3940.000000	64.763236 
3939.000000	64.813089 
3938.000000	64.867520 
3937.000000	64.921951 
3936.000000	64.970898 
3935.000000	65.009307 
3934.000000	65.033245 
3933.000000	65.041375 
3932.000000	65.035223 
3931.000000	65.019297 
3930.000000	65.000319 
3929.000000	64.985752 
3928.000000	64.981818 
3927.000000	64.992189 
3926.000000	65.016555 
3925.000000	65.050888 
3924.000000	65.088224 
3923.000000	65.119719 
3922.000000	65.137100 
3921.000000	65.134978 
3920.000000	65.112352 
3919.000000	65.072727 
3918.000000	65.023827 
3917.000000	64.975833 
3916.000000	64.938735 
3915.000000	64.920353 
3914.000000	64.924025 
3913.000000	64.948296 
3912.000000	64.987111 
3911.000000	65.031909 
3910.000000	65.073204 
3909.000000	65.102934 
3908.000000	65.116167 
3907.000000	65.111780 
3906.000000	65.092110 
3905.000000	65.061688 
3904.000000	65.026235 
3903.000000	64.991450 
3902.000000	64.961934 
3901.000000	64.941000 
3900.000000	64.930987 
3899.000000	64.933490 
3898.000000	64.949798 
3897.000000	64.980649 
3896.000000	65.025830 
3895.000000	65.083503 
3894.000000	65.149879 
3893.000000	65.219283 
3892.000000	65.284776 
3891.000000	65.338969 
3890.000000	65.375614 
3889.000000	65.390253 
3888.000000	65.381431 
3887.000000	65.350532 
3886.000000	65.301752 
3885.000000	65.240907 
3884.000000	65.174365 
3883.000000	65.108227 
3882.000000	65.047788 
3881.000000	64.996814 
3880.000000	64.957666 
3879.000000	64.931225 
3878.000000	64.917325 
3877.000000	64.914798 
3876.000000	64.921808 
3875.000000	64.935684 
3874.000000	64.953374 
3873.000000	64.971971 
3872.000000	64.989233 
3871.000000	65.003848 
3870.000000	65.015721 
3869.000000	65.025734 
3868.000000	65.035200 
3867.000000	65.045380 
3866.000000	65.056800 
3865.000000	65.069031 
3864.000000	65.080523 
3863.000000	65.088772 
3862.000000	65.091300 
3861.000000	65.086269 
3860.000000	65.073275 
3859.000000	65.053534 
3858.000000	65.030121 
3857.000000	65.007710 
3856.000000	64.991545 
3855.000000	64.986324 
3854.000000	64.994716 
3853.000000	65.016818 
3852.000000	65.049791 
3851.000000	65.088820 
3850.000000	65.127325 
3849.000000	65.158462 
3848.000000	65.176796 
3847.000000	65.179491 
3846.000000	65.166735 
3845.000000	65.141510 
3844.000000	65.108990 
3843.000000	65.075135 
3842.000000	65.045738 
3841.000000	65.024757 
3840.000000	65.014266 
3839.000000	65.013766 
3838.000000	65.021157 
3837.000000	65.032935 
3836.000000	65.045571 
3835.000000	65.055847 
3834.000000	65.061187 
3833.000000	65.060067 
3832.000000	65.051674 
3831.000000	65.036320 
3830.000000	65.014743 
3829.000000	64.988732 
3828.000000	64.960646 
3827.000000	64.933896 
3826.000000	64.912438 
3825.000000	64.900207 
3824.000000	64.900279 
3823.000000	64.914178 
3822.000000	64.941215 
3821.000000	64.978122 
3820.000000	65.019440 
3819.000000	65.058755 
3818.000000	65.090155 
3817.000000	65.109300 
3816.000000	65.114665 
3815.000000	65.107345 
3814.000000	65.091133 
3813.000000	65.071392 
3812.000000	65.053725 
3811.000000	65.042543 
3810.000000	65.040469 
3809.000000	65.048122 
3808.000000	65.064144 
3807.000000	65.086174 
3806.000000	65.111184 
3805.000000	65.136766 
3804.000000	65.160727 
3803.000000	65.181565 
3802.000000	65.197682 
3801.000000	65.207505 
3800.000000	65.209031 
3799.000000	65.200066 
3798.000000	65.178775 
3797.000000	65.144324 
3796.000000	65.097308 
3795.000000	65.040373 
3794.000000	64.977931 
3793.000000	64.916062 
3792.000000	64.861726 
3791.000000	64.821839 
3790.000000	64.801907 
3789.000000	64.805030 
3788.000000	64.831614 
3787.000000	64.879012 
3786.000000	64.941668 
3785.000000	65.012145 
3784.000000	65.082359 
3783.000000	65.145230 
3782.000000	65.195035 
3781.000000	65.229010 
3780.000000	65.247082 
3779.000000	65.251898 
3778.000000	65.247869 
3777.000000	65.239858 
3776.000000	65.232372 
3775.000000	65.228199 
3774.000000	65.228414 
3773.000000	65.232086 
3772.000000	65.237236 
3771.000000	65.241193 
3770.000000	65.241885 
3769.000000	65.237808 
3768.000000	65.228652 
3767.000000	65.215015 
3766.000000	65.198230 
3765.000000	65.179848 
3764.000000	65.161204 
3763.000000	65.143346 
3762.000000	65.126705 
3761.000000	65.111112 
3760.000000	65.095901 
3759.000000	65.080237 
3758.000000	65.063405 
3757.000000	65.045142 
3756.000000	65.025520 
3755.000000	65.004920 
3754.000000	64.984178 
3753.000000	64.964222 
3752.000000	64.945983 
3751.000000	64.929890 
3750.000000	64.916205 
3749.000000	64.904928 
3748.000000	64.896249 
3747.000000	64.890265 
3746.000000	64.887642 
3745.000000	64.889097 
3744.000000	64.895868 
3743.000000	64.909005 
3742.000000	64.929127 
3741.000000	64.955830 
3740.000000	64.987635 
3739.000000	65.022110 
3738.000000	65.056037 
3737.000000	65.086007 
3736.000000	65.109229 
3735.000000	65.123963 
3734.000000	65.129661 
3733.000000	65.127158 
3732.000000	65.118408 
3731.000000	65.106105 
3730.000000	65.093183 
3729.000000	65.082025 
3728.000000	65.074396 
3727.000000	65.070939 
3726.000000	65.071296 
3725.000000	65.074157 
3724.000000	65.078020 
3723.000000	65.081715 
3722.000000	65.084576 
3721.000000	65.086984 
3720.000000	65.090084 
3719.000000	65.095615 
3718.000000	65.105199 
3717.000000	65.120005 
3716.000000	65.140151 
3715.000000	65.164732 
3714.000000	65.191936 
3713.000000	65.219449 
3712.000000	65.245103 
3711.000000	65.267252 
3710.000000	65.284919 
3709.000000	65.297651 
3708.000000	65.305376 
3707.000000	65.307879 
3706.000000	65.304684 
3705.000000	65.294790 
3704.000000	65.277147 
3703.000000	65.251731 
3702.000000	65.219473 
3701.000000	65.182852 
3700.000000	65.145516 
3699.000000	65.111684 
3698.000000	65.085196 
3697.000000	65.068602 
3696.000000	65.062594 
3695.000000	65.065598 
3694.000000	65.074634 
3693.000000	65.085816 
3692.000000	65.095686 
3691.000000	65.101957 
3690.000000	65.104198 
3689.000000	65.103483 
3688.000000	65.102219 
3687.000000	65.103125 
3686.000000	65.108346 
3685.000000	65.118837 
3684.000000	65.134191 
3683.000000	65.152645 
3682.000000	65.171599 
3681.000000	65.188145 
3680.000000	65.199565 
3679.000000	65.203690 
3678.000000	65.199136 
3677.000000	65.185475 
3676.000000	65.163087 
3675.000000	65.133500 
3674.000000	65.099000 
3673.000000	65.062856 
3672.000000	65.028357 
3671.000000	64.998817 
3670.000000	64.977288 
3669.000000	64.965748 
3668.000000	64.964699 
3667.000000	64.973163 
3666.000000	64.988827 
3665.000000	65.008521 
3664.000000	65.028738 
3663.000000	65.046405 
3662.000000	65.059208 
3661.000000	65.066123 
3660.000000	65.067410 
3659.000000	65.064191 
3658.000000	65.057611 
3657.000000	65.048909 
3656.000000	65.038967 
3655.000000	65.028190 
3654.000000	65.016722 
3653.000000	65.004658 
3652.000000	64.992618 
3651.000000	64.981770 
3650.000000	64.973807 
3649.000000	64.970517 
3648.000000	64.973688 
3647.000000	64.984345 
3646.000000	65.002751 
3645.000000	65.028047 
3644.000000	65.058493 
3643.000000	65.091991 
3642.000000	65.126085 
3641.000000	65.158128 
3640.000000	65.185594 
3639.000000	65.206336 
3638.000000	65.218448 
3637.000000	65.220260 
3636.000000	65.210628 
3635.000000	65.189290 
3634.000000	65.156936 
3633.000000	65.115523 
3632.000000	65.068244 
3631.000000	65.019321 
3630.000000	64.973354 
3629.000000	64.934968 
3628.000000	64.907693 
3627.000000	64.893794 
3626.000000	64.893722 
3625.000000	64.906454 
3624.000000	64.929604 
3623.000000	64.960169 
3622.000000	64.994955 
3621.000000	65.031099 
3620.000000	65.066218 
3619.000000	65.098547 
3618.000000	65.126848 
3617.000000	65.150094 
3616.000000	65.167427 
3615.000000	65.178036 
3614.000000	65.181469 
3613.000000	65.177392 
3612.000000	65.166282 
3611.000000	65.149235 
3610.000000	65.128183 
3609.000000	65.105462 
3608.000000	65.083765 
3607.000000	65.065360 
3606.000000	65.051960 
3605.000000	65.044474 
3604.000000	65.042924 
3603.000000	65.046548 
3602.000000	65.054225 
3601.000000	65.064549 
3600.000000	65.076375 
3599.000000	65.088701 
3598.000000	65.100765 
3597.000000	65.112042 
3596.000000	65.122151 
3595.000000	65.130901 
3594.000000	65.138053 
3593.000000	65.143489 
3592.000000	65.146875 
3591.000000	65.148091 
3590.000000	65.146756 
3589.000000	65.142393 
3588.000000	65.134620 
3587.000000	65.123391 
3586.000000	65.109157 
3585.000000	65.092921 
3584.000000	65.076398 
3583.000000	65.061855 
3582.000000	65.051770 
3581.000000	65.048336 
3580.000000	65.053081 
3579.000000	65.066385 
3578.000000	65.087366 
3577.000000	65.113735 
3576.000000	65.142273 
3575.000000	65.169191 
3574.000000	65.190982 
3573.000000	65.204977 
3572.000000	65.209627 
3571.000000	65.204572 
3570.000000	65.190935 
3569.000000	65.170311 
3568.000000	65.144944 
3567.000000	65.116667 
3566.000000	65.087151 
3565.000000	65.057516 
3564.000000	65.028405 
3563.000000	65.000462 
3562.000000	64.974427 
3561.000000	64.951658 
3560.000000	64.933872 
3559.000000	64.923000 
3558.000000	64.920616 
3557.000000	64.927387 
3556.000000	64.942574 
3555.000000	64.963865 
3554.000000	64.987730 
3553.000000	65.010118 
3552.000000	65.027332 
3551.000000	65.037059 
3550.000000	65.038728 
3549.000000	65.033531 
3548.000000	65.024256 
3547.000000	65.014243 
3546.000000	65.006732 
3545.000000	65.003943 
3544.000000	65.006709 
3543.000000	65.014624 
3542.000000	65.026187 
3541.000000	65.039515 
3540.000000	65.052986 
3539.000000	65.065622 
3538.000000	65.077137 
3537.000000	65.087676 
3536.000000	65.097546 
3535.000000	65.107011 
3534.000000	65.115976 
3533.000000	65.123796 
3532.000000	65.129780 
3531.000000	65.133595 
3530.000000	65.135288 
3529.000000	65.135288 
3528.000000	65.134549 
3527.000000	65.134382 
3526.000000	65.136098 
3525.000000	65.140867 
3524.000000	65.149378 
3523.000000	65.161561 
3522.000000	65.176701 
3521.000000	65.193343 
3520.000000	65.209794 
3519.000000	65.224242 
3518.000000	65.235161 
3517.000000	65.241479 
3516.000000	65.243053 
3515.000000	65.240383 
3514.000000	65.234518 
3513.000000	65.226674 
3512.000000	65.218043 
3511.000000	65.209436 
3510.000000	65.201520 
3509.000000	65.194559 
3508.000000	65.188646 
3507.000000	65.183997 
3506.000000	65.181231 
3505.000000	65.181159 
3504.000000	65.184593 
3503.000000	65.191888 
3502.000000	65.202736 
3501.000000	65.215826 
3500.000000	65.228796 
3499.000000	65.238928 
3498.000000	65.243840 
3497.000000	65.242052 
3496.000000	65.233516 
3495.000000	65.220165 
3494.000000	65.205264 
3493.000000	65.192866 
3492.000000	65.186977 
3491.000000	65.190267 
3490.000000	65.203499 
3489.000000	65.225434 
3488.000000	65.252828 
3487.000000	65.281510 
3486.000000	65.307140 
3485.000000	65.326285 
3484.000000	65.336704 
3483.000000	65.337967 
3482.000000	65.330886 
3481.000000	65.317225 
3480.000000	65.299010 
3479.000000	65.278124 
3478.000000	65.256071 
3477.000000	65.233898 
3476.000000	65.212011 
3475.000000	65.190696 
3474.000000	65.169858 
3473.000000	65.149688 
3472.000000	65.130424 
3471.000000	65.112543 
3470.000000	65.096640 
3469.000000	65.083527 
3468.000000	65.074086 
3467.000000	65.069341 
3466.000000	65.070056 
3465.000000	65.076708 
3464.000000	65.089201 
3463.000000	65.106725 
3462.000000	65.127587 
3461.000000	65.149450 
3460.000000	65.169620 
3459.000000	65.185308 
3458.000000	65.194320 
3457.000000	65.195345 
3456.000000	65.188241 
3455.000000	65.174102 
3454.000000	65.154957 
3453.000000	65.133523 
3452.000000	65.112709 
3451.000000	65.095090 
3450.000000	65.082859 
3449.000000	65.077090 
3448.000000	65.077877 
3447.000000	65.084552 
3446.000000	65.095925 
3445.000000	65.110301 
3444.000000	65.125751 
3443.000000	65.140366 
3442.000000	65.152525 
3441.000000	65.160655 
3440.000000	65.163493 
3439.000000	65.160250 
3438.000000	65.150737 
3437.000000	65.135383 
3436.000000	65.115189 
3435.000000	65.091562 
3434.000000	65.066123 
3433.000000	65.040707 
3432.000000	65.016865 
3431.000000	64.995527 
3430.000000	64.977288 
3429.000000	64.962434 
3428.000000	64.951300 
3427.000000	64.943981 
3426.000000	64.941215 
3425.000000	64.943957 
3424.000000	64.953351 
3423.000000	64.970207 
3422.000000	64.994740 
3421.000000	65.025925 
3420.000000	65.061879 
3419.000000	65.099692 
3418.000000	65.136361 
3417.000000	65.169167 
3416.000000	65.196466 
3415.000000	65.217733 
3414.000000	65.233707 
3413.000000	65.245580 
3412.000000	65.254616 
3411.000000	65.261244 
3410.000000	65.264868 
3409.000000	65.263557 
3408.000000	65.255045 
3407.000000	65.237116 
3406.000000	65.208721 
3405.000000	65.170383 
3404.000000	65.124821 
3403.000000	65.076112 
3402.000000	65.028905 
3401.000000	64.987564 
3400.000000	64.955139 
3399.000000	64.933013 
3398.000000	64.920616 
3397.000000	64.916133 
3396.000000	64.916849 
3395.000000	64.920282 
3394.000000	64.924693 
3393.000000	64.929270 
3392.000000	64.933896 
3391.000000	64.939141 
3390.000000	64.945793 
3389.000000	64.954161 
3388.000000	64.963912 
3387.000000	64.974212 
3386.000000	64.984059 
3385.000000	64.992260 
3384.000000	64.997959 
3383.000000	65.000629 
3382.000000	65.000510 
3381.000000	64.998364 
3380.000000	64.995455 
3379.000000	64.993286 
3378.000000	64.993381 
3377.000000	64.997267 
3376.000000	65.005993 
3375.000000	65.019607 
3374.000000	65.037250 
3373.000000	65.057158 
3372.000000	65.077042 
3371.000000	65.094304 
3370.000000	65.106558 
3369.000000	65.112566 
3368.000000	65.111875 
3367.000000	65.104889 
3366.000000	65.092730 
3365.000000	65.076947 
3364.000000	65.058612 
3363.000000	65.038180 
3362.000000	65.015339 
3361.000000	64.989376 
3360.000000	64.959526 
3359.000000	64.926004 
3358.000000	64.889955 
3357.000000	64.854145 
3356.000000	64.822340 
3355.000000	64.799022 
3354.000000	64.787936 
3353.000000	64.791631 
3352.000000	64.810919 
3351.000000	64.844226 
3350.000000	64.887833 
3349.000000	64.936757 
3348.000000	64.985275 
3347.000000	65.028572 
3346.000000	65.062832 
3345.000000	65.086579 
3344.000000	65.100264 
3343.000000	65.106296 
3342.000000	65.108251 
3341.000000	65.109658 
3340.000000	65.113449 
3339.000000	65.120983 
3338.000000	65.132069 
3337.000000	65.144872 
3336.000000	65.156555 
3335.000000	65.164041 
3334.000000	65.164875 
3333.000000	65.157818 
3332.000000	65.142893 
3331.000000	65.121722 
3330.000000	65.096759 
3329.000000	65.070652 
3328.000000	65.045642 
3327.000000	65.023064 
3326.000000	65.003228 
3325.000000	64.985537 
3324.000000	64.969086 
3323.000000	64.952850 
3322.000000	64.936518 
3321.000000	64.920639 
3320.000000	64.906620 
3319.000000	64.896249 
3318.000000	64.891695 
3317.000000	64.894556 
3316.000000	64.905834 
3315.000000	64.925193 
3314.000000	64.951276 
3313.000000	64.981579 
3312.000000	65.013170 
3311.000000	65.042901 
3310.000000	65.068173 
3309.000000	65.087270 
3308.000000	65.099644 
3307.000000	65.105772 
3306.000000	65.107083 
3305.000000	65.105366 
3304.000000	65.102434 
3303.000000	65.099334 
3302.000000	65.096187 
3301.000000	65.091991 
3300.000000	65.085077 
3299.000000	65.073537 
3298.000000	65.056014 
3297.000000	65.032196 
3296.000000	65.003204 
3295.000000	64.971804 
3294.000000	64.941573 
3293.000000	64.916515 
3292.000000	64.900040 
3291.000000	64.894676 
3290.000000	64.901185 
3289.000000	64.918851 
3288.000000	64.945507 
3287.000000	64.978051 
3286.000000	65.012836 
3285.000000	65.046310 
3284.000000	65.075254 
3283.000000	65.096950 
3282.000000	65.109443 
3281.000000	65.111374 
3280.000000	65.102076 
3279.000000	65.081810 
3278.000000	65.052080 
3277.000000	65.015506 
3276.000000	64.975404 
3275.000000	64.935660 
3274.000000	64.900207 
3273.000000	64.872169 
3272.000000	64.853763 
3271.000000	64.846014 
3270.000000	64.848828 
3269.000000	64.860939 
3268.000000	64.880585 
3267.000000	64.905548 
3266.000000	64.933776 
3265.000000	64.963269 
3264.000000	64.992403 
3263.000000	65.019655 
3262.000000	65.043759 
3261.000000	65.063786 
3260.000000	65.078711 
3259.000000	65.087676 
3258.000000	65.089964 
3257.000000	65.085291 
3256.000000	65.073585 
3255.000000	65.055394 
3254.000000	65.031623 
3253.000000	65.003705 
3252.000000	64.973640 
3251.000000	64.943790 
3250.000000	64.916539 
3249.000000	64.893960 
3248.000000	64.877367 
3247.000000	64.867115 
3246.000000	64.862608 
3245.000000	64.862275 
3244.000000	64.863967 
3243.000000	64.865708 
3242.000000	64.865875 
3241.000000	64.863967 
3240.000000	64.860296 
3239.000000	64.856290 
3238.000000	64.853596 
3237.000000	64.854264 
3236.000000	64.859747 
3235.000000	64.871096 
3234.000000	64.888310 
3233.000000	64.910602 
3232.000000	64.936590 
3231.000000	64.964342 
3230.000000	64.991688 
3229.000000	65.016245 
3228.000000	65.035676 
3227.000000	65.047788 
3226.000000	65.050983 
3225.000000	65.044474 
3224.000000	65.028500 
3223.000000	65.004777 
3222.000000	64.976000 
3221.000000	64.945578 
3220.000000	64.916825 
3219.000000	64.892625 
3218.000000	64.874792 
3217.000000	64.863777 
3216.000000	64.858937 
3215.000000	64.858579 
3214.000000	64.860916 
3213.000000	64.864301 
3212.000000	64.867973 
3211.000000	64.871811 
3210.000000	64.876890 
3209.000000	64.884352 
3208.000000	64.895582 
3207.000000	64.911198 
3206.000000	64.931225 
3205.000000	64.954805 
3204.000000	64.980316 
3203.000000	65.005707 
3202.000000	65.028953 
3201.000000	65.048265 
3200.000000	65.062475 
3199.000000	65.071082 
3198.000000	65.074419 
3197.000000	65.073513 
3196.000000	65.069818 
3195.000000	65.064787 
3194.000000	65.059685 
3193.000000	65.055179 
3192.000000	65.051484 
3191.000000	65.048146 
3190.000000	65.044760 
3189.000000	65.040802 
3188.000000	65.036177 
3187.000000	65.031337 
3186.000000	65.026974 
3185.000000	65.024042 
3184.000000	65.023303 
3183.000000	65.024948 
3182.000000	65.028595 
3181.000000	65.033245 
3180.000000	65.037417 
3179.000000	65.039801 
3178.000000	65.039706 
3177.000000	65.037226 
3176.000000	65.033364 
3175.000000	65.029621 
3174.000000	65.027523 
3173.000000	65.028071 
3172.000000	65.031456 
3171.000000	65.037035 
3170.000000	65.043520 
3169.000000	65.049386 
3168.000000	65.053129 
3167.000000	65.053558 
3166.000000	65.049934 
3165.000000	65.041899 
3164.000000	65.029859 
3163.000000	65.014362 
3162.000000	64.996361 
3161.000000	64.977216 
3160.000000	64.958190 
3159.000000	64.940476 
3158.000000	64.924883 
3157.000000	64.911913 
3156.000000	64.901399 
3155.000000	64.892625 
3154.000000	64.884424 
3153.000000	64.875578 
3152.000000	64.865207 
3151.000000	64.853096 
3150.000000	64.839792 
3149.000000	64.826416 
3148.000000	64.814496 
3147.000000	64.805698 
3146.000000	64.801049 
3145.000000	64.800930 
3144.000000	64.805150 
3143.000000	64.813137 
3142.000000	64.824080 
3141.000000	64.837408 
3140.000000	64.852595 
3139.000000	64.869451 
3138.000000	64.887619 
3137.000000	64.906811 
3136.000000	64.926314 
3135.000000	64.945292 
3134.000000	64.963054 
3133.000000	64.979147 
3132.000000	64.993667 
3131.000000	65.007066 
3130.000000	65.020513 
3129.000000	65.034818 
3128.000000	65.050339 
3127.000000	65.066194 
3126.000000	65.080642 
3125.000000	65.090918 
3124.000000	65.094256 
3123.000000	65.088248 
3122.000000	65.071821 
3121.000000	65.045595 
3120.000000	65.011954 
3119.000000	64.974474 
3118.000000	64.937305 
3117.000000	64.904499 
3116.000000	64.879298 
3115.000000	64.863467 
3114.000000	64.857292 
3113.000000	64.860057 
3112.000000	64.870452 
3111.000000	64.886832 
3110.000000	64.907789 
3109.000000	64.932322 
3108.000000	64.959931 
3107.000000	64.989995 
3106.000000	65.021824 
3105.000000	65.054321 
3104.000000	65.085864 
3103.000000	65.114355 
3102.000000	65.137290 
3101.000000	65.152454 
3100.000000	65.157723 
3099.000000	65.151953 
3098.000000	65.134763 
3097.000000	65.107202 
3096.000000	65.071177 
3095.000000	65.029716 
3094.000000	64.985990 
3093.000000	64.943099 
3092.000000	64.903616 
3091.000000	64.869451 
3090.000000	64.841365 
3089.000000	64.819359 
3088.000000	64.802861 
3087.000000	64.791202 
3086.000000	64.783906 
3085.000000	64.781141 
3084.000000	64.783310 
3083.000000	64.791274 
3082.000000	64.805531 
3081.000000	64.826130 
3080.000000	64.851951 
3079.000000	64.880728 
3078.000000	64.909505 
3077.000000	64.934897 
3076.000000	64.953660 
3075.000000	64.963483 
3074.000000	64.963459 
3073.000000	64.954400 
3072.000000	64.938616 
3071.000000	64.919781 
3070.000000	64.902186 
3069.000000	64.889883 
3068.000000	64.886093 
3067.000000	64.892435 
3066.000000	64.908790 
3065.000000	64.933323 
3064.000000	64.962887 
3063.000000	64.993286 
3062.000000	65.020394 
3061.000000	65.040612 
3060.000000	65.051674 
3059.000000	65.052628 
3058.000000	65.043902 
3057.000000	65.027213 
3056.000000	65.005040 
3055.000000	64.979910 
3054.000000	64.954209 
3053.000000	64.929699 
3052.000000	64.907741 
3051.000000	64.889311 
3050.000000	64.875149 
3049.000000	64.866113 
3048.000000	64.862823 
3047.000000	64.865875 
3046.000000	64.875364 
3045.000000	64.890670 
3044.000000	64.910387 
3043.000000	64.932346 
3042.000000	64.953923 
3041.000000	64.972209 
3040.000000	64.984703 
3039.000000	64.989495 
3038.000000	64.985918 
3037.000000	64.974451 
3036.000000	64.956402 
3035.000000	64.933967 
3034.000000	64.909625 
3033.000000	64.885854 
3032.000000	64.864921 
3031.000000	64.848566 
3030.000000	64.837718 
3029.000000	64.832663 
3028.000000	64.832782 
3027.000000	64.837169 
3026.000000	64.844202 
3025.000000	64.852857 
3024.000000	64.862298 
3023.000000	64.872598 
3022.000000	64.884448 
3021.000000	64.899015 
3020.000000	64.917540 
3019.000000	64.940428 
3018.000000	64.967298 
3017.000000	64.996409 
3016.000000	65.024948 
3015.000000	65.049743 
3014.000000	65.067911 
3013.000000	65.077781 
3012.000000	65.079450 
3011.000000	65.074729 
3010.000000	65.066814 
3009.000000	65.059256 
3008.000000	65.055084 
3007.000000	65.055847 
3006.000000	65.061163 
3005.000000	65.069055 
3004.000000	65.076518 
3003.000000	65.080595 
3002.000000	65.079164 
3001.000000	65.071535 
3000.000000	65.058422 
2999.000000	65.041899 
2998.000000	65.024137 
2997.000000	65.007114 
2996.000000	64.991784 
2995.000000	64.978075 
2994.000000	64.965128 
2993.000000	64.952111 
2992.000000	64.938426 
2991.000000	64.924430 
2990.000000	64.911270 
2989.000000	64.900779 
2988.000000	64.894509 
2987.000000	64.893341 
2986.000000	64.897084 
2985.000000	64.904499 
2984.000000	64.913630 
2983.000000	64.922022 
2982.000000	64.927721 
2981.000000	64.929509 
2980.000000	64.927053 
2979.000000	64.920663 
2978.000000	64.911079 
2977.000000	64.899086 
2976.000000	64.885330 
2975.000000	64.870381 
2974.000000	64.854955 
2973.000000	64.840054 
2972.000000	64.827322 
2971.000000	64.818549 
2970.000000	64.815378 
2969.000000	64.818811 
2968.000000	64.828729 
2967.000000	64.843869 
2966.000000	64.861726 
2965.000000	64.879274 
2964.000000	64.893698 
2963.000000	64.903020 
2962.000000	64.906477 
2961.000000	64.904689 
2960.000000	64.899206 
2959.000000	64.891958 
2958.000000	64.884448 
2957.000000	64.877486 
2956.000000	64.870929 
2955.000000	64.864015 
2954.000000	64.855885 
2953.000000	64.846181 
2952.000000	64.835381 
2951.000000	64.824771 
2950.000000	64.816260 
2949.000000	64.811658 
2948.000000	64.812397 
2947.000000	64.818859 
2946.000000	64.830565 
2945.000000	64.846205 
2944.000000	64.863777 
2943.000000	64.881372 
2942.000000	64.897131 
2941.000000	64.909839 
2940.000000	64.918828 
2939.000000	64.923834 
2938.000000	64.924955 
2937.000000	64.922451 
2936.000000	64.916563 
2935.000000	64.907598 
2934.000000	64.895963 
2933.000000	64.882373 
2932.000000	64.867687 
2931.000000	64.853072 
2930.000000	64.839601 
2929.000000	64.828252 
2928.000000	64.819669 
2927.000000	64.814066 
2926.000000	64.811229 
2925.000000	64.810538 
2924.000000	64.811253 
2923.000000	64.812564 
2922.000000	64.813804 
2921.000000	64.815020 
2920.000000	64.816522 
2919.000000	64.819097 
2918.000000	64.823651 
2917.000000	64.830780 
2916.000000	64.840769 
2915.000000	64.853072 
2914.000000	64.866566 
2913.000000	64.879512 
2912.000000	64.890265 
2911.000000	64.897370 
2910.000000	64.900112 
2909.000000	64.898633 
2908.000000	64.894056 
2907.000000	64.888095 
2906.000000	64.882636 
2905.000000	64.879298 
2904.000000	64.879131 
2903.000000	64.882278 
2902.000000	64.888286 
2901.000000	64.896130 
2900.000000	64.904808 
2899.000000	64.913654 
2898.000000	64.922571 
2897.000000	64.931750 
2896.000000	64.941668 
2895.000000	64.952754 
2894.000000	64.964938 
2893.000000	64.977502 
2892.000000	64.988994 
2891.000000	64.997768 
2890.000000	65.001893 
2889.000000	65.000128 
2888.000000	64.991831 
2887.000000	64.977407 
2886.000000	64.958095 
2885.000000	64.935898 
2884.000000	64.913058 
2883.000000	64.891552 
2882.000000	64.872956 
2881.000000	64.858150 
2880.000000	64.847302 
2879.000000	64.840221 
2878.000000	64.836478 
2877.000000	64.835667 
2876.000000	64.837622 
2875.000000	64.842486 
2874.000000	64.850544 
2873.000000	64.862251 
2872.000000	64.877820 
2871.000000	64.897251 
2870.000000	64.920282 
2869.000000	64.945983 
2868.000000	64.973187 
2867.000000	65.000295 
2866.000000	65.025448 
2865.000000	65.046811 
2864.000000	65.062642 
2863.000000	65.071535 
2862.000000	65.072631 
2861.000000	65.065765 
2860.000000	65.051627 
2859.000000	65.031671 
2858.000000	65.008020 
2857.000000	64.983272 
2856.000000	64.960098 
2855.000000	64.940977 
2854.000000	64.927673 
2853.000000	64.921140 
2852.000000	64.921402 
2851.000000	64.927697 
2850.000000	64.938640 
2849.000000	64.952492 
2848.000000	64.967536 
2847.000000	64.982032 
2846.000000	64.994430 
2845.000000	65.003466 
2844.000000	65.008091 
2843.000000	65.007638 
2842.000000	65.001630 
2841.000000	64.990186 
2840.000000	64.973711 
2839.000000	64.953303 
2838.000000	64.930224 
2837.000000	64.906239 
2836.000000	64.883065 
2835.000000	64.862537 
2834.000000	64.846181 
2833.000000	64.835143 
2832.000000	64.830040 
2831.000000	64.830899 
2830.000000	64.837217 
2829.000000	64.848041 
2828.000000	64.862132 
2827.000000	64.877963 
2826.000000	64.894008 
2825.000000	64.908862 
2824.000000	64.921498 
2823.000000	64.931106 
2822.000000	64.937424 
2821.000000	64.940667 
2820.000000	64.941358 
2819.000000	64.940237 
2818.000000	64.938235 
2817.000000	64.936113 
2816.000000	64.934659 
2815.000000	64.934396 
2814.000000	64.935564 
2813.000000	64.938187 
2812.000000	64.942049 
2811.000000	64.946961 
2810.000000	64.952564 
2809.000000	64.958643 
2808.000000	64.964985 
2807.000000	64.971613 
2806.000000	64.978671 
2805.000000	64.986157 
2804.000000	64.994001 
2803.000000	65.001773 
2802.000000	65.008926 
2801.000000	65.014624 
2800.000000	65.018153 
2799.000000	65.019035 
2798.000000	65.017247 
2797.000000	65.013432 
2796.000000	65.008831 
2795.000000	65.005064 
2794.000000	65.003800 
2793.000000	65.006327 
2792.000000	65.013360 
2791.000000	65.024566 
2790.000000	65.038585 
2789.000000	65.053224 
2788.000000	65.065979 
2787.000000	65.074372 
2786.000000	65.076947 
2785.000000	65.073251 
2784.000000	65.064239 
2783.000000	65.051960 
2782.000000	65.039086 
2781.000000	65.028238 
2780.000000	65.021181 
2779.000000	65.018677 
2778.000000	65.020132 
2777.000000	65.024018 
2776.000000	65.028285 
2775.000000	65.030860 
2774.000000	65.030384 
2773.000000	65.026688 
2772.000000	65.020489 
2771.000000	65.013146 
2770.000000	65.006113 
2769.000000	65.000510 
2768.000000	64.996623 
2767.000000	64.993786 
2766.000000	64.990830 
2765.000000	64.986300 
2764.000000	64.979386 
2763.000000	64.970016 
2762.000000	64.959216 
2761.000000	64.948725 
2760.000000	64.940547 
2759.000000	64.936542 
2758.000000	64.937782 
2757.000000	64.944267 
2756.000000	64.955091 
2755.000000	64.968466 
2754.000000	64.982366 
2753.000000	64.994525 
2752.000000	65.003418 
2751.000000	65.007853 
2750.000000	65.007352 
2749.000000	65.001797 
2748.000000	64.991259 
2747.000000	64.976024 
2746.000000	64.956259 
2745.000000	64.932274 
2744.000000	64.904665 
2743.000000	64.874672 
2742.000000	64.844202 
2741.000000	64.815783 
2740.000000	64.792203 
2739.000000	64.775967 
2738.000000	64.768838 
2737.000000	64.771389 
2736.000000	64.783048 
2735.000000	64.802002 
2734.000000	64.825940 
2733.000000	64.852237 
2732.000000	64.878535 
2731.000000	64.903163 
2730.000000	64.925289 
2729.000000	64.944529 
2728.000000	64.961051 
2727.000000	64.974808 
2726.000000	64.985871 
2725.000000	64.994072 
2724.000000	64.999198 
2723.000000	65.001177 
2722.000000	65.000057 
2721.000000	64.996504 
2720.000000	64.991164 
2719.000000	64.984846 
2718.000000	64.978098 
2717.000000	64.971446 
2716.000000	64.965105 
2715.000000	64.959287 
2714.000000	64.954447 
2713.000000	64.951324 
2712.000000	64.950680 
2711.000000	64.953136 
2710.000000	64.958906 
2709.000000	64.967632 
2708.000000	64.978218 
2707.000000	64.988851 
2706.000000	64.997410 
2705.000000	65.001845 
2704.000000	65.000581 
2703.000000	64.993023 
2702.000000	64.979290 
2701.000000	64.960861 
2700.000000	64.940047 
2699.000000	64.919638 
2698.000000	64.902353 
2697.000000	64.890408 
2696.000000	64.885258 
2695.000000	64.887237 
2694.000000	64.895653 
2693.000000	64.908862 
2692.000000	64.924788 
2691.000000	64.941310 
2690.000000	64.956378 
2689.000000	64.968729 
2688.000000	64.977717 
2687.000000	64.983415 
2686.000000	64.986419 
2685.000000	64.987468 
2684.000000	64.987206 
2683.000000	64.985966 
2682.000000	64.983606 
2681.000000	64.979863 
2680.000000	64.974260 
2679.000000	64.966702 
2678.000000	64.957189 
2677.000000	64.946222 
2676.000000	64.934659 
2675.000000	64.923524 
2674.000000	64.913678 
2673.000000	64.905667 
2672.000000	64.899516 
2671.000000	64.894938 
2670.000000	64.891457 
2669.000000	64.888501 
2668.000000	64.885759 
2667.000000	64.883303 
2666.000000	64.881253 
2665.000000	64.879584 
2664.000000	64.878034 
2663.000000	64.876079 
2662.000000	64.873147 
2661.000000	64.868831 
2660.000000	64.863133 
2659.000000	64.856529 
2658.000000	64.849781 
2657.000000	64.843893 
2656.000000	64.839553 
2655.000000	64.837169 
2654.000000	64.836859 
2653.000000	64.838528 
2652.000000	64.842057 
2651.000000	64.847254 
2650.000000	64.854121 
2649.000000	64.862728 
2648.000000	64.873051 
2647.000000	64.884972 
2646.000000	64.898037 
2645.000000	64.911651 
2644.000000	64.924955 
2643.000000	64.937210 
2642.000000	64.947724 
2641.000000	64.956045 
2640.000000	64.962172 
2639.000000	64.966273 
2638.000000	64.968657 
2637.000000	64.969682 
2636.000000	64.969563 
2635.000000	64.968466 
2634.000000	64.966511 
2633.000000	64.963769 
2632.000000	64.960312 
2631.000000	64.955973 
2630.000000	64.950585 
2629.000000	64.943623 
2628.000000	64.934611 
2627.000000	64.923143 
2626.000000	64.909291 
2625.000000	64.893555 
2624.000000	64.877486 
2623.000000	64.863061 
2622.000000	64.852738 
2621.000000	64.848828 
2620.000000	64.852929 
2619.000000	64.865446 
2618.000000	64.885568 
2617.000000	64.910936 
2616.000000	64.938306 
2615.000000	64.964294 
2614.000000	64.986038 
2613.000000	65.001702 
2612.000000	65.010786 
2611.000000	65.013980 
2610.000000	65.012812 
2609.000000	65.008974 
2608.000000	65.003895 
2607.000000	64.998388 
2606.000000	64.992547 
2605.000000	64.985895 
2604.000000	64.977884 
2603.000000	64.968156 
2602.000000	64.957094 
2601.000000	64.945912 
2600.000000	64.936470 
2599.000000	64.930868 
2598.000000	64.930868 
2597.000000	64.937186 
2596.000000	64.949131 
2595.000000	64.964604 
2594.000000	64.980268 
2593.000000	64.992618 
2592.000000	64.998412 
2591.000000	64.995861 
2590.000000	64.984822 
2589.000000	64.967250 
2588.000000	64.946508 
2587.000000	64.926767 
2586.000000	64.911913 
2585.000000	64.904618 
2584.000000	64.905905 
2583.000000	64.914846 
2582.000000	64.928841 
2581.000000	64.944434 
2580.000000	64.958047 
2579.000000	64.966917 
2578.000000	64.969396 
2577.000000	64.965105 
2576.000000	64.954590 
2575.000000	64.938974 
2574.000000	64.919424 
2573.000000	64.896869 
2572.000000	64.871859 
2571.000000	64.844799 
2570.000000	64.816331 
2569.000000	64.787650 
2568.000000	64.760470 
2567.000000	64.736986 
2566.000000	64.719319 
2565.000000	64.709162 
2564.000000	64.707207 
2563.000000	64.712643 
2562.000000	64.723634 
2561.000000	64.737415 
2560.000000	64.751243 
2559.000000	64.762830 
2558.000000	64.770913 
2557.000000	64.775419 
2556.000000	64.777517 
2555.000000	64.778995 
2554.000000	64.781475 
2553.000000	64.785766 
2552.000000	64.791941 
2551.000000	64.799118 
2550.000000	64.805817 
2549.000000	64.810609 
2548.000000	64.812493 
2547.000000	64.811253 
2546.000000	64.807271 
2545.000000	64.801359 
2544.000000	64.794445 
2543.000000	64.787173 
2542.000000	64.779639 
2541.000000	64.771604 
2540.000000	64.762735 
2539.000000	64.752840 
2538.000000	64.742136 
2537.000000	64.731311 
2536.000000	64.721608 
2535.000000	64.714503 
2534.000000	64.711356 
2533.000000	64.713191 
2532.000000	64.720225 
2531.000000	64.732193 
2530.000000	64.748167 
2529.000000	64.766788 
2528.000000	64.786720 
2527.000000	64.806532 
2526.000000	64.825010 
2525.000000	64.841270 
2524.000000	64.854669 
2523.000000	64.864993 
2522.000000	64.872503 
2521.000000	64.877939 
2520.000000	64.882183 
2519.000000	64.886212 
2518.000000	64.890480 
2517.000000	64.895248 
2516.000000	64.900016 
2515.000000	64.903950 
2514.000000	64.905714 
2513.000000	64.904356 
2512.000000	64.899015 
2511.000000	64.889430 
2510.000000	64.875841 
2509.000000	64.859127 
2508.000000	64.840722 
2507.000000	64.822244 
2506.000000	64.805483 
2505.000000	64.792060 
2504.000000	64.783358 
2503.000000	64.780378 
2502.000000	64.783644 
2501.000000	64.792943 
2500.000000	64.807319 
2499.000000	64.825367 
2498.000000	64.844894 
2497.000000	64.863538 
2496.000000	64.879012 
2495.000000	64.889764 
2494.000000	64.895033 
2493.000000	64.895200 
2492.000000	64.891600 
2491.000000	64.886522 
2490.000000	64.882469 
2489.000000	64.881658 
2488.000000	64.885616 
2487.000000	64.894533 
2486.000000	64.907646 
2485.000000	64.922785 
2484.000000	64.937400 
2483.000000	64.948582 
2482.000000	64.953994 
2481.000000	64.952135 
2480.000000	64.942526 
2479.000000	64.925837 
2478.000000	64.903783 
2477.000000	64.878726 
2476.000000	64.853000 
2475.000000	64.828681 
2474.000000	64.807415 
2473.000000	64.789915 
2472.000000	64.776229 
2471.000000	64.765763 
2470.000000	64.757585 
2469.000000	64.750862 
2468.000000	64.745116 
2467.000000	64.740204 
2466.000000	64.736390 
2465.000000	64.734148 
2464.000000	64.734148 
2463.000000	64.736723 
2462.000000	64.741730 
2461.000000	64.748501 
2460.000000	64.756131 
2459.000000	64.763259 
2458.000000	64.769077 
2457.000000	64.773035 
2456.000000	64.775466 
2455.000000	64.777302 
2454.000000	64.779949 
2453.000000	64.785075 
2452.000000	64.794015 
2451.000000	64.807343 
2450.000000	64.824843 
2449.000000	64.845442 
2448.000000	64.867424 
2447.000000	64.888691 
2446.000000	64.907360 
2445.000000	64.921879 
2444.000000	64.931344 
2443.000000	64.935588 
2442.000000	64.934992 
2441.000000	64.930391 
2440.000000	64.922833 
2439.000000	64.913535 
2438.000000	64.903593 
2437.000000	64.894199 
2436.000000	64.886403 
2435.000000	64.881134 
2434.000000	64.879155 
2433.000000	64.880919 
2432.000000	64.886426 
2431.000000	64.895105 
2430.000000	64.905929 
2429.000000	64.917492 
2428.000000	64.928269 
2427.000000	64.936685 
2426.000000	64.941525 
2425.000000	64.941954 
2424.000000	64.937758 
2423.000000	64.929032 
2422.000000	64.916372 
2421.000000	64.900422 
2420.000000	64.881896 
2419.000000	64.861464 
2418.000000	64.839792 
2417.000000	64.817643 
2416.000000	64.795827 
2415.000000	64.775490 
2414.000000	64.757871 
2413.000000	64.744210 
2412.000000	64.735293 
2411.000000	64.731335 
2410.000000	64.731693 
2409.000000	64.734911 
2408.000000	64.738917 
2407.000000	64.741516 
2406.000000	64.741110 
2405.000000	64.736843 
2404.000000	64.729309 
2403.000000	64.720129 
2402.000000	64.711904 
2401.000000	64.707374 
2400.000000	64.708900 
2399.000000	64.717817 
2398.000000	64.733934 
2397.000000	64.755749 
2396.000000	64.780402 
2395.000000	64.804530 
2394.000000	64.824819 
2393.000000	64.838838 
2392.000000	64.845108 
2391.000000	64.843511 
2390.000000	64.835071 
2389.000000	64.821624 
2388.000000	64.805126 
2387.000000	64.787364 
2386.000000	64.769601 
2385.000000	64.752435 
2384.000000	64.735913 
2383.000000	64.719629 
2382.000000	64.703321 
2381.000000	64.686989 
2380.000000	64.671158 
2379.000000	64.657044 
2378.000000	64.646077 
2377.000000	64.639711 
2376.000000	64.638876 
2375.000000	64.643979 
2374.000000	64.654183 
2373.000000	64.668250 
2372.000000	64.684295 
2371.000000	64.700484 
2370.000000	64.715433 
2369.000000	64.728474 
2368.000000	64.739656 
2367.000000	64.749503 
2366.000000	64.758896 
2365.000000	64.768433 
2364.000000	64.778113 
2363.000000	64.787411 
2362.000000	64.795088 
2361.000000	64.799714 
2360.000000	64.799833 
2359.000000	64.794707 
2358.000000	64.784431 
2357.000000	64.769768 
2356.000000	64.752125 
2355.000000	64.733338 
2354.000000	64.715313 
2353.000000	64.699673 
2352.000000	64.687466 
2351.000000	64.679169 
2350.000000	64.674639 
2349.000000	64.673161 
2348.000000	64.673948 
2347.000000	64.675903 
2346.000000	64.678215 
2345.000000	64.680361 
2344.000000	64.682459 
2343.000000	64.684820 
2342.000000	64.688086 
2341.000000	64.692783 
2340.000000	64.699244 
2339.000000	64.707422 
2338.000000	64.716982 
2337.000000	64.727473 
2336.000000	64.738488 
2335.000000	64.749741 
2334.000000	64.761424 
2333.000000	64.774012 
2332.000000	64.788150 
2331.000000	64.804124 
2330.000000	64.821743 
2329.000000	64.839768 
2328.000000	64.856243 
2327.000000	64.868760 
2326.000000	64.874935 
2325.000000	64.873003 
2324.000000	64.862418 
2323.000000	64.843988 
2322.000000	64.819693 
2321.000000	64.792227 
2320.000000	64.764642 
2319.000000	64.739584 
2318.000000	64.718985 
2317.000000	64.703798 
2316.000000	64.694166 
2315.000000	64.689540 
2314.000000	64.689135 
2313.000000	64.692163 
2312.000000	64.697980 
2311.000000	64.706230 
2310.000000	64.716744 
2309.000000	64.729332 
2308.000000	64.743733 
2307.000000	64.759516 
2306.000000	64.776110 
2305.000000	64.792990 
2304.000000	64.809441 
2303.000000	64.824819 
2302.000000	64.838242 
2301.000000	64.848947 
2300.000000	64.855837 
2299.000000	64.857959 
2298.000000	64.854383 
2297.000000	64.844799 
2296.000000	64.829254 
2295.000000	64.808464 
2294.000000	64.783859 
2293.000000	64.757466 
2292.000000	64.731597 
2291.000000	64.708495 
2290.000000	64.689946 
2289.000000	64.677262 
2288.000000	64.670777 
2287.000000	64.670014 
2286.000000	64.673852 
2285.000000	64.680600 
2284.000000	64.688444 
2283.000000	64.695787 
2282.000000	64.701414 
2281.000000	64.704561 
2280.000000	64.705324 
2279.000000	64.704418 
2278.000000	64.702987 
2277.000000	64.702248 
2276.000000	64.703226 
2275.000000	64.706611 
2274.000000	64.712429 
2273.000000	64.720129 
2272.000000	64.728903 
2271.000000	64.737820 
2270.000000	64.746117 
2269.000000	64.753389 
2268.000000	64.759850 
2267.000000	64.765954 
2266.000000	64.772391 
2265.000000	64.779663 
2264.000000	64.787912 
2263.000000	64.796781 
2262.000000	64.805483 
2261.000000	64.812684 
2260.000000	64.816999 
2259.000000	64.817047 
2258.000000	64.811968 
2257.000000	64.801216 
2256.000000	64.784789 
2255.000000	64.763259 
2254.000000	64.737677 
2253.000000	64.709424 
2252.000000	64.680290 
2251.000000	64.652276 
2250.000000	64.627337 
2249.000000	64.607024 
2248.000000	64.592361 
2247.000000	64.583611 
2246.000000	64.580368 
2245.000000	64.581465 
2244.000000	64.585447 
2243.000000	64.590716 
2242.000000	64.596128 
2241.000000	64.600920 
2240.000000	64.604878 
2239.000000	64.608311 
2238.000000	64.611721 
2237.000000	64.615345 
2236.000000	64.619302 
2235.000000	64.623093 
2234.000000	64.626026 
2233.000000	64.627385 
2232.000000	64.626765 
2231.000000	64.624381 
2230.000000	64.620947 
2229.000000	64.617872 
2228.000000	64.616799 
2227.000000	64.619112 
2226.000000	64.625668 
2225.000000	64.636707 
2224.000000	64.651679 
2223.000000	64.669322 
2222.000000	64.687943 
2221.000000	64.705681 
2220.000000	64.721059 
2219.000000	64.733171 
2218.000000	64.741778 
2217.000000	64.747166 
2216.000000	64.750432 
2215.000000	64.752817 
2214.000000	64.755725 
2213.000000	64.760255 
2212.000000	64.767241 
2211.000000	64.776778 
2210.000000	64.788341 
2209.000000	64.800763 
2208.000000	64.812517 
2207.000000	64.821720 
2206.000000	64.826774 
2205.000000	64.826369 
2204.000000	64.819979 
2203.000000	64.807796 
2202.000000	64.790821 
2201.000000	64.770770 
2200.000000	64.749646 
2199.000000	64.729380 
2198.000000	64.711642 
2197.000000	64.697408 
2196.000000	64.687061 
2195.000000	64.680147 
2194.000000	64.675760 
2193.000000	64.672636 
2192.000000	64.669394 
2191.000000	64.664936 
2190.000000	64.658522 
2189.000000	64.649891 
2188.000000	64.639449 
2187.000000	64.627695 
2186.000000	64.615750 
2185.000000	64.604568 
2184.000000	64.595174 
2183.000000	64.588570 
2182.000000	64.585518 
2181.000000	64.586257 
2180.000000	64.590311 
2179.000000	64.596557 
2178.000000	64.603400 
2177.000000	64.608836 
2176.000000	64.611458 
2175.000000	64.610624 
2174.000000	64.606857 
2173.000000	64.601683 
2172.000000	64.596962 
2171.000000	64.594483 
2170.000000	64.595222 
2169.000000	64.599394 
2168.000000	64.606499 
2167.000000	64.615678 
2166.000000	64.626407 
2165.000000	64.638257 
2164.000000	64.651465 
2163.000000	64.666199 
2162.000000	64.682483 
2161.000000	64.699745 
2160.000000	64.716696 
2159.000000	64.731383 
2158.000000	64.741897 
2157.000000	64.746403 
2156.000000	64.743852 
2155.000000	64.734435 
2154.000000	64.719486 
2153.000000	64.701271 
2152.000000	64.682579 
2151.000000	64.666175 
2150.000000	64.654088 
2149.000000	64.647555 
2148.000000	64.646625 
2147.000000	64.650511 
2146.000000	64.657711 
2145.000000	64.666438 
2144.000000	64.674854 
2143.000000	64.681172 
2142.000000	64.683961 
2141.000000	64.682126 
2140.000000	64.675045 
2139.000000	64.662623 
2138.000000	64.645624 
2137.000000	64.625549 
2136.000000	64.604592 
2135.000000	64.585590 
2134.000000	64.571022 
2133.000000	64.563035 
2132.000000	64.562535 
2131.000000	64.569115 
2130.000000	64.581012 
2129.000000	64.595603 
2128.000000	64.609956 
2127.000000	64.621448 
2126.000000	64.628338 
2125.000000	64.630198 
2124.000000	64.627742 
2123.000000	64.622545 
2122.000000	64.616537 
2121.000000	64.611220 
2120.000000	64.607691 
2119.000000	64.606142 
2118.000000	64.606022 
2117.000000	64.606213 
2116.000000	64.605569 
2115.000000	64.603304 
2114.000000	64.598965 
2113.000000	64.592623 
2112.000000	64.584875 
2111.000000	64.576530 
2110.000000	64.568591 
2109.000000	64.562010 
2108.000000	64.557576 
2107.000000	64.555811 
2106.000000	64.557051 
2105.000000	64.561104 
2104.000000	64.567661 
2103.000000	64.576053 
2102.000000	64.585399 
2101.000000	64.594769 
2100.000000	64.603137 
2099.000000	64.609861 
2098.000000	64.614534 
2097.000000	64.617085 
2096.000000	64.617729 
2095.000000	64.616799 
2094.000000	64.614748 
2093.000000	64.611911 
2092.000000	64.608550 
2091.000000	64.605021 
2090.000000	64.601659 
2089.000000	64.599013 
2088.000000	64.597582 
2087.000000	64.597916 
2086.000000	64.600324 
2085.000000	64.604687 
2084.000000	64.610624 
2083.000000	64.617371 
2082.000000	64.624214 
2081.000000	64.630532 
2080.000000	64.636063 
2079.000000	64.640998 
2078.000000	64.645814 
2077.000000	64.651226 
2076.000000	64.657664 
2075.000000	64.665174 
2074.000000	64.673066 
2073.000000	64.680194 
2072.000000	64.685320 
2071.000000	64.687538 
2070.000000	64.686489 
2069.000000	64.682698 
2068.000000	64.677238 
2067.000000	64.671564 
2066.000000	64.666724 
2065.000000	64.663290 
2064.000000	64.660978 
2063.000000	64.658761 
2062.000000	64.655280 
2061.000000	64.649176 
2060.000000	64.639544 
2059.000000	64.626121 
2058.000000	64.609622 
2057.000000	64.591407 
2056.000000	64.573192 
2055.000000	64.556741 
2054.000000	64.543509 
2053.000000	64.534401 
2052.000000	64.529728 
2051.000000	64.529347 
2050.000000	64.532732 
2049.000000	64.539074 
2048.000000	64.547276 
2047.000000	64.556121 
2046.000000	64.564204 
2045.000000	64.570164 
2044.000000	64.572954 
2043.000000	64.571857 
2042.000000	64.566564 
2041.000000	64.557552 
2040.000000	64.545750 
2039.000000	64.532566 
2038.000000	64.519524 
2037.000000	64.508247 
2036.000000	64.500141 
2035.000000	64.496207 
2034.000000	64.497017 
2033.000000	64.502453 
2032.000000	64.511799 
2031.000000	64.524030 
2030.000000	64.537930 
2029.000000	64.552259 
2028.000000	64.566254 
2027.000000	64.579415 
2026.000000	64.591860 
2025.000000	64.604043 
2024.000000	64.616632 
2023.000000	64.630222 
2022.000000	64.644956 
2021.000000	64.660382 
2020.000000	64.675259 
2019.000000	64.688038 
2018.000000	64.696836 
2017.000000	64.700222 
2016.000000	64.697337 
2015.000000	64.688396 
2014.000000	64.674472 
2013.000000	64.657425 
2012.000000	64.639496 
2011.000000	64.622974 
2010.000000	64.609622 
2009.000000	64.600443 
2008.000000	64.595699 
2007.000000	64.594984 
2006.000000	64.597272 
2005.000000	64.601135 
2004.000000	64.605212 
2003.000000	64.608311 
2002.000000	64.609432 
2001.000000	64.608073 
2000.000000	64.603853 
1999.000000	64.597034 
1998.000000	64.588189 
1997.000000	64.578294 
1996.000000	64.568424 
1995.000000	64.559555 
1994.000000	64.552760 
1993.000000	64.548730 
1992.000000	64.547562 
1991.000000	64.548921 
1990.000000	64.552211 
1989.000000	64.556574 
1988.000000	64.561080 
1987.000000	64.564871 
1986.000000	64.567351 
1985.000000	64.568209 
1984.000000	64.567565 
1983.000000	64.565849 
1982.000000	64.563584 
1981.000000	64.561605 
1980.000000	64.560842 
1979.000000	64.562010 
1978.000000	64.565563 
1977.000000	64.571571 
1976.000000	64.579677 
1975.000000	64.589142 
1974.000000	64.598679 
1973.000000	64.606952 
1972.000000	64.612460 
1971.000000	64.614176 
1970.000000	64.611363 
1969.000000	64.603877 
1968.000000	64.592218 
1967.000000	64.577174 
1966.000000	64.559912 
1965.000000	64.541769 
1964.000000	64.524006 
1963.000000	64.507865 
1962.000000	64.494347 
1961.000000	64.484262 
1960.000000	64.478206 
1959.000000	64.476394 
1958.000000	64.478611 
1957.000000	64.484333 
1956.000000	64.492607 
1955.000000	64.502382 
1954.000000	64.512586 
1953.000000	64.522194 
1952.000000	64.530396 
1951.000000	64.536762 
1950.000000	64.541101 
1949.000000	64.543437 
1948.000000	64.543986 
1947.000000	64.542889 
1946.000000	64.540290 
1945.000000	64.536333 
1944.000000	64.531111 
1943.000000	64.524793 
1942.000000	64.517807 
1941.000000	64.510798 
1940.000000	64.504480 
1939.000000	64.499592 
1938.000000	64.496684 
1937.000000	64.496159 
1936.000000	64.497780 
1935.000000	64.500951 
1934.000000	64.504814 
1933.000000	64.508247 
1932.000000	64.510083 
1931.000000	64.509510 
1930.000000	64.506125 
1929.000000	64.500117 
1928.000000	64.492154 
1927.000000	64.483308 
1926.000000	64.474725 
1925.000000	64.467310 
1924.000000	64.461493 
1923.000000	64.457058 
1922.000000	64.453244 
1921.000000	64.449143 
1920.000000	64.443850 
1919.000000	64.436721 
1918.000000	64.427876 
1917.000000	64.417862 
1916.000000	64.408040 
1915.000000	64.399838 
1914.000000	64.394712 
1913.000000	64.393639 
1912.000000	64.396953 
1911.000000	64.404249 
1910.000000	64.414477 
1909.000000	64.426136 
1908.000000	64.437747 
1907.000000	64.447999 
1906.000000	64.456009 
1905.000000	64.461231 
1904.000000	64.463543 
1903.000000	64.463210 
1902.000000	64.460492 
1901.000000	64.455676 
1900.000000	64.448952 
1899.000000	64.440512 
1898.000000	64.430284 
1897.000000	64.418458 
1896.000000	64.405155 
1895.000000	64.390945 
1894.000000	64.376497 
1893.000000	64.362835 
1892.000000	64.351153 
1891.000000	64.342474 
1890.000000	64.337539 
1889.000000	64.336585 
1888.000000	64.339256 
1887.000000	64.344573 
1886.000000	64.351105 
1885.000000	64.357495 
1884.000000	64.362430 
1883.000000	64.365577 
1882.000000	64.367103 
1881.000000	64.368176 
1880.000000	64.370298 
1879.000000	64.375185 
1878.000000	64.384078 
1877.000000	64.397382 
1876.000000	64.414453 
1875.000000	64.433670 
1874.000000	64.452672 
1873.000000	64.469027 
1872.000000	64.480566 
1871.000000	64.486002 
1870.000000	64.485168 
1869.000000	64.478969 
1868.000000	64.469218 
1867.000000	64.458179 
1866.000000	64.448046 
1865.000000	64.440655 
1864.000000	64.437174 
1863.000000	64.437913 
1862.000000	64.442706 
1861.000000	64.450788 
1860.000000	64.461231 
1859.000000	64.473104 
1858.000000	64.485478 
1857.000000	64.497542 
1856.000000	64.508342 
1855.000000	64.516973 
1854.000000	64.522504 
1853.000000	64.523911 
1852.000000	64.520692 
1851.000000	64.512825 
1850.000000	64.501023 
1849.000000	64.486622 
1848.000000	64.471411 
1847.000000	64.457321 
1846.000000	64.445996 
1845.000000	64.438557 
1844.000000	64.435291 
1843.000000	64.435744 
1842.000000	64.438843 
1841.000000	64.443206 
1840.000000	64.447569 
1839.000000	64.451098 
1838.000000	64.453220 
1837.000000	64.454078 
1836.000000	64.453864 
1835.000000	64.453196 
1834.000000	64.452338 
1833.000000	64.451599 
1832.000000	64.450955 
1831.000000	64.450240 
1830.000000	64.449238 
1829.000000	64.447546 
1828.000000	64.444756 
1827.000000	64.440631 
1826.000000	64.434957 
1825.000000	64.427900 
1824.000000	64.420151 
1823.000000	64.412713 
1822.000000	64.406943 
1821.000000	64.404296 
1820.000000	64.405918 
1819.000000	64.412212 
1818.000000	64.422774 
1817.000000	64.436149 
1816.000000	64.450144 
1815.000000	64.462113 
1814.000000	64.469695 
1813.000000	64.471197 
1812.000000	64.466071 
1811.000000	64.455080 
1810.000000	64.440059 
1809.000000	64.423441 
1808.000000	64.407634 
1807.000000	64.394617 
1806.000000	64.385509 
1805.000000	64.380478 
1804.000000	64.379096 
1803.000000	64.380526 
1802.000000	64.383888 
1801.000000	64.388728 
1800.000000	64.394712 
1799.000000	64.401817 
1798.000000	64.410090 
1797.000000	64.419341 
1796.000000	64.428925 
1795.000000	64.437699 
1794.000000	64.444398 
1793.000000	64.447760 
1792.000000	64.446997 
1791.000000	64.442086 
1790.000000	64.433884 
1789.000000	64.424037 
1788.000000	64.414596 
1787.000000	64.407634 
1786.000000	64.404749 
1785.000000	64.406728 
1784.000000	64.413285 
1783.000000	64.423322 
1782.000000	64.435195 
1781.000000	64.447212 
1780.000000	64.457917 
1779.000000	64.466452 
1778.000000	64.472699 
1777.000000	64.476943 
1776.000000	64.479756 
1775.000000	64.481353 
1774.000000	64.481592 
1773.000000	64.479565 
1772.000000	64.473986 
1771.000000	64.463472 
1770.000000	64.447093 
1769.000000	64.424705 
1768.000000	64.397382 
1767.000000	64.367318 
1766.000000	64.337420 
1765.000000	64.311075 
1764.000000	64.291000 
1763.000000	64.278888 
1762.000000	64.275002 
1761.000000	64.278078 
1760.000000	64.285635 
1759.000000	64.294433 
1758.000000	64.301252 
1757.000000	64.303636 
1756.000000	64.300203 
1755.000000	64.290761 
1754.000000	64.276289 
1753.000000	64.258503 
1752.000000	64.239454 
1751.000000	64.220952 
1750.000000	64.204216 
1749.000000	64.189910 
1748.000000	64.177942 
1747.000000	64.167809 
1746.000000	64.158630 
1745.000000	64.149856 
1744.000000	64.140939 
1743.000000	64.131522 
1742.000000	64.121603 
1741.000000	64.111423 
1740.000000	64.101529 
1739.000000	64.092564 
1738.000000	64.085340 
1737.000000	64.080500 
1736.000000	64.078593 
1735.000000	64.079952 
1734.000000	64.084434 
1733.000000	64.091563 
1732.000000	64.100646 
1731.000000	64.110708 
1730.000000	64.120936 
1729.000000	64.130449 
1728.000000	64.138889 
1727.000000	64.146137 
1726.000000	64.152145 
1725.000000	64.157271 
1724.000000	64.161729 
1723.000000	64.165949 
1722.000000	64.170360 
1721.000000	64.175653 
1720.000000	64.182829 
1719.000000	64.193058 
1718.000000	64.207506 
1717.000000	64.227032 
1716.000000	64.251470 
1715.000000	64.279699 
1714.000000	64.309430 
1713.000000	64.337277 
1712.000000	64.359545 
1711.000000	64.372825 
1710.000000	64.374780 
1709.000000	64.364647 
1708.000000	64.343261 
1707.000000	64.313125 
1706.000000	64.277768 
1705.000000	64.241003 
1704.000000	64.206290 
1703.000000	64.176106 
1702.000000	64.152026 
1701.000000	64.134764 
1700.000000	64.124274 
1699.000000	64.120173 
1698.000000	64.122128 
1697.000000	64.129543 
1696.000000	64.141893 
1695.000000	64.158105 
1694.000000	64.176750 
1693.000000	64.195871 
1692.000000	64.213228 
1691.000000	64.226436 
1690.000000	64.233684 
1689.000000	64.233875 
1688.000000	64.226961 
1687.000000	64.214038 
1686.000000	64.197206 
1685.000000	64.179253 
1684.000000	64.163184 
1683.000000	64.151501 
1682.000000	64.146184 
1681.000000	64.147973 
1680.000000	64.156508 
1679.000000	64.170360 
1678.000000	64.187097 
1677.000000	64.203906 
1676.000000	64.218068 
1675.000000	64.227533 
1674.000000	64.231085 
1673.000000	64.228868 
1672.000000	64.222240 
1671.000000	64.213538 
1670.000000	64.205622 
1669.000000	64.201164 
1668.000000	64.202070 
1667.000000	64.209055 
1666.000000	64.221501 
1665.000000	64.237380 
1664.000000	64.253926 
1663.000000	64.268016 
1662.000000	64.277100 
1661.000000	64.279723 
1660.000000	64.275574 
1659.000000	64.265608 
1658.000000	64.251732 
1657.000000	64.236307 
1656.000000	64.221596 
1655.000000	64.209628 
1654.000000	64.201736 
1653.000000	64.198732 
1652.000000	64.200687 
1651.000000	64.207077 
1650.000000	64.216876 
1649.000000	64.228630 
1648.000000	64.240598 
1647.000000	64.250826 
1646.000000	64.257431 
1645.000000	64.258742 
1644.000000	64.253783 
1643.000000	64.242291 
1642.000000	64.225077 
1641.000000	64.203596 
1640.000000	64.179944 
1639.000000	64.156556 
1638.000000	64.135789 
1637.000000	64.119362 
1636.000000	64.108300 
1635.000000	64.102959 
1634.000000	64.103007 
1633.000000	64.107561 
1632.000000	64.115381 
1631.000000	64.125466 
1630.000000	64.136648 
1629.000000	64.147830 
1628.000000	64.158177 
1627.000000	64.167070 
1626.000000	64.173960 
1625.000000	64.178967 
1624.000000	64.182305 
1623.000000	64.184808 
1622.000000	64.187741 
1621.000000	64.192438 
1620.000000	64.200139 
1619.000000	64.211297 
1618.000000	64.225745 
1617.000000	64.242124 
1616.000000	64.258337 
1615.000000	64.271616 
1614.000000	64.279222 
1613.000000	64.278960 
1612.000000	64.269804 
1611.000000	64.252185 
1610.000000	64.227867 
1609.000000	64.199709 
1608.000000	64.170980 
1607.000000	64.144873 
1606.000000	64.123702 
1605.000000	64.108586 
1604.000000	64.099311 
1603.000000	64.094662 
1602.000000	64.092946 
1601.000000	64.092659 
1600.000000	64.092683 
1599.000000	64.092850 
1598.000000	64.093589 
1597.000000	64.095735 
1596.000000	64.100170 
1595.000000	64.107108 
1594.000000	64.115905 
1593.000000	64.125490 
1592.000000	64.134216 
1591.000000	64.140534 
1590.000000	64.143013 
1589.000000	64.140820 
1588.000000	64.133763 
1587.000000	64.122343 
1586.000000	64.107489 
1585.000000	64.090347 
1584.000000	64.072227 
1583.000000	64.054274 
1582.000000	64.037752 
1581.000000	64.023923 
1580.000000	64.014077 
1579.000000	64.009261 
1578.000000	64.010548 
1577.000000	64.018559 
1576.000000	64.033341 
1575.000000	64.054203 
1574.000000	64.079523 
1573.000000	64.106893 
1572.000000	64.133429 
1571.000000	64.155983 
1570.000000	64.171910 
1569.000000	64.179253 
1568.000000	64.177060 
1567.000000	64.166021 
1566.000000	64.148187 
1565.000000	64.126896 
1564.000000	64.106178 
1563.000000	64.090156 
1562.000000	64.082312 
1561.000000	64.084768 
1560.000000	64.098072 
1559.000000	64.120650 
1558.000000	64.149284 
1557.000000	64.179587 
1556.000000	64.206743 
1555.000000	64.226460 
1554.000000	64.235496 
1553.000000	64.232516 
1552.000000	64.217972 
1551.000000	64.194011 
1550.000000	64.163780 
1549.000000	64.131069 
1548.000000	64.099526 
1547.000000	64.072227 
1546.000000	64.051103 
1545.000000	64.037108 
1544.000000	64.029979 
1543.000000	64.028286 
1542.000000	64.030003 
1541.000000	64.032459 
1540.000000	64.033412 
1539.000000	64.030885 
1538.000000	64.024233 
1537.000000	64.013743 
1536.000000	64.000821 
1535.000000	63.987588 
1534.000000	63.976383 
1533.000000	63.969349 
1532.000000	63.967871 
1531.000000	63.972282 
1530.000000	63.982057 
1529.000000	63.995838 
1528.000000	64.011907 
1527.000000	64.028620 
1526.000000	64.044809 
1525.000000	64.059686 
1524.000000	64.073038 
1523.000000	64.085149 
1522.000000	64.096307 
1521.000000	64.106798 
1520.000000	64.116477 
1519.000000	64.124774 
1518.000000	64.131093 
1517.000000	64.134860 
1516.000000	64.135789 
1515.000000	64.133834 
1514.000000	64.129900 
1513.000000	64.125275 
1512.000000	64.121747 
1511.000000	64.121031 
1510.000000	64.124655 
1509.000000	64.133405 
1508.000000	64.147353 
1507.000000	64.165544 
1506.000000	64.186263 
1505.000000	64.206814 
1504.000000	64.224219 
1503.000000	64.235544 
1502.000000	64.238619 
1501.000000	64.232778 
1500.000000	64.218974 
1499.000000	64.199829 
1498.000000	64.179086 
1497.000000	64.160752 
1496.000000	64.148092 
1495.000000	64.142918 
1494.000000	64.145159 
1493.000000	64.153194 
1492.000000	64.164471 
1491.000000	64.176130 
1490.000000	64.185714 
1489.000000	64.191722 
1488.000000	64.193582 
1487.000000	64.191412 
1486.000000	64.185786 
1485.000000	64.177393 
1484.000000	64.166831 
1483.000000	64.154338 
1482.000000	64.140081 
1481.000000	64.124488 
1480.000000	64.108061 
1479.000000	64.091849 
1478.000000	64.076972 
1477.000000	64.064550 
1476.000000	64.055418 
1475.000000	64.049649 
1474.000000	64.046931 
1473.000000	64.046382 
1472.000000	64.046955 
1471.000000	64.047718 
1470.000000	64.047956 
1469.000000	64.047288 
1468.000000	64.045548 
1467.000000	64.042901 
1466.000000	64.039301 
1465.000000	64.034533 
1464.000000	64.028239 
1463.000000	64.019942 
1462.000000	64.009332 
1461.000000	63.996219 
1460.000000	63.980889 
1459.000000	63.963818 
1458.000000	63.945865 
1457.000000	63.927865 
1456.000000	63.910698 
1455.000000	63.895249 
1454.000000	63.882184 
1453.000000	63.872194 
1452.000000	63.865995 
1451.000000	63.864111 
1450.000000	63.866591 
1449.000000	63.873100 
1448.000000	63.882851 
1447.000000	63.894748 
1446.000000	63.907432 
1445.000000	63.919854 
1444.000000	63.931322 
1443.000000	63.941693 
1442.000000	63.951420 
1441.000000	63.961243 
1440.000000	63.971948 
1439.000000	63.983964 
1438.000000	63.997101 
1437.000000	64.010524 
1436.000000	64.022755 
1435.000000	64.032268 
1434.000000	64.037775 
1433.000000	64.038681 
1432.000000	64.035391 
1431.000000	64.029049 
1430.000000	64.021611 
1429.000000	64.015245 
1428.000000	64.011979 
1427.000000	64.013266 
1426.000000	64.019584 
1425.000000	64.030766 
1424.000000	64.045619 
1423.000000	64.062356 
1422.000000	64.078831 
1421.000000	64.093089 
1420.000000	64.103579 
1419.000000	64.109253 
1418.000000	64.109897 
1417.000000	64.105963 
1416.000000	64.098620 
1415.000000	64.089226 
1414.000000	64.079260 
1413.000000	64.069819 
1412.000000	64.061617 
1411.000000	64.054679 
1410.000000	64.048385 
1409.000000	64.041757 
1408.000000	64.033818 
1407.000000	64.024114 
1406.000000	64.012432 
1405.000000	63.999271 
1404.000000	63.985562 
1403.000000	63.972496 
1402.000000	63.961076 
1401.000000	63.952255 
1400.000000	63.946390 
1399.000000	63.943648 
1398.000000	63.943743 
1397.000000	63.946413 
1396.000000	63.951182 
1395.000000	63.957595 
1394.000000	63.965225 
1393.000000	63.973498 
1392.000000	63.981819 
1391.000000	63.989472 
1390.000000	63.995718 
1389.000000	64.000105 
1388.000000	64.002203 
1387.000000	64.002013 
1386.000000	63.999652 
1385.000000	63.995337 
1384.000000	63.989090 
1383.000000	63.980865 
1382.000000	63.970375 
1381.000000	63.957405 
1380.000000	63.942193 
1379.000000	63.925218 
1378.000000	63.907814 
1377.000000	63.891625 
1376.000000	63.878679 
1375.000000	63.870573 
1374.000000	63.868427 
1373.000000	63.872146 
1372.000000	63.880848 
1371.000000	63.892507 
1370.000000	63.905024 
1369.000000	63.916301 
1368.000000	63.925051 
1367.000000	63.930916 
1366.000000	63.934254 
1365.000000	63.935995 
1364.000000	63.937067 
1363.000000	63.938045 
1362.000000	63.938760 
1361.000000	63.938498 
1360.000000	63.936090 
1359.000000	63.930392 
1358.000000	63.920593 
1357.000000	63.906407 
1356.000000	63.888406 
1355.000000	63.867545 
1354.000000	63.845324 
1353.000000	63.823127 
1352.000000	63.802123 
1351.000000	63.783383 
1350.000000	63.767719 
1349.000000	63.755798 
1348.000000	63.748168 
1347.000000	63.745307 
1346.000000	63.747358 
1345.000000	63.754153 
1344.000000	63.764762 
1343.000000	63.778138 
1342.000000	63.792657 
1341.000000	63.806819 
1340.000000	63.819384 
1339.000000	63.829708 
1338.000000	63.837790 
1337.000000	63.844203 
1336.000000	63.849830 
1335.000000	63.855552 
1334.000000	63.861823 
1333.000000	63.868570 
1332.000000	63.875317 
1331.000000	63.881182 
1330.000000	63.885021 
1329.000000	63.886046 
1328.000000	63.883900 
1327.000000	63.878488 
1326.000000	63.870143 
1325.000000	63.859510 
1324.000000	63.847494 
1323.000000	63.835287 
1322.000000	63.823986 
1321.000000	63.814854 
1320.000000	63.808631 
1319.000000	63.805651 
1318.000000	63.805317 
1317.000000	63.806414 
1316.000000	63.807463 
1315.000000	63.806867 
1314.000000	63.803744 
1313.000000	63.797807 
1312.000000	63.790082 
1311.000000	63.782501 
1310.000000	63.777470 
1309.000000	63.777256 
1308.000000	63.783740 
1307.000000	63.797616 
1306.000000	63.818550 
1305.000000	63.844966 
1304.000000	63.874673 
1303.000000	63.905096 
1302.000000	63.933992 
1301.000000	63.959336 
1300.000000	63.979601 
1299.000000	63.993620 
1298.000000	64.000582 
1297.000000	63.999986 
1296.000000	63.991904 
1295.000000	63.976693 
1294.000000	63.955903 
1293.000000	63.931226 
1292.000000	63.904833 
1291.000000	63.878583 
1290.000000	63.854050 
1289.000000	63.831806 
1288.000000	63.811683 
1287.000000	63.792896 
1286.000000	63.774347 
1285.000000	63.755345 
1284.000000	63.735961 
1283.000000	63.717007 
1282.000000	63.700079 
1281.000000	63.686990 
1280.000000	63.679361 
1279.000000	63.677763 
1278.000000	63.681674 
1277.000000	63.689565 
1276.000000	63.699507 
1275.000000	63.709402 
1274.000000	63.717865 
1273.000000	63.724470 
1272.000000	63.729858 
1271.000000	63.735270 
1270.000000	63.742184 
1269.000000	63.751769 
1268.000000	63.764500 
1267.000000	63.779783 
1266.000000	63.796186 
1265.000000	63.811826 
1264.000000	63.824820 
1263.000000	63.833880 
1262.000000	63.838553 
1261.000000	63.839197 
1260.000000	63.836812 
1259.000000	63.832807 
1258.000000	63.828325 
1257.000000	63.823938 
1256.000000	63.819503 
1255.000000	63.814401 
1254.000000	63.807368 
1253.000000	63.797140 
1252.000000	63.782644 
1251.000000	63.763689 
1250.000000	63.740897 
1249.000000	63.715744 
1248.000000	63.690376 
1247.000000	63.667130 
1246.000000	63.648128 
1245.000000	63.634824 
1244.000000	63.627743 
1243.000000	63.626408 
1242.000000	63.629746 
1241.000000	63.636255 
1240.000000	63.644194 
1239.000000	63.652157 
1238.000000	63.659095 
1237.000000	63.664531 
1236.000000	63.668346 
1235.000000	63.670825 
1234.000000	63.672494 
1233.000000	63.673925 
1232.000000	63.675570 
1231.000000	63.677930 
1230.000000	63.681149 
1229.000000	63.685345 
1228.000000	63.690543 
1227.000000	63.696718 
1226.000000	63.703989 
1225.000000	63.712573 
1224.000000	63.722586 
1223.000000	63.734078 
1222.000000	63.746643 
1221.000000	63.759779 
1220.000000	63.772559 
1219.000000	63.783788 
1218.000000	63.792181 
1217.000000	63.796734 
1216.000000	63.797044 
1215.000000	63.793134 
1214.000000	63.785767 
1213.000000	63.776397 
1212.000000	63.766646 
1211.000000	63.758254 
1210.000000	63.752579 
1209.000000	63.750267 
1208.000000	63.751220 
1207.000000	63.754725 
1206.000000	63.759279 
1205.000000	63.763236 
1204.000000	63.764739 
1203.000000	63.762283 
1202.000000	63.754796 
1201.000000	63.742136 
1200.000000	63.724994 
1199.000000	63.705086 
1198.000000	63.684725 
1197.000000	63.666653 
1196.000000	63.653540 
1195.000000	63.647341 
1194.000000	63.649129 
1193.000000	63.658547 
1192.000000	63.674426 
1191.000000	63.694667 
1190.000000	63.716530 
1189.000000	63.737440 
1188.000000	63.755226 
1187.000000	63.768482 
1186.000000	63.776445 
1185.000000	63.779091 
1184.000000	63.776898 
1183.000000	63.770556 
1182.000000	63.761019 
1181.000000	63.749480 
1180.000000	63.737463 
1179.000000	63.726639 
1178.000000	63.718795 
1177.000000	63.715219 
1176.000000	63.716483 
1175.000000	63.722085 
1174.000000	63.730549 
1173.000000	63.739466 
1172.000000	63.746118 
1171.000000	63.748216 
1170.000000	63.744258 
1169.000000	63.733577 
1168.000000	63.716459 
1167.000000	63.694024 
1166.000000	63.668084 
1165.000000	63.640713 
1164.000000	63.614130 
1163.000000	63.590431 
1162.000000	63.571286 
1161.000000	63.557910 
1160.000000	63.550615 
1159.000000	63.548851 
1158.000000	63.551402 
1157.000000	63.556933 
1156.000000	63.564038 
1155.000000	63.571381 
1154.000000	63.577818 
1153.000000	63.582277 
1152.000000	63.584089 
1151.000000	63.582801 
1150.000000	63.578653 
1149.000000	63.572621 
1148.000000	63.566398 
1147.000000	63.562250 
1146.000000	63.562464 
1145.000000	63.568806 
1144.000000	63.582158 
1143.000000	63.602471 
1142.000000	63.628721 
1141.000000	63.659381 
1140.000000	63.692641 
1139.000000	63.726258 
1138.000000	63.757872 
1137.000000	63.784790 
1136.000000	63.804316 
1135.000000	63.813972 
1134.000000	63.811993 
1133.000000	63.797807 
1132.000000	63.772702 
1131.000000	63.739538 
1130.000000	63.702464 
1129.000000	63.666224 
1128.000000	63.635587 
1127.000000	63.614106 
1126.000000	63.603758 
1125.000000	63.604474 
1124.000000	63.614273 
1123.000000	63.630008 
1122.000000	63.648033 
1121.000000	63.664937 
1120.000000	63.678193 
1119.000000	63.686633 
1118.000000	63.690543 
1117.000000	63.691186 
1116.000000	63.690066 
1115.000000	63.688874 
1114.000000	63.688468 
1113.000000	63.689112 
1112.000000	63.690209 
1111.000000	63.690829 
1110.000000	63.689851 
1109.000000	63.686656 
1108.000000	63.681364 
1107.000000	63.674497 
1106.000000	63.667345 
1105.000000	63.661432 
1104.000000	63.658213 
1103.000000	63.658809 
1102.000000	63.663697 
1101.000000	63.672566 
1100.000000	63.684129 
1099.000000	63.696408 
1098.000000	63.706874 
1097.000000	63.713145 
1096.000000	63.713264 
1095.000000	63.706040 
1094.000000	63.691353 
1093.000000	63.670420 
1092.000000	63.645148 
1091.000000	63.617992 
1090.000000	63.591265 
1089.000000	63.566946 
1088.000000	63.546514 
1087.000000	63.530945 
1086.000000	63.520765 
1085.000000	63.516426 
1084.000000	63.518309 
1083.000000	63.526988 
1082.000000	63.542747 
1081.000000	63.565564 
1080.000000	63.594651 
1079.000000	63.628458 
1078.000000	63.664245 
1077.000000	63.698792 
1076.000000	63.728809 
1075.000000	63.751554 
1074.000000	63.765287 
1073.000000	63.769626 
1072.000000	63.765597 
1071.000000	63.755249 
1070.000000	63.741326 
1069.000000	63.726592 
1068.000000	63.713335 
1067.000000	63.702869 
1066.000000	63.695549 
1065.000000	63.690829 
1064.000000	63.687777 
1063.000000	63.685202 
1062.000000	63.681888 
1061.000000	63.677191 
1060.000000	63.670825 
1059.000000	63.663053 
1058.000000	63.654327 
1057.000000	63.645219 
1056.000000	63.636112 
1055.000000	63.627219 
1054.000000	63.618540 
1053.000000	63.609719 
1052.000000	63.600325 
1051.000000	63.589715 
1050.000000	63.577795 
1049.000000	63.564753 
1048.000000	63.551282 
1047.000000	63.538575 
1046.000000	63.527941 
1045.000000	63.520383 
1044.000000	63.516521 
1043.000000	63.516092 
1042.000000	63.517975 
1041.000000	63.520455 
1040.000000	63.521289 
1039.000000	63.518643 
1038.000000	63.511061 
1037.000000	63.498187 
1036.000000	63.480734 
1035.000000	63.460779 
1034.000000	63.441276 
1033.000000	63.425707 
1032.000000	63.417387 
1031.000000	63.418674 
1030.000000	63.430404 
1029.000000	63.451671 
1028.000000	63.479900 
1027.000000	63.511300 
1026.000000	63.541698 
1025.000000	63.567328 
1024.000000	63.585638 
1023.000000	63.595986 
1022.000000	63.599443 
1021.000000	63.598895 
1020.000000	63.597846 
1019.000000	63.599753 
1018.000000	63.606929 
1017.000000	63.620185 
1016.000000	63.638877 
1015.000000	63.660931 
1014.000000	63.683605 
1013.000000	63.704133 
1012.000000	63.720512 
1011.000000	63.731408 
1010.000000	63.736224 
1009.000000	63.734960 
1008.000000	63.728189 
1007.000000	63.716816 
1006.000000	63.702106 
1005.000000	63.685822 
1004.000000	63.669800 
1003.000000	63.656115 
1002.000000	63.646364 
1001.000000	63.641524 
1000.000000	63.641333 
999.000000	 63.644385 
998.000000	 63.648271 
997.000000	 63.649678 
996.000000	 63.645887 
995.000000	 63.635516 
994.000000	 63.619184 
993.000000	 63.599181 
992.000000	 63.579535 
991.000000	 63.564848 
990.000000	 63.559365 
989.000000	 63.565540 
988.000000	 63.583970 
987.000000	 63.613152 
986.000000	 63.649988 
985.000000	 63.690423 
984.000000	 63.730454 
983.000000	 63.766765 
982.000000	 63.797163 
981.000000	 63.820552 
980.000000	 63.837099 
979.000000	 63.847422 
978.000000	 63.852643 
977.000000	 63.853478 
976.000000	 63.850474 
975.000000	 63.843345 
974.000000	 63.831949 
973.000000	 63.815784 
972.000000	 63.794469 
971.000000	 63.767790 
970.000000	 63.736438 
969.000000	 63.701510 
968.000000	 63.664817 
967.000000	 63.628506 
966.000000	 63.594889 
965.000000	 63.565564 
964.000000	 63.541436 
963.000000	 63.522291 
962.000000	 63.506841 
961.000000	 63.493466 
960.000000	 63.480615 
959.000000	 63.467550 
958.000000	 63.454437 
957.000000	 63.442468 
956.000000	 63.433432 
955.000000	 63.428878 
954.000000	 63.429832 
953.000000	 63.436198 
952.000000	 63.446903 
951.000000	 63.459753 
950.000000	 63.472223 
949.000000	 63.482093 
948.000000	 63.488030 
947.000000	 63.489937 
946.000000	 63.488793 
945.000000	 63.486623 
944.000000	 63.485646 
943.000000	 63.487839 
942.000000	 63.494372 
941.000000	 63.505291 
940.000000	 63.519597 
939.000000	 63.535737 
938.000000	 63.551664 
937.000000	 63.565373 
936.000000	 63.575458 
935.000000	 63.581418 
934.000000	 63.583564 
933.000000	 63.582968 
932.000000	 63.581275 
931.000000	 63.580274 
930.000000	 63.581418 
929.000000	 63.585376 
928.000000	 63.592195 
927.000000	 63.601112 
926.000000	 63.610863 
925.000000	 63.619899 
924.000000	 63.626718 
923.000000	 63.629961 
922.000000	 63.628673 
921.000000	 63.622117 
920.000000	 63.609957 
919.000000	 63.592338 
918.000000	 63.569974 
917.000000	 63.544273 
916.000000	 63.517332 
915.000000	 63.491678 
914.000000	 63.470196 
913.000000	 63.455533 
912.000000	 63.449525 
911.000000	 63.453030 
910.000000	 63.465332 
909.000000	 63.484644 
908.000000	 63.508009 
907.000000	 63.532280 
906.000000	 63.554716 
905.000000	 63.573503 
904.000000	 63.587856 
903.000000	 63.597965 
902.000000	 63.604784 
901.000000	 63.609194 
900.000000	 63.611650 
899.000000	 63.612055 
898.000000	 63.609528 
897.000000	 63.602972 
896.000000	 63.591480 
895.000000	 63.574838 
894.000000	 63.553833 
893.000000	 63.530230 
892.000000	 63.506817 
891.000000	 63.486194 
890.000000	 63.470792 
889.000000	 63.462138 
888.000000	 63.460516 
887.000000	 63.464999 
886.000000	 63.473820 
885.000000	 63.485026 
884.000000	 63.497018 
883.000000	 63.508772 
882.000000	 63.520050 
881.000000	 63.531279 
880.000000	 63.543033 
879.000000	 63.555526 
878.000000	 63.568305 
877.000000	 63.580060 
876.000000	 63.588976 
875.000000	 63.593339 
874.000000	 63.591694 
873.000000	 63.583683 
872.000000	 63.570284 
871.000000	 63.553857 
870.000000	 63.537311 
869.000000	 63.523983 
868.000000	 63.516831 
867.000000	 63.518166 
866.000000	 63.528943 
865.000000	 63.549017 
864.000000	 63.577222 
863.000000	 63.611745 
862.000000	 63.650417 
861.000000	 63.691043 
860.000000	 63.731455 
859.000000	 63.769841 
858.000000	 63.804531 
857.000000	 63.833928 
856.000000	 63.856410 
855.000000	 63.870501 
854.000000	 63.875341 
853.000000	 63.870429 
852.000000	 63.856005 
851.000000	 63.832950 
850.000000	 63.802909 
849.000000	 63.767886 
848.000000	 63.729906 
847.000000	 63.690781 
846.000000	 63.652110 
845.000000	 63.615036 
844.000000	 63.580703 
843.000000	 63.549971 
842.000000	 63.523697 
841.000000	 63.502955 
840.000000	 63.488745 
839.000000	 63.481426 
838.000000	 63.480758 
837.000000	 63.485527 
836.000000	 63.494110 
835.000000	 63.504099 
834.000000	 63.513755 
833.000000	 63.522076 
832.000000	 63.529825 
831.000000	 63.538742 
830.000000	 63.551735 
829.000000	 63.571977 
828.000000	 63.601899 
827.000000	 63.642048 
826.000000	 63.690805 
825.000000	 63.744521 
824.000000	 63.797998 
823.000000	 63.845539 
822.000000	 63.882231 
821.000000	 63.904738 
820.000000	 63.912129 
819.000000	 63.905405 
818.000000	 63.886904 
817.000000	 63.859272 
816.000000	 63.825154 
815.000000	 63.786387 
814.000000	 63.744139 
813.000000	 63.699126 
812.000000	 63.652443 
811.000000	 63.605475 
810.000000	 63.560295 
809.000000	 63.518977 
808.000000	 63.483333 
807.000000	 63.454747 
806.000000	 63.433694 
805.000000	 63.419914 
804.000000	 63.412189 
803.000000	 63.409256 
802.000000	 63.409733 
801.000000	 63.412833 
800.000000	 63.418102 
799.000000	 63.425636 
798.000000	 63.435602 
797.000000	 63.448023 
796.000000	 63.462281 
795.000000	 63.477110 
794.000000	 63.490605 
793.000000	 63.500547 
792.000000	 63.504767 
791.000000	 63.501858 
790.000000	 63.491415 
789.000000	 63.474154 
788.000000	 63.451671 
787.000000	 63.425946 
786.000000	 63.398790 
785.000000	 63.371562 
784.000000	 63.344907 
783.000000	 63.318562 
782.000000	 63.292002 
781.000000	 63.264966 
780.000000	 63.237667 
779.000000	 63.210916 
778.000000	 63.186526 
777.000000	 63.166904 
776.000000	 63.154792 
775.000000	 63.152503 
774.000000	 63.161587 
773.000000	 63.182163 
772.000000	 63.212776 
771.000000	 63.250494 
770.000000	 63.291335 
769.000000	 63.330769 
768.000000	 63.364958 
767.000000	 63.391327 
766.000000	 63.409018 
765.000000	 63.418674 
764.000000	 63.422322 
763.000000	 63.422322 
762.000000	 63.420796 
761.000000	 63.418841 
760.000000	 63.416337 
759.000000	 63.412070 
758.000000	 63.404655 
757.000000	 63.392996 
756.000000	 63.377118 
755.000000	 63.358640 
754.000000	 63.340568 
753.000000	 63.326740 
752.000000	 63.320660 
751.000000	 63.324737 
750.000000	 63.339209 
749.000000	 63.362145 
748.000000	 63.389658 
747.000000	 63.416743 
746.000000	 63.438487 
745.000000	 63.450956 
744.000000	 63.451933 
743.000000	 63.441300 
742.000000	 63.420605 
741.000000	 63.392710 
740.000000	 63.360929 
739.000000	 63.328194 
738.000000	 63.296532 
737.000000	 63.267397 
736.000000	 63.241696 
735.000000	 63.219904 
734.000000	 63.202571 
733.000000	 63.190674 
732.000000	 63.185453 
731.000000	 63.187980 
730.000000	 63.198709 
729.000000	 63.216948 
728.000000	 63.240742 
727.000000	 63.267087 
726.000000	 63.292264 
725.000000	 63.312458 
724.000000	 63.324928 
723.000000	 63.328385 
722.000000	 63.323402 
721.000000	 63.311862 
720.000000	 63.296771 
719.000000	 63.281822 
718.000000	 63.269996 
717.000000	 63.262891 
716.000000	 63.260388 
715.000000	 63.260746 
714.000000	 63.260817 
713.000000	 63.256859 
712.000000	 63.245368 
711.000000	 63.223958 
710.000000	 63.191509 
709.000000	 63.148784 
708.000000	 63.098430 
707.000000	 63.044810 
706.000000	 62.992978 
705.000000	 62.948274 
704.000000	 62.914848 
703.000000	 62.895560 
702.000000	 62.891030 
701.000000	 62.900471 
700.000000	 62.920975 
699.000000	 62.949800 
698.000000	 62.984681 
697.000000	 63.025212 
696.000000	 63.072228 
695.000000	 63.127732 
694.000000	 63.193726 
693.000000	 63.270592 
692.000000	 63.356184 
691.000000	 63.444495 
690.000000	 63.526391 
689.000000	 63.591504 
688.000000	 63.630676 
687.000000	 63.638734 
686.000000	 63.616275 
685.000000	 63.570570 
684.000000	 63.513636 
683.000000	 63.459539 
682.000000	 63.420248 
681.000000	 63.403201 
680.000000	 63.408732 
679.000000	 63.430738 
678.000000	 63.457918 
677.000000	 63.477659 
676.000000	 63.478732 
675.000000	 63.454651 
674.000000	 63.404893 
673.000000	 63.333892 
672.000000	 63.250899 
671.000000	 63.166594 
670.000000	 63.091969 
669.000000	 63.035130 
668.000000	 63.001513 
667.000000	 62.993359 
666.000000	 63.010096 
665.000000	 63.048934 
664.000000	 63.105487 
663.000000	 63.174390 
662.000000	 63.248825 
661.000000	 63.321208 
660.000000	 63.384127 
659.000000	 63.431429 
658.000000	 63.459587 
657.000000	 63.468194 
656.000000	 63.460469 
655.000000	 63.441705 
654.000000	 63.419675 
653.000000	 63.400506 
652.000000	 63.387107 
651.000000	 63.377261 
650.000000	 63.365387 
649.000000	 63.343119 
648.000000	 63.302397 
647.000000	 63.238167 
646.000000	 63.150405 
645.000000	 63.045358 
644.000000	 62.935233 
643.000000	 62.834835 
642.000000	 62.757396 
641.000000	 62.712192 
640.000000	 62.702012 
639.000000	 62.722563 
638.000000	 62.763547 
637.000000	 62.811303 
636.000000	 62.852263 
635.000000	 62.876582 
634.000000	 62.880706 
633.000000	 62.868165 
632.000000	 62.849140 
631.000000	 62.837505 
630.000000	 62.847876 
629.000000	 62.892913 
628.000000	 62.980222 
627.000000	 63.111305 
626.000000	 63.279819 
625.000000	 63.474059 
624.000000	 63.676047 
623.000000	 63.866734 
622.000000	 64.025163 
621.000000	 64.133620 
620.000000	 64.177393 
619.000000	 64.148449 
618.000000	 64.045119 
617.000000	 63.873171 
616.000000	 63.645625 
615.000000	 63.382291 
614.000000	 63.107252 
613.000000	 62.846374 
612.000000	 62.624239 
611.000000	 62.461590 
610.000000	 62.371039 
609.000000	 62.355589 
608.000000	 62.408065 
607.000000	 62.512826 
606.000000	 62.648510 
605.000000	 62.792730 
604.000000	 62.924885 
603.000000	 63.030099 
602.000000	 63.100934 
601.000000	 63.137602 
600.000000	 63.146090 
599.000000	 63.134837 
598.000000	 63.111805 
597.000000	 63.081502 
596.000000	 63.045191 
595.000000	 63.000273 
594.000000	 62.943458 
593.000000	 62.872123 
592.000000	 62.787032 
591.000000	 62.693381 
590.000000	 62.600684 
589.000000	 62.521553 
588.000000	 62.467527 
587.000000	 62.448358 
586.000000	 62.468814 
585.000000	 62.528109 
584.000000	 62.619543 
583.000000	 62.731480 
582.000000	 62.849259 
581.000000	 62.957978 
580.000000	 63.045334 
579.000000	 63.102722 
578.000000	 63.126897 
577.000000	 63.120174 
576.000000	 63.090372 
575.000000	 63.049483 
574.000000	 63.011407 
573.000000	 62.989330 
572.000000	 62.992763 
571.000000	 63.027191 
570.000000	 63.091778 
569.000000	 63.180088 
568.000000	 63.280773 
567.000000	 63.380861 
566.000000	 63.467407 
565.000000	 63.530969 
564.000000	 63.565301 
563.000000	 63.568091 
562.000000	 63.539576 
561.000000	 63.482069 
560.000000	 63.398933 
559.000000	 63.294625 
558.000000	 63.174223 
557.000000	 63.043808 
556.000000	 62.910723 
555.000000	 62.783765 
554.000000	 62.672686 
553.000000	 62.587046 
552.000000	 62.534689 
551.000000	 62.519645 
550.000000	 62.540888 
549.000000	 62.591218 
548.000000	 62.656950 
547.000000	 62.720537 
546.000000	 62.762975 
545.000000	 62.769460 
544.000000	 62.731623 
543.000000	 62.652015 
542.000000	 62.543034 
541.000000	 62.425255 
540.000000	 62.323236 
539.000000	 62.257909 
538.000000	 62.242412 
537.000000	 62.276220 
536.000000	 62.346673 
535.000000	 62.429714 
534.000000	 62.496924 
533.000000	 62.521338 
532.000000	 62.483859 
531.000000	 62.379932 
530.000000	 62.220788 
529.000000	 62.031579 
528.000000	 61.844682 
527.000000	 61.694574 
526.000000	 61.609625 
525.000000	 61.606168 
524.000000	 61.685824 
523.000000	 61.836767 
522.000000	 62.037420 
521.000000	 62.263488 
520.000000	 62.492012 
519.000000	 62.705779 
518.000000	 62.893176 
517.000000	 63.047504 
516.000000	 63.163542 
515.000000	 63.233709 
514.000000	 63.249468 
513.000000	 63.202452 
512.000000	 63.089108 
511.000000	 62.913584 
510.000000	 62.692141 
509.000000	 62.452721 
508.000000	 62.233233 
507.000000	 62.074518 
506.000000	 62.013626 
505.000000	 62.075448 
504.000000	 62.266850 
503.000000	 62.573933 
502.000000	 62.963676 
501.000000	 63.389539 
500.000000	 63.799715 
499.000000	 64.146471 
498.000000	 64.393687 
497.000000	 64.521503 
496.000000	 64.529490 
495.000000	 64.432549 
494.000000	 64.255523 
493.000000	 64.025306 
492.000000	 63.768076 
491.000000	 63.501977 
490.000000	 63.239502 
489.000000	 62.984633 
488.000000	 62.739443 
487.000000	 62.504100 
486.000000	 62.280654 
485.000000	 62.073993 
484.000000	 61.890006 
483.000000	 61.737155 
482.000000	 61.622142 
481.000000	 61.550521 
480.000000	 61.521363 
479.000000	 61.531209 
478.000000	 61.571931 
477.000000	 61.634993 
476.000000	 61.711001 
475.000000	 61.793637 
474.000000	 61.879277 
473.000000	 61.968898 
472.000000	 62.066078 
471.000000	 62.176012 
470.000000	 62.302684 
469.000000	 62.445855 
468.000000	 62.599873 
467.000000	 62.754559 
466.000000	 62.897372 
465.000000	 63.015532 
464.000000	 63.100790 
463.000000	 63.152551 
462.000000	 63.178157 
461.000000	 63.194370 
460.000000	 63.218951 
459.000000	 63.266801 
458.000000	 63.341832 
457.000000	 63.438248 
456.000000	 63.536787 
455.000000	 63.609170 
454.000000	 63.626456 
453.000000	 63.568997 
452.000000	 63.432312 
451.000000	 63.229727 
450.000000	 62.992310 
449.000000	 62.761640 
448.000000	 62.581753 
447.000000	 62.489104 
446.000000	 62.501049 
445.000000	 62.611007 
444.000000	 62.795042 
443.000000	 63.018131 
442.000000	 63.240218 
441.000000	 63.426017 
440.000000	 63.553929 
439.000000	 63.619112 
438.000000	 63.627910 
437.000000	 63.595938 
436.000000	 63.544678 
435.000000	 63.494253 
434.000000	 63.453602 
433.000000	 63.424587 
432.000000	 63.407349 
431.000000	 63.402128 
430.000000	 63.409972 
429.000000	 63.438320 
428.000000	 63.501834 
427.000000	 63.616108 
426.000000	 63.797998 
425.000000	 64.045929 
424.000000	 64.335441 
423.000000	 64.618349 
422.000000	 64.836931 
421.000000	 64.918088 
420.000000	 64.790058 
419.000000	 64.404273 
418.000000	 63.751077 
417.000000	 62.866759 
416.000000	 61.829471 
415.000000	 60.747885 
414.000000	 59.734463 
413.000000	 58.886861 
412.000000	 58.257794 
411.000000	 57.846117 
410.000000	 57.592129 
409.000000	 57.393908 
408.000000	 57.132840 
407.000000	 56.707978 
406.000000	 56.063890 
405.000000	 55.183196 
404.000000	 54.121947 
403.000000	 52.972698 
402.000000	 51.886606 
401.000000	 51.020216 
400.000000	 50.540781 
399.000000	 50.573539 
398.000000	 51.205492 
397.000000	 52.457761 
396.000000	 54.288339 
395.000000	 56.590604 
394.000000	 59.199237 
393.000000	 61.909103 
392.000000	 64.478588 
391.000000	 66.657280 
390.000000	 68.230009 
389.000000	 69.047570 
388.000000	 69.044423 
387.000000	 68.258643 
386.000000	 66.803383 
385.000000	 64.879798 
384.000000	 62.774157 
383.000000	 60.822701 
382.000000	 59.382987 
381.000000	 58.752298 
380.000000	 59.135794 
379.000000	 60.564851 
378.000000	 62.894749 
377.000000	 65.807080 
376.000000	 68.850231 
375.000000	 71.558690 
374.000000	 73.518276 
373.000000	 74.509358 
372.000000	 74.552059 
371.000000	 73.883843 
370.000000	 72.901391 

