PE IR       SPECTRUM    SPECTRUM    ASCII       PEDS        1.60        
  -1
BZ6B26~1.ASC
17/04/07
20:02:34.00
17/04/07
20:02:34.00
tln
$BZ1503107-1_t0083$<tbV0>[0.0,5.2,8.0,0.0,27,1,0]
370.000000
64









2002,4.07    
MIRTGS : RIGHTBACK : INTERNAL 2
MIR : ON : INTERNAL 2
OPTKBR

0.200000
8
8.000000
FILLER
RATIO
SPECTRUM
UNLOCKED 256

DOUBLE
64
COMBINED
1
0
0


1.000000
RATIO


1
0
TRUE
51149
0
LEFT NOT FITTED RIGHT NOT FITTED 0
NONE
NONE
15600
12.000000
4.427000
51148
TRUE
1 0 8 72 0 0 0 0 

15798.010000






#HDR
-1
-1
#GR
CM-1
%T
0.00002384185791015625
0.0
5000.000000
-1.000000
4631
8
78.434967
47.362136
#DATA
5000.000000	64.053988 
4999.000000	64.307284 
4998.000000	64.536976 
4997.000000	64.741349 
4996.000000	64.927053 
4995.000000	65.104389 
4994.000000	65.280985 
4993.000000	65.460371 
4992.000000	65.634250 
4991.000000	65.786123 
4990.000000	65.890407 
4989.000000	65.923213 
4988.000000	65.862917 
4987.000000	65.698838 
4986.000000	65.433669 
4985.000000	65.086317 
4984.000000	64.690184 
4983.000000	64.289546 
4982.000000	63.933062 
4981.000000	63.666510 
4980.000000	63.527059 
4979.000000	63.536643 
4978.000000	63.699436 
4977.000000	63.999676 
4976.000000	64.403271 
4975.000000	64.862680 
4974.000000	65.321922 
4973.000000	65.727758 
4972.000000	66.034317 
4971.000000	66.215395 
4970.000000	66.262817 
4969.000000	66.193771 
4968.000000	66.045999 
4967.000000	65.870189 
4966.000000	65.721058 
4965.000000	65.642189 
4964.000000	65.661430 
4963.000000	65.778732 
4962.000000	65.971350 
4961.000000	66.194581 
4960.000000	66.395854 
4959.000000	66.524744 
4958.000000	66.546130 
4957.000000	66.448187 
4956.000000	66.244864 
4955.000000	65.971899 
4954.000000	65.677499 
4953.000000	65.411162 
4952.000000	65.211939 
4951.000000	65.102529 
4950.000000	65.084695 
4949.000000	65.141749 
4948.000000	65.243935 
4947.000000	65.358567 
4946.000000	65.456914 
4945.000000	65.519618 
4944.000000	65.540075 
4943.000000	65.519356 
4942.000000	65.467524 
4941.000000	65.397906 
4940.000000	65.324497 
4939.000000	65.256762 
4938.000000	65.200138 
4937.000000	65.157151 
4936.000000	65.126729 
4935.000000	65.107798 
4934.000000	65.096807 
4933.000000	65.089726 
4932.000000	65.080738 
4931.000000	65.063166 
4930.000000	65.030169 
4929.000000	64.976501 
4928.000000	64.899325 
4927.000000	64.800071 
4926.000000	64.685916 
4925.000000	64.569783 
4924.000000	64.468288 
4923.000000	64.399218 
4922.000000	64.377641 
4921.000000	64.412236 
4920.000000	64.504623 
4919.000000	64.646697 
4918.000000	64.820599 
4917.000000	65.001988 
4916.000000	65.164232 
4915.000000	65.284204 
4914.000000	65.346550 
4913.000000	65.347123 
4912.000000	65.292954 
4911.000000	65.200233 
4910.000000	65.090298 
4909.000000	64.983940 
4908.000000	64.897727 
4907.000000	64.838886 
4906.000000	64.805340 
4905.000000	64.786767 
4904.000000	64.769506 
4903.000000	64.739775 
4902.000000	64.688706 
4901.000000	64.614248 
4900.000000	64.522457 
4899.000000	64.424490 
4898.000000	64.334845 
4897.000000	64.266514 
4896.000000	64.229488 
4895.000000	64.229178 
4894.000000	64.266228 
4893.000000	64.337825 
4892.000000	64.437603 
4891.000000	64.557147 
4890.000000	64.686393 
4889.000000	64.813899 
4888.000000	64.928817 
4887.000000	65.021657 
4886.000000	65.085816 
4885.000000	65.117597 
4884.000000	65.117597 
4883.000000	65.090870 
4882.000000	65.045475 
4881.000000	64.991307 
4880.000000	64.938426 
4879.000000	64.895725 
4878.000000	64.869737 
4877.000000	64.864277 
4876.000000	64.879488 
4875.000000	64.912319 
4874.000000	64.957666 
4873.000000	65.009069 
4872.000000	65.059423 
4871.000000	65.102005 
4870.000000	65.130972 
4869.000000	65.142607 
4868.000000	65.135431 
4867.000000	65.110445 
4866.000000	65.071797 
4865.000000	65.024805 
4864.000000	64.974999 
4863.000000	64.926552 
4862.000000	64.881873 
4861.000000	64.841341 
4860.000000	64.804220 
4859.000000	64.768838 
4858.000000	64.733433 
4857.000000	64.697146 
4856.000000	64.660692 
4855.000000	64.625930 
4854.000000	64.594602 
4853.000000	64.568877 
4852.000000	64.550447 
4851.000000	64.540219 
4850.000000	64.538025 
4849.000000	64.542627 
4848.000000	64.551854 
4847.000000	64.563226 
4846.000000	64.574670 
4845.000000	64.584445 
4844.000000	64.592003 
4843.000000	64.597868 
4842.000000	64.604091 
4841.000000	64.614200 
4840.000000	64.632415 
4839.000000	64.662671 
4838.000000	64.707183 
4837.000000	64.765906 
4836.000000	64.835309 
4835.000000	64.908814 
4834.000000	64.977264 
4833.000000	65.030622 
4832.000000	65.059804 
4831.000000	65.059280 
4830.000000	65.027809 
4829.000000	64.968609 
4828.000000	64.889264 
4827.000000	64.800477 
4826.000000	64.713716 
4825.000000	64.639258 
4824.000000	64.584970 
4823.000000	64.555358 
4822.000000	64.551401 
4821.000000	64.570856 
4820.000000	64.609289 
4819.000000	64.660835 
4818.000000	64.718890 
4817.000000	64.776659 
4816.000000	64.827132 
4815.000000	64.863991 
4814.000000	64.881348 
4813.000000	64.875316 
4812.000000	64.843940 
4811.000000	64.788770 
4810.000000	64.715147 
4809.000000	64.631795 
4808.000000	64.549565 
4807.000000	64.479494 
4806.000000	64.431071 
4805.000000	64.410400 
4804.000000	64.418673 
4803.000000	64.452862 
4802.000000	64.506888 
4801.000000	64.573168 
4800.000000	64.644074 
4799.000000	64.713668 
4798.000000	64.778113 
4797.000000	64.835786 
4796.000000	64.886522 
4795.000000	64.930605 
4794.000000	64.967823 
4793.000000	64.997792 
4792.000000	65.019941 
4791.000000	65.034270 
4790.000000	65.041351 
4789.000000	65.043020 
4788.000000	65.041327 
4787.000000	65.038084 
4786.000000	65.033793 
4785.000000	65.027236 
4784.000000	65.015912 
4783.000000	64.996957 
4782.000000	64.968347 
4781.000000	64.930272 
4780.000000	64.885210 
4779.000000	64.837265 
4778.000000	64.791631 
4777.000000	64.753007 
4776.000000	64.724946 
4775.000000	64.708590 
4774.000000	64.703464 
4773.000000	64.707851 
4772.000000	64.719986 
4771.000000	64.738512 
4770.000000	64.762854 
4769.000000	64.792823 
4768.000000	64.828109 
4767.000000	64.867305 
4766.000000	64.906954 
4765.000000	64.941835 
4764.000000	64.965844 
4763.000000	64.973545 
4762.000000	64.961862 
4761.000000	64.931082 
4760.000000	64.885449 
4759.000000	64.832592 
4758.000000	64.781975 
4757.000000	64.743304 
4756.000000	64.724278 
4755.000000	64.729356 
4754.000000	64.758801 
4753.000000	64.809060 
4752.000000	64.873528 
4751.000000	64.944219 
4750.000000	65.013313 
4749.000000	65.075087 
4748.000000	65.125966 
4747.000000	65.165495 
4746.000000	65.195107 
4745.000000	65.217399 
4744.000000	65.234875 
4743.000000	65.248942 
4742.000000	65.259456 
4741.000000	65.265297 
4740.000000	65.265250 
4739.000000	65.258336 
4738.000000	65.244793 
4737.000000	65.226554 
4736.000000	65.206861 
4735.000000	65.189647 
4734.000000	65.178680 
4733.000000	65.176534 
4732.000000	65.183901 
4731.000000	65.199613 
4730.000000	65.220856 
4729.000000	65.243983 
4728.000000	65.265417 
4727.000000	65.282750 
4726.000000	65.295314 
4725.000000	65.304231 
4724.000000	65.311813 
4723.000000	65.320777 
4722.000000	65.332579 
4721.000000	65.347170 
4720.000000	65.361595 
4719.000000	65.370678 
4718.000000	65.367627 
4717.000000	65.346169 
4716.000000	65.301609 
4715.000000	65.232419 
4714.000000	65.141344 
4713.000000	65.035676 
4712.000000	64.925813 
4711.000000	64.823698 
4710.000000	64.740824 
4709.000000	64.686393 
4708.000000	64.665627 
4707.000000	64.679098 
4706.000000	64.723181 
4705.000000	64.790868 
4704.000000	64.873123 
4703.000000	64.960384 
4702.000000	65.043497 
4701.000000	65.115094 
4700.000000	65.169334 
4699.000000	65.203070 
4698.000000	65.215229 
4697.000000	65.206837 
4696.000000	65.180945 
4695.000000	65.141677 
4694.000000	65.094399 
4693.000000	65.043807 
4692.000000	64.994478 
4691.000000	64.948868 
4690.000000	64.907789 
4689.000000	64.870071 
4688.000000	64.833331 
4687.000000	64.794731 
4686.000000	64.752197 
4685.000000	64.705491 
4684.000000	64.656615 
4683.000000	64.609575 
4682.000000	64.569711 
4681.000000	64.542341 
4680.000000	64.531517 
4679.000000	64.538478 
4678.000000	64.561867 
4677.000000	64.597201 
4676.000000	64.638614 
4675.000000	64.679956 
4674.000000	64.716362 
4673.000000	64.745116 
4672.000000	64.765667 
4671.000000	64.779591 
4670.000000	64.789128 
4669.000000	64.796185 
4668.000000	64.801049 
4667.000000	64.802217 
4666.000000	64.796733 
4665.000000	64.781785 
4664.000000	64.755249 
4663.000000	64.716958 
4662.000000	64.669585 
4661.000000	64.618849 
4660.000000	64.571571 
4659.000000	64.534139 
4658.000000	64.511179 
4657.000000	64.504337 
4656.000000	64.511203 
4655.000000	64.525675 
4654.000000	64.539647 
4653.000000	64.544963 
4652.000000	64.535260 
4651.000000	64.507770 
4650.000000	64.463448 
4649.000000	64.407610 
4648.000000	64.348053 
4647.000000	64.294028 
4646.000000	64.253425 
4645.000000	64.232110 
4644.000000	64.232850 
4643.000000	64.255356 
4642.000000	64.296150 
4641.000000	64.350509 
4640.000000	64.413142 
4639.000000	64.479780 
4638.000000	64.546799 
4637.000000	64.612793 
4636.000000	64.677572 
4635.000000	64.742398 
4634.000000	64.808464 
4633.000000	64.876937 
4632.000000	64.947795 
4631.000000	65.019845 
4630.000000	65.090513 
4629.000000	65.156006 
4628.000000	65.211534 
4627.000000	65.252685 
4626.000000	65.275692 
4625.000000	65.278220 
4624.000000	65.259742 
4623.000000	65.222716 
4622.000000	65.171384 
4621.000000	65.112042 
4620.000000	65.051007 
4619.000000	64.994812 
4618.000000	64.947748 
4617.000000	64.912009 
4616.000000	64.886236 
4615.000000	64.867258 
4614.000000	64.849996 
4613.000000	64.829039 
4612.000000	64.800190 
4611.000000	64.761352 
4610.000000	64.713549 
4609.000000	64.660763 
4608.000000	64.608693 
4607.000000	64.563202 
4606.000000	64.528679 
4605.000000	64.507126 
4604.000000	64.497208 
4603.000000	64.494991 
4602.000000	64.495563 
4601.000000	64.494895 
4600.000000	64.490747 
4599.000000	64.483976 
4598.000000	64.478087 
4597.000000	64.478564 
4596.000000	64.490389 
4595.000000	64.516878 
4594.000000	64.558339 
4593.000000	64.611744 
4592.000000	64.671468 
4591.000000	64.730548 
4590.000000	64.782404 
4589.000000	64.822077 
4588.000000	64.847683 
4587.000000	64.859819 
4586.000000	64.860868 
4585.000000	64.854168 
4584.000000	64.842677 
4583.000000	64.828944 
4582.000000	64.814567 
4581.000000	64.800667 
4580.000000	64.788174 
4579.000000	64.777803 
4578.000000	64.770245 
4577.000000	64.765954 
4576.000000	64.765048 
4575.000000	64.766907 
4574.000000	64.770483 
4573.000000	64.774560 
4572.000000	64.778113 
4571.000000	64.780688 
4570.000000	64.782571 
4569.000000	64.784693 
4568.000000	64.788365 
4567.000000	64.795112 
4566.000000	64.805865 
4565.000000	64.820790 
4564.000000	64.838457 
4563.000000	64.856672 
4562.000000	64.871859 
4561.000000	64.880084 
4560.000000	64.877414 
4559.000000	64.861202 
4558.000000	64.830088 
4557.000000	64.784431 
4556.000000	64.726614 
4555.000000	64.661049 
4554.000000	64.593768 
4553.000000	64.531421 
4552.000000	64.481067 
4551.000000	64.448761 
4550.000000	64.438772 
4549.000000	64.452600 
4548.000000	64.488148 
4547.000000	64.539980 
4546.000000	64.599967 
4545.000000	64.658808 
4544.000000	64.707708 
4543.000000	64.740228 
4542.000000	64.753293 
4541.000000	64.747405 
4540.000000	64.726376 
4539.000000	64.695572 
4538.000000	64.660930 
4537.000000	64.626812 
4536.000000	64.595580 
4535.000000	64.566993 
4534.000000	64.539289 
4533.000000	64.510107 
4532.000000	64.478254 
4531.000000	64.443874 
4530.000000	64.409112 
4529.000000	64.376974 
4528.000000	64.350128 
4527.000000	64.330601 
4526.000000	64.318799 
4525.000000	64.314246 
4524.000000	64.315795 
4523.000000	64.323115 
4522.000000	64.336800 
4521.000000	64.357328 
4520.000000	64.384818 
4519.000000	64.418029 
4518.000000	64.454317 
4517.000000	64.489841 
4516.000000	64.520287 
4515.000000	64.542198 
4514.000000	64.553403 
4513.000000	64.554333 
4512.000000	64.546704 
4511.000000	64.533257 
4510.000000	64.516401 
4509.000000	64.498066 
4508.000000	64.478850 
4507.000000	64.457798 
4506.000000	64.433598 
4505.000000	64.405393 
4504.000000	64.374327 
4503.000000	64.343523 
4502.000000	64.318799 
4501.000000	64.307332 
4500.000000	64.316034 
4499.000000	64.349484 
4498.000000	64.408612 
4497.000000	64.489722 
4496.000000	64.585018 
4495.000000	64.683914 
4494.000000	64.775371 
4493.000000	64.850234 
4492.000000	64.903283 
4491.000000	64.933371 
4490.000000	64.943170 
4489.000000	64.936828 
4488.000000	64.919829 
4487.000000	64.895248 
4486.000000	64.863514 
4485.000000	64.821314 
4484.000000	64.763593 
4483.000000	64.685463 
4482.000000	64.585733 
4481.000000	64.467430 
4480.000000	64.339590 
4479.000000	64.213919 
4478.000000	64.101576 
4477.000000	64.011597 
4476.000000	63.948273 
4475.000000	63.911700 
4474.000000	63.898158 
4473.000000	63.901448 
4472.000000	63.915348 
4471.000000	63.931083 
4470.000000	63.938879 
4469.000000	63.931202 
4468.000000	63.905405 
4467.000000	63.863039 
4466.000000	63.811087 
4465.000000	63.767886 
4464.000000	63.756370 
4463.000000	63.792729 
4462.000000	63.882184 
4461.000000	64.020442 
4460.000000	64.190173 
4459.000000	64.362359 
4458.000000	64.505434 
4457.000000	64.587402 
4456.000000	64.592099 
4455.000000	64.529371 
4454.000000	64.428281 
4453.000000	64.328932 
4452.000000	64.270877 
4451.000000	64.281392 
4450.000000	64.368224 
4449.000000	64.514899 
4448.000000	64.693641 
4447.000000	64.874672 
4446.000000	65.039968 
4445.000000	65.191006 
4444.000000	65.346598 
4443.000000	65.540337 
4442.000000	65.810775 
4441.000000	66.196584 
4440.000000	66.739726 
4439.000000	67.478466 
4438.000000	68.447327 
4437.000000	69.658136 
4436.000000	71.104741 
4435.000000	72.729134 
4434.000000	74.433159 
4433.000000	76.055741 
4432.000000	77.400255 
4431.000000	78.254079 
4430.000000	78.434967 
4429.000000	77.835559 
4428.000000	76.465106 
4427.000000	74.455904 
4426.000000	72.060894 
4425.000000	69.594001 
4424.000000	67.375826 
4423.000000	65.665054 
4422.000000	64.610958 
4421.000000	64.241790 
4420.000000	64.478683 
4419.000000	65.164875 
4418.000000	66.114497 
4417.000000	67.139077 
4416.000000	68.082261 
4415.000000	68.823528 
4414.000000	69.287228 
4413.000000	69.447517 
4412.000000	69.320201 
4411.000000	68.955111 
4410.000000	68.417501 
4409.000000	67.778611 
4408.000000	67.098236 
4407.000000	66.421985 
4406.000000	65.775871 
4405.000000	65.184140 
4404.000000	64.661550 
4403.000000	64.224100 
4402.000000	63.881874 
4401.000000	63.637733 
4400.000000	63.485884 
4399.000000	63.400793 
4398.000000	63.354992 
4397.000000	63.318014 
4396.000000	63.272380 
4395.000000	63.216280 
4394.000000	63.160538 
4393.000000	63.117885 
4392.000000	63.105630 
4391.000000	63.138103 
4390.000000	63.218855 
4389.000000	63.337659 
4388.000000	63.477206 
4387.000000	63.616776 
4386.000000	63.738656 
4385.000000	63.831543 
4384.000000	63.889551 
4383.000000	63.913083 
4382.000000	63.908219 
4381.000000	63.884329 
4380.000000	63.850522 
4379.000000	63.814663 
4378.000000	63.780808 
4377.000000	63.751220 
4376.000000	63.731074 
4375.000000	63.725662 
4374.000000	63.738965 
4373.000000	63.774347 
4372.000000	63.834595 
4371.000000	63.919305 
4370.000000	64.022874 
4369.000000	64.136815 
4368.000000	64.251232 
4367.000000	64.356017 
4366.000000	64.442491 
4365.000000	64.505243 
4364.000000	64.542889 
4363.000000	64.558362 
4362.000000	64.558076 
4361.000000	64.550328 
4360.000000	64.543247 
4359.000000	64.543223 
4358.000000	64.553403 
4357.000000	64.573478 
4356.000000	64.599704 
4355.000000	64.626908 
4354.000000	64.649415 
4353.000000	64.662432 
4352.000000	64.663505 
4351.000000	64.652991 
4350.000000	64.634418 
4349.000000	64.613056 
4348.000000	64.595293 
4347.000000	64.586830 
4346.000000	64.591765 
4345.000000	64.611792 
4344.000000	64.645743 
4343.000000	64.690804 
4342.000000	64.742040 
4341.000000	64.793992 
4340.000000	64.840912 
4339.000000	64.877796 
4338.000000	64.900350 
4337.000000	64.905238 
4336.000000	64.890623 
4335.000000	64.856791 
4334.000000	64.805626 
4333.000000	64.740657 
4332.000000	64.667367 
4331.000000	64.592504 
4330.000000	64.523482 
4329.000000	64.467310 
4328.000000	64.429712 
4327.000000	64.414143 
4326.000000	64.421486 
4325.000000	64.449620 
4324.000000	64.493441 
4323.000000	64.545917 
4322.000000	64.598798 
4321.000000	64.644575 
4320.000000	64.676904 
4319.000000	64.692187 
4318.000000	64.689469 
4317.000000	64.670801 
4316.000000	64.640378 
4315.000000	64.603734 
4314.000000	64.566564 
4313.000000	64.533519 
4312.000000	64.507675 
4311.000000	64.489674 
4310.000000	64.478492 
4309.000000	64.471650 
4308.000000	64.466238 
4307.000000	64.459776 
4306.000000	64.451003 
4305.000000	64.439892 
4304.000000	64.428210 
4303.000000	64.418816 
4302.000000	64.415764 
4301.000000	64.423084 
4300.000000	64.444422 
4299.000000	64.482378 
4298.000000	64.537453 
4297.000000	64.607548 
4296.000000	64.687752 
4295.000000	64.770984 
4294.000000	64.849090 
4293.000000	64.914011 
4292.000000	64.959168 
4291.000000	64.980840 
4290.000000	64.978623 
4289.000000	64.955902 
4288.000000	64.918780 
4287.000000	64.874911 
4286.000000	64.831924 
4285.000000	64.796185 
4284.000000	64.771866 
4283.000000	64.760684 
4282.000000	64.762163 
4281.000000	64.774608 
4280.000000	64.795756 
4279.000000	64.823508 
4278.000000	64.855790 
4277.000000	64.890813 
4276.000000	64.926457 
4275.000000	64.960718 
4274.000000	64.991450 
4273.000000	65.016722 
4272.000000	65.035414 
4271.000000	65.046811 
4270.000000	65.051221 
4269.000000	65.049099 
4268.000000	65.041279 
4267.000000	65.028500 
4266.000000	65.012025 
4265.000000	64.993047 
4264.000000	64.972686 
4263.000000	64.952182 
4262.000000	64.933180 
4261.000000	64.917087 
4260.000000	64.904713 
4259.000000	64.896106 
4258.000000	64.890551 
4257.000000	64.886498 
4256.000000	64.881968 
4255.000000	64.874982 
4254.000000	64.864182 
4253.000000	64.849519 
4252.000000	64.832425 
4251.000000	64.815640 
4250.000000	64.802718 
4249.000000	64.796996 
4248.000000	64.800858 
4247.000000	64.815497 
4246.000000	64.840030 
4245.000000	64.871764 
4244.000000	64.906120 
4243.000000	64.937376 
4242.000000	64.959311 
4241.000000	64.966297 
4240.000000	64.954352 
4239.000000	64.922213 
4238.000000	64.871406 
4237.000000	64.806437 
4236.000000	64.733862 
4235.000000	64.661073 
4234.000000	64.595413 
4233.000000	64.542818 
4232.000000	64.507627 
4231.000000	64.492058 
4230.000000	64.496207 
4229.000000	64.518451 
4228.000000	64.555120 
4227.000000	64.600968 
4226.000000	64.649415 
4225.000000	64.693665 
4224.000000	64.727210 
4223.000000	64.745211 
4222.000000	64.745235 
4221.000000	64.728093 
4220.000000	64.697742 
4219.000000	64.660549 
4218.000000	64.624476 
4217.000000	64.596748 
4216.000000	64.582610 
4215.000000	64.583873 
4214.000000	64.599132 
4213.000000	64.623832 
4212.000000	64.652013 
4211.000000	64.677357 
4210.000000	64.695191 
4209.000000	64.703011 
4208.000000	64.700698 
4207.000000	64.690542 
4206.000000	64.675807 
4205.000000	64.660525 
4204.000000	64.648318 
4203.000000	64.642310 
4202.000000	64.644694 
4201.000000	64.656162 
4200.000000	64.675831 
4199.000000	64.701437 
4198.000000	64.729857 
4197.000000	64.757442 
4196.000000	64.780879 
4195.000000	64.797425 
4194.000000	64.805912 
4193.000000	64.807081 
4192.000000	64.803767 
4191.000000	64.799976 
4190.000000	64.800429 
4189.000000	64.809751 
4188.000000	64.831042 
4187.000000	64.865517 
4186.000000	64.911508 
4185.000000	64.964866 
4184.000000	65.019202 
4183.000000	65.067243 
4182.000000	65.102219 
4181.000000	65.119218 
4180.000000	65.116477 
4179.000000	65.095305 
4178.000000	65.060424 
4177.000000	65.019130 
4176.000000	64.979958 
4175.000000	64.950728 
4174.000000	64.937686 
4173.000000	64.944219 
4172.000000	64.970207 
4171.000000	65.012097 
4170.000000	65.063095 
4169.000000	65.114665 
4168.000000	65.157794 
4167.000000	65.185117 
4166.000000	65.191960 
4165.000000	65.177583 
4164.000000	65.145158 
4163.000000	65.100789 
4162.000000	65.052199 
4161.000000	65.006589 
4160.000000	64.969658 
4159.000000	64.943575 
4158.000000	64.927601 
4157.000000	64.918017 
4156.000000	64.910054 
4155.000000	64.898920 
4154.000000	64.881515 
4153.000000	64.856839 
4152.000000	64.825987 
4151.000000	64.791512 
4150.000000	64.756321 
4149.000000	64.722800 
4148.000000	64.691972 
4147.000000	64.663839 
4146.000000	64.637899 
4145.000000	64.614057 
4144.000000	64.593267 
4143.000000	64.577627 
4142.000000	64.570140 
4141.000000	64.573788 
4140.000000	64.590954 
4139.000000	64.622282 
4138.000000	64.666366 
4137.000000	64.719676 
4136.000000	64.777255 
4135.000000	64.833807 
4134.000000	64.884400 
4133.000000	64.925432 
4132.000000	64.954900 
4131.000000	64.972019 
4130.000000	64.977431 
4129.000000	64.972853 
4128.000000	64.960861 
4127.000000	64.944481 
4126.000000	64.927268 
4125.000000	64.913105 
4124.000000	64.905357 
4123.000000	64.906644 
4122.000000	64.917993 
4121.000000	64.938592 
4120.000000	64.966058 
4119.000000	64.997053 
4118.000000	65.028095 
4117.000000	65.056395 
4116.000000	65.080618 
4115.000000	65.101027 
4114.000000	65.119314 
4113.000000	65.137767 
4112.000000	65.158247 
4111.000000	65.181350 
4110.000000	65.206003 
4109.000000	65.229725 
4108.000000	65.249562 
4107.000000	65.262913 
4106.000000	65.268540 
4105.000000	65.266633 
4104.000000	65.259361 
4103.000000	65.249800 
4102.000000	65.240955 
4101.000000	65.234923 
4100.000000	65.232634 
4099.000000	65.233254 
4098.000000	65.234661 
4097.000000	65.233922 
4096.000000	65.228128 
4095.000000	65.215086 
4094.000000	65.194082 
4093.000000	65.165805 
4092.000000	65.132331 
4091.000000	65.096807 
4090.000000	65.062642 
4089.000000	65.032911 
4088.000000	65.009546 
4087.000000	64.993309 
4086.000000	64.983391 
4085.000000	64.977526 
4084.000000	64.972519 
4083.000000	64.964747 
4082.000000	64.951443 
4081.000000	64.930915 
4080.000000	64.903545 
4079.000000	64.871382 
4078.000000	64.838075 
4077.000000	64.807558 
4076.000000	64.783477 
4075.000000	64.767956 
4074.000000	64.761400 
4073.000000	64.762449 
4072.000000	64.768457 
4071.000000	64.776086 
4070.000000	64.782643 
4069.000000	64.786458 
4068.000000	64.787554 
4067.000000	64.787268 
4066.000000	64.787960 
4065.000000	64.792323 
4064.000000	64.802575 
4063.000000	64.820170 
4062.000000	64.845395 
4061.000000	64.877533 
4060.000000	64.915275 
4059.000000	64.957094 
4058.000000	65.001177 
4057.000000	65.045785 
4056.000000	65.089321 
4055.000000	65.130424 
4054.000000	65.167999 
4053.000000	65.201067 
4052.000000	65.229105 
4051.000000	65.251469 
4050.000000	65.267872 
4049.000000	65.277576 
4048.000000	65.280151 
4047.000000	65.274858 
4046.000000	65.261101 
4045.000000	65.238523 
4044.000000	65.207743 
4043.000000	65.170335 
4042.000000	65.128922 
4041.000000	65.087056 
4040.000000	65.048813 
4039.000000	65.018320 
4038.000000	64.998888 
4037.000000	64.992213 
4036.000000	64.998078 
4035.000000	65.014433 
4034.000000	65.037703 
4033.000000	65.063405 
4032.000000	65.086793 
4031.000000	65.103864 
4030.000000	65.111875 
4029.000000	65.109324 
4028.000000	65.096092 
4027.000000	65.073847 
4026.000000	65.045094 
4025.000000	65.012788 
4024.000000	64.979839 
4023.000000	64.949035 
4022.000000	64.922809 
4021.000000	64.902877 
4020.000000	64.890503 
4019.000000	64.886498 
4018.000000	64.891171 
4017.000000	64.904165 
4016.000000	64.924454 
4015.000000	64.950060 
4014.000000	64.978408 
4013.000000	65.006566 
4012.000000	65.031456 
4011.000000	65.050077 
4010.000000	65.060472 
4009.000000	65.061926 
4008.000000	65.054774 
4007.000000	65.039968 
4006.000000	65.019154 
4005.000000	64.993834 
4004.000000	64.964842 
4003.000000	64.932107 
4002.000000	64.895248 
4001.000000	64.853692 
4000.000000	64.807844 
3999.000000	64.759373 
3998.000000	64.711260 
3997.000000	64.667868 
3996.000000	64.633727 
3995.000000	64.613175 
3994.000000	64.608430 
3993.000000	64.620161 
3992.000000	64.646339 
3991.000000	64.683580 
3990.000000	64.727354 
3989.000000	64.773797 
3988.000000	64.820289 
3987.000000	64.865922 
3986.000000	64.910864 
3985.000000	64.956259 
3984.000000	65.003037 
3983.000000	65.051078 
3982.000000	65.098977 
3981.000000	65.144395 
3980.000000	65.184473 
3979.000000	65.217185 
3978.000000	65.241456 
3977.000000	65.257573 
3976.000000	65.266704 
3975.000000	65.270686 
3974.000000	65.270972 
3973.000000	65.268349 
3972.000000	65.262413 
3971.000000	65.252304 
3970.000000	65.236663 
3969.000000	65.215015 
3968.000000	65.187430 
3967.000000	65.155720 
3966.000000	65.122127 
3965.000000	65.089058 
3964.000000	65.058207 
3963.000000	65.030121 
3962.000000	65.004205 
3961.000000	64.978933 
3960.000000	64.952826 
3959.000000	64.925003 
3958.000000	64.896202 
3957.000000	64.868879 
3956.000000	64.846754 
3955.000000	64.833712 
3954.000000	64.833450 
3953.000000	64.847850 
3952.000000	64.876508 
3951.000000	64.915919 
3950.000000	64.960241 
3949.000000	65.002012 
3948.000000	65.033483 
3947.000000	65.048360 
3946.000000	65.042877 
3945.000000	65.016913 
3944.000000	64.973831 
3943.000000	64.920186 
3942.000000	64.863991 
3941.000000	64.813232 
3940.000000	64.774751 
3939.000000	64.752340 
3938.000000	64.746618 
3937.000000	64.754700 
3936.000000	64.771747 
3935.000000	64.791607 
3934.000000	64.808630 
3933.000000	64.818596 
3932.000000	64.819574 
3931.000000	64.811491 
3930.000000	64.795827 
3929.000000	64.774823 
3928.000000	64.751076 
3927.000000	64.726829 
3926.000000	64.704084 
3925.000000	64.684677 
3924.000000	64.670586 
3923.000000	64.663743 
3922.000000	64.666152 
3921.000000	64.679241 
3920.000000	64.703845 
3919.000000	64.739418 
3918.000000	64.784216 
3917.000000	64.834618 
3916.000000	64.886283 
3915.000000	64.934897 
3914.000000	64.976716 
3913.000000	65.009069 
3912.000000	65.030717 
3911.000000	65.041780 
3910.000000	65.043807 
3909.000000	65.039277 
3908.000000	65.031170 
3907.000000	65.022444 
3906.000000	65.015912 
3905.000000	65.014004 
3904.000000	65.018272 
3903.000000	65.029430 
3902.000000	65.046811 
3901.000000	65.068864 
3900.000000	65.093326 
3899.000000	65.117740 
3898.000000	65.140056 
3897.000000	65.159058 
3896.000000	65.174698 
3895.000000	65.187716 
3894.000000	65.199422 
3893.000000	65.210604 
3892.000000	65.221071 
3891.000000	65.228986 
3890.000000	65.231299 
3889.000000	65.224456 
3888.000000	65.205478 
3887.000000	65.173244 
3886.000000	65.129256 
3885.000000	65.077972 
3884.000000	65.026402 
3883.000000	64.982271 
3882.000000	64.952349 
3881.000000	64.940834 
3880.000000	64.948463 
3879.000000	64.972138 
3878.000000	65.005683 
3877.000000	65.041685 
3876.000000	65.073585 
3875.000000	65.096783 
3874.000000	65.109634 
3873.000000	65.113377 
3872.000000	65.111041 
3871.000000	65.106058 
3870.000000	65.101051 
3869.000000	65.097093 
3868.000000	65.093517 
3867.000000	65.088701 
3866.000000	65.080690 
3865.000000	65.068721 
3864.000000	65.053200 
3863.000000	65.036058 
3862.000000	65.019845 
3861.000000	65.007090 
3860.000000	64.999341 
3859.000000	64.996504 
3858.000000	64.996910 
3857.000000	64.997816 
3856.000000	64.996409 
3855.000000	64.990735 
3854.000000	64.979934 
3853.000000	64.964413 
3852.000000	64.945530 
3851.000000	64.925241 
3850.000000	64.905571 
3849.000000	64.887976 
3848.000000	64.873552 
3847.000000	64.862823 
3846.000000	64.855957 
3845.000000	64.852738 
3844.000000	64.852833 
3843.000000	64.855504 
3842.000000	64.859747 
3841.000000	64.864206 
3840.000000	64.866900 
3839.000000	64.865732 
3838.000000	64.858436 
3837.000000	64.843463 
3836.000000	64.820313 
3835.000000	64.790177 
3834.000000	64.755535 
3833.000000	64.720535 
3832.000000	64.690041 
3831.000000	64.669156 
3830.000000	64.662051 
3829.000000	64.671087 
3828.000000	64.696455 
3827.000000	64.735293 
3826.000000	64.782428 
3825.000000	64.831042 
3824.000000	64.873933 
3823.000000	64.905381 
3822.000000	64.922142 
3821.000000	64.924311 
3820.000000	64.914846 
3819.000000	64.898490 
3818.000000	64.880323 
3817.000000	64.864516 
3816.000000	64.853286 
3815.000000	64.846801 
3814.000000	64.843630 
3813.000000	64.841794 
3812.000000	64.839863 
3811.000000	64.837551 
3810.000000	64.836001 
3809.000000	64.837479 
3808.000000	64.844441 
3807.000000	64.858508 
3806.000000	64.880013 
3805.000000	64.907073 
3804.000000	64.936399 
3803.000000	64.963960 
3802.000000	64.985847 
3801.000000	64.999437 
3800.000000	65.003705 
3799.000000	64.999508 
3798.000000	64.989113 
3797.000000	64.975500 
3796.000000	64.962196 
3795.000000	64.952564 
3794.000000	64.949154 
3793.000000	64.953446 
3792.000000	64.965605 
3791.000000	64.984869 
3790.000000	65.009236 
3789.000000	65.036177 
3788.000000	65.063095 
3787.000000	65.087842 
3786.000000	65.109252 
3785.000000	65.126752 
3784.000000	65.140366 
3783.000000	65.150117 
3782.000000	65.156149 
3781.000000	65.157914 
3780.000000	65.154743 
3779.000000	65.145468 
3778.000000	65.129399 
3777.000000	65.106439 
3776.000000	65.077424 
3775.000000	65.043926 
3774.000000	65.008354 
3773.000000	64.973044 
3772.000000	64.939832 
3771.000000	64.909482 
3770.000000	64.881777 
3769.000000	64.855933 
3768.000000	64.831256 
3767.000000	64.807748 
3766.000000	64.786338 
3765.000000	64.768552 
3764.000000	64.756488 
3763.000000	64.751768 
3762.000000	64.755249 
3761.000000	64.766478 
3760.000000	64.783930 
3759.000000	64.804983 
3758.000000	64.826774 
3757.000000	64.846849 
3756.000000	64.863729 
3755.000000	64.876866 
3754.000000	64.886713 
3753.000000	64.894604 
3752.000000	64.902281 
3751.000000	64.911246 
3750.000000	64.922285 
3749.000000	64.935421 
3748.000000	64.950084 
3747.000000	64.965486 
3746.000000	64.980649 
3745.000000	64.994668 
3744.000000	65.007138 
3743.000000	65.018272 
3742.000000	65.028738 
3741.000000	65.039205 
3740.000000	65.050435 
3739.000000	65.063071 
3738.000000	65.077614 
3737.000000	65.093994 
3736.000000	65.111947 
3735.000000	65.130567 
3734.000000	65.148615 
3733.000000	65.164279 
3732.000000	65.175795 
3731.000000	65.181422 
3730.000000	65.179800 
3729.000000	65.170359 
3728.000000	65.153479 
3727.000000	65.130639 
3726.000000	65.103912 
3725.000000	65.076112 
3724.000000	65.050101 
3723.000000	65.028691 
3722.000000	65.014529 
3721.000000	65.009808 
3720.000000	65.015816 
3719.000000	65.033149 
3718.000000	65.061521 
3717.000000	65.099310 
3716.000000	65.143537 
3715.000000	65.189838 
3714.000000	65.233063 
3713.000000	65.267539 
3712.000000	65.288186 
3711.000000	65.291571 
3710.000000	65.276789 
3709.000000	65.245795 
3708.000000	65.203309 
3707.000000	65.156173 
3706.000000	65.111875 
3705.000000	65.077567 
3704.000000	65.058708 
3703.000000	65.058398 
3702.000000	65.076756 
3701.000000	65.111446 
3700.000000	65.157938 
3699.000000	65.210342 
3698.000000	65.262293 
3697.000000	65.307736 
3696.000000	65.341711 
3695.000000	65.360689 
3694.000000	65.363264 
3693.000000	65.349984 
3692.000000	65.323472 
3691.000000	65.287971 
3690.000000	65.248608 
3689.000000	65.210747 
3688.000000	65.178585 
3687.000000	65.154695 
3686.000000	65.139341 
3685.000000	65.130853 
3684.000000	65.126180 
3683.000000	65.121984 
3682.000000	65.115475 
3681.000000	65.105581 
3680.000000	65.092873 
3679.000000	65.080022 
3678.000000	65.070271 
3677.000000	65.067005 
3676.000000	65.072607 
3675.000000	65.087747 
3674.000000	65.111446 
3673.000000	65.140819 
3672.000000	65.172052 
3671.000000	65.200805 
3670.000000	65.223240 
3669.000000	65.236449 
3668.000000	65.238928 
3667.000000	65.230607 
3666.000000	65.212273 
3665.000000	65.186047 
3664.000000	65.154957 
3663.000000	65.122652 
3662.000000	65.092968 
3661.000000	65.069603 
3660.000000	65.055394 
3659.000000	65.052151 
3658.000000	65.059995 
3657.000000	65.077376 
3656.000000	65.101075 
3655.000000	65.126991 
3654.000000	65.150666 
3653.000000	65.168142 
3652.000000	65.176653 
3651.000000	65.175223 
3650.000000	65.164828 
3649.000000	65.148043 
3648.000000	65.128278 
3647.000000	65.109372 
3646.000000	65.094232 
3645.000000	65.084433 
3644.000000	65.079593 
3643.000000	65.077996 
3642.000000	65.076684 
3641.000000	65.072655 
3640.000000	65.063333 
3639.000000	65.047359 
3638.000000	65.025043 
3637.000000	64.998364 
3636.000000	64.970350 
3635.000000	64.944434 
3634.000000	64.923524 
3633.000000	64.909529 
3632.000000	64.902925 
3631.000000	64.902949 
3630.000000	64.907908 
3629.000000	64.915943 
3628.000000	64.925479 
3627.000000	64.935779 
3626.000000	64.946889 
3625.000000	64.959716 
3624.000000	64.975214 
3623.000000	64.994215 
3622.000000	65.017151 
3621.000000	65.043687 
3620.000000	65.072679 
3619.000000	65.102434 
3618.000000	65.130996 
3617.000000	65.156459 
3616.000000	65.177345 
3615.000000	65.192627 
3614.000000	65.202021 
3613.000000	65.205645 
3612.000000	65.204286 
3611.000000	65.198731 
3610.000000	65.189886 
3609.000000	65.178418 
3608.000000	65.165066 
3607.000000	65.150356 
3606.000000	65.134763 
3605.000000	65.118861 
3604.000000	65.103292 
3603.000000	65.088796 
3602.000000	65.076065 
3601.000000	65.065693 
3600.000000	65.057945 
3599.000000	65.052795 
3598.000000	65.049815 
3597.000000	65.048193 
3596.000000	65.046906 
3595.000000	65.045166 
3594.000000	65.042400 
3593.000000	65.038251 
3592.000000	65.032649 
3591.000000	65.025591 
3590.000000	65.017318 
3589.000000	65.007829 
3588.000000	64.997220 
3587.000000	64.985847 
3586.000000	64.974498 
3585.000000	64.964294 
3584.000000	64.956617 
3583.000000	64.952754 
3582.000000	64.953637 
3581.000000	64.959502 
3580.000000	64.969825 
3579.000000	64.983344 
3578.000000	64.998292 
3577.000000	65.012931 
3576.000000	65.025877 
3575.000000	65.036439 
3574.000000	65.044975 
3573.000000	65.052461 
3572.000000	65.060114 
3571.000000	65.068864 
3570.000000	65.079021 
3569.000000	65.089821 
3568.000000	65.099406 
3567.000000	65.105056 
3566.000000	65.104174 
3565.000000	65.094685 
3564.000000	65.075540 
3563.000000	65.047478 
3562.000000	65.013051 
3561.000000	64.976572 
3560.000000	64.943385 
3559.000000	64.918899 
3558.000000	64.907860 
3557.000000	64.912748 
3556.000000	64.933395 
3555.000000	64.966368 
3554.000000	65.005993 
3553.000000	65.045070 
3552.000000	65.076541 
3551.000000	65.094828 
3550.000000	65.096926 
3549.000000	65.082883 
3548.000000	65.055799 
3547.000000	65.020704 
3546.000000	64.983677 
3545.000000	64.950704 
3544.000000	64.926624 
3543.000000	64.914488 
3542.000000	64.915275 
3541.000000	64.928293 
3540.000000	64.951443 
3539.000000	64.981889 
3538.000000	65.016651 
3537.000000	65.052986 
3536.000000	65.088772 
3535.000000	65.122103 
3534.000000	65.151691 
3533.000000	65.176534 
3532.000000	65.195870 
3531.000000	65.209293 
3530.000000	65.216588 
3529.000000	65.217900 
3528.000000	65.213751 
3527.000000	65.205192 
3526.000000	65.193700 
3525.000000	65.180969 
3524.000000	65.168738 
3523.000000	65.158581 
3522.000000	65.151429 
3521.000000	65.147686 
3520.000000	65.146780 
3519.000000	65.147399 
3518.000000	65.147948 
3517.000000	65.146946 
3516.000000	65.143227 
3515.000000	65.136432 
3514.000000	65.127086 
3513.000000	65.116477 
3512.000000	65.106558 
3511.000000	65.099191 
3510.000000	65.095734 
3509.000000	65.096545 
3508.000000	65.101003 
3507.000000	65.107560 
3506.000000	65.114188 
3505.000000	65.118861 
3504.000000	65.119791 
3503.000000	65.116190 
3502.000000	65.108275 
3501.000000	65.097165 
3500.000000	65.084385 
3499.000000	65.071487 
3498.000000	65.059828 
3497.000000	65.049910 
3496.000000	65.041589 
3495.000000	65.033864 
3494.000000	65.025448 
3493.000000	65.015029 
3492.000000	65.001726 
3491.000000	64.985299 
3490.000000	64.966440 
3489.000000	64.946699 
3488.000000	64.928388 
3487.000000	64.914107 
3486.000000	64.906239 
3485.000000	64.906573 
3484.000000	64.915776 
3483.000000	64.932894 
3482.000000	64.955639 
3481.000000	64.980673 
3480.000000	65.004301 
3479.000000	65.023159 
3478.000000	65.034890 
3477.000000	65.038609 
3476.000000	65.035223 
3475.000000	65.026831 
3474.000000	65.016341 
3473.000000	65.006542 
3472.000000	64.999604 
3471.000000	64.996719 
3470.000000	64.997816 
3469.000000	65.001749 
3468.000000	65.006875 
3467.000000	65.011382 
3466.000000	65.013885 
3465.000000	65.013575 
3464.000000	65.010333 
3463.000000	65.004730 
3462.000000	64.997792 
3461.000000	64.990925 
3460.000000	64.985847 
3459.000000	64.984369 
3458.000000	64.988350 
3457.000000	64.999246 
3456.000000	65.017652 
3455.000000	65.043067 
3454.000000	65.073895 
3453.000000	65.107345 
3452.000000	65.139889 
3451.000000	65.167570 
3450.000000	65.186691 
3449.000000	65.194344 
3448.000000	65.188884 
3447.000000	65.169954 
3446.000000	65.138578 
3445.000000	65.096855 
3444.000000	65.047669 
3443.000000	64.994287 
3442.000000	64.940166 
3441.000000	64.888620 
3440.000000	64.842581 
3439.000000	64.804410 
3438.000000	64.775705 
3437.000000	64.756917 
3436.000000	64.747667 
3435.000000	64.746284 
3434.000000	64.750814 
3433.000000	64.759016 
3432.000000	64.769434 
3431.000000	64.780974 
3430.000000	64.793419 
3429.000000	64.806818 
3428.000000	64.821386 
3427.000000	64.836812 
3426.000000	64.852380 
3425.000000	64.866685 
3424.000000	64.878273 
3423.000000	64.885997 
3422.000000	64.889383 
3421.000000	64.889025 
3420.000000	64.886355 
3419.000000	64.883255 
3418.000000	64.881443 
3417.000000	64.881873 
3416.000000	64.884376 
3415.000000	64.887833 
3414.000000	64.890432 
3413.000000	64.890527 
3412.000000	64.887332 
3411.000000	64.881229 
3410.000000	64.873600 
3409.000000	64.866399 
3408.000000	64.861702 
3407.000000	64.861130 
3406.000000	64.865350 
3405.000000	64.873981 
3404.000000	64.885902 
3403.000000	64.899730 
3402.000000	64.914274 
3401.000000	64.929103 
3400.000000	64.944148 
3399.000000	64.959836 
3398.000000	64.976596 
3397.000000	64.994430 
3396.000000	65.012526 
3395.000000	65.029311 
3394.000000	65.042614 
3393.000000	65.050148 
3392.000000	65.050148 
3391.000000	65.041637 
3390.000000	65.024805 
3389.000000	65.001058 
3388.000000	64.972734 
3387.000000	64.942860 
3386.000000	64.914536 
3385.000000	64.890646 
3384.000000	64.873385 
3383.000000	64.863824 
3382.000000	64.861798 
3381.000000	64.865899 
3380.000000	64.873695 
3379.000000	64.882016 
3378.000000	64.887881 
3377.000000	64.888501 
3376.000000	64.882636 
3375.000000	64.870262 
3374.000000	64.853477 
3373.000000	64.835524 
3372.000000	64.820480 
3371.000000	64.812278 
3370.000000	64.813733 
3369.000000	64.825797 
3368.000000	64.847493 
3367.000000	64.876103 
3366.000000	64.907717 
3365.000000	64.938282 
3364.000000	64.964628 
3363.000000	64.985036 
3362.000000	64.999365 
3361.000000	65.008759 
3360.000000	65.015077 
3359.000000	65.020132 
3358.000000	65.024852 
3357.000000	65.029048 
3356.000000	65.031647 
3355.000000	65.031123 
3354.000000	65.026259 
3353.000000	65.016889 
3352.000000	65.004181 
3351.000000	64.990615 
3350.000000	64.979457 
3349.000000	64.974164 
3348.000000	64.977455 
3347.000000	64.990782 
3346.000000	65.013790 
3345.000000	65.044474 
3344.000000	65.079617 
3343.000000	65.115070 
3342.000000	65.147018 
3341.000000	65.172147 
3340.000000	65.188097 
3339.000000	65.193533 
3338.000000	65.188264 
3337.000000	65.172958 
3336.000000	65.148973 
3335.000000	65.118241 
3334.000000	65.082836 
3333.000000	65.045213 
3332.000000	65.007638 
3331.000000	64.972138 
3330.000000	64.940118 
3329.000000	64.912509 
3328.000000	64.889383 
3327.000000	64.870095 
3326.000000	64.853596 
3325.000000	64.838504 
3324.000000	64.823913 
3323.000000	64.809250 
3322.000000	64.795231 
3321.000000	64.783143 
3320.000000	64.775204 
3319.000000	64.773583 
3318.000000	64.780044 
3317.000000	64.795374 
3316.000000	64.818930 
3315.000000	64.848589 
3314.000000	64.881181 
3313.000000	64.913129 
3312.000000	64.941072 
3311.000000	64.962363 
3310.000000	64.975714 
3309.000000	64.981102 
3308.000000	64.979720 
3307.000000	64.973330 
3306.000000	64.963722 
3305.000000	64.952373 
3304.000000	64.940452 
3303.000000	64.928698 
3302.000000	64.917826 
3301.000000	64.908671 
3300.000000	64.902687 
3299.000000	64.901328 
3298.000000	64.906001 
3297.000000	64.917349 
3296.000000	64.934992 
3295.000000	64.957332 
3294.000000	64.981555 
3293.000000	65.004181 
3292.000000	65.021729 
3291.000000	65.031218 
3290.000000	65.030932 
3289.000000	65.020394 
3288.000000	65.000629 
3287.000000	64.973783 
3286.000000	64.942502 
3285.000000	64.909815 
3284.000000	64.878320 
3283.000000	64.850378 
3282.000000	64.827775 
3281.000000	64.811754 
3280.000000	64.802789 
3279.000000	64.800596 
3278.000000	64.804148 
3277.000000	64.811635 
3276.000000	64.820742 
3275.000000	64.829087 
3274.000000	64.834594 
3273.000000	64.836049 
3272.000000	64.833378 
3271.000000	64.827370 
3270.000000	64.819669 
3269.000000	64.812231 
3268.000000	64.806723 
3267.000000	64.804100 
3266.000000	64.804601 
3265.000000	64.807510 
3264.000000	64.811682 
3263.000000	64.815902 
3262.000000	64.819264 
3261.000000	64.821505 
3260.000000	64.823031 
3259.000000	64.824795 
3258.000000	64.827895 
3257.000000	64.833235 
3256.000000	64.841341 
3255.000000	64.852142 
3254.000000	64.865231 
3253.000000	64.879918 
3252.000000	64.895415 
3251.000000	64.911007 
3250.000000	64.926099 
3249.000000	64.940333 
3248.000000	64.953327 
3247.000000	64.964842 
3246.000000	64.974594 
3245.000000	64.982581 
3244.000000	64.988827 
3243.000000	64.993524 
3242.000000	64.997196 
3241.000000	65.000581 
3240.000000	65.004515 
3239.000000	65.009760 
3238.000000	65.016818 
3237.000000	65.025639 
3236.000000	65.035653 
3235.000000	65.045762 
3234.000000	65.054750 
3233.000000	65.061402 
3232.000000	65.064835 
3231.000000	65.064549 
3230.000000	65.060687 
3229.000000	65.053606 
3228.000000	65.043663 
3227.000000	65.031242 
3226.000000	65.016579 
3225.000000	64.999794 
3224.000000	64.981317 
3223.000000	64.961886 
3222.000000	64.942693 
3221.000000	64.925503 
3220.000000	64.912557 
3219.000000	64.905548 
3218.000000	64.905571 
3217.000000	64.912462 
3216.000000	64.924979 
3215.000000	64.940500 
3214.000000	64.955902 
3213.000000	64.968156 
3212.000000	64.974975 
3211.000000	64.975214 
3210.000000	64.969229 
3209.000000	64.958357 
3208.000000	64.944982 
3207.000000	64.931464 
3206.000000	64.920115 
3205.000000	64.912676 
3204.000000	64.910340 
3203.000000	64.913678 
3202.000000	64.922499 
3201.000000	64.935970 
3200.000000	64.952635 
3199.000000	64.970350 
3198.000000	64.986205 
3197.000000	64.997029 
3196.000000	64.999747 
3195.000000	64.991974 
3194.000000	64.972496 
3193.000000	64.941811 
3192.000000	64.902210 
3191.000000	64.857697 
3190.000000	64.812946 
3189.000000	64.772748 
3188.000000	64.740967 
3187.000000	64.720129 
3186.000000	64.710927 
3185.000000	64.712715 
3184.000000	64.723491 
3183.000000	64.740824 
3182.000000	64.762306 
3181.000000	64.786171 
3180.000000	64.811038 
3179.000000	64.836287 
3178.000000	64.861273 
3177.000000	64.885687 
3176.000000	64.908814 
3175.000000	64.929795 
3174.000000	64.947605 
3173.000000	64.961504 
3172.000000	64.971256 
3171.000000	64.977335 
3170.000000	64.980959 
3169.000000	64.983725 
3168.000000	64.987325 
3167.000000	64.993572 
3166.000000	65.003490 
3165.000000	65.017485 
3164.000000	65.034604 
3163.000000	65.053200 
3162.000000	65.071034 
3161.000000	65.085530 
3160.000000	65.094637 
3159.000000	65.097045 
3158.000000	65.092730 
3157.000000	65.083122 
3156.000000	65.070700 
3155.000000	65.058231 
3154.000000	65.048694 
3153.000000	65.044212 
3152.000000	65.045857 
3151.000000	65.053510 
3150.000000	65.065670 
3149.000000	65.080022 
3148.000000	65.093898 
3147.000000	65.104627 
3146.000000	65.110039 
3145.000000	65.108609 
3144.000000	65.099763 
3143.000000	65.083479 
3142.000000	65.060400 
3141.000000	65.031194 
3140.000000	64.996814 
3139.000000	64.957976 
3138.000000	64.915370 
3137.000000	64.869976 
3136.000000	64.822888 
3135.000000	64.775967 
3134.000000	64.731454 
3133.000000	64.692115 
3132.000000	64.660787 
3131.000000	64.640212 
3130.000000	64.631843 
3129.000000	64.636182 
3128.000000	64.652347 
3127.000000	64.678144 
3126.000000	64.710092 
3125.000000	64.744400 
3124.000000	64.777183 
3123.000000	64.805507 
3122.000000	64.827442 
3121.000000	64.842534 
3120.000000	64.851546 
3119.000000	64.856338 
3118.000000	64.858984 
3117.000000	64.861345 
3116.000000	64.864373 
3115.000000	64.868140 
3114.000000	64.871692 
3113.000000	64.873385 
3112.000000	64.871430 
3111.000000	64.864611 
3110.000000	64.852833 
3109.000000	64.837145 
3108.000000	64.819359 
3107.000000	64.802384 
3106.000000	64.788675 
3105.000000	64.779925 
3104.000000	64.776349 
3103.000000	64.777088 
3102.000000	64.780163 
3101.000000	64.783000 
3100.000000	64.783334 
3099.000000	64.779925 
3098.000000	64.772725 
3097.000000	64.762711 
3096.000000	64.751887 
3095.000000	64.742302 
3094.000000	64.735841 
3093.000000	64.733600 
3092.000000	64.735865 
3091.000000	64.742207 
3090.000000	64.751887 
3089.000000	64.764094 
3088.000000	64.778113 
3087.000000	64.793419 
3086.000000	64.809489 
3085.000000	64.825820 
3084.000000	64.841485 
3083.000000	64.855504 
3082.000000	64.866805 
3081.000000	64.874744 
3080.000000	64.879274 
3079.000000	64.880728 
3078.000000	64.880156 
3077.000000	64.878702 
3076.000000	64.877629 
3075.000000	64.877772 
3074.000000	64.879512 
3073.000000	64.882946 
3072.000000	64.887976 
3071.000000	64.894652 
3070.000000	64.903450 
3069.000000	64.915084 
3068.000000	64.930486 
3067.000000	64.950299 
3066.000000	64.974570 
3065.000000	65.002417 
3064.000000	65.031719 
3063.000000	65.059733 
3062.000000	65.083217 
3061.000000	65.099382 
3060.000000	65.106225 
3059.000000	65.103101 
3058.000000	65.090799 
3057.000000	65.071177 
3056.000000	65.046763 
3055.000000	65.020537 
3054.000000	64.995193 
3053.000000	64.972662 
3052.000000	64.954113 
3051.000000	64.939832 
3050.000000	64.929580 
3049.000000	64.922785 
3048.000000	64.918804 
3047.000000	64.916968 
3046.000000	64.916586 
3045.000000	64.917063 
3044.000000	64.917683 
3043.000000	64.917588 
3042.000000	64.915871 
3041.000000	64.911508 
3040.000000	64.903759 
3039.000000	64.892315 
3038.000000	64.877605 
3037.000000	64.860630 
3036.000000	64.842867 
3035.000000	64.825963 
3034.000000	64.811325 
3033.000000	64.799761 
3032.000000	64.791226 
3031.000000	64.784789 
3030.000000	64.778566 
3029.000000	64.770746 
3028.000000	64.759802 
3027.000000	64.745593 
3026.000000	64.728903 
3025.000000	64.712405 
3024.000000	64.699530 
3023.000000	64.694213 
3022.000000	64.699697 
3021.000000	64.717841 
3020.000000	64.748477 
3019.000000	64.789152 
3018.000000	64.835381 
3017.000000	64.881682 
3016.000000	64.922499 
3015.000000	64.953446 
3014.000000	64.971947 
3013.000000	64.977931 
3012.000000	64.973449 
3011.000000	64.962244 
3010.000000	64.948821 
3009.000000	64.937233 
3008.000000	64.930105 
3007.000000	64.928531 
3006.000000	64.931797 
3005.000000	64.937877 
3004.000000	64.944052 
3003.000000	64.947915 
3002.000000	64.947867 
3001.000000	64.943432 
3000.000000	64.935231 
2999.000000	64.924812 
2998.000000	64.913916 
2997.000000	64.903855 
2996.000000	64.894962 
2995.000000	64.886903 
2994.000000	64.878344 
2993.000000	64.867639 
2992.000000	64.853191 
2991.000000	64.834022 
2990.000000	64.810252 
2989.000000	64.783263 
2988.000000	64.755439 
2987.000000	64.729499 
2986.000000	64.708757 
2985.000000	64.696240 
2984.000000	64.693999 
2983.000000	64.702558 
2982.000000	64.721035 
2981.000000	64.746904 
2980.000000	64.776301 
2979.000000	64.804816 
2978.000000	64.827966 
2977.000000	64.842319 
2976.000000	64.845895 
2975.000000	64.839029 
2974.000000	64.824080 
2973.000000	64.805221 
2972.000000	64.787316 
2971.000000	64.775085 
2970.000000	64.771962 
2969.000000	64.779043 
2968.000000	64.795422 
2967.000000	64.817690 
2966.000000	64.840912 
2965.000000	64.859580 
2964.000000	64.869165 
2963.000000	64.866542 
2962.000000	64.850664 
2961.000000	64.822673 
2960.000000	64.785599 
2959.000000	64.743733 
2958.000000	64.701652 
2957.000000	64.663672 
2956.000000	64.633131 
2955.000000	64.612078 
2954.000000	64.601016 
2953.000000	64.599204 
2952.000000	64.604830 
2951.000000	64.615345 
2950.000000	64.628076 
2949.000000	64.640045 
2948.000000	64.649057 
2947.000000	64.653420 
2946.000000	64.652848 
2945.000000	64.647746 
2944.000000	64.639854 
2943.000000	64.631891 
2942.000000	64.627099 
2941.000000	64.628815 
2940.000000	64.639496 
2939.000000	64.660215 
2938.000000	64.690208 
2937.000000	64.727139 
2936.000000	64.767384 
2935.000000	64.806771 
2934.000000	64.841270 
2933.000000	64.867830 
2932.000000	64.884638 
2931.000000	64.891290 
2930.000000	64.888644 
2929.000000	64.878487 
2928.000000	64.862990 
2927.000000	64.844369 
2926.000000	64.825034 
2925.000000	64.807009 
2924.000000	64.791870 
2923.000000	64.780473 
2922.000000	64.773225 
2921.000000	64.769721 
2920.000000	64.768838 
2919.000000	64.769005 
2918.000000	64.768290 
2917.000000	64.765191 
2916.000000	64.758777 
2915.000000	64.749240 
2914.000000	64.737677 
2913.000000	64.725995 
2912.000000	64.716386 
2911.000000	64.710807 
2910.000000	64.710187 
2909.000000	64.714360 
2908.000000	64.721775 
2907.000000	64.729976 
2906.000000	64.736199 
2905.000000	64.738154 
2904.000000	64.734578 
2903.000000	64.725518 
2902.000000	64.712190 
2901.000000	64.696621 
2900.000000	64.681124 
2899.000000	64.667582 
2898.000000	64.657115 
2897.000000	64.650154 
2896.000000	64.646410 
2895.000000	64.645409 
2894.000000	64.646601 
2893.000000	64.649438 
2892.000000	64.653348 
2891.000000	64.657807 
2890.000000	64.662241 
2889.000000	64.665985 
2888.000000	64.668679 
2887.000000	64.670038 
2886.000000	64.670014 
2885.000000	64.669084 
2884.000000	64.667963 
2883.000000	64.667558 
2882.000000	64.668750 
2881.000000	64.672374 
2880.000000	64.678931 
2879.000000	64.688491 
2878.000000	64.700627 
2877.000000	64.714527 
2876.000000	64.729094 
2875.000000	64.743113 
2874.000000	64.755415 
2873.000000	64.765000 
2872.000000	64.771223 
2871.000000	64.773941 
2870.000000	64.773559 
2869.000000	64.770913 
2868.000000	64.767265 
2867.000000	64.763879 
2866.000000	64.761590 
2865.000000	64.760661 
2864.000000	64.760684 
2863.000000	64.760589 
2862.000000	64.759182 
2861.000000	64.755320 
2860.000000	64.748311 
2859.000000	64.737987 
2858.000000	64.724707 
2857.000000	64.708995 
2856.000000	64.691686 
2855.000000	64.673328 
2854.000000	64.654278 
2853.000000	64.634752 
2852.000000	64.615106 
2851.000000	64.595985 
2850.000000	64.578342 
2849.000000	64.563632 
2848.000000	64.553546 
2847.000000	64.549612 
2846.000000	64.552879 
2845.000000	64.563488 
2844.000000	64.580655 
2843.000000	64.602780 
2842.000000	64.627766 
2841.000000	64.653372 
2840.000000	64.677429 
2839.000000	64.698386 
2838.000000	64.715337 
2837.000000	64.727759 
2836.000000	64.735889 
2835.000000	64.740252 
2834.000000	64.741873 
2833.000000	64.742040 
2832.000000	64.742064 
2831.000000	64.743471 
2830.000000	64.747381 
2829.000000	64.754724 
2828.000000	64.765810 
2827.000000	64.780354 
2826.000000	64.797520 
2825.000000	64.815878 
2824.000000	64.833831 
2823.000000	64.849948 
2822.000000	64.863204 
2821.000000	64.873218 
2820.000000	64.880180 
2819.000000	64.884757 
2818.000000	64.887785 
2817.000000	64.889907 
2816.000000	64.891505 
2815.000000	64.892435 
2814.000000	64.892053 
2813.000000	64.889478 
2812.000000	64.883971 
2811.000000	64.875221 
2810.000000	64.863419 
2809.000000	64.849472 
2808.000000	64.834880 
2807.000000	64.821362 
2806.000000	64.810419 
2805.000000	64.802980 
2804.000000	64.799189 
2803.000000	64.798331 
2802.000000	64.798951 
2801.000000	64.799308 
2800.000000	64.797711 
2799.000000	64.793133 
2798.000000	64.785504 
2797.000000	64.775776 
2796.000000	64.765739 
2795.000000	64.757657 
2794.000000	64.753413 
2793.000000	64.754033 
2792.000000	64.759445 
2791.000000	64.768242 
2790.000000	64.778161 
2789.000000	64.786839 
2788.000000	64.792585 
2787.000000	64.794850 
2786.000000	64.794373 
2785.000000	64.792990 
2784.000000	64.792943 
2783.000000	64.796185 
2782.000000	64.803862 
2781.000000	64.815664 
2780.000000	64.830136 
2779.000000	64.844989 
2778.000000	64.857840 
2777.000000	64.866757 
2776.000000	64.870929 
2775.000000	64.870834 
2774.000000	64.867782 
2773.000000	64.863610 
2772.000000	64.860153 
2771.000000	64.858484 
2770.000000	64.858818 
2769.000000	64.860558 
2768.000000	64.862680 
2767.000000	64.863896 
2766.000000	64.863371 
2765.000000	64.860725 
2764.000000	64.856266 
2763.000000	64.850783 
2762.000000	64.845252 
2761.000000	64.840412 
2760.000000	64.836835 
2759.000000	64.834570 
2758.000000	64.833354 
2757.000000	64.832568 
2756.000000	64.831733 
2755.000000	64.830636 
2754.000000	64.829277 
2753.000000	64.828085 
2752.000000	64.827561 
2751.000000	64.828324 
2750.000000	64.830875 
2749.000000	64.835524 
2748.000000	64.842224 
2747.000000	64.850735 
2746.000000	64.860582 
2745.000000	64.871120 
2744.000000	64.881730 
2743.000000	64.891767 
2742.000000	64.900588 
2741.000000	64.907693 
2740.000000	64.912414 
2739.000000	64.914226 
2738.000000	64.912581 
2737.000000	64.907073 
2736.000000	64.897561 
2735.000000	64.884448 
2734.000000	64.868664 
2733.000000	64.851641 
2732.000000	64.835238 
2731.000000	64.821457 
2730.000000	64.812159 
2729.000000	64.808511 
2728.000000	64.810967 
2727.000000	64.819025 
2726.000000	64.831233 
2725.000000	64.845466 
2724.000000	64.859390 
2723.000000	64.870929 
2722.000000	64.878559 
2721.000000	64.881610 
2720.000000	64.880204 
2719.000000	64.875054 
2718.000000	64.867210 
2717.000000	64.857864 
2716.000000	64.847850 
2715.000000	64.837527 
2714.000000	64.826989 
2713.000000	64.816045 
2712.000000	64.804601 
2711.000000	64.792752 
2710.000000	64.780926 
2709.000000	64.769864 
2708.000000	64.760589 
2707.000000	64.754033 
2706.000000	64.750862 
2705.000000	64.751195 
2704.000000	64.754557 
2703.000000	64.760017 
2702.000000	64.766335 
2701.000000	64.772200 
2700.000000	64.776468 
2699.000000	64.778351 
2698.000000	64.777708 
2697.000000	64.774942 
2696.000000	64.771008 
2695.000000	64.767408 
2694.000000	64.765548 
2693.000000	64.766693 
2692.000000	64.771866 
2691.000000	64.781236 
2690.000000	64.794325 
2689.000000	64.809823 
2688.000000	64.825844 
2687.000000	64.840149 
2686.000000	64.850735 
2685.000000	64.855861 
2684.000000	64.854598 
2683.000000	64.846849 
2682.000000	64.833641 
2681.000000	64.816856 
2680.000000	64.798879 
2679.000000	64.782285 
2678.000000	64.769244 
2677.000000	64.761352 
2676.000000	64.759063 
2675.000000	64.762020 
2674.000000	64.768910 
2673.000000	64.777779 
2672.000000	64.786553 
2671.000000	64.793348 
2670.000000	64.796948 
2669.000000	64.796900 
2668.000000	64.793634 
2667.000000	64.788126 
2666.000000	64.781665 
2665.000000	64.775514 
2664.000000	64.770674 
2663.000000	64.767527 
2662.000000	64.766049 
2661.000000	64.765763 
2660.000000	64.765977 
2659.000000	64.766049 
2658.000000	64.765262 
2657.000000	64.762973 
2656.000000	64.758563 
2655.000000	64.751505 
2654.000000	64.741468 
2653.000000	64.728522 
2652.000000	64.713144 
2651.000000	64.696240 
2650.000000	64.679312 
2649.000000	64.664149 
2648.000000	64.652657 
2647.000000	64.646339 
2646.000000	64.646029 
2645.000000	64.651656 
2644.000000	64.662218 
2643.000000	64.675927 
2642.000000	64.690542 
2641.000000	64.703774 
2640.000000	64.713859 
2639.000000	64.719772 
2638.000000	64.721584 
2637.000000	64.720368 
2636.000000	64.717888 
2635.000000	64.716196 
2634.000000	64.717006 
2633.000000	64.721655 
2632.000000	64.730525 
2631.000000	64.743113 
2630.000000	64.757919 
2629.000000	64.773035 
2628.000000	64.786243 
2627.000000	64.795637 
2626.000000	64.799690 
2625.000000	64.797878 
2624.000000	64.790487 
2623.000000	64.778637 
2622.000000	64.763879 
2621.000000	64.748215 
2620.000000	64.733481 
2619.000000	64.721274 
2618.000000	64.712429 
2617.000000	64.707326 
2616.000000	64.705753 
2615.000000	64.707040 
2614.000000	64.710402 
2613.000000	64.715003 
2612.000000	64.720368 
2611.000000	64.726161 
2610.000000	64.732384 
2609.000000	64.739036 
2608.000000	64.746189 
2607.000000	64.753651 
2606.000000	64.761090 
2605.000000	64.767980 
2604.000000	64.773607 
2603.000000	64.777445 
2602.000000	64.779257 
2601.000000	64.779257 
2600.000000	64.778161 
2599.000000	64.776849 
2598.000000	64.776492 
2597.000000	64.777779 
2596.000000	64.780855 
2595.000000	64.784932 
2594.000000	64.788508 
2593.000000	64.789748 
2592.000000	64.786839 
2591.000000	64.778709 
2590.000000	64.765334 
2589.000000	64.748048 
2588.000000	64.729142 
2587.000000	64.711523 
2586.000000	64.698052 
2585.000000	64.690947 
2584.000000	64.691424 
2583.000000	64.699220 
2582.000000	64.713025 
2581.000000	64.730501 
2580.000000	64.749050 
2579.000000	64.766073 
2578.000000	64.779639 
2577.000000	64.788532 
2576.000000	64.792466 
2575.000000	64.791679 
2574.000000	64.786934 
2573.000000	64.779329 
2572.000000	64.769887 
2571.000000	64.759564 
2570.000000	64.749240 
2569.000000	64.739632 
2568.000000	64.731335 
2567.000000	64.724874 
2566.000000	64.720582 
2565.000000	64.718842 
2564.000000	64.719533 
2563.000000	64.722299 
2562.000000	64.726352 
2561.000000	64.730548 
2560.000000	64.733290 
2559.000000	64.733052 
2558.000000	64.728403 
2557.000000	64.718437 
2556.000000	64.703035 
2555.000000	64.683103 
2554.000000	64.660453 
2553.000000	64.637684 
2552.000000	64.617609 
2551.000000	64.602994 
2550.000000	64.595842 
2549.000000	64.597034 
2548.000000	64.605975 
2547.000000	64.620804 
2546.000000	64.638710 
2545.000000	64.656662 
2544.000000	64.671850 
2543.000000	64.682269 
2542.000000	64.686942 
2541.000000	64.686298 
2540.000000	64.681696 
2539.000000	64.675140 
2538.000000	64.668703 
2537.000000	64.663982 
2536.000000	64.662146 
2535.000000	64.663362 
2534.000000	64.667177 
2533.000000	64.672446 
2532.000000	64.677977 
2531.000000	64.682507 
2530.000000	64.684939 
2529.000000	64.684605 
2528.000000	64.681267 
2527.000000	64.675116 
2526.000000	64.666700 
2525.000000	64.656949 
2524.000000	64.647102 
2523.000000	64.638400 
2522.000000	64.631962 
2521.000000	64.628672 
2520.000000	64.628839 
2519.000000	64.632177 
2518.000000	64.637756 
2517.000000	64.644050 
2516.000000	64.649462 
2515.000000	64.652562 
2514.000000	64.652204 
2513.000000	64.648056 
2512.000000	64.640545 
2511.000000	64.630746 
2510.000000	64.620327 
2509.000000	64.610934 
2508.000000	64.603996 
2507.000000	64.600491 
2506.000000	64.600729 
2505.000000	64.604353 
2504.000000	64.610385 
2503.000000	64.617633 
2502.000000	64.624738 
2501.000000	64.630460 
2500.000000	64.633965 
2499.000000	64.634871 
2498.000000	64.633202 
2497.000000	64.629340 
2496.000000	64.623904 
2495.000000	64.617633 
2494.000000	64.611268 
2493.000000	64.605641 
2492.000000	64.601564 
2491.000000	64.599704 
2490.000000	64.600753 
2489.000000	64.605212 
2488.000000	64.613175 
2487.000000	64.624118 
2486.000000	64.637136 
2485.000000	64.650750 
2484.000000	64.663171 
2483.000000	64.672613 
2482.000000	64.677476 
2481.000000	64.676713 
2480.000000	64.669966 
2479.000000	64.657521 
2478.000000	64.640355 
2477.000000	64.620065 
2476.000000	64.598441 
2475.000000	64.577293 
2474.000000	64.558267 
2473.000000	64.542603 
2472.000000	64.531183 
2471.000000	64.524364 
2470.000000	64.522075 
2469.000000	64.523863 
2468.000000	64.529061 
2467.000000	64.536952 
2466.000000	64.546966 
2465.000000	64.558863 
2464.000000	64.572620 
2463.000000	64.588499 
2462.000000	64.606714 
2461.000000	64.627099 
2460.000000	64.648890 
2459.000000	64.670777 
2458.000000	64.691066 
2457.000000	64.707922 
2456.000000	64.719843 
2455.000000	64.726066 
2454.000000	64.726471 
2453.000000	64.721846 
2452.000000	64.713335 
2451.000000	64.702391 
2450.000000	64.690089 
2449.000000	64.677214 
2448.000000	64.663815 
2447.000000	64.649820 
2446.000000	64.634847 
2445.000000	64.618754 
2444.000000	64.602017 
2443.000000	64.585638 
2442.000000	64.570999 
2441.000000	64.559626 
2440.000000	64.552783 
2439.000000	64.551281 
2438.000000	64.554953 
2437.000000	64.563131 
2436.000000	64.574432 
2435.000000	64.587116 
2434.000000	64.599442 
2433.000000	64.610123 
2432.000000	64.618039 
2431.000000	64.622831 
2430.000000	64.624691 
2429.000000	64.624333 
2428.000000	64.622759 
2427.000000	64.620780 
2426.000000	64.619064 
2425.000000	64.617800 
2424.000000	64.616799 
2423.000000	64.615654 
2422.000000	64.614057 
2421.000000	64.611744 
2420.000000	64.608883 
2419.000000	64.605879 
2418.000000	64.603281 
2417.000000	64.601731 
2416.000000	64.601802 
2415.000000	64.603734 
2414.000000	64.607524 
2413.000000	64.612984 
2412.000000	64.619803 
2411.000000	64.627337 
2410.000000	64.634656 
2409.000000	64.640974 
2408.000000	64.645338 
2407.000000	64.646816 
2406.000000	64.644718 
2405.000000	64.638686 
2404.000000	64.628887 
2403.000000	64.616060 
2402.000000	64.601492 
2401.000000	64.586663 
2400.000000	64.573097 
2399.000000	64.561843 
2398.000000	64.553213 
2397.000000	64.546799 
2396.000000	64.541530 
2395.000000	64.536094 
2394.000000	64.529395 
2393.000000	64.520740 
2392.000000	64.510273 
2391.000000	64.498853 
2390.000000	64.487886 
2389.000000	64.479136 
2388.000000	64.474296 
2387.000000	64.474868 
2386.000000	64.481854 
2385.000000	64.495611 
2384.000000	64.515805 
2383.000000	64.541268 
2382.000000	64.570283 
2381.000000	64.600467 
2380.000000	64.629125 
2379.000000	64.653396 
2378.000000	64.670705 
2377.000000	64.679026 
2376.000000	64.677309 
2375.000000	64.665508 
2374.000000	64.644885 
2373.000000	64.617681 
2372.000000	64.586615 
2371.000000	64.554595 
2370.000000	64.524459 
2369.000000	64.498424 
2368.000000	64.477968 
2367.000000	64.463829 
2366.000000	64.456129 
2365.000000	64.454174 
2364.000000	64.456820 
2363.000000	64.462447 
2362.000000	64.469265 
2361.000000	64.475631 
2360.000000	64.480137 
2359.000000	64.481687 
2358.000000	64.479923 
2357.000000	64.474940 
2356.000000	64.467573 
2355.000000	64.458942 
2354.000000	64.450311 
2353.000000	64.443039 
2352.000000	64.438152 
2351.000000	64.436268 
2350.000000	64.437675 
2349.000000	64.442515 
2348.000000	64.450550 
2347.000000	64.461445 
2346.000000	64.474463 
2345.000000	64.488649 
2344.000000	64.502835 
2343.000000	64.515638 
2342.000000	64.525842 
2341.000000	64.532494 
2340.000000	64.535355 
2339.000000	64.534950 
2338.000000	64.532351 
2337.000000	64.529156 
2336.000000	64.526963 
2335.000000	64.527153 
2334.000000	64.530324 
2333.000000	64.536380 
2332.000000	64.544296 
2331.000000	64.552664 
2330.000000	64.560055 
2329.000000	64.565229 
2328.000000	64.567589 
2327.000000	64.566922 
2326.000000	64.563536 
2325.000000	64.558148 
2324.000000	64.551401 
2323.000000	64.544057 
2322.000000	64.536809 
2321.000000	64.530348 
2320.000000	64.525437 
2319.000000	64.522552 
2318.000000	64.522147 
2317.000000	64.524078 
2316.000000	64.527630 
2315.000000	64.531803 
2314.000000	64.535284 
2313.000000	64.536905 
2312.000000	64.535832 
2311.000000	64.531755 
2310.000000	64.525008 
2309.000000	64.516472 
2308.000000	64.507317 
2307.000000	64.498424 
2306.000000	64.490246 
2305.000000	64.482688 
2304.000000	64.475178 
2303.000000	64.466977 
2302.000000	64.457488 
2301.000000	64.446640 
2300.000000	64.435148 
2299.000000	64.424324 
2298.000000	64.415788 
2297.000000	64.411115 
2296.000000	64.411330 
2295.000000	64.416599 
2294.000000	64.426064 
2293.000000	64.438199 
2292.000000	64.450669 
2291.000000	64.460992 
2290.000000	64.467167 
2289.000000	64.467930 
2288.000000	64.463257 
2287.000000	64.454221 
2286.000000	64.443039 
2285.000000	64.432382 
2284.000000	64.424967 
2283.000000	64.422965 
2282.000000	64.427566 
2281.000000	64.438605 
2280.000000	64.454555 
2279.000000	64.473032 
2278.000000	64.491033 
2277.000000	64.505696 
2276.000000	64.514827 
2275.000000	64.517593 
2274.000000	64.514350 
2273.000000	64.506578 
2272.000000	64.496469 
2271.000000	64.486408 
2270.000000	64.478445 
2269.000000	64.473938 
2268.000000	64.473342 
2267.000000	64.476394 
2266.000000	64.482307 
2265.000000	64.490222 
2264.000000	64.499139 
2263.000000	64.508152 
2262.000000	64.516711 
2261.000000	64.524316 
2260.000000	64.530491 
2259.000000	64.534759 
2258.000000	64.536619 
2257.000000	64.535498 
2256.000000	64.530825 
2255.000000	64.522361 
2254.000000	64.510297 
2253.000000	64.495158 
2252.000000	64.477968 
2251.000000	64.459896 
2250.000000	64.442157 
2249.000000	64.425969 
2248.000000	64.412379 
2247.000000	64.402008 
2246.000000	64.395165 
2245.000000	64.392018 
2244.000000	64.392614 
2243.000000	64.396858 
2242.000000	64.404726 
2241.000000	64.415955 
2240.000000	64.430308 
2239.000000	64.447259 
2238.000000	64.466190 
2237.000000	64.486074 
2236.000000	64.506053 
2235.000000	64.525246 
2234.000000	64.543151 
2233.000000	64.559578 
2232.000000	64.574670 
2231.000000	64.588832 
2230.000000	64.602351 
2229.000000	64.615058 
2228.000000	64.626216 
2227.000000	64.634561 
2226.000000	64.638328 
2225.000000	64.635682 
2224.000000	64.625287 
2223.000000	64.606690 
2222.000000	64.580559 
2221.000000	64.548826 
2220.000000	64.514350 
2219.000000	64.480614 
2218.000000	64.450836 
2217.000000	64.427733 
2216.000000	64.412832 
2215.000000	64.406442 
2214.000000	64.407801 
2213.000000	64.415407 
2212.000000	64.427065 
2211.000000	64.440679 
2210.000000	64.454364 
2209.000000	64.466691 
2208.000000	64.476609 
2207.000000	64.483809 
2206.000000	64.488220 
2205.000000	64.490270 
2204.000000	64.490604 
2203.000000	64.489912 
2202.000000	64.488887 
2201.000000	64.488077 
2200.000000	64.487838 
2199.000000	64.488291 
2198.000000	64.489245 
2197.000000	64.490318 
2196.000000	64.490938 
2195.000000	64.490485 
2194.000000	64.488244 
2193.000000	64.483523 
2192.000000	64.475917 
2191.000000	64.465117 
2190.000000	64.451098 
2189.000000	64.434266 
2188.000000	64.415383 
2187.000000	64.395380 
2186.000000	64.375448 
2185.000000	64.356827 
2184.000000	64.340901 
2183.000000	64.328742 
2182.000000	64.321184 
2181.000000	64.318609 
2180.000000	64.320945 
2179.000000	64.327621 
2178.000000	64.337825 
2177.000000	64.350295 
2176.000000	64.363932 
2175.000000	64.377689 
2174.000000	64.390802 
2173.000000	64.402747 
2172.000000	64.413285 
2171.000000	64.422249 
2170.000000	64.429450 
2169.000000	64.434623 
2168.000000	64.437484 
2167.000000	64.437675 
2166.000000	64.435029 
2165.000000	64.429545 
2164.000000	64.421558 
2163.000000	64.411640 
2162.000000	64.400577 
2161.000000	64.389038 
2160.000000	64.377593 
2159.000000	64.366555 
2158.000000	64.355969 
2157.000000	64.345908 
2156.000000	64.336562 
2155.000000	64.328479 
2154.000000	64.322495 
2153.000000	64.319729 
2152.000000	64.321303 
2151.000000	64.327907 
2150.000000	64.339494 
2149.000000	64.355230 
2148.000000	64.373445 
2147.000000	64.392042 
2146.000000	64.408659 
2145.000000	64.421463 
2144.000000	64.429259 
2143.000000	64.431810 
2142.000000	64.429521 
2141.000000	64.423513 
2140.000000	64.414978 
2139.000000	64.405035 
2138.000000	64.394450 
2137.000000	64.383792 
2136.000000	64.373517 
2135.000000	64.364004 
2134.000000	64.355969 
2133.000000	64.350366 
2132.000000	64.348196 
2131.000000	64.350080 
2130.000000	64.356112 
2129.000000	64.365530 
2128.000000	64.376878 
2127.000000	64.388108 
2126.000000	64.397311 
2125.000000	64.403033 
2124.000000	64.404749 
2123.000000	64.403033 
2122.000000	64.399480 
2121.000000	64.396119 
2120.000000	64.394879 
2119.000000	64.397025 
2118.000000	64.403009 
2117.000000	64.412236 
2116.000000	64.423394 
2115.000000	64.434719 
2114.000000	64.444828 
2113.000000	64.452719 
2112.000000	64.458107 
2111.000000	64.460873 
2110.000000	64.460945 
2109.000000	64.457941 
2108.000000	64.451217 
2107.000000	64.440035 
2106.000000	64.423561 
2105.000000	64.401769 
2104.000000	64.375591 
2103.000000	64.347124 
2102.000000	64.319205 
2101.000000	64.294886 
2100.000000	64.276838 
2099.000000	64.266633 
2098.000000	64.264416 
2097.000000	64.268994 
2096.000000	64.278030 
2095.000000	64.288783 
2094.000000	64.298796 
2093.000000	64.306139 
2092.000000	64.309740 
2091.000000	64.309215 
2090.000000	64.304733 
2089.000000	64.296627 
2088.000000	64.285254 
2087.000000	64.271187 
2086.000000	64.255452 
2085.000000	64.239716 
2084.000000	64.226174 
2083.000000	64.217543 
2082.000000	64.216375 
2081.000000	64.224505 
2080.000000	64.242291 
2079.000000	64.268398 
2078.000000	64.300060 
2077.000000	64.333224 
2076.000000	64.363384 
2075.000000	64.386653 
2074.000000	64.400410 
2073.000000	64.403915 
2072.000000	64.398050 
2071.000000	64.384889 
2070.000000	64.367175 
2069.000000	64.347624 
2068.000000	64.328336 
2067.000000	64.310216 
2066.000000	64.293599 
2065.000000	64.278268 
2064.000000	64.263892 
2063.000000	64.250469 
2062.000000	64.238286 
2061.000000	64.228034 
2060.000000	64.220356 
2059.000000	64.215898 
2058.000000	64.214777 
2057.000000	64.216661 
2056.000000	64.220714 
2055.000000	64.226198 
2054.000000	64.232468 
2053.000000	64.239263 
2052.000000	64.246702 
2051.000000	64.255070 
2050.000000	64.264726 
2049.000000	64.275789 
2048.000000	64.287900 
2047.000000	64.300179 
2046.000000	64.311432 
2045.000000	64.320564 
2044.000000	64.326977 
2043.000000	64.330601 
2042.000000	64.332151 
2041.000000	64.332795 
2040.000000	64.333724 
2039.000000	64.336013 
2038.000000	64.339923 
2037.000000	64.344978 
2036.000000	64.349985 
2035.000000	64.353418 
2034.000000	64.353990 
2033.000000	64.351058 
2032.000000	64.344930 
2031.000000	64.337086 
2030.000000	64.329719 
2029.000000	64.325523 
2028.000000	64.326977 
2027.000000	64.335727 
2026.000000	64.352083 
2025.000000	64.375114 
2024.000000	64.402508 
2023.000000	64.431071 
2022.000000	64.457106 
2021.000000	64.477372 
2020.000000	64.489459 
2019.000000	64.492154 
2018.000000	64.485621 
2017.000000	64.471077 
2016.000000	64.450716 
2015.000000	64.427137 
2014.000000	64.402747 
2013.000000	64.379620 
2012.000000	64.358973 
2011.000000	64.341425 
2010.000000	64.326763 
2009.000000	64.314293 
2008.000000	64.302897 
2007.000000	64.291381 
2006.000000	64.278769 
2005.000000	64.264416 
2004.000000	64.248013 
2003.000000	64.229869 
2002.000000	64.210748 
2001.000000	64.191794 
2000.000000	64.174199 
1999.000000	64.159226 
1998.000000	64.147710 
1997.000000	64.140272 
1996.000000	64.137029 
1995.000000	64.137792 
1994.000000	64.142084 
1993.000000	64.149451 
1992.000000	64.159369 
1991.000000	64.171767 
1990.000000	64.186549 
1989.000000	64.203810 
1988.000000	64.223456 
1987.000000	64.244961 
1986.000000	64.267349 
1985.000000	64.289116 
1984.000000	64.308333 
1983.000000	64.323067 
1982.000000	64.331483 
1981.000000	64.332437 
1980.000000	64.325809 
1979.000000	64.312386 
1978.000000	64.293909 
1977.000000	64.272737 
1976.000000	64.251542 
1975.000000	64.232683 
1974.000000	64.217996 
1973.000000	64.208579 
1972.000000	64.204788 
1971.000000	64.206266 
1970.000000	64.212584 
1969.000000	64.222836 
1968.000000	64.236187 
1967.000000	64.251708 
1966.000000	64.268422 
1965.000000	64.285159 
1964.000000	64.300799 
1963.000000	64.314222 
1962.000000	64.324569 
1961.000000	64.331340 
1960.000000	64.334487 
1959.000000	64.334344 
1958.000000	64.331507 
1957.000000	64.326834 
1956.000000	64.321064 
1955.000000	64.314723 
1954.000000	64.308118 
1953.000000	64.301228 
1952.000000	64.294004 
1951.000000	64.286327 
1950.000000	64.278268 
1949.000000	64.269948 
1948.000000	64.261603 
1947.000000	64.253354 
1946.000000	64.245247 
1945.000000	64.237236 
1944.000000	64.228868 
1943.000000	64.219665 
1942.000000	64.209222 
1941.000000	64.197373 
1940.000000	64.184236 
1939.000000	64.170455 
1938.000000	64.156866 
1937.000000	64.144754 
1936.000000	64.135670 
1935.000000	64.131093 
1934.000000	64.132022 
1933.000000	64.139032 
1932.000000	64.151883 
1931.000000	64.169597 
1930.000000	64.190387 
1929.000000	64.212012 
1928.000000	64.232230 
1927.000000	64.249134 
1926.000000	64.261531 
1925.000000	64.269065 
1924.000000	64.272284 
1923.000000	64.272809 
1922.000000	64.272594 
1921.000000	64.273858 
1920.000000	64.278173 
1919.000000	64.286637 
1918.000000	64.299297 
1917.000000	64.315009 
1916.000000	64.331793 
1915.000000	64.347219 
1914.000000	64.358782 
1913.000000	64.364457 
1912.000000	64.363145 
1911.000000	64.354825 
1910.000000	64.340543 
1909.000000	64.322185 
1908.000000	64.301896 
1907.000000	64.281940 
1906.000000	64.264059 
1905.000000	64.249372 
1904.000000	64.238429 
1903.000000	64.231181 
1902.000000	64.227437 
1901.000000	64.227032 
1900.000000	64.229774 
1899.000000	64.235663 
1898.000000	64.244914 
1897.000000	64.257717 
1896.000000	64.273762 
1895.000000	64.292263 
1894.000000	64.311981 
1893.000000	64.331245 
1892.000000	64.348125 
1891.000000	64.361095 
1890.000000	64.369082 
1889.000000	64.371585 
1888.000000	64.369058 
1887.000000	64.362454 
1886.000000	64.353156 
1885.000000	64.342308 
1884.000000	64.331078 
1883.000000	64.320158 
1882.000000	64.309930 
1881.000000	64.300632 
1880.000000	64.292478 
1879.000000	64.285683 
1878.000000	64.280605 
1877.000000	64.277529 
1876.000000	64.276456 
1875.000000	64.277029 
1874.000000	64.278244 
1873.000000	64.278769 
1872.000000	64.277052 
1871.000000	64.271712 
1870.000000	64.261960 
1869.000000	64.247703 
1868.000000	64.229774 
1867.000000	64.209747 
1866.000000	64.189529 
1865.000000	64.170885 
1864.000000	64.155101 
1863.000000	64.142870 
1862.000000	64.134192 
1861.000000	64.128589 
1860.000000	64.125418 
1859.000000	64.124417 
1858.000000	64.125537 
1857.000000	64.129185 
1856.000000	64.135813 
1855.000000	64.145731 
1854.000000	64.158678 
1853.000000	64.173507 
1852.000000	64.188337 
1851.000000	64.200878 
1850.000000	64.208912 
1849.000000	64.210891 
1848.000000	64.206218 
1847.000000	64.195609 
1846.000000	64.180898 
1845.000000	64.164733 
1844.000000	64.149904 
1843.000000	64.138770 
1842.000000	64.132666 
1841.000000	64.131951 
1840.000000	64.135622 
1839.000000	64.142131 
1838.000000	64.149594 
1837.000000	64.156484 
1836.000000	64.161849 
1835.000000	64.165520 
1834.000000	64.168047 
1833.000000	64.170336 
1832.000000	64.173078 
1831.000000	64.176344 
1830.000000	64.179515 
1829.000000	64.181256 
1828.000000	64.179849 
1827.000000	64.173626 
1826.000000	64.161705 
1825.000000	64.144325 
1824.000000	64.123129 
1823.000000	64.100909 
1822.000000	64.081001 
1821.000000	64.066863 
1820.000000	64.061164 
1819.000000	64.065146 
1818.000000	64.078402 
1817.000000	64.099001 
1816.000000	64.124011 
1815.000000	64.149904 
1814.000000	64.173340 
1813.000000	64.191651 
1812.000000	64.203000 
1811.000000	64.206695 
1810.000000	64.203095 
1809.000000	64.193081 
1808.000000	64.178061 
1807.000000	64.159536 
1806.000000	64.139080 
1805.000000	64.118313 
1804.000000	64.098787 
1803.000000	64.081954 
1802.000000	64.069223 
1801.000000	64.061617 
1800.000000	64.059805 
1799.000000	64.063882 
1798.000000	64.073276 
1797.000000	64.086699 
1796.000000	64.102435 
1795.000000	64.118361 
1794.000000	64.132547 
1793.000000	64.143395 
1792.000000	64.149904 
1791.000000	64.151930 
1790.000000	64.149975 
1789.000000	64.145135 
1788.000000	64.138793 
1787.000000	64.132165 
1786.000000	64.126300 
1785.000000	64.121484 
1784.000000	64.117503 
1783.000000	64.113497 
1782.000000	64.108610 
1781.000000	64.101910 
1780.000000	64.092874 
1779.000000	64.081573 
1778.000000	64.068675 
1777.000000	64.055633 
1776.000000	64.043879 
1775.000000	64.035058 
1774.000000	64.030408 
1773.000000	64.030361 
1772.000000	64.034748 
1771.000000	64.042568 
1770.000000	64.052510 
1769.000000	64.062929 
1768.000000	64.072418 
1767.000000	64.080023 
1766.000000	64.085173 
1765.000000	64.087700 
1764.000000	64.087820 
1763.000000	64.085745 
1762.000000	64.081692 
1761.000000	64.075636 
1760.000000	64.067196 
1759.000000	64.055848 
1758.000000	64.040970 
1757.000000	64.022088 
1756.000000	63.999271 
1755.000000	63.973140 
1754.000000	63.944864 
1753.000000	63.916063 
1752.000000	63.888669 
1751.000000	63.864231 
1750.000000	63.843917 
1749.000000	63.828206 
1748.000000	63.816761 
1747.000000	63.808703 
1746.000000	63.803005 
1745.000000	63.798522 
1744.000000	63.794565 
1743.000000	63.790893 
1742.000000	63.787817 
1741.000000	63.785910 
1740.000000	63.785839 
1739.000000	63.788032 
1738.000000	63.792562 
1737.000000	63.799071 
1736.000000	63.806939 
1735.000000	63.815426 
1734.000000	63.824057 
1733.000000	63.832354 
1732.000000	63.839983 
1731.000000	63.846611 
1730.000000	63.851857 
1729.000000	63.855218 
1728.000000	63.856315 
1727.000000	63.854813 
1726.000000	63.850855 
1725.000000	63.845109 
1724.000000	63.838458 
1723.000000	63.832283 
1722.000000	63.828110 
1721.000000	63.827061 
1720.000000	63.829636 
1719.000000	63.835501 
1718.000000	63.843607 
1717.000000	63.852334 
1716.000000	63.859772 
1715.000000	63.864231 
1714.000000	63.864684 
1713.000000	63.860893 
1712.000000	63.853526 
1711.000000	63.843894 
1710.000000	63.833761 
1709.000000	63.824963 
1708.000000	63.819074 
1707.000000	63.817143 
1706.000000	63.819479 
1705.000000	63.825726 
1704.000000	63.834857 
1703.000000	63.845491 
1702.000000	63.856244 
1701.000000	63.866043 
1700.000000	63.874220 
1699.000000	63.880801 
1698.000000	63.886308 
1697.000000	63.891267 
1696.000000	63.896369 
1695.000000	63.902044 
1694.000000	63.908386 
1693.000000	63.914990 
1692.000000	63.921356 
1691.000000	63.926887 
1690.000000	63.930892 
1689.000000	63.932800 
1688.000000	63.931965 
1687.000000	63.927984 
1686.000000	63.920569 
1685.000000	63.909697 
1684.000000	63.895630 
1683.000000	63.878798 
1682.000000	63.860058 
1681.000000	63.840484 
1680.000000	63.821363 
1679.000000	63.803935 
1678.000000	63.789200 
1677.000000	63.777947 
1676.000000	63.770413 
1675.000000	63.766813 
1674.000000	63.766837 
1673.000000	63.770365 
1672.000000	63.777112 
1671.000000	63.787055 
1670.000000	63.800215 
1669.000000	63.816881 
1668.000000	63.836836 
1667.000000	63.859653 
1666.000000	63.884329 
1665.000000	63.909244 
1664.000000	63.932299 
1663.000000	63.950920 
1662.000000	63.962602 
1661.000000	63.965201 
1660.000000	63.957524 
1659.000000	63.939785 
1658.000000	63.913464 
1657.000000	63.881492 
1656.000000	63.847804 
1655.000000	63.816714 
1654.000000	63.792133 
1653.000000	63.776969 
1652.000000	63.772726 
1651.000000	63.779139 
1650.000000	63.794112 
1649.000000	63.814568 
1648.000000	63.836550 
1647.000000	63.856339 
1646.000000	63.870644 
1645.000000	63.877248 
1644.000000	63.875269 
1643.000000	63.865184 
1642.000000	63.848686 
1641.000000	63.828039 
1640.000000	63.806152 
1639.000000	63.785791 
1638.000000	63.769602 
1637.000000	63.759517 
1636.000000	63.756799 
1635.000000	63.762164 
1634.000000	63.775444 
1633.000000	63.795828 
1632.000000	63.821816 
1631.000000	63.851475 
1630.000000	63.882637 
1629.000000	63.913083 
1628.000000	63.940834 
1627.000000	63.964509 
1626.000000	63.983535 
1625.000000	63.997840 
1624.000000	64.008235 
1623.000000	64.015650 
1622.000000	64.021372 
1621.000000	64.025926 
1620.000000	64.029169 
1619.000000	64.029812 
1618.000000	64.026308 
1617.000000	64.016652 
1616.000000	63.999342 
1615.000000	63.973617 
1614.000000	63.940119 
1613.000000	63.900613 
1612.000000	63.857746 
1611.000000	63.814806 
1610.000000	63.774967 
1609.000000	63.741064 
1608.000000	63.715195 
1607.000000	63.698720 
1606.000000	63.692140 
1605.000000	63.695311 
1604.000000	63.707137 
1603.000000	63.725805 
1602.000000	63.748788 
1601.000000	63.772892 
1600.000000	63.794875 
1599.000000	63.811206 
1598.000000	63.819265 
1597.000000	63.817739 
1596.000000	63.807225 
1595.000000	63.790011 
1594.000000	63.769817 
1593.000000	63.751339 
1592.000000	63.739275 
1591.000000	63.737225 
1590.000000	63.747167 
1589.000000	63.768815 
1588.000000	63.799834 
1587.000000	63.836359 
1586.000000	63.873934 
1585.000000	63.908290 
1584.000000	63.936352 
1583.000000	63.956594 
1582.000000	63.969039 
1581.000000	63.974952 
1580.000000	63.976407 
1579.000000	63.975477 
1578.000000	63.973736 
1577.000000	63.971662 
1576.000000	63.968944 
1575.000000	63.964319 
1574.000000	63.956212 
1573.000000	63.942909 
1572.000000	63.923287 
1571.000000	63.897204 
1570.000000	63.865756 
1569.000000	63.831353 
1568.000000	63.797235 
1567.000000	63.767290 
1566.000000	63.745141 
1565.000000	63.733625 
1564.000000	63.733959 
1563.000000	63.745594 
1562.000000	63.766074 
1561.000000	63.791680 
1560.000000	63.817787 
1559.000000	63.840103 
1558.000000	63.855266 
1557.000000	63.861560 
1556.000000	63.858771 
1555.000000	63.848280 
1554.000000	63.832402 
1553.000000	63.813519 
1552.000000	63.793754 
1551.000000	63.774347 
1550.000000	63.756132 
1549.000000	63.739395 
1548.000000	63.724684 
1547.000000	63.712954 
1546.000000	63.705682 
1545.000000	63.704729 
1544.000000	63.711762 
1543.000000	63.727378 
1542.000000	63.750791 
1541.000000	63.779544 
1540.000000	63.810014 
1539.000000	63.837885 
1538.000000	63.859462 
1537.000000	63.872241 
1536.000000	63.875699 
1535.000000	63.870596 
1534.000000	63.859391 
1533.000000	63.844990 
1532.000000	63.830590 
1531.000000	63.819074 
1530.000000	63.812446 
1529.000000	63.811755 
1528.000000	63.817071 
1527.000000	63.827562 
1526.000000	63.841772 
1525.000000	63.857650 
1524.000000	63.873291 
1523.000000	63.887190 
1522.000000	63.898301 
1521.000000	63.906216 
1520.000000	63.911032 
1519.000000	63.913083 
1518.000000	63.912987 
1517.000000	63.911414 
1516.000000	63.909006 
1515.000000	63.906240 
1514.000000	63.903617 
1513.000000	63.901472 
1512.000000	63.900089 
1511.000000	63.899564 
1510.000000	63.899874 
1509.000000	63.900518 
1508.000000	63.900780 
1507.000000	63.899660 
1506.000000	63.896083 
1505.000000	63.889312 
1504.000000	63.879299 
1503.000000	63.866686 
1502.000000	63.852572 
1501.000000	63.838052 
1500.000000	63.823914 
1499.000000	63.810181 
1498.000000	63.796138 
1497.000000	63.780760 
1496.000000	63.763332 
1495.000000	63.743638 
1494.000000	63.722395 
1493.000000	63.701176 
1492.000000	63.682055 
1491.000000	63.666939 
1490.000000	63.657212 
1489.000000	63.653111 
1488.000000	63.653993 
1487.000000	63.658285 
1486.000000	63.664340 
1485.000000	63.670516 
1484.000000	63.675880 
1483.000000	63.680291 
1482.000000	63.684058 
1481.000000	63.687634 
1480.000000	63.691067 
1479.000000	63.694000 
1478.000000	63.695526 
1477.000000	63.694429 
1476.000000	63.689446 
1475.000000	63.679981 
1474.000000	63.665795 
1473.000000	63.647198 
1472.000000	63.624954 
1471.000000	63.600111 
1470.000000	63.573884 
1469.000000	63.547515 
1468.000000	63.522458 
1467.000000	63.500499 
1466.000000	63.483524 
1465.000000	63.473415 
1464.000000	63.471746 
1463.000000	63.479375 
1462.000000	63.495874 
1461.000000	63.519692 
1460.000000	63.547992 
1459.000000	63.577270 
1458.000000	63.604068 
1457.000000	63.625574 
1456.000000	63.640117 
1455.000000	63.647603 
1454.000000	63.649034 
1453.000000	63.646292 
1452.000000	63.641500 
1451.000000	63.636732 
1450.000000	63.633608 
1449.000000	63.633251 
1448.000000	63.636302 
1447.000000	63.642954 
1446.000000	63.653206 
1445.000000	63.666796 
1444.000000	63.683295 
1443.000000	63.702106 
1442.000000	63.722443 
1441.000000	63.743305 
1440.000000	63.763403 
1439.000000	63.781452 
1438.000000	63.796257 
1437.000000	63.806867 
1436.000000	63.812708 
1435.000000	63.813614 
1434.000000	63.809514 
1433.000000	63.801050 
1432.000000	63.789129 
1431.000000	63.775062 
1430.000000	63.760590 
1429.000000	63.747525 
1428.000000	63.737463 
1427.000000	63.731503 
1426.000000	63.729858 
1425.000000	63.731789 
1424.000000	63.735818 
1423.000000	63.740205 
1422.000000	63.743162 
1421.000000	63.743329 
1420.000000	63.739848 
1419.000000	63.732409 
1418.000000	63.721084 
1417.000000	63.706207 
1416.000000	63.688039 
1415.000000	63.666915 
1414.000000	63.643145 
1413.000000	63.617253 
1412.000000	63.589978 
1411.000000	63.562679 
1410.000000	63.537001 
1409.000000	63.514709 
1408.000000	63.497447 
1407.000000	63.486409 
1406.000000	63.481807 
1405.000000	63.483309 
1404.000000	63.489723 
1403.000000	63.499665 
1402.000000	63.511490 
1401.000000	63.524055 
1400.000000	63.536405 
1399.000000	63.548231 
1398.000000	63.559341 
1397.000000	63.569760 
1396.000000	63.579583 
1395.000000	63.588666 
1394.000000	63.596677 
1393.000000	63.602900 
1392.000000	63.606452 
1391.000000	63.606524 
1390.000000	63.602590 
1389.000000	63.594722 
1388.000000	63.583564 
1387.000000	63.570475 
1386.000000	63.557100 
1385.000000	63.545060 
1384.000000	63.535690 
1383.000000	63.529658 
1382.000000	63.527202 
1381.000000	63.527679 
1380.000000	63.530182 
1379.000000	63.533878 
1378.000000	63.538312 
1377.000000	63.543200 
1376.000000	63.548707 
1375.000000	63.555121 
1374.000000	63.562345 
1373.000000	63.569808 
1372.000000	63.576197 
1371.000000	63.580036 
1370.000000	63.579797 
1369.000000	63.574624 
1368.000000	63.564658 
1367.000000	63.551235 
1366.000000	63.536405 
1365.000000	63.522410 
1364.000000	63.510894 
1363.000000	63.502621 
1362.000000	63.497018 
1361.000000	63.492417 
1360.000000	63.486814 
1359.000000	63.478636 
1358.000000	63.467431 
1357.000000	63.454222 
1356.000000	63.441514 
1355.000000	63.432598 
1354.000000	63.430643 
1353.000000	63.437795 
1352.000000	63.454318 
1351.000000	63.478636 
1350.000000	63.507509 
1349.000000	63.537073 
1348.000000	63.563489 
1347.000000	63.584160 
1346.000000	63.598060 
1345.000000	63.605904 
1344.000000	63.609433 
1343.000000	63.611030 
1342.000000	63.612771 
1341.000000	63.615846 
1340.000000	63.620495 
1339.000000	63.625860 
1338.000000	63.630723 
1337.000000	63.633799 
1336.000000	63.634514 
1335.000000	63.633036 
1334.000000	63.630199 
1333.000000	63.627386 
1332.000000	63.626050 
1331.000000	63.627290 
1330.000000	63.631391 
1329.000000	63.638043 
1328.000000	63.646221 
1327.000000	63.654661 
1326.000000	63.662004 
1325.000000	63.667130 
1324.000000	63.669109 
1323.000000	63.667249 
1322.000000	63.661122 
1321.000000	63.650488 
1320.000000	63.635373 
1319.000000	63.616180 
1318.000000	63.593626 
1317.000000	63.568878 
1316.000000	63.543343 
1315.000000	63.518786 
1314.000000	63.496875 
1313.000000	63.478803 
1312.000000	63.465523 
1311.000000	63.457584 
1310.000000	63.455176 
1309.000000	63.458251 
1308.000000	63.466525 
1307.000000	63.479518 
1306.000000	63.496327 
1305.000000	63.515400 
1304.000000	63.534569 
1303.000000	63.551211 
1302.000000	63.562440 
1301.000000	63.565945 
1300.000000	63.560247 
1299.000000	63.545393 
1298.000000	63.523173 
1297.000000	63.496971 
1296.000000	63.470840 
1295.000000	63.448762 
1294.000000	63.433766 
1293.000000	63.426971 
1292.000000	63.427543 
1291.000000	63.432979 
1290.000000	63.439750 
1289.000000	63.444280 
1288.000000	63.444161 
1287.000000	63.438391 
1286.000000	63.427805 
1285.000000	63.414454 
1284.000000	63.400769 
1283.000000	63.388824 
1282.000000	63.379693 
1281.000000	63.373303 
1280.000000	63.368511 
1279.000000	63.363885 
1278.000000	63.358449 
1277.000000	63.351988 
1276.000000	63.345408 
1275.000000	63.340377 
1274.000000	63.338994 
1273.000000	63.342928 
1272.000000	63.353109 
1271.000000	63.369035 
1270.000000	63.388895 
1269.000000	63.409805 
1268.000000	63.428640 
1267.000000	63.442444 
1266.000000	63.449168 
1265.000000	63.447761 
1264.000000	63.438558 
1263.000000	63.422942 
1262.000000	63.403129 
1261.000000	63.381671 
1260.000000	63.361167 
1259.000000	63.343906 
1258.000000	63.331699 
1257.000000	63.325548 
1256.000000	63.326001 
1255.000000	63.332915 
1254.000000	63.345623 
1253.000000	63.363242 
1252.000000	63.384556 
1251.000000	63.408207 
1250.000000	63.432455 
1249.000000	63.455367 
1248.000000	63.474941 
1247.000000	63.489460 
1246.000000	63.497781 
1245.000000	63.499546 
1244.000000	63.495469 
1243.000000	63.487005 
1242.000000	63.476490 
1241.000000	63.466286 
1240.000000	63.458490 
1239.000000	63.454222 
1238.000000	63.453507 
1237.000000	63.455271 
1236.000000	63.457417 
1235.000000	63.457822 
1234.000000	63.454890 
1233.000000	63.448023 
1232.000000	63.438034 
1231.000000	63.426804 
1230.000000	63.416838 
1229.000000	63.410758 
1228.000000	63.410401 
1227.000000	63.416528 
1226.000000	63.428449 
1225.000000	63.444352 
1224.000000	63.461732 
1223.000000	63.478183 
1222.000000	63.491678 
1221.000000	63.501024 
1220.000000	63.505601 
1219.000000	63.505578 
1218.000000	63.501477 
1217.000000	63.493776 
1216.000000	63.482570 
1215.000000	63.468146 
1214.000000	63.450789 
1213.000000	63.431215 
1212.000000	63.410401 
1211.000000	63.389730 
1210.000000	63.370919 
1209.000000	63.355445 
1208.000000	63.344478 
1207.000000	63.338565 
1206.000000	63.337659 
1205.000000	63.341116 
1204.000000	63.348197 
1203.000000	63.358068 
1202.000000	63.370013 
1201.000000	63.383340 
1200.000000	63.397240 
1199.000000	63.410472 
1198.000000	63.421463 
1197.000000	63.428258 
1196.000000	63.429045 
1195.000000	63.422489 
1194.000000	63.408303 
1193.000000	63.387441 
1192.000000	63.362288 
1191.000000	63.335990 
1190.000000	63.311982 
1189.000000	63.293123 
1188.000000	63.281273 
1187.000000	63.276839 
1186.000000	63.278841 
1185.000000	63.285207 
1184.000000	63.293433 
1183.000000	63.301205 
1182.000000	63.306999 
1181.000000	63.310074 
1180.000000	63.310456 
1179.000000	63.308906 
1178.000000	63.306379 
1177.000000	63.303804 
1176.000000	63.301873 
1175.000000	63.301086 
1174.000000	63.301658 
1173.000000	63.303661 
1172.000000	63.306832 
1171.000000	63.310718 
1170.000000	63.314628 
1169.000000	63.317704 
1168.000000	63.319039 
1167.000000	63.317942 
1166.000000	63.313961 
1165.000000	63.307237 
1164.000000	63.298702 
1163.000000	63.289642 
1162.000000	63.281559 
1161.000000	63.275814 
1160.000000	63.273477 
1159.000000	63.274908 
1158.000000	63.279843 
1157.000000	63.287401 
1156.000000	63.296604 
1155.000000	63.306474 
1154.000000	63.316273 
1153.000000	63.325548 
1152.000000	63.334035 
1151.000000	63.341498 
1150.000000	63.347649 
1149.000000	63.352060 
1148.000000	63.354301 
1147.000000	63.353872 
1146.000000	63.351058 
1145.000000	63.346695 
1144.000000	63.342261 
1143.000000	63.339471 
1142.000000	63.339686 
1141.000000	63.343453 
1140.000000	63.349962 
1139.000000	63.357329 
1138.000000	63.363099 
1137.000000	63.364934 
1136.000000	63.361239 
1135.000000	63.351845 
1134.000000	63.337850 
1133.000000	63.321805 
1132.000000	63.306856 
1131.000000	63.296389 
1130.000000	63.293576 
1129.000000	63.300514 
1128.000000	63.318109 
1127.000000	63.345265 
1126.000000	63.379192 
1125.000000	63.415384 
1124.000000	63.448619 
1123.000000	63.473773 
1122.000000	63.486886 
1121.000000	63.485884 
1120.000000	63.471078 
1119.000000	63.444614 
1118.000000	63.409972 
1117.000000	63.371253 
1116.000000	63.332223 
1115.000000	63.295912 
1114.000000	63.264179 
1113.000000	63.238000 
1112.000000	63.217377 
1111.000000	63.201808 
1110.000000	63.190841 
1109.000000	63.183665 
1108.000000	63.179993 
1107.000000	63.179421 
1106.000000	63.181948 
1105.000000	63.187265 
1104.000000	63.194990 
1103.000000	63.204240 
1102.000000	63.213944 
1101.000000	63.222789 
1100.000000	63.229870 
1099.000000	63.234591 
1098.000000	63.237166 
1097.000000	63.238453 
1096.000000	63.239836 
1095.000000	63.242840 
1094.000000	63.248777 
1093.000000	63.258385 
1092.000000	63.271784 
1091.000000	63.288211 
1090.000000	63.306355 
1089.000000	63.324308 
1088.000000	63.339781 
1087.000000	63.350486 
1086.000000	63.354492 
1085.000000	63.350772 
1084.000000	63.339304 
1083.000000	63.321423 
1082.000000	63.299679 
1081.000000	63.277769 
1080.000000	63.259434 
1079.000000	63.248181 
1078.000000	63.246369 
1077.000000	63.254737 
1076.000000	63.272476 
1075.000000	63.297057 
1074.000000	63.324785 
1073.000000	63.351607 
1072.000000	63.373947 
1071.000000	63.389396 
1070.000000	63.396859 
1069.000000	63.396883 
1068.000000	63.391423 
1067.000000	63.383126 
1066.000000	63.374757 
1065.000000	63.368678 
1064.000000	63.366365 
1063.000000	63.368105 
1062.000000	63.372969 
1061.000000	63.379001 
1060.000000	63.383722 
1059.000000	63.384556 
1058.000000	63.379621 
1057.000000	63.368272 
1056.000000	63.351011 
1055.000000	63.329792 
1054.000000	63.306903 
1053.000000	63.284778 
1052.000000	63.265085 
1051.000000	63.248538 
1050.000000	63.234567 
1049.000000	63.221669 
1048.000000	63.207960 
1047.000000	63.191890 
1046.000000	63.172817 
1045.000000	63.151240 
1044.000000	63.128590 
1043.000000	63.106822 
1042.000000	63.087892 
1041.000000	63.073229 
1040.000000	63.063430 
1039.000000	63.058066 
1038.000000	63.056302 
1037.000000	63.057088 
1036.000000	63.059687 
1035.000000	63.063955 
1034.000000	63.069725 
1033.000000	63.076972 
1032.000000	63.085198 
1031.000000	63.093662 
1030.000000	63.101148 
1029.000000	63.106608 
1028.000000	63.109564 
1027.000000	63.110423 
1026.000000	63.110661 
1025.000000	63.112378 
1024.000000	63.118028 
1023.000000	63.129377 
1022.000000	63.146758 
1021.000000	63.168835 
1020.000000	63.192772 
1019.000000	63.214898 
1018.000000	63.231611 
1017.000000	63.240480 
1016.000000	63.241076 
1015.000000	63.235044 
1014.000000	63.225698 
1013.000000	63.217306 
1012.000000	63.213968 
1011.000000	63.218474 
1010.000000	63.231682 
1009.000000	63.252520 
1008.000000	63.278365 
1007.000000	63.305687 
1006.000000	63.331055 
1005.000000	63.351678 
1004.000000	63.365936 
1003.000000	63.373637 
1002.000000	63.375806 
1001.000000	63.373732 
1000.000000	63.368821 
999.000000	 63.362240 
998.000000	 63.354516 
997.000000	 63.345932 
996.000000	 63.336253 
995.000000	 63.325548 
994.000000	 63.313984 
993.000000	 63.302278 
992.000000	 63.291525 
991.000000	 63.283371 
990.000000	 63.279533 
989.000000	 63.281488 
988.000000	 63.290381 
987.000000	 63.306522 
986.000000	 63.329410 
985.000000	 63.357448 
984.000000	 63.388180 
983.000000	 63.418340 
982.000000	 63.444113 
981.000000	 63.461589 
980.000000	 63.467311 
979.000000	 63.458657 
978.000000	 63.434457 
977.000000	 63.395166 
976.000000	 63.342809 
975.000000	 63.281106 
974.000000	 63.215088 
973.000000	 63.150525 
972.000000	 63.093280 
971.000000	 63.048410 
970.000000	 63.019609 
969.000000	 63.008427 
968.000000	 63.013982 
967.000000	 63.033294 
966.000000	 63.061404 
965.000000	 63.093113 
964.000000	 63.123488 
963.000000	 63.149428 
962.000000	 63.169312 
961.000000	 63.183498 
960.000000	 63.193297 
959.000000	 63.200378 
958.000000	 63.205862 
957.000000	 63.209438 
956.000000	 63.209581 
955.000000	 63.204002 
954.000000	 63.190746 
953.000000	 63.169503 
952.000000	 63.142180 
951.000000	 63.113045 
950.000000	 63.087964 
949.000000	 63.073229 
948.000000	 63.073754 
947.000000	 63.091754 
946.000000	 63.125896 
945.000000	 63.171505 
944.000000	 63.221287 
943.000000	 63.267254 
942.000000	 63.302254 
941.000000	 63.321018 
940.000000	 63.321542 
939.000000	 63.305115 
938.000000	 63.275980 
937.000000	 63.239932 
936.000000	 63.203549 
935.000000	 63.172817 
934.000000	 63.152313 
933.000000	 63.144850 
932.000000	 63.150978 
931.000000	 63.169431 
930.000000	 63.197445 
929.000000	 63.231348 
928.000000	 63.266801 
927.000000	 63.299584 
926.000000	 63.326072 
925.000000	 63.343715 
924.000000	 63.351488 
923.000000	 63.349699 
922.000000	 63.339972 
921.000000	 63.324642 
920.000000	 63.306546 
919.000000	 63.288068 
918.000000	 63.270807 
917.000000	 63.255333 
916.000000	 63.241481 
915.000000	 63.228678 
914.000000	 63.216614 
913.000000	 63.205623 
912.000000	 63.196587 
911.000000	 63.191080 
910.000000	 63.190889 
909.000000	 63.197278 
908.000000	 63.210129 
907.000000	 63.227748 
906.000000	 63.246870 
905.000000	 63.263487 
904.000000	 63.273835 
903.000000	 63.275265 
902.000000	 63.266825 
901.000000	 63.249897 
900.000000	 63.227939 
899.000000	 63.205480 
898.000000	 63.187050 
897.000000	 63.175940 
896.000000	 63.173770 
895.000000	 63.180398 
894.000000	 63.194012 
893.000000	 63.211989 
892.000000	 63.231396 
891.000000	 63.249969 
890.000000	 63.266038 
889.000000	 63.278651 
888.000000	 63.287258 
887.000000	 63.291263 
886.000000	 63.290309 
885.000000	 63.283681 
884.000000	 63.271403 
883.000000	 63.254427 
882.000000	 63.235092 
881.000000	 63.216924 
880.000000	 63.204431 
879.000000	 63.201928 
878.000000	 63.212752 
877.000000	 63.238191 
876.000000	 63.277077 
875.000000	 63.325738 
874.000000	 63.378620 
873.000000	 63.429141 
872.000000	 63.471150 
871.000000	 63.499808 
870.000000	 63.512492 
869.000000	 63.508963 
868.000000	 63.491058 
867.000000	 63.462018 
866.000000	 63.426256 
865.000000	 63.387751 
864.000000	 63.350009 
863.000000	 63.314890 
862.000000	 63.283419 
861.000000	 63.254904 
860.000000	 63.228154 
859.000000	 63.201546 
858.000000	 63.173580 
857.000000	 63.143801 
856.000000	 63.112974 
855.000000	 63.083195 
854.000000	 63.057398 
853.000000	 63.038587 
852.000000	 63.029050 
851.000000	 63.029575 
850.000000	 63.038945 
849.000000	 63.054251 
848.000000	 63.071680 
847.000000	 63.087248 
846.000000	 63.097906 
845.000000	 63.102388 
844.000000	 63.101458 
843.000000	 63.097643 
842.000000	 63.094210 
841.000000	 63.094663 
840.000000	 63.101243 
839.000000	 63.114380 
838.000000	 63.132333 
837.000000	 63.151645 
836.000000	 63.167953 
835.000000	 63.177347 
834.000000	 63.177442 
833.000000	 63.168072 
832.000000	 63.151478 
831.000000	 63.131666 
830.000000	 63.113474 
829.000000	 63.101243 
828.000000	 63.097739 
827.000000	 63.103389 
826.000000	 63.116264 
825.000000	 63.132596 
824.000000	 63.147807 
823.000000	 63.157868 
822.000000	 63.160085 
821.000000	 63.153600 
820.000000	 63.139486 
819.000000	 63.120269 
818.000000	 63.098835 
817.000000	 63.077735 
816.000000	 63.058638 
815.000000	 63.042140 
814.000000	 63.028097 
813.000000	 63.015866 
812.000000	 63.005113 
811.000000	 62.995338 
810.000000	 62.986326 
809.000000	 62.977528 
808.000000	 62.968158 
807.000000	 62.956929 
806.000000	 62.942242 
805.000000	 62.922668 
804.000000	 62.897491 
803.000000	 62.867212 
802.000000	 62.833619 
801.000000	 62.799811 
800.000000	 62.769508 
799.000000	 62.746286 
798.000000	 62.732791 
797.000000	 62.730169 
796.000000	 62.737751 
795.000000	 62.753319 
794.000000	 62.773847 
793.000000	 62.796020 
792.000000	 62.817001 
791.000000	 62.834692 
790.000000	 62.848281 
789.000000	 62.857723 
788.000000	 62.863779 
787.000000	 62.867522 
786.000000	 62.870383 
785.000000	 62.873768 
784.000000	 62.879014 
783.000000	 62.887072 
782.000000	 62.898659 
781.000000	 62.914133 
780.000000	 62.933278 
779.000000	 62.955451 
778.000000	 62.979292 
777.000000	 63.003158 
776.000000	 63.025116 
775.000000	 63.043260 
774.000000	 63.055849 
773.000000	 63.061761 
772.000000	 63.060402 
771.000000	 63.051772 
770.000000	 63.036417 
769.000000	 63.015341 
768.000000	 62.990140 
767.000000	 62.962746 
766.000000	 62.935304 
765.000000	 62.909936 
764.000000	 62.888503 
763.000000	 62.872409 
762.000000	 62.862396 
761.000000	 62.858486 
760.000000	 62.860465 
759.000000	 62.867903 
758.000000	 62.880015 
757.000000	 62.895989 
756.000000	 62.914657 
755.000000	 62.935018 
754.000000	 62.955451 
753.000000	 62.974524 
752.000000	 62.991094 
751.000000	 63.004517 
750.000000	 63.014745 
749.000000	 63.022303 
748.000000	 63.027977 
747.000000	 63.032531 
746.000000	 63.036394 
745.000000	 63.039064 
744.000000	 63.039112 
743.000000	 63.034510 
742.000000	 63.023376 
741.000000	 63.004612 
740.000000	 62.978529 
739.000000	 62.947225 
738.000000	 62.913966 
737.000000	 62.882971 
736.000000	 62.858152 
735.000000	 62.842321 
734.000000	 62.836623 
733.000000	 62.840151 
732.000000	 62.850356 
731.000000	 62.863802 
730.000000	 62.876629 
729.000000	 62.885355 
728.000000	 62.887358 
727.000000	 62.881088 
726.000000	 62.866544 
725.000000	 62.844944 
724.000000	 62.819194 
723.000000	 62.793016 
722.000000	 62.771010 
721.000000	 62.757730 
720.000000	 62.756967 
719.000000	 62.771296 
718.000000	 62.800955 
717.000000	 62.843632 
716.000000	 62.894201 
715.000000	 62.945556 
714.000000	 62.989568 
713.000000	 63.018703 
712.000000	 63.027572 
711.000000	 63.014245 
710.000000	 62.980651 
709.000000	 62.932324 
708.000000	 62.877488 
707.000000	 62.825059 
706.000000	 62.782931 
705.000000	 62.756085 
704.000000	 62.745976 
703.000000	 62.750554 
702.000000	 62.765169 
701.000000	 62.784504 
700.000000	 62.803292 
699.000000	 62.818932 
698.000000	 62.831616 
697.000000	 62.844395 
696.000000	 62.861204 
695.000000	 62.885713 
694.000000	 62.919569 
693.000000	 62.961673 
692.000000	 63.008069 
691.000000	 63.052725 
690.000000	 63.088893 
689.000000	 63.111400 
688.000000	 63.118052 
687.000000	 63.110613 
686.000000	 63.094425 
685.000000	 63.076949 
684.000000	 63.065600 
683.000000	 63.066005 
682.000000	 63.080239 
681.000000	 63.106417 
680.000000	 63.138794 
679.000000	 63.170576 
678.000000	 63.194203 
677.000000	 63.204240 
676.000000	 63.196516 
675.000000	 63.168668 
674.000000	 63.120150 
673.000000	 63.051128 
672.000000	 62.964224 
671.000000	 62.863898 
670.000000	 62.757849 
669.000000	 62.656331 
668.000000	 62.571358 
667.000000	 62.515187 
666.000000	 62.497115 
665.000000	 62.521266 
664.000000	 62.584829 
663.000000	 62.677907 
662.000000	 62.785029 
661.000000	 62.887978 
660.000000	 62.969422 
659.000000	 63.016343 
658.000000	 63.022303 
657.000000	 62.988305 
656.000000	 62.921571 
655.000000	 62.833166 
654.000000	 62.735176 
653.000000	 62.638092 
652.000000	 62.549757 
651.000000	 62.474346 
650.000000	 62.414360 
649.000000	 62.370061 
648.000000	 62.341547 
647.000000	 62.327980 
646.000000	 62.328338 
645.000000	 62.340736 
644.000000	 62.361168 
643.000000	 62.384819 
642.000000	 62.405562 
641.000000	 62.418365 
640.000000	 62.419438 
639.000000	 62.408876 
638.000000	 62.390661 
637.000000	 62.372231 
636.000000	 62.362408 
635.000000	 62.369418 
634.000000	 62.398338 
633.000000	 62.449026 
632.000000	 62.515640 
631.000000	 62.587451 
630.000000	 62.651395 
629.000000	 62.695646 
628.000000	 62.712454 
627.000000	 62.699294 
626.000000	 62.659955 
625.000000	 62.603354 
624.000000	 62.541651 
623.000000	 62.486839 
622.000000	 62.448692 
621.000000	 62.432169 
620.000000	 62.437725 
619.000000	 62.462830 
618.000000	 62.502622 
617.000000	 62.551712 
616.000000	 62.605643 
615.000000	 62.661695 
614.000000	 62.718462 
613.000000	 62.774848 
612.000000	 62.829852 
611.000000	 62.881326 
610.000000	 62.927460 
609.000000	 62.966537 
608.000000	 62.997889 
607.000000	 63.021492 
606.000000	 63.037586 
605.000000	 63.045668 
604.000000	 63.043451 
603.000000	 63.026881 
602.000000	 62.990713 
601.000000	 62.930130 
600.000000	 62.842535 
599.000000	 62.729907 
598.000000	 62.599372 
597.000000	 62.463903 
596.000000	 62.339448 
595.000000	 62.243676 
594.000000	 62.191915 
593.000000	 62.194609 
592.000000	 62.254476 
591.000000	 62.365627 
590.000000	 62.513875 
589.000000	 62.679672 
588.000000	 62.841629 
587.000000	 62.980151 
586.000000	 63.080620 
585.000000	 63.135242 
584.000000	 63.143205 
583.000000	 63.110256 
582.000000	 63.046431 
581.000000	 62.963128 
580.000000	 62.870788 
579.000000	 62.777447 
578.000000	 62.688207 
577.000000	 62.606191 
576.000000	 62.533140 
575.000000	 62.471127 
574.000000	 62.422728 
573.000000	 62.391805 
572.000000	 62.381649 
571.000000	 62.391614 
570.000000	 62.418150 
569.000000	 62.452697 
568.000000	 62.486433 
567.000000	 62.511205 
566.000000	 62.523865 
565.000000	 62.525963 
564.000000	 62.524628 
563.000000	 62.530851 
562.000000	 62.554883 
561.000000	 62.602281 
560.000000	 62.671875 
559.000000	 62.756299 
558.000000	 62.841486 
557.000000	 62.910175 
556.000000	 62.945604 
555.000000	 62.936353 
554.000000	 62.878084 
553.000000	 62.775516 
552.000000	 62.641716 
551.000000	 62.496662 
550.000000	 62.363600 
549.000000	 62.265753 
548.000000	 62.223792 
547.000000	 62.251067 
546.000000	 62.353944 
545.000000	 62.526798 
544.000000	 62.752127 
543.000000	 63.000345 
542.000000	 63.236498 
541.000000	 63.422870 
540.000000	 63.526415 
539.000000	 63.523197 
538.000000	 63.405275 
537.000000	 63.178467 
536.000000	 62.860965 
535.000000	 62.479686 
534.000000	 62.066006 
533.000000	 61.651659 
532.000000	 61.265587 
531.000000	 60.931968 
530.000000	 60.669660 
529.000000	 60.489940 
528.000000	 60.396623 
527.000000	 60.384249 
526.000000	 60.439395 
525.000000	 60.540747 
524.000000	 60.663557 
523.000000	 60.781288 
522.000000	 60.873293 
521.000000	 60.927820 
520.000000	 60.947155 
519.000000	 60.945391 
518.000000	 60.946917 
517.000000	 60.978460 
516.000000	 61.063337 
515.000000	 61.214566 
514.000000	 61.431622 
513.000000	 61.700773 
512.000000	 61.997604 
511.000000	 62.294244 
510.000000	 62.563657 
509.000000	 62.785840 
508.000000	 62.950181 
507.000000	 63.056135 
506.000000	 63.111805 
505.000000	 63.130593 
504.000000	 63.127684 
503.000000	 63.117289 
502.000000	 63.109588 
501.000000	 63.110470 
500.000000	 63.121819 
499.000000	 63.143467 
498.000000	 63.172578 
497.000000	 63.205218 
496.000000	 63.237524 
495.000000	 63.266515 
494.000000	 63.288807 
493.000000	 63.302111 
492.000000	 63.304901 
491.000000	 63.298106 
490.000000	 63.285732 
489.000000	 63.274955 
488.000000	 63.273739 
487.000000	 63.290214 
486.000000	 63.332080 
485.000000	 63.402819 
484.000000	 63.501739 
483.000000	 63.620781 
482.000000	 63.747787 
481.000000	 63.864111 
480.000000	 63.950300 
479.000000	 63.985228 
478.000000	 63.951683 
477.000000	 63.836956 
476.000000	 63.636279 
475.000000	 63.356304 
474.000000	 63.016104 
473.000000	 62.646126 
472.000000	 62.284684 
471.000000	 61.974644 
470.000000	 61.756110 
469.000000	 61.660504 
468.000000	 61.703014 
467.000000	 61.878705 
466.000000	 62.161350 
465.000000	 62.506508 
464.000000	 62.859702 
463.000000	 63.164496 
462.000000	 63.375616 
461.000000	 63.463234 
460.000000	 63.423085 
459.000000	 63.272643 
458.000000	 63.050842 
457.000000	 62.807679 
456.000000	 62.595200 
455.000000	 62.458467 
454.000000	 62.423777 
453.000000	 62.498474 
452.000000	 62.664198 
451.000000	 62.885642 
450.000000	 63.113760 
449.000000	 63.298010 
448.000000	 63.397169 
447.000000	 63.388323 
446.000000	 63.272070 
445.000000	 63.071513 
444.000000	 62.828660 
443.000000	 62.593770 
442.000000	 62.415623 
441.000000	 62.329006 
440.000000	 62.348270 
439.000000	 62.463736 
438.000000	 62.645721 
437.000000	 62.852168 
436.000000	 63.040137 
435.000000	 63.176560 
434.000000	 63.242077 
433.000000	 63.237595 
432.000000	 63.182854 
431.000000	 63.108110 
430.000000	 63.043117 
429.000000	 63.008713 
428.000000	 63.012242 
427.000000	 63.043928 
426.000000	 63.083600 
425.000000	 63.103938 
424.000000	 63.080811 
423.000000	 62.999367 
422.000000	 62.860131 
421.000000	 62.676239 
420.000000	 62.469601 
419.000000	 62.264776 
418.000000	 62.082552 
417.000000	 61.933350 
416.000000	 61.814951 
415.000000	 61.719799 
414.000000	 61.635923 
413.000000	 61.550164 
412.000000	 61.449670 
411.000000	 61.323857 
410.000000	 61.163640 
409.000000	 60.966897 
408.000000	 60.734295 
407.000000	 60.456299 
406.000000	 60.127758 
405.000000	 59.754443 
404.000000	 59.355521 
403.000000	 58.961439 
402.000000	 58.612489 
401.000000	 58.347630 
400.000000	 58.200526 
399.000000	 58.195114 
398.000000	 58.330965 
397.000000	 58.575654 
396.000000	 58.880567 
395.000000	 59.190034 
394.000000	 59.458851 
393.000000	 59.661102 
392.000000	 59.810423 
391.000000	 59.953927 
390.000000	 60.174465 
389.000000	 60.558557 
388.000000	 61.174106 
387.000000	 62.025809 
386.000000	 63.046622 
385.000000	 64.076256 
384.000000	 64.896607 
383.000000	 65.258622 
382.000000	 64.922213 
381.000000	 63.734364 
380.000000	 61.678266 
379.000000	 58.913207 
378.000000	 55.733203 
377.000000	 52.556228 
376.000000	 49.842453 
375.000000	 48.017597 
374.000000	 47.362136 
373.000000	 47.988796 
372.000000	 49.835491 
371.000000	 52.660727 
370.000000	 56.081175 

