PE IR       SPECTRUM    SPECTRUM    ASCII       PEDS        1.60        
  -1
BZ6031~1.ASC
17/04/07
18:52:40.00
17/04/07
18:52:40.00
tln
$BZ1503107-1_t0068$<tbV0>[10.4,2.6,8.0,0.0,27,1,0]
370.000000
64









2002,4.07    
MIRTGS : RIGHTBACK : INTERNAL 2
MIR : ON : INTERNAL 2
OPTKBR

0.200000
8
8.000000
FILLER
RATIO
SPECTRUM
UNLOCKED 256

DOUBLE
64
COMBINED
1
0
0


1.000000
RATIO


1
0
TRUE
51149
0
LEFT NOT FITTED RIGHT NOT FITTED 0
NONE
NONE
15600
12.000000
4.427000
51148
TRUE
1 0 8 72 0 0 0 0 

15798.010000






#HDR
-1
-1
#GR
CM-1
%T
0.00002384185791015625
0.0
5000.000000
-1.000000
4631
8
80.126905
50.494718
#DATA
5000.000000	65.204644 
4999.000000	65.266156 
4998.000000	65.285348 
4997.000000	65.263557 
4996.000000	65.211033 
4995.000000	65.144538 
4994.000000	65.082883 
4993.000000	65.043735 
4992.000000	65.037012 
4991.000000	65.063953 
4990.000000	65.114879 
4989.000000	65.173578 
4988.000000	65.218853 
4987.000000	65.230798 
4986.000000	65.194702 
4985.000000	65.105175 
4984.000000	64.966440 
4983.000000	64.791727 
4982.000000	64.600229 
4981.000000	64.413356 
4980.000000	64.251470 
4979.000000	64.130425 
4978.000000	64.059734 
4977.000000	64.041352 
4976.000000	64.070820 
4975.000000	64.138412 
4974.000000	64.230751 
4973.000000	64.333772 
4972.000000	64.433455 
4971.000000	64.519309 
4970.000000	64.583015 
4969.000000	64.621853 
4968.000000	64.637422 
4967.000000	64.635467 
4966.000000	64.623999 
4965.000000	64.610838 
4964.000000	64.601945 
4963.000000	64.600014 
4962.000000	64.604902 
4961.000000	64.613771 
4960.000000	64.622735 
4959.000000	64.628791 
4958.000000	64.631223 
4957.000000	64.630651 
4956.000000	64.628720 
4955.000000	64.626693 
4954.000000	64.624881 
4953.000000	64.622330 
4952.000000	64.617323 
4951.000000	64.608907 
4950.000000	64.597511 
4949.000000	64.585089 
4948.000000	64.574885 
4947.000000	64.571404 
4946.000000	64.578318 
4945.000000	64.596915 
4944.000000	64.625310 
4943.000000	64.658045 
4942.000000	64.687967 
4941.000000	64.708256 
4940.000000	64.714694 
4939.000000	64.706444 
4938.000000	64.687323 
4937.000000	64.664554 
4936.000000	64.647340 
4935.000000	64.643907 
4934.000000	64.660501 
4933.000000	64.699602 
4932.000000	64.759445 
4931.000000	64.834308 
4930.000000	64.915299 
4929.000000	64.992213 
4928.000000	65.055251 
4927.000000	65.097069 
4926.000000	65.114188 
4925.000000	65.107750 
4924.000000	65.083599 
4923.000000	65.050363 
4922.000000	65.017747 
4921.000000	64.993572 
4920.000000	64.982867 
4919.000000	64.985942 
4918.000000	64.998936 
4917.000000	65.015077 
4916.000000	65.026950 
4915.000000	65.028667 
4914.000000	65.018057 
4913.000000	64.996814 
4912.000000	64.970421 
4911.000000	64.945149 
4910.000000	64.926433 
4909.000000	64.915990 
4908.000000	64.911174 
4907.000000	64.905643 
4906.000000	64.891505 
4905.000000	64.862132 
4904.000000	64.814734 
4903.000000	64.751863 
4902.000000	64.681482 
4901.000000	64.614915 
4900.000000	64.564180 
4899.000000	64.539480 
4898.000000	64.546656 
4897.000000	64.585399 
4896.000000	64.649438 
4895.000000	64.728736 
4894.000000	64.811515 
4893.000000	64.886856 
4892.000000	64.946794 
4891.000000	64.987087 
4890.000000	65.007591 
4889.000000	65.011024 
4888.000000	65.001797 
4887.000000	64.984273 
4886.000000	64.962124 
4885.000000	64.938378 
4884.000000	64.915108 
4883.000000	64.894175 
4882.000000	64.877414 
4881.000000	64.867353 
4880.000000	64.865994 
4879.000000	64.874601 
4878.000000	64.892697 
4877.000000	64.917993 
4876.000000	64.945650 
4875.000000	64.969062 
4874.000000	64.981245 
4873.000000	64.976382 
4872.000000	64.950871 
4871.000000	64.904117 
4870.000000	64.839386 
4869.000000	64.762949 
4868.000000	64.682602 
4867.000000	64.606380 
4866.000000	64.541101 
4865.000000	64.491629 
4864.000000	64.460325 
4863.000000	64.447522 
4862.000000	64.451241 
4861.000000	64.468812 
4860.000000	64.497613 
4859.000000	64.535593 
4858.000000	64.580059 
4857.000000	64.629101 
4856.000000	64.680528 
4855.000000	64.732336 
4854.000000	64.781999 
4853.000000	64.827394 
4852.000000	64.866805 
4851.000000	64.899706 
4850.000000	64.926743 
4849.000000	64.949893 
4848.000000	64.971899 
4847.000000	64.996123 
4846.000000	65.025568 
4845.000000	65.061855 
4844.000000	65.104746 
4843.000000	65.152573 
4842.000000	65.202188 
4841.000000	65.249991 
4840.000000	65.291714 
4839.000000	65.324378 
4838.000000	65.344834 
4837.000000	65.350961 
4836.000000	65.340375 
4835.000000	65.311908 
4834.000000	65.264654 
4833.000000	65.198898 
4832.000000	65.116047 
4831.000000	65.019655 
4830.000000	64.915013 
4829.000000	64.809036 
4828.000000	64.709210 
4827.000000	64.622139 
4826.000000	64.553403 
4825.000000	64.506769 
4824.000000	64.483904 
4823.000000	64.484047 
4822.000000	64.505767 
4821.000000	64.547181 
4820.000000	64.606142 
4819.000000	64.680051 
4818.000000	64.765834 
4817.000000	64.859247 
4816.000000	64.954471 
4815.000000	65.044403 
4814.000000	65.121603 
4813.000000	65.179443 
4812.000000	65.213918 
4811.000000	65.224123 
4810.000000	65.213370 
4809.000000	65.187525 
4808.000000	65.154838 
4807.000000	65.122628 
4806.000000	65.096831 
4805.000000	65.079283 
4804.000000	65.068984 
4803.000000	65.061140 
4802.000000	65.049576 
4801.000000	65.027999 
4800.000000	64.992594 
4799.000000	64.942240 
4798.000000	64.878916 
4797.000000	64.807343 
4796.000000	64.733743 
4795.000000	64.664554 
4794.000000	64.605021 
4793.000000	64.558768 
4792.000000	64.527511 
4791.000000	64.511728 
4790.000000	64.511060 
4789.000000	64.524245 
4788.000000	64.549660 
4787.000000	64.585113 
4786.000000	64.627861 
4785.000000	64.673852 
4784.000000	64.718532 
4783.000000	64.757204 
4782.000000	64.786124 
4781.000000	64.802885 
4780.000000	64.807152 
4779.000000	64.800739 
4778.000000	64.787220 
4777.000000	64.771270 
4776.000000	64.757394 
4775.000000	64.748859 
4774.000000	64.747166 
4773.000000	64.752531 
4772.000000	64.763617 
4771.000000	64.778065 
4770.000000	64.793205 
4769.000000	64.806938 
4768.000000	64.817357 
4767.000000	64.822959 
4766.000000	64.822483 
4765.000000	64.814949 
4764.000000	64.799737 
4763.000000	64.777040 
4762.000000	64.748406 
4761.000000	64.716887 
4760.000000	64.686512 
4759.000000	64.661908 
4758.000000	64.647722 
4757.000000	64.647507 
4756.000000	64.662432 
4755.000000	64.691615 
4754.000000	64.731502 
4753.000000	64.777445 
4752.000000	64.824247 
4751.000000	64.867734 
4750.000000	64.905166 
4749.000000	64.936232 
4748.000000	64.962625 
4747.000000	64.986968 
4746.000000	65.011978 
4745.000000	65.038895 
4744.000000	65.067243 
4743.000000	65.094184 
4742.000000	65.115308 
4741.000000	65.125513 
4740.000000	65.121006 
4739.000000	65.099883 
4738.000000	65.063357 
4737.000000	65.015864 
4736.000000	64.964604 
4735.000000	64.918398 
4734.000000	64.886331 
4733.000000	64.875745 
4732.000000	64.891266 
4731.000000	64.934086 
4730.000000	65.001511 
4729.000000	65.087509 
4728.000000	65.183353 
4727.000000	65.279436 
4726.000000	65.366291 
4725.000000	65.436077 
4724.000000	65.483307 
4723.000000	65.505576 
4722.000000	65.502715 
4721.000000	65.477347 
4720.000000	65.432667 
4719.000000	65.372681 
4718.000000	65.300536 
4717.000000	65.219211 
4716.000000	65.130829 
4715.000000	65.037441 
4714.000000	64.941740 
4713.000000	64.847755 
4712.000000	64.760923 
4711.000000	64.688014 
4710.000000	64.636588 
4709.000000	64.614033 
4708.000000	64.625358 
4707.000000	64.672303 
4706.000000	64.752173 
4705.000000	64.858174 
4704.000000	64.979410 
4703.000000	65.103125 
4702.000000	65.216207 
4701.000000	65.307974 
4700.000000	65.371322 
4699.000000	65.403747 
4698.000000	65.407133 
4697.000000	65.386724 
4696.000000	65.349507 
4695.000000	65.302467 
4694.000000	65.252280 
4693.000000	65.203166 
4692.000000	65.157938 
4691.000000	65.117359 
4690.000000	65.081524 
4689.000000	65.050053 
4688.000000	65.023088 
4687.000000	65.000605 
4686.000000	64.982533 
4685.000000	64.968395 
4684.000000	64.957070 
4683.000000	64.946198 
4682.000000	64.932918 
4681.000000	64.914321 
4680.000000	64.888644 
4679.000000	64.855670 
4678.000000	64.817571 
4677.000000	64.778661 
4676.000000	64.744734 
4675.000000	64.722132 
4674.000000	64.715981 
4673.000000	64.728951 
4672.000000	64.760017 
4671.000000	64.804840 
4670.000000	64.856028 
4669.000000	64.904546 
4668.000000	64.941930 
4667.000000	64.961624 
4666.000000	64.961099 
4665.000000	64.941954 
4664.000000	64.909410 
4663.000000	64.870810 
4662.000000	64.834022 
4661.000000	64.805793 
4660.000000	64.789915 
4659.000000	64.786744 
4658.000000	64.793682 
4657.000000	64.806151 
4656.000000	64.818811 
4655.000000	64.827084 
4654.000000	64.828085 
4653.000000	64.821195 
4652.000000	64.807605 
4651.000000	64.790201 
4650.000000	64.771866 
4649.000000	64.755821 
4648.000000	64.744615 
4647.000000	64.740681 
4646.000000	64.745688 
4645.000000	64.761114 
4644.000000	64.787983 
4643.000000	64.826941 
4642.000000	64.877676 
4641.000000	64.938974 
4640.000000	65.008449 
4639.000000	65.082573 
4638.000000	65.156674 
4637.000000	65.225529 
4636.000000	65.283918 
4635.000000	65.327310 
4634.000000	65.352702 
4633.000000	65.358901 
4632.000000	65.346884 
4631.000000	65.319728 
4630.000000	65.282201 
4629.000000	65.239715 
4628.000000	65.197181 
4627.000000	65.158748 
4626.000000	65.126681 
4625.000000	65.101146 
4624.000000	65.080380 
4623.000000	65.061521 
4622.000000	65.041518 
4621.000000	65.018439 
4620.000000	64.991879 
4619.000000	64.963126 
4618.000000	64.934659 
4617.000000	64.909195 
4616.000000	64.889311 
4615.000000	64.875483 
4614.000000	64.867281 
4613.000000	64.863514 
4612.000000	64.862918 
4611.000000	64.864373 
4610.000000	64.867639 
4609.000000	64.873218 
4608.000000	64.881896 
4607.000000	64.894127 
4606.000000	64.909791 
4605.000000	64.928126 
4604.000000	64.947605 
4603.000000	64.966392 
4602.000000	64.983177 
4601.000000	64.997458 
4600.000000	65.009927 
4599.000000	65.022015 
4598.000000	65.035295 
4597.000000	65.050458 
4596.000000	65.067672 
4595.000000	65.085172 
4594.000000	65.100121 
4593.000000	65.107989 
4592.000000	65.104675 
4591.000000	65.086436 
4590.000000	65.050816 
4589.000000	64.997506 
4588.000000	64.928293 
4587.000000	64.847946 
4586.000000	64.763474 
4585.000000	64.683604 
4584.000000	64.617300 
4583.000000	64.572429 
4582.000000	64.554071 
4581.000000	64.563393 
4580.000000	64.597201 
4579.000000	64.648461 
4578.000000	64.707684 
4577.000000	64.764761 
4576.000000	64.811134 
4575.000000	64.841723 
4574.000000	64.855766 
4573.000000	64.856767 
4572.000000	64.851117 
4571.000000	64.846324 
4570.000000	64.848637 
4569.000000	64.861726 
4568.000000	64.885187 
4567.000000	64.915394 
4566.000000	64.945602 
4565.000000	64.968895 
4564.000000	64.978885 
4563.000000	64.971590 
4562.000000	64.945912 
4561.000000	64.903688 
4560.000000	64.849305 
4559.000000	64.788246 
4558.000000	64.726328 
4557.000000	64.668560 
4556.000000	64.618682 
4555.000000	64.579010 
4554.000000	64.550542 
4553.000000	64.533376 
4552.000000	64.526629 
4551.000000	64.528822 
4550.000000	64.538097 
4549.000000	64.552712 
4548.000000	64.570808 
4547.000000	64.591193 
4546.000000	64.613151 
4545.000000	64.636659 
4544.000000	64.661884 
4543.000000	64.689040 
4542.000000	64.717793 
4541.000000	64.747500 
4540.000000	64.777040 
4539.000000	64.805054 
4538.000000	64.830493 
4537.000000	64.852166 
4536.000000	64.869332 
4535.000000	64.881134 
4534.000000	64.886975 
4533.000000	64.886116 
4532.000000	64.878487 
4531.000000	64.864087 
4530.000000	64.843654 
4529.000000	64.818048 
4528.000000	64.788436 
4527.000000	64.756727 
4526.000000	64.725589 
4525.000000	64.698886 
4524.000000	64.681339 
4523.000000	64.678287 
4522.000000	64.694547 
4521.000000	64.733219 
4520.000000	64.794516 
4519.000000	64.874792 
4518.000000	64.966917 
4517.000000	65.061926 
4516.000000	65.150070 
4515.000000	65.222978 
4514.000000	65.274429 
4513.000000	65.301513 
4512.000000	65.304088 
4511.000000	65.284442 
4510.000000	65.246200 
4509.000000	65.194320 
4508.000000	65.133285 
4507.000000	65.067648 
4506.000000	65.000796 
4505.000000	64.935994 
4504.000000	64.875769 
4503.000000	64.822435 
4502.000000	64.778256 
4501.000000	64.745712 
4500.000000	64.726734 
4499.000000	64.722108 
4498.000000	64.730978 
4497.000000	64.750528 
4496.000000	64.775943 
4495.000000	64.800953 
4494.000000	64.818692 
4493.000000	64.823102 
4492.000000	64.810228 
4491.000000	64.779329 
4490.000000	64.733290 
4489.000000	64.678025 
4488.000000	64.622163 
4487.000000	64.573812 
4486.000000	64.538836 
4485.000000	64.518857 
4484.000000	64.511036 
4483.000000	64.509105 
4482.000000	64.506554 
4481.000000	64.497041 
4480.000000	64.477562 
4479.000000	64.446735 
4478.000000	64.404368 
4477.000000	64.351153 
4476.000000	64.287090 
4475.000000	64.213824 
4474.000000	64.134693 
4473.000000	64.055442 
4472.000000	63.984203 
4471.000000	63.927912 
4470.000000	63.891005 
4469.000000	63.873720 
4468.000000	63.873028 
4467.000000	63.884139 
4466.000000	63.903069 
4465.000000	63.930082 
4464.000000	63.969182 
4463.000000	64.025735 
4462.000000	64.104557 
4461.000000	64.204907 
4460.000000	64.320540 
4459.000000	64.445543 
4458.000000	64.570832 
4457.000000	64.677643 
4456.000000	64.749383 
4455.000000	64.782023 
4454.000000	64.778494 
4453.000000	64.749574 
4452.000000	64.707064 
4451.000000	64.657902 
4450.000000	64.605164 
4449.000000	64.547467 
4448.000000	64.484167 
4447.000000	64.416122 
4446.000000	64.354610 
4445.000000	64.325785 
4444.000000	64.340686 
4443.000000	64.391779 
4442.000000	64.463615 
4441.000000	64.539122 
4440.000000	64.618945 
4439.000000	64.716792 
4438.000000	64.877057 
4437.000000	65.134406 
4436.000000	65.497040 
4435.000000	65.908765 
4434.000000	66.243958 
4433.000000	66.322469 
4432.000000	65.954470 
4431.000000	64.993453 
4430.000000	63.385868 
4429.000000	61.204862 
4428.000000	58.648252 
4427.000000	56.013464 
4426.000000	53.623223 
4425.000000	51.783990 
4424.000000	50.705075 
4423.000000	50.494718 
4422.000000	51.122903 
4421.000000	52.493453 
4420.000000	54.466700 
4419.000000	56.913614 
4418.000000	59.727287 
4417.000000	62.822914 
4416.000000	66.112136 
4415.000000	69.471049 
4414.000000	72.719502 
4413.000000	75.633883 
4412.000000	77.966117 
4411.000000	79.509687 
4410.000000	80.126905 
4409.000000	79.798102 
4408.000000	78.612875 
4407.000000	76.781892 
4406.000000	74.573302 
4405.000000	72.283172 
4404.000000	70.161104 
4403.000000	68.399906 
4402.000000	67.085933 
4401.000000	66.221642 
4400.000000	65.728211 
4399.000000	65.494060 
4398.000000	65.399694 
4397.000000	65.344190 
4396.000000	65.270256 
4395.000000	65.154218 
4394.000000	65.012073 
4393.000000	64.867115 
4392.000000	64.752268 
4391.000000	64.685964 
4390.000000	64.678311 
4389.000000	64.726400 
4388.000000	64.814138 
4387.000000	64.916205 
4386.000000	65.015530 
4385.000000	65.105390 
4384.000000	65.177559 
4383.000000	65.225481 
4382.000000	65.250301 
4381.000000	65.256261 
4380.000000	65.242123 
4379.000000	65.205168 
4378.000000	65.145754 
4377.000000	65.066242 
4376.000000	64.975023 
4375.000000	64.882802 
4374.000000	64.796710 
4373.000000	64.723801 
4372.000000	64.676284 
4371.000000	64.661240 
4370.000000	64.674806 
4369.000000	64.708805 
4368.000000	64.753794 
4367.000000	64.799427 
4366.000000	64.836645 
4365.000000	64.860010 
4364.000000	64.868235 
4363.000000	64.863562 
4362.000000	64.850568 
4361.000000	64.834237 
4360.000000	64.818716 
4359.000000	64.807319 
4358.000000	64.801979 
4357.000000	64.804267 
4356.000000	64.814972 
4355.000000	64.834523 
4354.000000	64.862275 
4353.000000	64.895701 
4352.000000	64.931058 
4351.000000	64.963483 
4350.000000	64.988517 
4349.000000	65.002894 
4348.000000	65.005898 
4347.000000	64.999151 
4346.000000	64.987015 
4345.000000	64.975666 
4344.000000	64.971303 
4343.000000	64.978957 
4342.000000	65.000605 
4341.000000	65.035200 
4340.000000	65.077376 
4339.000000	65.118598 
4338.000000	65.148425 
4337.000000	65.157175 
4336.000000	65.137267 
4335.000000	65.085315 
4334.000000	65.002560 
4333.000000	64.895105 
4332.000000	64.773201 
4331.000000	64.649605 
4330.000000	64.537405 
4329.000000	64.447832 
4328.000000	64.388751 
4327.000000	64.363312 
4326.000000	64.369797 
4325.000000	64.402437 
4324.000000	64.452981 
4323.000000	64.512419 
4322.000000	64.571881 
4321.000000	64.624738 
4320.000000	64.665842 
4319.000000	64.693140 
4318.000000	64.705944 
4317.000000	64.706277 
4316.000000	64.697623 
4315.000000	64.684820 
4314.000000	64.673376 
4313.000000	64.668369 
4312.000000	64.673495 
4311.000000	64.690303 
4310.000000	64.717984 
4309.000000	64.753508 
4308.000000	64.792037 
4307.000000	64.828038 
4306.000000	64.856338 
4305.000000	64.872670 
4304.000000	64.874577 
4303.000000	64.861464 
4302.000000	64.834785 
4301.000000	64.797091 
4300.000000	64.752054 
4299.000000	64.704084 
4298.000000	64.658164 
4297.000000	64.619445 
4296.000000	64.592480 
4295.000000	64.581418 
4294.000000	64.588379 
4293.000000	64.613676 
4292.000000	64.655065 
4291.000000	64.707469 
4290.000000	64.764451 
4289.000000	64.819002 
4288.000000	64.864969 
4287.000000	64.898061 
4286.000000	64.916419 
4285.000000	64.920496 
4284.000000	64.912748 
4283.000000	64.896655 
4282.000000	64.875841 
4281.000000	64.853310 
4280.000000	64.831566 
4279.000000	64.812397 
4278.000000	64.797306 
4277.000000	64.787292 
4276.000000	64.783453 
4275.000000	64.786076 
4274.000000	64.794182 
4273.000000	64.805340 
4272.000000	64.815378 
4271.000000	64.819383 
4270.000000	64.812350 
4269.000000	64.790940 
4268.000000	64.754557 
4267.000000	64.705872 
4266.000000	64.650559 
4265.000000	64.596438 
4264.000000	64.551734 
4263.000000	64.523434 
4262.000000	64.515328 
4261.000000	64.527750 
4260.000000	64.557194 
4259.000000	64.597773 
4258.000000	64.642667 
4257.000000	64.685773 
4256.000000	64.722800 
4255.000000	64.751982 
4254.000000	64.774107 
4253.000000	64.791703 
4252.000000	64.808034 
4251.000000	64.826178 
4250.000000	64.848279 
4249.000000	64.875316 
4248.000000	64.906620 
4247.000000	64.940547 
4246.000000	64.974260 
4245.000000	65.004420 
4244.000000	65.027427 
4243.000000	65.040087 
4242.000000	65.040135 
4241.000000	65.026688 
4240.000000	65.000772 
4239.000000	64.965343 
4238.000000	64.925026 
4237.000000	64.885544 
4236.000000	64.852309 
4235.000000	64.829587 
4234.000000	64.819622 
4233.000000	64.822220 
4232.000000	64.835214 
4231.000000	64.855051 
4230.000000	64.878296 
4229.000000	64.902400 
4228.000000	64.926433 
4227.000000	64.950776 
4226.000000	64.976382 
4225.000000	65.003609 
4224.000000	65.031409 
4223.000000	65.056800 
4222.000000	65.075039 
4221.000000	65.080595 
4220.000000	65.068888 
4219.000000	65.037536 
4218.000000	64.987850 
4217.000000	64.924597 
4216.000000	64.855480 
4215.000000	64.789319 
4214.000000	64.734339 
4213.000000	64.696383 
4212.000000	64.677619 
4211.000000	64.676642 
4210.000000	64.689302 
4209.000000	64.709997 
4208.000000	64.732956 
4207.000000	64.753890 
4206.000000	64.770603 
4205.000000	64.783024 
4204.000000	64.792108 
4203.000000	64.799427 
4202.000000	64.806008 
4201.000000	64.812302 
4200.000000	64.817786 
4199.000000	64.821767 
4198.000000	64.823698 
4197.000000	64.823770 
4196.000000	64.823150 
4195.000000	64.823317 
4194.000000	64.825868 
4193.000000	64.831829 
4192.000000	64.841675 
4191.000000	64.854454 
4190.000000	64.868998 
4189.000000	64.884090 
4188.000000	64.899396 
4187.000000	64.915680 
4186.000000	64.934968 
4185.000000	64.959621 
4184.000000	64.991879 
4183.000000	65.032982 
4182.000000	65.082359 
4181.000000	65.137577 
4180.000000	65.194392 
4179.000000	65.247797 
4178.000000	65.292787 
4177.000000	65.325546 
4176.000000	65.343713 
4175.000000	65.346932 
4174.000000	65.336871 
4173.000000	65.316867 
4172.000000	65.290975 
4171.000000	65.263009 
4170.000000	65.235686 
4169.000000	65.210318 
4168.000000	65.186858 
4167.000000	65.164232 
4166.000000	65.141224 
4165.000000	65.116882 
4164.000000	65.091395 
4163.000000	65.066146 
4162.000000	65.043091 
4161.000000	65.024518 
4160.000000	65.012311 
4159.000000	65.007138 
4158.000000	65.008592 
4157.000000	65.014648 
4156.000000	65.022420 
4155.000000	65.028238 
4154.000000	65.028953 
4153.000000	65.021562 
4152.000000	65.004277 
4151.000000	64.976024 
4150.000000	64.936757 
4149.000000	64.887189 
4148.000000	64.828968 
4147.000000	64.764785 
4146.000000	64.698410 
4145.000000	64.634513 
4144.000000	64.578413 
4143.000000	64.535307 
4142.000000	64.509749 
4141.000000	64.504671 
4140.000000	64.521336 
4139.000000	64.558935 
4138.000000	64.614796 
4137.000000	64.684820 
4136.000000	64.763927 
4135.000000	64.846301 
4134.000000	64.925980 
4133.000000	64.997172 
4132.000000	65.054869 
4131.000000	65.095138 
4130.000000	65.115928 
4129.000000	65.117311 
4128.000000	65.101909 
4127.000000	65.074872 
4126.000000	65.043044 
4125.000000	65.014338 
4124.000000	64.995837 
4123.000000	64.992737 
4122.000000	65.007185 
4121.000000	65.038275 
4120.000000	65.081882 
4119.000000	65.132141 
4118.000000	65.182638 
4117.000000	65.227794 
4116.000000	65.263581 
4115.000000	65.288066 
4114.000000	65.301465 
4113.000000	65.305423 
4112.000000	65.302538 
4111.000000	65.295314 
4110.000000	65.286159 
4109.000000	65.276408 
4108.000000	65.267014 
4107.000000	65.257525 
4106.000000	65.247297 
4105.000000	65.234994 
4104.000000	65.219473 
4103.000000	65.199899 
4102.000000	65.175676 
4101.000000	65.147256 
4100.000000	65.116524 
4099.000000	65.086388 
4098.000000	65.060353 
4097.000000	65.041971 
4096.000000	65.033936 
4095.000000	65.037322 
4094.000000	65.051293 
4093.000000	65.072965 
4092.000000	65.097761 
4091.000000	65.120577 
4090.000000	65.136718 
4089.000000	65.142822 
4088.000000	65.137386 
4087.000000	65.120816 
4086.000000	65.095376 
4085.000000	65.064406 
4084.000000	65.031862 
4083.000000	65.001201 
4082.000000	64.975047 
4081.000000	64.954829 
4080.000000	64.940738 
4079.000000	64.932346 
4078.000000	64.928269 
4077.000000	64.926958 
4076.000000	64.926981 
4075.000000	64.926934 
4074.000000	64.926195 
4073.000000	64.924550 
4072.000000	64.922809 
4071.000000	64.922022 
4070.000000	64.923930 
4069.000000	64.930057 
4068.000000	64.941883 
4067.000000	64.960098 
4066.000000	64.984583 
4065.000000	65.014195 
4064.000000	65.047025 
4063.000000	65.080666 
4062.000000	65.112614 
4061.000000	65.140795 
4060.000000	65.163731 
4059.000000	65.180897 
4058.000000	65.192818 
4057.000000	65.200662 
4056.000000	65.206122 
4055.000000	65.210676 
4054.000000	65.215563 
4053.000000	65.221166 
4052.000000	65.227651 
4051.000000	65.234184 
4050.000000	65.239858 
4049.000000	65.243458 
4048.000000	65.244007 
4047.000000	65.240836 
4046.000000	65.233874 
4045.000000	65.223336 
4044.000000	65.209960 
4043.000000	65.194559 
4042.000000	65.177941 
4041.000000	65.160989 
4040.000000	65.144443 
4039.000000	65.128993 
4038.000000	65.115284 
4037.000000	65.103769 
4036.000000	65.094757 
4035.000000	65.088224 
4034.000000	65.083980 
4033.000000	65.081214 
4032.000000	65.078973 
4031.000000	65.076303 
4030.000000	65.072846 
4029.000000	65.068435 
4028.000000	65.063571 
4027.000000	65.059256 
4026.000000	65.056657 
4025.000000	65.056490 
4024.000000	65.058636 
4023.000000	65.061950 
4022.000000	65.064716 
4021.000000	65.064620 
4020.000000	65.060138 
4019.000000	65.050673 
4018.000000	65.037608 
4017.000000	65.023875 
4016.000000	65.013670 
4015.000000	65.010976 
4014.000000	65.018749 
4013.000000	65.037822 
4012.000000	65.066337 
4011.000000	65.099954 
4010.000000	65.133118 
4009.000000	65.160107 
4008.000000	65.176582 
4007.000000	65.180611 
4006.000000	65.173125 
4005.000000	65.157246 
4004.000000	65.137362 
4003.000000	65.117549 
4002.000000	65.100526 
4001.000000	65.086889 
4000.000000	65.075564 
3999.000000	65.064382 
3998.000000	65.051150 
3997.000000	65.035057 
3996.000000	65.017032 
3995.000000	65.000200 
3994.000000	64.988780 
3993.000000	64.987325 
3992.000000	64.999103 
3991.000000	65.025377 
3990.000000	65.064597 
3989.000000	65.112805 
3988.000000	65.164542 
3987.000000	65.213704 
3986.000000	65.254950 
3985.000000	65.284419 
3984.000000	65.300536 
3983.000000	65.303635 
3982.000000	65.295886 
3981.000000	65.280604 
3980.000000	65.261411 
3979.000000	65.241932 
3978.000000	65.224623 
3977.000000	65.210914 
3976.000000	65.200495 
3975.000000	65.192174 
3974.000000	65.183925 
3973.000000	65.173530 
3972.000000	65.159749 
3971.000000	65.142154 
3970.000000	65.122079 
3969.000000	65.102028 
3968.000000	65.085220 
3967.000000	65.074729 
3966.000000	65.072441 
3965.000000	65.078592 
3964.000000	65.091109 
3963.000000	65.105915 
3962.000000	65.117835 
3961.000000	65.122032 
3960.000000	65.114927 
3959.000000	65.095162 
3958.000000	65.064167 
3957.000000	65.025949 
3956.000000	64.985966 
3955.000000	64.950108 
3954.000000	64.923787 
3953.000000	64.910912 
3952.000000	64.913201 
3951.000000	64.929986 
3950.000000	64.958620 
3949.000000	64.995026 
3948.000000	65.034675 
3947.000000	65.073037 
3946.000000	65.106105 
3945.000000	65.130615 
3944.000000	65.144610 
3943.000000	65.146994 
3942.000000	65.137600 
3941.000000	65.116739 
3940.000000	65.085601 
3939.000000	65.045595 
3938.000000	64.998292 
3937.000000	64.945602 
3936.000000	64.889979 
3935.000000	64.834475 
3934.000000	64.782500 
3933.000000	64.737582 
3932.000000	64.702963 
3931.000000	64.680457 
3930.000000	64.670133 
3929.000000	64.669752 
3928.000000	64.675521 
3927.000000	64.682435 
3926.000000	64.686155 
3925.000000	64.683747 
3924.000000	64.675307 
3923.000000	64.663720 
3922.000000	64.654517 
3921.000000	64.654374 
3920.000000	64.669299 
3919.000000	64.702773 
3918.000000	64.754557 
3917.000000	64.820313 
3916.000000	64.892697 
3915.000000	64.963221 
3914.000000	65.023922 
3913.000000	65.069580 
3912.000000	65.098071 
3911.000000	65.110731 
3910.000000	65.111589 
3909.000000	65.105986 
3908.000000	65.099263 
3907.000000	65.095543 
3906.000000	65.097427 
3905.000000	65.105962 
3904.000000	65.120601 
3903.000000	65.139746 
3902.000000	65.161275 
3901.000000	65.183305 
3900.000000	65.203905 
3899.000000	65.221476 
3898.000000	65.234756 
3897.000000	65.242934 
3896.000000	65.245842 
3895.000000	65.243864 
3894.000000	65.237927 
3893.000000	65.229296 
3892.000000	65.219283 
3891.000000	65.208792 
3890.000000	65.198278 
3889.000000	65.187811 
3888.000000	65.177130 
3887.000000	65.166211 
3886.000000	65.155243 
3885.000000	65.144753 
3884.000000	65.136003 
3883.000000	65.130090 
3882.000000	65.127515 
3881.000000	65.128302 
3880.000000	65.132093 
3879.000000	65.137839 
3878.000000	65.144157 
3877.000000	65.149807 
3876.000000	65.154051 
3875.000000	65.156793 
3874.000000	65.158414 
3873.000000	65.159630 
3872.000000	65.161085 
3871.000000	65.162920 
3870.000000	65.164923 
3869.000000	65.166807 
3868.000000	65.168404 
3867.000000	65.169858 
3866.000000	65.171575 
3865.000000	65.174436 
3864.000000	65.179133 
3863.000000	65.185999 
3862.000000	65.194559 
3861.000000	65.203833 
3860.000000	65.212035 
3859.000000	65.217256 
3858.000000	65.217638 
3857.000000	65.211749 
3856.000000	65.198850 
3855.000000	65.179300 
3854.000000	65.154123 
3853.000000	65.124845 
3852.000000	65.093398 
3851.000000	65.061831 
3850.000000	65.032172 
3849.000000	65.006089 
3848.000000	64.985036 
3847.000000	64.970040 
3846.000000	64.961409 
3845.000000	64.958548 
3844.000000	64.960074 
3843.000000	64.963936 
3842.000000	64.967966 
3841.000000	64.970040 
3840.000000	64.968633 
3839.000000	64.962911 
3838.000000	64.952683 
3837.000000	64.938712 
3836.000000	64.922022 
3835.000000	64.904260 
3834.000000	64.887237 
3833.000000	64.872932 
3832.000000	64.863348 
3831.000000	64.860153 
3830.000000	64.864373 
3829.000000	64.876246 
3828.000000	64.895057 
3827.000000	64.918971 
3826.000000	64.945173 
3825.000000	64.970684 
3824.000000	64.992761 
3823.000000	65.009975 
3822.000000	65.022087 
3821.000000	65.030527 
3820.000000	65.037846 
3819.000000	65.046381 
3818.000000	65.057086 
3817.000000	65.069460 
3816.000000	65.081238 
3815.000000	65.088987 
3814.000000	65.089082 
3813.000000	65.079116 
3812.000000	65.058517 
3811.000000	65.028977 
3810.000000	64.994001 
3809.000000	64.957904 
3808.000000	64.925289 
3807.000000	64.899897 
3806.000000	64.884305 
3805.000000	64.879322 
3804.000000	64.884567 
3803.000000	64.898848 
3802.000000	64.920759 
3801.000000	64.948773 
3800.000000	64.981794 
3799.000000	65.018725 
3798.000000	65.058541 
3797.000000	65.099740 
3796.000000	65.141153 
3795.000000	65.181756 
3794.000000	65.220808 
3793.000000	65.257668 
3792.000000	65.291905 
3791.000000	65.322804 
3790.000000	65.349411 
3789.000000	65.370225 
3788.000000	65.383720 
3787.000000	65.388107 
3786.000000	65.382647 
3785.000000	65.367031 
3784.000000	65.341973 
3783.000000	65.308690 
3782.000000	65.269184 
3781.000000	65.225863 
3780.000000	65.181207 
3779.000000	65.137696 
3778.000000	65.097880 
3777.000000	65.064120 
3776.000000	65.038418 
3775.000000	65.021920 
3774.000000	65.014910 
3773.000000	65.015983 
3772.000000	65.022253 
3771.000000	65.029382 
3770.000000	65.032267 
3769.000000	65.026521 
3768.000000	65.009427 
3767.000000	64.980936 
3766.000000	64.943766 
3765.000000	64.903259 
3764.000000	64.866352 
3763.000000	64.839720 
3762.000000	64.828419 
3761.000000	64.834928 
3760.000000	64.858651 
3759.000000	64.896082 
3758.000000	64.942002 
3757.000000	64.990544 
3756.000000	65.036678 
3755.000000	65.076732 
3754.000000	65.109014 
3753.000000	65.133166 
3752.000000	65.149903 
3751.000000	65.160202 
3750.000000	65.165090 
3749.000000	65.165066 
3748.000000	65.160584 
3747.000000	65.152716 
3746.000000	65.142750 
3745.000000	65.132451 
3744.000000	65.123724 
3743.000000	65.118479 
3742.000000	65.117597 
3741.000000	65.120887 
3740.000000	65.126991 
3739.000000	65.133666 
3738.000000	65.138697 
3737.000000	65.140390 
3736.000000	65.138483 
3735.000000	65.133929 
3734.000000	65.128779 
3733.000000	65.125465 
3732.000000	65.126132 
3731.000000	65.131926 
3730.000000	65.142440 
3729.000000	65.155863 
3728.000000	65.169572 
3727.000000	65.180778 
3726.000000	65.187430 
3725.000000	65.188765 
3724.000000	65.184998 
3723.000000	65.177750 
3722.000000	65.169548 
3721.000000	65.162968 
3720.000000	65.159797 
3719.000000	65.160822 
3718.000000	65.165758 
3717.000000	65.173149 
3716.000000	65.181016 
3715.000000	65.187144 
3714.000000	65.189814 
3713.000000	65.188217 
3712.000000	65.182566 
3711.000000	65.174126 
3710.000000	65.164899 
3709.000000	65.157341 
3708.000000	65.153908 
3707.000000	65.156602 
3706.000000	65.166425 
3705.000000	65.183424 
3704.000000	65.206360 
3703.000000	65.233159 
3702.000000	65.260863 
3701.000000	65.286254 
3700.000000	65.305948 
3699.000000	65.317034 
3698.000000	65.317368 
3697.000000	65.305781 
3696.000000	65.282344 
3695.000000	65.248394 
3694.000000	65.206384 
3693.000000	65.159535 
3692.000000	65.111637 
3691.000000	65.066599 
3690.000000	65.027832 
3689.000000	64.998102 
3688.000000	64.979052 
3687.000000	64.971184 
3686.000000	64.973878 
3685.000000	64.985775 
3684.000000	65.005159 
3683.000000	65.030360 
3682.000000	65.059685 
3681.000000	65.091490 
3680.000000	65.124034 
3679.000000	65.155315 
3678.000000	65.183019 
3677.000000	65.204572 
3676.000000	65.217733 
3675.000000	65.220999 
3674.000000	65.214347 
3673.000000	65.199208 
3672.000000	65.178442 
3671.000000	65.155720 
3670.000000	65.135216 
3669.000000	65.120100 
3668.000000	65.112042 
3667.000000	65.110898 
3666.000000	65.114855 
3665.000000	65.121102 
3664.000000	65.126776 
3663.000000	65.129852 
3662.000000	65.129876 
3661.000000	65.127730 
3660.000000	65.125274 
3659.000000	65.124654 
3658.000000	65.127348 
3657.000000	65.133643 
3656.000000	65.142369 
3655.000000	65.151000 
3654.000000	65.156507 
3653.000000	65.155959 
3652.000000	65.147662 
3651.000000	65.131425 
3650.000000	65.109300 
3649.000000	65.084862 
3648.000000	65.063214 
3647.000000	65.049457 
3646.000000	65.047836 
3645.000000	65.060949 
3644.000000	65.088963 
3643.000000	65.129733 
3642.000000	65.178847 
3641.000000	65.230798 
3640.000000	65.279746 
3639.000000	65.320587 
3638.000000	65.349769 
3637.000000	65.365695 
3636.000000	65.368628 
3635.000000	65.360283 
3634.000000	65.343093 
3633.000000	65.319466 
3632.000000	65.291285 
3631.000000	65.259790 
3630.000000	65.225934 
3629.000000	65.190720 
3628.000000	65.155649 
3627.000000	65.122818 
3626.000000	65.094685 
3625.000000	65.073800 
3624.000000	65.061807 
3623.000000	65.059757 
3622.000000	65.067315 
3621.000000	65.083169 
3620.000000	65.104794 
3619.000000	65.129399 
3618.000000	65.153980 
3617.000000	65.175962 
3616.000000	65.193367 
3615.000000	65.205025 
3614.000000	65.210628 
3613.000000	65.210700 
3612.000000	65.206384 
3611.000000	65.199089 
3610.000000	65.190601 
3609.000000	65.182232 
3608.000000	65.175032 
3607.000000	65.169262 
3606.000000	65.164732 
3605.000000	65.160489 
3604.000000	65.155339 
3603.000000	65.148305 
3602.000000	65.138792 
3601.000000	65.127182 
3600.000000	65.114688 
3599.000000	65.102958 
3598.000000	65.093851 
3597.000000	65.088748 
3596.000000	65.088391 
3595.000000	65.092253 
3594.000000	65.098977 
3593.000000	65.106582 
3592.000000	65.113091 
3591.000000	65.116739 
3590.000000	65.116691 
3589.000000	65.112900 
3588.000000	65.106320 
3587.000000	65.098810 
3586.000000	65.092396 
3585.000000	65.088772 
3584.000000	65.088891 
3583.000000	65.092873 
3582.000000	65.100097 
3581.000000	65.109348 
3580.000000	65.119481 
3579.000000	65.129756 
3578.000000	65.139937 
3577.000000	65.150451 
3576.000000	65.161681 
3575.000000	65.173745 
3574.000000	65.186142 
3573.000000	65.197873 
3572.000000	65.207505 
3571.000000	65.213608 
3570.000000	65.215420 
3569.000000	65.212821 
3568.000000	65.206694 
3567.000000	65.198230 
3566.000000	65.188860 
3565.000000	65.179443 
3564.000000	65.170025 
3563.000000	65.159821 
3562.000000	65.147447 
3561.000000	65.131831 
3560.000000	65.112924 
3559.000000	65.091729 
3558.000000	65.070629 
3557.000000	65.052580 
3556.000000	65.040493 
3555.000000	65.036296 
3554.000000	65.040135 
3553.000000	65.050745 
3552.000000	65.065598 
3551.000000	65.081644 
3550.000000	65.096282 
3549.000000	65.107846 
3548.000000	65.115976 
3547.000000	65.121340 
3546.000000	65.125370 
3545.000000	65.129613 
3544.000000	65.135431 
3543.000000	65.143346 
3542.000000	65.153241 
3541.000000	65.164446 
3540.000000	65.175819 
3539.000000	65.186452 
3538.000000	65.195274 
3537.000000	65.201497 
3536.000000	65.204310 
3535.000000	65.202975 
3534.000000	65.196824 
3533.000000	65.185284 
3532.000000	65.168213 
3531.000000	65.146112 
3530.000000	65.120029 
3529.000000	65.091395 
3528.000000	65.062165 
3527.000000	65.034317 
3526.000000	65.009903 
3525.000000	64.990711 
3524.000000	64.977979 
3523.000000	64.972329 
3522.000000	64.973759 
3521.000000	64.981579 
3520.000000	64.994335 
3519.000000	65.010237 
3518.000000	65.027379 
3517.000000	65.044021 
3516.000000	65.058827 
3515.000000	65.070986 
3514.000000	65.080165 
3513.000000	65.086770 
3512.000000	65.091395 
3511.000000	65.094757 
3510.000000	65.097379 
3509.000000	65.099692 
3508.000000	65.101718 
3507.000000	65.103602 
3506.000000	65.105557 
3505.000000	65.107965 
3504.000000	65.111398 
3503.000000	65.116071 
3502.000000	65.121769 
3501.000000	65.127682 
3500.000000	65.132355 
3499.000000	65.133976 
3498.000000	65.130734 
3497.000000	65.121555 
3496.000000	65.106534 
3495.000000	65.087032 
3494.000000	65.065598 
3493.000000	65.045237 
3492.000000	65.029001 
3491.000000	65.019226 
3490.000000	65.017151 
3489.000000	65.022635 
3488.000000	65.034341 
3487.000000	65.050244 
3486.000000	65.068244 
3485.000000	65.086531 
3484.000000	65.104007 
3483.000000	65.119934 
3482.000000	65.134024 
3481.000000	65.145874 
3480.000000	65.154957 
3479.000000	65.160441 
3478.000000	65.161609 
3477.000000	65.158104 
3476.000000	65.150332 
3475.000000	65.139770 
3474.000000	65.128636 
3473.000000	65.119552 
3472.000000	65.114784 
3471.000000	65.115714 
3470.000000	65.121960 
3469.000000	65.131354 
3468.000000	65.140151 
3467.000000	65.143966 
3466.000000	65.138745 
3465.000000	65.122127 
3464.000000	65.094065 
3463.000000	65.057349 
3462.000000	65.016984 
3461.000000	64.979338 
3460.000000	64.950656 
3459.000000	64.935851 
3458.000000	64.937210 
3457.000000	64.954233 
3456.000000	64.984035 
3455.000000	65.021824 
3454.000000	65.062189 
3453.000000	65.100169 
3452.000000	65.132141 
3451.000000	65.156102 
3450.000000	65.171623 
3449.000000	65.179324 
3448.000000	65.180182 
3447.000000	65.175271 
3446.000000	65.165424 
3445.000000	65.151071 
3444.000000	65.132617 
3443.000000	65.110754 
3442.000000	65.086817 
3441.000000	65.062260 
3440.000000	65.038895 
3439.000000	65.018367 
3438.000000	65.001940 
3437.000000	64.990186 
3436.000000	64.982771 
3435.000000	64.978647 
3434.000000	64.976119 
3433.000000	64.973354 
3432.000000	64.968633 
3431.000000	64.960503 
3430.000000	64.948487 
3429.000000	64.932727 
3428.000000	64.914584 
3427.000000	64.896154 
3426.000000	64.880156 
3425.000000	64.869332 
3424.000000	64.865946 
3423.000000	64.871311 
3422.000000	64.885473 
3421.000000	64.907217 
3420.000000	64.933991 
3419.000000	64.962387 
3418.000000	64.988851 
3417.000000	65.010333 
3416.000000	65.024852 
3415.000000	65.031743 
3414.000000	65.031862 
3413.000000	65.026998 
3412.000000	65.019679 
3411.000000	65.012383 
3410.000000	65.006852 
3409.000000	65.003705 
3408.000000	65.002608 
3407.000000	65.002393 
3406.000000	65.001511 
3405.000000	64.998745 
3404.000000	64.993429 
3403.000000	64.986062 
3402.000000	64.978098 
3401.000000	64.971804 
3400.000000	64.969491 
3399.000000	64.973068 
3398.000000	64.983272 
3397.000000	64.999842 
3396.000000	65.021038 
3395.000000	65.044307 
3394.000000	65.066623 
3393.000000	65.085148 
3392.000000	65.097808 
3391.000000	65.103745 
3390.000000	65.103101 
3389.000000	65.097212 
3388.000000	65.087962 
3387.000000	65.077757 
3386.000000	65.068817 
3385.000000	65.062904 
3384.000000	65.061044 
3383.000000	65.063500 
3382.000000	65.069651 
3381.000000	65.078115 
3380.000000	65.086936 
3379.000000	65.094041 
3378.000000	65.097641 
3377.000000	65.096426 
3376.000000	65.090107 
3375.000000	65.079426 
3374.000000	65.065956 
3373.000000	65.052032 
3372.000000	65.040087 
3371.000000	65.032291 
3370.000000	65.030288 
3369.000000	65.034532 
3368.000000	65.044760 
3367.000000	65.060019 
3366.000000	65.078997 
3365.000000	65.100240 
3364.000000	65.122699 
3363.000000	65.145611 
3362.000000	65.168285 
3361.000000	65.189671 
3360.000000	65.208578 
3359.000000	65.223503 
3358.000000	65.232563 
3357.000000	65.234160 
3356.000000	65.227270 
3355.000000	65.212082 
3354.000000	65.190267 
3353.000000	65.164732 
3352.000000	65.139269 
3351.000000	65.117859 
3350.000000	65.103745 
3349.000000	65.098834 
3348.000000	65.103363 
3347.000000	65.115928 
3346.000000	65.133762 
3345.000000	65.153622 
3344.000000	65.172362 
3343.000000	65.187692 
3342.000000	65.198516 
3341.000000	65.204739 
3340.000000	65.207242 
3339.000000	65.207052 
3338.000000	65.205121 
3337.000000	65.201759 
3336.000000	65.196609 
3335.000000	65.188813 
3334.000000	65.177488 
3333.000000	65.161991 
3332.000000	65.142655 
3331.000000	65.120577 
3330.000000	65.097641 
3329.000000	65.076351 
3328.000000	65.059185 
3327.000000	65.047931 
3326.000000	65.043306 
3325.000000	65.044784 
3324.000000	65.050768 
3323.000000	65.058779 
3322.000000	65.066337 
3321.000000	65.071153 
3320.000000	65.072059 
3319.000000	65.068960 
3318.000000	65.062904 
3317.000000	65.055561 
3316.000000	65.048813 
3315.000000	65.044212 
3314.000000	65.042686 
3313.000000	65.044331 
3312.000000	65.048623 
3311.000000	65.054559 
3310.000000	65.061092 
3309.000000	65.067505 
3308.000000	65.073490 
3307.000000	65.079045 
3306.000000	65.084266 
3305.000000	65.089130 
3304.000000	65.093064 
3303.000000	65.095067 
3302.000000	65.093922 
3301.000000	65.088558 
3300.000000	65.078306 
3299.000000	65.063452 
3298.000000	65.045332 
3297.000000	65.026116 
3296.000000	65.008497 
3295.000000	64.995193 
3294.000000	64.988255 
3293.000000	64.988660 
3292.000000	64.995956 
3291.000000	65.008449 
3290.000000	65.023446 
3289.000000	65.037965 
3288.000000	65.049242 
3287.000000	65.055489 
3286.000000	65.055990 
3285.000000	65.051651 
3284.000000	65.044403 
3283.000000	65.036654 
3282.000000	65.030694 
3281.000000	65.028142 
3280.000000	65.029382 
3279.000000	65.033268 
3278.000000	65.037441 
3277.000000	65.038800 
3276.000000	65.034437 
3275.000000	65.022373 
3274.000000	65.002250 
3273.000000	64.975452 
3272.000000	64.945101 
3271.000000	64.915204 
3270.000000	64.890050 
3269.000000	64.872884 
3268.000000	64.865446 
3267.000000	64.867401 
3266.000000	64.876627 
3265.000000	64.889836 
3264.000000	64.903402 
3263.000000	64.914250 
3262.000000	64.920735 
3261.000000	64.922761 
3260.000000	64.921832 
3259.000000	64.920401 
3258.000000	64.921212 
3257.000000	64.926385 
3256.000000	64.937162 
3255.000000	64.953589 
3254.000000	64.974665 
3253.000000	64.998579 
3252.000000	65.023136 
3251.000000	65.046000 
3250.000000	65.065193 
3249.000000	65.079140 
3248.000000	65.086579 
3247.000000	65.086817 
3246.000000	65.079689 
3245.000000	65.065860 
3244.000000	65.046691 
3243.000000	65.024518 
3242.000000	65.002322 
3241.000000	64.983296 
3240.000000	64.970469 
3239.000000	64.965677 
3238.000000	64.969754 
3237.000000	64.981746 
3236.000000	64.999365 
3235.000000	65.019345 
3234.000000	65.037965 
3233.000000	65.052199 
3232.000000	65.060043 
3231.000000	65.060949 
3230.000000	65.055680 
3229.000000	65.046286 
3228.000000	65.035557 
3227.000000	65.026259 
3226.000000	65.020704 
3225.000000	65.020370 
3224.000000	65.025663 
3223.000000	65.036082 
3222.000000	65.050435 
3221.000000	65.067219 
3220.000000	65.085148 
3219.000000	65.102958 
3218.000000	65.119719 
3217.000000	65.134906 
3216.000000	65.148210 
3215.000000	65.159368 
3214.000000	65.168023 
3213.000000	65.173816 
3212.000000	65.176272 
3211.000000	65.175032 
3210.000000	65.169978 
3209.000000	65.161371 
3208.000000	65.149807 
3207.000000	65.136337 
3206.000000	65.122103 
3205.000000	65.108346 
3204.000000	65.096139 
3203.000000	65.086317 
3202.000000	65.079379 
3201.000000	65.075540 
3200.000000	65.074658 
3199.000000	65.076375 
3198.000000	65.079760 
3197.000000	65.083551 
3196.000000	65.086364 
3195.000000	65.086793 
3194.000000	65.083718 
3193.000000	65.076518 
3192.000000	65.065407 
3191.000000	65.051412 
3190.000000	65.036177 
3189.000000	65.021467 
3188.000000	65.008735 
3187.000000	64.998912 
3186.000000	64.992213 
3185.000000	64.988040 
3184.000000	64.985322 
3183.000000	64.982724 
3182.000000	64.979171 
3181.000000	64.974212 
3180.000000	64.968132 
3179.000000	64.961767 
3178.000000	64.956331 
3177.000000	64.953160 
3176.000000	64.953160 
3175.000000	64.956760 
3174.000000	64.963793 
3173.000000	64.973688 
3172.000000	64.985632 
3171.000000	64.998865 
3170.000000	65.012741 
3169.000000	65.027022 
3168.000000	65.041613 
3167.000000	65.056514 
3166.000000	65.071606 
3165.000000	65.086388 
3164.000000	65.099787 
3163.000000	65.110301 
3162.000000	65.116238 
3161.000000	65.115952 
3160.000000	65.108609 
3159.000000	65.094304 
3158.000000	65.074563 
3157.000000	65.052223 
3156.000000	65.030717 
3155.000000	65.013551 
3154.000000	65.003442 
3153.000000	65.001940 
3152.000000	65.008902 
3151.000000	65.022611 
3150.000000	65.040254 
3149.000000	65.058350 
3148.000000	65.073704 
3147.000000	65.083909 
3146.000000	65.087652 
3145.000000	65.084886 
3144.000000	65.076804 
3143.000000	65.065407 
3142.000000	65.052986 
3141.000000	65.041565 
3140.000000	65.032601 
3139.000000	65.026855 
3138.000000	65.023922 
3137.000000	65.022802 
3136.000000	65.021991 
3135.000000	65.020132 
3134.000000	65.016055 
3133.000000	65.009713 
3132.000000	65.002036 
3131.000000	64.995098 
3130.000000	64.991497 
3129.000000	64.993834 
3128.000000	65.003991 
3127.000000	65.022325 
3126.000000	65.047574 
3125.000000	65.076613 
3124.000000	65.105223 
3123.000000	65.128564 
3122.000000	65.142512 
3121.000000	65.144324 
3120.000000	65.132999 
3119.000000	65.109682 
3118.000000	65.077352 
3117.000000	65.040040 
3116.000000	65.002131 
3115.000000	64.967632 
3114.000000	64.939379 
3113.000000	64.918684 
3112.000000	64.905261 
3111.000000	64.897751 
3110.000000	64.894199 
3109.000000	64.892601 
3108.000000	64.891457 
3107.000000	64.889788 
3106.000000	64.887738 
3105.000000	64.885640 
3104.000000	64.884281 
3103.000000	64.884185 
3102.000000	64.885330 
3101.000000	64.887046 
3100.000000	64.888191 
3099.000000	64.887332 
3098.000000	64.883279 
3097.000000	64.875388 
3096.000000	64.863920 
3095.000000	64.850091 
3094.000000	64.835810 
3093.000000	64.823246 
3092.000000	64.814519 
3091.000000	64.811277 
3090.000000	64.814448 
3089.000000	64.824247 
3088.000000	64.839959 
3087.000000	64.860200 
3086.000000	64.883160 
3085.000000	64.906620 
3084.000000	64.928317 
3083.000000	64.946293 
3082.000000	64.958977 
3081.000000	64.965772 
3080.000000	64.966964 
3079.000000	64.963960 
3078.000000	64.958786 
3077.000000	64.953851 
3076.000000	64.951443 
3075.000000	64.953112 
3074.000000	64.959383 
3073.000000	64.969611 
3072.000000	64.982342 
3071.000000	64.995789 
3070.000000	65.008544 
3069.000000	65.020108 
3068.000000	65.031099 
3067.000000	65.042948 
3066.000000	65.057444 
3065.000000	65.075707 
3064.000000	65.097475 
3063.000000	65.120506 
3062.000000	65.140771 
3061.000000	65.153002 
3060.000000	65.152072 
3059.000000	65.134239 
3058.000000	65.098500 
3057.000000	65.047001 
3056.000000	64.985346 
3055.000000	64.921355 
3054.000000	64.863824 
3053.000000	64.820432 
3052.000000	64.796495 
3051.000000	64.794015 
3050.000000	64.811134 
3049.000000	64.842844 
3048.000000	64.882302 
3047.000000	64.922213 
3046.000000	64.956498 
3045.000000	64.980936 
3044.000000	64.994025 
3043.000000	64.996552 
3042.000000	64.991044 
3041.000000	64.980554 
3040.000000	64.968156 
3039.000000	64.955949 
3038.000000	64.945030 
3037.000000	64.935398 
3036.000000	64.926314 
3035.000000	64.916849 
3034.000000	64.906167 
3033.000000	64.894318 
3032.000000	64.881992 
3031.000000	64.870762 
3030.000000	64.862275 
3029.000000	64.858388 
3028.000000	64.860200 
3027.000000	64.867997 
3026.000000	64.881038 
3025.000000	64.897775 
3024.000000	64.915776 
3023.000000	64.932608 
3022.000000	64.946317 
3021.000000	64.955711 
3020.000000	64.960670 
3019.000000	64.961838 
3018.000000	64.960551 
3017.000000	64.958286 
3016.000000	64.956355 
3015.000000	64.955449 
3014.000000	64.955377 
3013.000000	64.955830 
3012.000000	64.956450 
3011.000000	64.957475 
3010.000000	64.959645 
3009.000000	64.964079 
3008.000000	64.971971 
3007.000000	64.984083 
3006.000000	65.000176 
3005.000000	65.018892 
3004.000000	65.037822 
3003.000000	65.054059 
3002.000000	65.065002 
3001.000000	65.069007 
3000.000000	65.065956 
2999.000000	65.057396 
2998.000000	65.046167 
2997.000000	65.035510 
2996.000000	65.028309 
2995.000000	65.026259 
2994.000000	65.029120 
2993.000000	65.035057 
2992.000000	65.040874 
2991.000000	65.043067 
2990.000000	65.038990 
2989.000000	65.027475 
2988.000000	65.009379 
2987.000000	64.987254 
2986.000000	64.965009 
2985.000000	64.946722 
2984.000000	64.935803 
2983.000000	64.933800 
2982.000000	64.940428 
2981.000000	64.953565 
2980.000000	64.969706 
2979.000000	64.985084 
2978.000000	64.996314 
2977.000000	65.001320 
2976.000000	64.999294 
2975.000000	64.991116 
2974.000000	64.978575 
2973.000000	64.963960 
2972.000000	64.949584 
2971.000000	64.937281 
2970.000000	64.928412 
2969.000000	64.923548 
2968.000000	64.922952 
2967.000000	64.926266 
2966.000000	64.932870 
2965.000000	64.941620 
2964.000000	64.951276 
2963.000000	64.960169 
2962.000000	64.966535 
2961.000000	64.968729 
2960.000000	64.965581 
2959.000000	64.956569 
2958.000000	64.942169 
2957.000000	64.923620 
2956.000000	64.902782 
2955.000000	64.881587 
2954.000000	64.861607 
2953.000000	64.843964 
2952.000000	64.828920 
2951.000000	64.816236 
2950.000000	64.805459 
2949.000000	64.796066 
2948.000000	64.788126 
2947.000000	64.781951 
2946.000000	64.778399 
2945.000000	64.778161 
2944.000000	64.781761 
2943.000000	64.789342 
2942.000000	64.800596 
2941.000000	64.814591 
2940.000000	64.829969 
2939.000000	64.845085 
2938.000000	64.858293 
2937.000000	64.868307 
2936.000000	64.874219 
2935.000000	64.875936 
2934.000000	64.873981 
2933.000000	64.869403 
2932.000000	64.863443 
2931.000000	64.857339 
2930.000000	64.852046 
2929.000000	64.848113 
2928.000000	64.845728 
2927.000000	64.844799 
2926.000000	64.845180 
2925.000000	64.846706 
2924.000000	64.849328 
2923.000000	64.852929 
2922.000000	64.857220 
2921.000000	64.861798 
2920.000000	64.865994 
2919.000000	64.868927 
2918.000000	64.869499 
2917.000000	64.867091 
2916.000000	64.861202 
2915.000000	64.852023 
2914.000000	64.840388 
2913.000000	64.827728 
2912.000000	64.815759 
2911.000000	64.806199 
2910.000000	64.800286 
2909.000000	64.798545 
2908.000000	64.800691 
2907.000000	64.805722 
2906.000000	64.812111 
2905.000000	64.818572 
2904.000000	64.824295 
2903.000000	64.829134 
2902.000000	64.833736 
2901.000000	64.838933 
2900.000000	64.845633 
2899.000000	64.854097 
2898.000000	64.863705 
2897.000000	64.873099 
2896.000000	64.880347 
2895.000000	64.883613 
2894.000000	64.881634 
2893.000000	64.874291 
2892.000000	64.862656 
2891.000000	64.848947 
2890.000000	64.835906 
2889.000000	64.826321 
2888.000000	64.822149 
2887.000000	64.824295 
2886.000000	64.832305 
2885.000000	64.844608 
2884.000000	64.858913 
2883.000000	64.872932 
2882.000000	64.884662 
2881.000000	64.893078 
2880.000000	64.897918 
2879.000000	64.899706 
2878.000000	64.899301 
2877.000000	64.897513 
2876.000000	64.894866 
2875.000000	64.891433 
2874.000000	64.886951 
2873.000000	64.881038 
2872.000000	64.873409 
2871.000000	64.864015 
2870.000000	64.853096 
2869.000000	64.841175 
2868.000000	64.828777 
2867.000000	64.816808 
2866.000000	64.805936 
2865.000000	64.797043 
2864.000000	64.790844 
2863.000000	64.788174 
2862.000000	64.789628 
2861.000000	64.795589 
2860.000000	64.805817 
2859.000000	64.819478 
2858.000000	64.835238 
2857.000000	64.851140 
2856.000000	64.865088 
2855.000000	64.875102 
2854.000000	64.879631 
2853.000000	64.877963 
2852.000000	64.870190 
2851.000000	64.857149 
2850.000000	64.840269 
2849.000000	64.821243 
2848.000000	64.801812 
2847.000000	64.783358 
2846.000000	64.767003 
2845.000000	64.753699 
2844.000000	64.744186 
2843.000000	64.739084 
2842.000000	64.738893 
2841.000000	64.743900 
2840.000000	64.754104 
2839.000000	64.768838 
2838.000000	64.786767 
2837.000000	64.805936 
2836.000000	64.823889 
2835.000000	64.838075 
2834.000000	64.846372 
2833.000000	64.847373 
2832.000000	64.840960 
2831.000000	64.828276 
2830.000000	64.811611 
2829.000000	64.793896 
2828.000000	64.778327 
2827.000000	64.767718 
2826.000000	64.763927 
2825.000000	64.767599 
2824.000000	64.778304 
2823.000000	64.794731 
2822.000000	64.815139 
2821.000000	64.837718 
2820.000000	64.860939 
2819.000000	64.883589 
2818.000000	64.904928 
2817.000000	64.924597 
2816.000000	64.942264 
2815.000000	64.957642 
2814.000000	64.970493 
2813.000000	64.980483 
2812.000000	64.987373 
2811.000000	64.990878 
2810.000000	64.991259 
2809.000000	64.988875 
2808.000000	64.984393 
2807.000000	64.978361 
2806.000000	64.971375 
2805.000000	64.963603 
2804.000000	64.954948 
2803.000000	64.944911 
2802.000000	64.932870 
2801.000000	64.918613 
2800.000000	64.902353 
2799.000000	64.885187 
2798.000000	64.868974 
2797.000000	64.856076 
2796.000000	64.848828 
2795.000000	64.849114 
2794.000000	64.857649 
2793.000000	64.873695 
2792.000000	64.894986 
2791.000000	64.917922 
2790.000000	64.938569 
2789.000000	64.953565 
2788.000000	64.961171 
2787.000000	64.961194 
2786.000000	64.955377 
2785.000000	64.946937 
2784.000000	64.939641 
2783.000000	64.936971 
2782.000000	64.940905 
2781.000000	64.951992 
2780.000000	64.968824 
2779.000000	64.988708 
2778.000000	65.008115 
2777.000000	65.023636 
2776.000000	65.032577 
2775.000000	65.033626 
2774.000000	65.027070 
2773.000000	65.014457 
2772.000000	64.998412 
2771.000000	64.982151 
2770.000000	64.968609 
2769.000000	64.960026 
2768.000000	64.957571 
2767.000000	64.961075 
2766.000000	64.969038 
2765.000000	64.978837 
2764.000000	64.987206 
2763.000000	64.990949 
2762.000000	64.987444 
2761.000000	64.975619 
2760.000000	64.955735 
2759.000000	64.929652 
2758.000000	64.900493 
2757.000000	64.872026 
2756.000000	64.847683 
2755.000000	64.830303 
2754.000000	64.821267 
2753.000000	64.820718 
2752.000000	64.827442 
2751.000000	64.839577 
2750.000000	64.854788 
2749.000000	64.871239 
2748.000000	64.887523 
2747.000000	64.903283 
2746.000000	64.918613 
2745.000000	64.934134 
2744.000000	64.950370 
2743.000000	64.967560 
2742.000000	64.985299 
2741.000000	65.002775 
2740.000000	65.018653 
2739.000000	65.031504 
2738.000000	65.039920 
2737.000000	65.042734 
2736.000000	65.039467 
2735.000000	65.030241 
2734.000000	65.015816 
2733.000000	64.997291 
2732.000000	64.976286 
2731.000000	64.954543 
2730.000000	64.933705 
2729.000000	64.915323 
2728.000000	64.900541 
2727.000000	64.890336 
2726.000000	64.885234 
2725.000000	64.885306 
2724.000000	64.890408 
2723.000000	64.899826 
2722.000000	64.912605 
2721.000000	64.927625 
2720.000000	64.943981 
2719.000000	64.960885 
2718.000000	64.977908 
2717.000000	64.994740 
2716.000000	65.011143 
2715.000000	65.026617 
2714.000000	65.040230 
2713.000000	65.050697 
2712.000000	65.056490 
2711.000000	65.056204 
2710.000000	65.049028 
2709.000000	65.034961 
2708.000000	65.015316 
2707.000000	64.992356 
2706.000000	64.968895 
2705.000000	64.947724 
2704.000000	64.931011 
2703.000000	64.919781 
2702.000000	64.913773 
2701.000000	64.911603 
2700.000000	64.911556 
2699.000000	64.911913 
2698.000000	64.911699 
2697.000000	64.910674 
2696.000000	64.909195 
2695.000000	64.908456 
2694.000000	64.909315 
2693.000000	64.912724 
2692.000000	64.918971 
2691.000000	64.928150 
2690.000000	64.939975 
2689.000000	64.954137 
2688.000000	64.970278 
2687.000000	64.988160 
2686.000000	65.007257 
2685.000000	65.026783 
2684.000000	65.045595 
2683.000000	65.062022 
2682.000000	65.074157 
2681.000000	65.080189 
2680.000000	65.078759 
2679.000000	65.069460 
2678.000000	65.052843 
2677.000000	65.030407 
2676.000000	65.004348 
2675.000000	64.977192 
2674.000000	64.951205 
2673.000000	64.928150 
2672.000000	64.909195 
2671.000000	64.894723 
2670.000000	64.884567 
2669.000000	64.878106 
2668.000000	64.874482 
2667.000000	64.872741 
2666.000000	64.872264 
2665.000000	64.872717 
2664.000000	64.874100 
2663.000000	64.876437 
2662.000000	64.879989 
2661.000000	64.884901 
2660.000000	64.891338 
2659.000000	64.899253 
2658.000000	64.908432 
2657.000000	64.918613 
2656.000000	64.929366 
2655.000000	64.940094 
2654.000000	64.950108 
2653.000000	64.958477 
2652.000000	64.964175 
2651.000000	64.966177 
2650.000000	64.963722 
2649.000000	64.956665 
2648.000000	64.945340 
2647.000000	64.930891 
2646.000000	64.915180 
2645.000000	64.900302 
2644.000000	64.888572 
2643.000000	64.881372 
2642.000000	64.879107 
2641.000000	64.880847 
2640.000000	64.884567 
2639.000000	64.887809 
2638.000000	64.888143 
2637.000000	64.884066 
2636.000000	64.875245 
2635.000000	64.863014 
2634.000000	64.849948 
2633.000000	64.839124 
2632.000000	64.833354 
2631.000000	64.834642 
2630.000000	64.843487 
2629.000000	64.858794 
2628.000000	64.877986 
2627.000000	64.897823 
2626.000000	64.914727 
2625.000000	64.925885 
2624.000000	64.929509 
2623.000000	64.925312 
2622.000000	64.914274 
2621.000000	64.898514 
2620.000000	64.880752 
2619.000000	64.863681 
2618.000000	64.849591 
2617.000000	64.840149 
2616.000000	64.835882 
2615.000000	64.836549 
2614.000000	64.840841 
2613.000000	64.847230 
2612.000000	64.853787 
2611.000000	64.858818 
2610.000000	64.860844 
2609.000000	64.858913 
2608.000000	64.852571 
2607.000000	64.841890 
2606.000000	64.827322 
2605.000000	64.809751 
2604.000000	64.790487 
2603.000000	64.771342 
2602.000000	64.754319 
2601.000000	64.741539 
2600.000000	64.734816 
2599.000000	64.735341 
2598.000000	64.743447 
2597.000000	64.758372 
2596.000000	64.778280 
2595.000000	64.800596 
2594.000000	64.822387 
2593.000000	64.840817 
2592.000000	64.853739 
2591.000000	64.860057 
2590.000000	64.859795 
2589.000000	64.854025 
2588.000000	64.844489 
2587.000000	64.833045 
2586.000000	64.821577 
2585.000000	64.811372 
2584.000000	64.803075 
2583.000000	64.796614 
2582.000000	64.791631 
2581.000000	64.787411 
2580.000000	64.783287 
2579.000000	64.778685 
2578.000000	64.773368 
2577.000000	64.767217 
2576.000000	64.760446 
2575.000000	64.753270 
2574.000000	64.746117 
2573.000000	64.739227 
2572.000000	64.732933 
2571.000000	64.727592 
2570.000000	64.723467 
2569.000000	64.720845 
2568.000000	64.720034 
2567.000000	64.721274 
2566.000000	64.724636 
2565.000000	64.730072 
2564.000000	64.737462 
2563.000000	64.746403 
2562.000000	64.756512 
2561.000000	64.767408 
2560.000000	64.778661 
2559.000000	64.789962 
2558.000000	64.801049 
2557.000000	64.811730 
2556.000000	64.821839 
2555.000000	64.831233 
2554.000000	64.839601 
2553.000000	64.846467 
2552.000000	64.851403 
2551.000000	64.854073 
2550.000000	64.854478 
2549.000000	64.852833 
2548.000000	64.849901 
2547.000000	64.846396 
2546.000000	64.843177 
2545.000000	64.840722 
2544.000000	64.838910 
2543.000000	64.837121 
2542.000000	64.834403 
2541.000000	64.829707 
2540.000000	64.822268 
2539.000000	64.812088 
2538.000000	64.799714 
2537.000000	64.786481 
2536.000000	64.774036 
2535.000000	64.764261 
2534.000000	64.758419 
2533.000000	64.757227 
2532.000000	64.760494 
2531.000000	64.767432 
2530.000000	64.776897 
2529.000000	64.787697 
2528.000000	64.798808 
2527.000000	64.809656 
2526.000000	64.820027 
2525.000000	64.829897 
2524.000000	64.839220 
2523.000000	64.847779 
2522.000000	64.854860 
2521.000000	64.859604 
2520.000000	64.861202 
2519.000000	64.859056 
2518.000000	64.853072 
2517.000000	64.843940 
2516.000000	64.832973 
2515.000000	64.821839 
2514.000000	64.812254 
2513.000000	64.805722 
2512.000000	64.803099 
2511.000000	64.804506 
2510.000000	64.809298 
2509.000000	64.816451 
2508.000000	64.824461 
2507.000000	64.831733 
2506.000000	64.836859 
2505.000000	64.838719 
2504.000000	64.836907 
2503.000000	64.831399 
2502.000000	64.822840 
2501.000000	64.812278 
2500.000000	64.801216 
2499.000000	64.791274 
2498.000000	64.783978 
2497.000000	64.780402 
2496.000000	64.780926 
2495.000000	64.785194 
2494.000000	64.791917 
2493.000000	64.799284 
2492.000000	64.805316 
2491.000000	64.808416 
2490.000000	64.807629 
2489.000000	64.803171 
2488.000000	64.796066 
2487.000000	64.788436 
2486.000000	64.782595 
2485.000000	64.780902 
2484.000000	64.785051 
2483.000000	64.795517 
2482.000000	64.811849 
2481.000000	64.832067 
2480.000000	64.853358 
2479.000000	64.872550 
2478.000000	64.886569 
2477.000000	64.893269 
2476.000000	64.891910 
2475.000000	64.883184 
2474.000000	64.869117 
2473.000000	64.852666 
2472.000000	64.837026 
2471.000000	64.824771 
2470.000000	64.817357 
2469.000000	64.814734 
2468.000000	64.815378 
2467.000000	64.816761 
2466.000000	64.816260 
2465.000000	64.811921 
2464.000000	64.803099 
2463.000000	64.790630 
2462.000000	64.776778 
2461.000000	64.764285 
2460.000000	64.756011 
2459.000000	64.753580 
2458.000000	64.757513 
2457.000000	64.766907 
2456.000000	64.779806 
2455.000000	64.793848 
2454.000000	64.806699 
2453.000000	64.816689 
2452.000000	64.823007 
2451.000000	64.825558 
2450.000000	64.824724 
2449.000000	64.821052 
2448.000000	64.815092 
2447.000000	64.807248 
2446.000000	64.797806 
2445.000000	64.787030 
2444.000000	64.775514 
2443.000000	64.764118 
2442.000000	64.753794 
2441.000000	64.745330 
2440.000000	64.739346 
2439.000000	64.736080 
2438.000000	64.735341 
2437.000000	64.736628 
2436.000000	64.739537 
2435.000000	64.743542 
2434.000000	64.748406 
2433.000000	64.753699 
2432.000000	64.759063 
2431.000000	64.763855 
2430.000000	64.767146 
2429.000000	64.768052 
2428.000000	64.765524 
2427.000000	64.759182 
2426.000000	64.749288 
2425.000000	64.737057 
2424.000000	64.724421 
2423.000000	64.713788 
2422.000000	64.707612 
2421.000000	64.707994 
2420.000000	64.715933 
2419.000000	64.731383 
2418.000000	64.753174 
2417.000000	64.779448 
2416.000000	64.807724 
2415.000000	64.835476 
2414.000000	64.860486 
2413.000000	64.880967 
2412.000000	64.895987 
2411.000000	64.905381 
2410.000000	64.909696 
2409.000000	64.910244 
2408.000000	64.908480 
2407.000000	64.906191 
2406.000000	64.904546 
2405.000000	64.904451 
2404.000000	64.905619 
2403.000000	64.906835 
2402.000000	64.905977 
2401.000000	64.900541 
2400.000000	64.888501 
2399.000000	64.868927 
2398.000000	64.842224 
2397.000000	64.810514 
2396.000000	64.776945 
2395.000000	64.745259 
2394.000000	64.718651 
2393.000000	64.699244 
2392.000000	64.687633 
2391.000000	64.682817 
2390.000000	64.682936 
2389.000000	64.685511 
2388.000000	64.688444 
2387.000000	64.690303 
2386.000000	64.690518 
2385.000000	64.689469 
2384.000000	64.688086 
2383.000000	64.687538 
2382.000000	64.688634 
2381.000000	64.691901 
2380.000000	64.697504 
2379.000000	64.705276 
2378.000000	64.714741 
2377.000000	64.725351 
2376.000000	64.736342 
2375.000000	64.746522 
2374.000000	64.754557 
2373.000000	64.759159 
2372.000000	64.759087 
2371.000000	64.753746 
2370.000000	64.743447 
2369.000000	64.729452 
2368.000000	64.713597 
2367.000000	64.698457 
2366.000000	64.686560 
2365.000000	64.680123 
2364.000000	64.680457 
2363.000000	64.687800 
2362.000000	64.701414 
2361.000000	64.719510 
2360.000000	64.739727 
2359.000000	64.759421 
2358.000000	64.776158 
2357.000000	64.788126 
2356.000000	64.794254 
2355.000000	64.794325 
2354.000000	64.789009 
2353.000000	64.779710 
2352.000000	64.768075 
2351.000000	64.756083 
2350.000000	64.745235 
2349.000000	64.736676 
2348.000000	64.730834 
2347.000000	64.727616 
2346.000000	64.726614 
2345.000000	64.727497 
2344.000000	64.730167 
2343.000000	64.734935 
2342.000000	64.742255 
2341.000000	64.752602 
2340.000000	64.765977 
2339.000000	64.781689 
2338.000000	64.798212 
2337.000000	64.813375 
2336.000000	64.824771 
2335.000000	64.830088 
2334.000000	64.827775 
2333.000000	64.817428 
2332.000000	64.799976 
2331.000000	64.777398 
2330.000000	64.752650 
2329.000000	64.728975 
2328.000000	64.709424 
2327.000000	64.696121 
2326.000000	64.690232 
2325.000000	64.691853 
2324.000000	64.699864 
2323.000000	64.712429 
2322.000000	64.727210 
2321.000000	64.741945 
2320.000000	64.754652 
2319.000000	64.764118 
2318.000000	64.769816 
2317.000000	64.772176 
2316.000000	64.772057 
2315.000000	64.770555 
2314.000000	64.768648 
2313.000000	64.766836 
2312.000000	64.765143 
2311.000000	64.762949 
2310.000000	64.759469 
2309.000000	64.753770 
2308.000000	64.745402 
2307.000000	64.734292 
2306.000000	64.720845 
2305.000000	64.705872 
2304.000000	64.690303 
2303.000000	64.675116 
2302.000000	64.661121 
2301.000000	64.648795 
2300.000000	64.638495 
2299.000000	64.630389 
2298.000000	64.624714 
2297.000000	64.621782 
2296.000000	64.621829 
2295.000000	64.624786 
2294.000000	64.630222 
2293.000000	64.637279 
2292.000000	64.644789 
2291.000000	64.651513 
2290.000000	64.656448 
2289.000000	64.659070 
2288.000000	64.659595 
2287.000000	64.658904 
2286.000000	64.658355 
2285.000000	64.659285 
2284.000000	64.662814 
2283.000000	64.669275 
2282.000000	64.678382 
2281.000000	64.689087 
2280.000000	64.699959 
2279.000000	64.709615 
2278.000000	64.716935 
2277.000000	64.721369 
2276.000000	64.722871 
2275.000000	64.722037 
2274.000000	64.719629 
2273.000000	64.716506 
2272.000000	64.713335 
2271.000000	64.710617 
2270.000000	64.708733 
2269.000000	64.707994 
2268.000000	64.708709 
2267.000000	64.711093 
2266.000000	64.715385 
2265.000000	64.721584 
2264.000000	64.729261 
2263.000000	64.737749 
2262.000000	64.746046 
2261.000000	64.752888 
2260.000000	64.757180 
2259.000000	64.758110 
2258.000000	64.755415 
2257.000000	64.749264 
2256.000000	64.740133 
2255.000000	64.728808 
2254.000000	64.715886 
2253.000000	64.701628 
2252.000000	64.686036 
2251.000000	64.668917 
2250.000000	64.650034 
2249.000000	64.629364 
2248.000000	64.607381 
2247.000000	64.584922 
2246.000000	64.563345 
2245.000000	64.544177 
2244.000000	64.528870 
2243.000000	64.518332 
2242.000000	64.513063 
2241.000000	64.512610 
2240.000000	64.516377 
2239.000000	64.523220 
2238.000000	64.532136 
2237.000000	64.542388 
2236.000000	64.553618 
2235.000000	64.565777 
2234.000000	64.579010 
2233.000000	64.593434 
2232.000000	64.608788 
2231.000000	64.624428 
2230.000000	64.639282 
2229.000000	64.651846 
2228.000000	64.660668 
2227.000000	64.664673 
2226.000000	64.663505 
2225.000000	64.657688 
2224.000000	64.648628 
2223.000000	64.638376 
2222.000000	64.629054 
2221.000000	64.622378 
2220.000000	64.619565 
2219.000000	64.620661 
2218.000000	64.624786 
2217.000000	64.630270 
2216.000000	64.635229 
2215.000000	64.638113 
2214.000000	64.637756 
2213.000000	64.633774 
2212.000000	64.626622 
2211.000000	64.617347 
2210.000000	64.607310 
2209.000000	64.597988 
2208.000000	64.590430 
2207.000000	64.585280 
2206.000000	64.582729 
2205.000000	64.582490 
2204.000000	64.583921 
2203.000000	64.586257 
2202.000000	64.588856 
2201.000000	64.590978 
2200.000000	64.592146 
2199.000000	64.591932 
2198.000000	64.590239 
2197.000000	64.587211 
2196.000000	64.583468 
2195.000000	64.580035 
2194.000000	64.578294 
2193.000000	64.579796 
2192.000000	64.585661 
2191.000000	64.596366 
2190.000000	64.611315 
2189.000000	64.628863 
2188.000000	64.646387 
2187.000000	64.661097 
2186.000000	64.670467 
2185.000000	64.672923 
2184.000000	64.668321 
2183.000000	64.658188 
2182.000000	64.645099 
2181.000000	64.632320 
2180.000000	64.622569 
2179.000000	64.617466 
2178.000000	64.616847 
2177.000000	64.619183 
2176.000000	64.621949 
2175.000000	64.622497 
2174.000000	64.618897 
2173.000000	64.610743 
2172.000000	64.598965 
2171.000000	64.585590 
2170.000000	64.573049 
2169.000000	64.563488 
2168.000000	64.558172 
2167.000000	64.557242 
2166.000000	64.559745 
2165.000000	64.564037 
2164.000000	64.568066 
2163.000000	64.570283 
2162.000000	64.569616 
2161.000000	64.566040 
2160.000000	64.560103 
2159.000000	64.553022 
2158.000000	64.545965 
2157.000000	64.540076 
2156.000000	64.536046 
2155.000000	64.534068 
2154.000000	64.533877 
2153.000000	64.534926 
2152.000000	64.536762 
2151.000000	64.539027 
2150.000000	64.541602 
2149.000000	64.544653 
2148.000000	64.548444 
2147.000000	64.553356 
2146.000000	64.559578 
2145.000000	64.566969 
2144.000000	64.575004 
2143.000000	64.582896 
2142.000000	64.589643 
2141.000000	64.594388 
2140.000000	64.596629 
2139.000000	64.596295 
2138.000000	64.593863 
2137.000000	64.590072 
2136.000000	64.585828 
2135.000000	64.581990 
2134.000000	64.579105 
2133.000000	64.577412 
2132.000000	64.576745 
2131.000000	64.576601 
2130.000000	64.576268 
2129.000000	64.574933 
2128.000000	64.572000 
2127.000000	64.566993 
2126.000000	64.559841 
2125.000000	64.550828 
2124.000000	64.540672 
2123.000000	64.530301 
2122.000000	64.520859 
2121.000000	64.513468 
2120.000000	64.509010 
2119.000000	64.507937 
2118.000000	64.510154 
2117.000000	64.515018 
2116.000000	64.521312 
2115.000000	64.527726 
2114.000000	64.532852 
2113.000000	64.535784 
2112.000000	64.536166 
2111.000000	64.534139 
2110.000000	64.530467 
2109.000000	64.526033 
2108.000000	64.521718 
2107.000000	64.518022 
2106.000000	64.515185 
2105.000000	64.512968 
2104.000000	64.510869 
2103.000000	64.508414 
2102.000000	64.505219 
2101.000000	64.501285 
2100.000000	64.497041 
2099.000000	64.493346 
2098.000000	64.491105 
2097.000000	64.491295 
2096.000000	64.494466 
2095.000000	64.500617 
2094.000000	64.509248 
2093.000000	64.519309 
2092.000000	64.529538 
2091.000000	64.538764 
2090.000000	64.546298 
2089.000000	64.551901 
2088.000000	64.555859 
2087.000000	64.558839 
2086.000000	64.561462 
2085.000000	64.564156 
2084.000000	64.566898 
2083.000000	64.569163 
2082.000000	64.570045 
2081.000000	64.568543 
2080.000000	64.563965 
2079.000000	64.556050 
2078.000000	64.545154 
2077.000000	64.532423 
2076.000000	64.519500 
2075.000000	64.508342 
2074.000000	64.500617 
2073.000000	64.497613 
2072.000000	64.499902 
2071.000000	64.507174 
2070.000000	64.518451 
2069.000000	64.532065 
2068.000000	64.546012 
2067.000000	64.558172 
2066.000000	64.566731 
2065.000000	64.570403 
2064.000000	64.568471 
2063.000000	64.561128 
2062.000000	64.549160 
2061.000000	64.533925 
2060.000000	64.516997 
2059.000000	64.500069 
2058.000000	64.484453 
2057.000000	64.470982 
2056.000000	64.459919 
2055.000000	64.451122 
2054.000000	64.444088 
2053.000000	64.438295 
2052.000000	64.433288 
2051.000000	64.428877 
2050.000000	64.425039 
2049.000000	64.421892 
2048.000000	64.419412 
2047.000000	64.417505 
2046.000000	64.415836 
2045.000000	64.414286 
2044.000000	64.412808 
2043.000000	64.411950 
2042.000000	64.412546 
2041.000000	64.415621 
2040.000000	64.422059 
2039.000000	64.432120 
2038.000000	64.445304 
2037.000000	64.460158 
2036.000000	64.474725 
2035.000000	64.486742 
2034.000000	64.494228 
2033.000000	64.496159 
2032.000000	64.492678 
2031.000000	64.484953 
2030.000000	64.474940 
2029.000000	64.464807 
2028.000000	64.456534 
2027.000000	64.451384 
2026.000000	64.449834 
2025.000000	64.451718 
2024.000000	64.456415 
2023.000000	64.463448 
2022.000000	64.472293 
2021.000000	64.482665 
2020.000000	64.494276 
2019.000000	64.506602 
2018.000000	64.519000 
2017.000000	64.530301 
2016.000000	64.539194 
2015.000000	64.544486 
2014.000000	64.545464 
2013.000000	64.542126 
2012.000000	64.535284 
2011.000000	64.526438 
2010.000000	64.517378 
2009.000000	64.509654 
2008.000000	64.504241 
2007.000000	64.501070 
2006.000000	64.499497 
2005.000000	64.498162 
2004.000000	64.495611 
2003.000000	64.490556 
2002.000000	64.482235 
2001.000000	64.470672 
2000.000000	64.456367 
1999.000000	64.440560 
1998.000000	64.424490 
1997.000000	64.409732 
1996.000000	64.397573 
1995.000000	64.389181 
1994.000000	64.385247 
1993.000000	64.386177 
1992.000000	64.391946 
1991.000000	64.402103 
1990.000000	64.415788 
1989.000000	64.431858 
1988.000000	64.448881 
1987.000000	64.465451 
1986.000000	64.480137 
1985.000000	64.491939 
1984.000000	64.500260 
1983.000000	64.505028 
1982.000000	64.506578 
1981.000000	64.505767 
1980.000000	64.503455 
1979.000000	64.500665 
1978.000000	64.498305 
1977.000000	64.497137 
1976.000000	64.497447 
1975.000000	64.499449 
1974.000000	64.502906 
1973.000000	64.507317 
1972.000000	64.512133 
1971.000000	64.516758 
1970.000000	64.520621 
1969.000000	64.523339 
1968.000000	64.524769 
1967.000000	64.524841 
1966.000000	64.523816 
1965.000000	64.522218 
1964.000000	64.520668 
1963.000000	64.519762 
1962.000000	64.520049 
1961.000000	64.521908 
1960.000000	64.525318 
1959.000000	64.529871 
1958.000000	64.534687 
1957.000000	64.538693 
1956.000000	64.540672 
1955.000000	64.539694 
1954.000000	64.535069 
1953.000000	64.526605 
1952.000000	64.514541 
1951.000000	64.499521 
1950.000000	64.482474 
1949.000000	64.464402 
1948.000000	64.446210 
1947.000000	64.428567 
1946.000000	64.412069 
1945.000000	64.397215 
1944.000000	64.384269 
1943.000000	64.373636 
1942.000000	64.365601 
1941.000000	64.360666 
1940.000000	64.359116 
1939.000000	64.361286 
1938.000000	64.367127 
1937.000000	64.376354 
1936.000000	64.388370 
1935.000000	64.402198 
1934.000000	64.416670 
1933.000000	64.430356 
1932.000000	64.441919 
1931.000000	64.450168 
1930.000000	64.454317 
1929.000000	64.454102 
1928.000000	64.450049 
1927.000000	64.443182 
1926.000000	64.435124 
1925.000000	64.427709 
1924.000000	64.422678 
1923.000000	64.421486 
1922.000000	64.424967 
1921.000000	64.433121 
1920.000000	64.445352 
1919.000000	64.460468 
1918.000000	64.477086 
1917.000000	64.493489 
1916.000000	64.508271 
1915.000000	64.520263 
1914.000000	64.528989 
1913.000000	64.534282 
1912.000000	64.536547 
1911.000000	64.536595 
1910.000000	64.535140 
1909.000000	64.532661 
1908.000000	64.529013 
1907.000000	64.523768 
1906.000000	64.516019 
1905.000000	64.504957 
1904.000000	64.489936 
1903.000000	64.470982 
1902.000000	64.449000 
1901.000000	64.425706 
1900.000000	64.403414 
1899.000000	64.384555 
1898.000000	64.371323 
1897.000000	64.365077 
1896.000000	64.366126 
1895.000000	64.373517 
1894.000000	64.385271 
1893.000000	64.398813 
1892.000000	64.411425 
1891.000000	64.421129 
1890.000000	64.426755 
1889.000000	64.428544 
1888.000000	64.427733 
1887.000000	64.426422 
1886.000000	64.426922 
1885.000000	64.431047 
1884.000000	64.439606 
1883.000000	64.452099 
1882.000000	64.466810 
1881.000000	64.481043 
1880.000000	64.491844 
1879.000000	64.496517 
1878.000000	64.493465 
1877.000000	64.482378 
1876.000000	64.464330 
1875.000000	64.441347 
1874.000000	64.416122 
1873.000000	64.391326 
1872.000000	64.368963 
1871.000000	64.350366 
1870.000000	64.335894 
1869.000000	64.325284 
1868.000000	64.317846 
1867.000000	64.312982 
1866.000000	64.310312 
1865.000000	64.309716 
1864.000000	64.311408 
1863.000000	64.315485 
1862.000000	64.322209 
1861.000000	64.331197 
1860.000000	64.341950 
1859.000000	64.353537 
1858.000000	64.364933 
1857.000000	64.375138 
1856.000000	64.383268 
1855.000000	64.388847 
1854.000000	64.391469 
1853.000000	64.391112 
1852.000000	64.387893 
1851.000000	64.382028 
1850.000000	64.373946 
1849.000000	64.364051 
1848.000000	64.352893 
1847.000000	64.340972 
1846.000000	64.328789 
1845.000000	64.316844 
1844.000000	64.305257 
1843.000000	64.293837 
1842.000000	64.282250 
1841.000000	64.270329 
1840.000000	64.257764 
1839.000000	64.244842 
1838.000000	64.232325 
1837.000000	64.221715 
1836.000000	64.214682 
1835.000000	64.213156 
1834.000000	64.218497 
1833.000000	64.231181 
1832.000000	64.250469 
1831.000000	64.274358 
1830.000000	64.299845 
1829.000000	64.323329 
1828.000000	64.341688 
1827.000000	64.352679 
1826.000000	64.355611 
1825.000000	64.351677 
1824.000000	64.343452 
1823.000000	64.334559 
1822.000000	64.328813 
1821.000000	64.329457 
1820.000000	64.338254 
1819.000000	64.355349 
1818.000000	64.379215 
1817.000000	64.407014 
1816.000000	64.435267 
1815.000000	64.460563 
1814.000000	64.480352 
1813.000000	64.493036 
1812.000000	64.498257 
1811.000000	64.496707 
1810.000000	64.489936 
1809.000000	64.479613 
1808.000000	64.467334 
1807.000000	64.454436 
1806.000000	64.441609 
1805.000000	64.429235 
1804.000000	64.417338 
1803.000000	64.405941 
1802.000000	64.395260 
1801.000000	64.385890 
1800.000000	64.378809 
1799.000000	64.374971 
1798.000000	64.375185 
1797.000000	64.379763 
1796.000000	64.388155 
1795.000000	64.399027 
1794.000000	64.410352 
1793.000000	64.419770 
1792.000000	64.424943 
1791.000000	64.424276 
1790.000000	64.417052 
1789.000000	64.403820 
1788.000000	64.386177 
1787.000000	64.366579 
1786.000000	64.347958 
1785.000000	64.332985 
1784.000000	64.323592 
1783.000000	64.320421 
1782.000000	64.323043 
1781.000000	64.329934 
1780.000000	64.338684 
1779.000000	64.346814 
1778.000000	64.352345 
1777.000000	64.354252 
1776.000000	64.352536 
1775.000000	64.348459 
1774.000000	64.343929 
1773.000000	64.341211 
1772.000000	64.342069 
1771.000000	64.347410 
1770.000000	64.357137 
1769.000000	64.370083 
1768.000000	64.384222 
1767.000000	64.397287 
1766.000000	64.407181 
1765.000000	64.412546 
1764.000000	64.412856 
1763.000000	64.408373 
1762.000000	64.399957 
1761.000000	64.388823 
1760.000000	64.376020 
1759.000000	64.362382 
1758.000000	64.348053 
1757.000000	64.333033 
1756.000000	64.316773 
1755.000000	64.298772 
1754.000000	64.278483 
1753.000000	64.255905 
1752.000000	64.231371 
1751.000000	64.205646 
1750.000000	64.179825 
1749.000000	64.155197 
1748.000000	64.132952 
1747.000000	64.113879 
1746.000000	64.098405 
1745.000000	64.086341 
1744.000000	64.076924 
1743.000000	64.068984 
1742.000000	64.061379 
1741.000000	64.053320 
1740.000000	64.044594 
1739.000000	64.035844 
1738.000000	64.028453 
1737.000000	64.024186 
1736.000000	64.024734 
1735.000000	64.031195 
1734.000000	64.043641 
1733.000000	64.060902 
1732.000000	64.080691 
1731.000000	64.100313 
1730.000000	64.116930 
1729.000000	64.128470 
1728.000000	64.133620 
1727.000000	64.132404 
1726.000000	64.126014 
1725.000000	64.116597 
1724.000000	64.106583 
1723.000000	64.098429 
1722.000000	64.094257 
1721.000000	64.095449 
1720.000000	64.102458 
1719.000000	64.114904 
1718.000000	64.131975 
1717.000000	64.152216 
1716.000000	64.173936 
1715.000000	64.195346 
1714.000000	64.214730 
1713.000000	64.230632 
1712.000000	64.242029 
1711.000000	64.248442 
1710.000000	64.249992 
1709.000000	64.247441 
1708.000000	64.242076 
1707.000000	64.235520 
1706.000000	64.229464 
1705.000000	64.225482 
1704.000000	64.224624 
1703.000000	64.227223 
1702.000000	64.232802 
1701.000000	64.240264 
1700.000000	64.248108 
1699.000000	64.254641 
1698.000000	64.258575 
1697.000000	64.259314 
1696.000000	64.257121 
1695.000000	64.253020 
1694.000000	64.248466 
1693.000000	64.244937 
1692.000000	64.243602 
1691.000000	64.244842 
1690.000000	64.248228 
1689.000000	64.252710 
1688.000000	64.256882 
1687.000000	64.259552 
1686.000000	64.260125 
1685.000000	64.258813 
1684.000000	64.256477 
1683.000000	64.254331 
1682.000000	64.253258 
1681.000000	64.253473 
1680.000000	64.254379 
1679.000000	64.254331 
1678.000000	64.251351 
1677.000000	64.243483 
1676.000000	64.229607 
1675.000000	64.209771 
1674.000000	64.185023 
1673.000000	64.157366 
1672.000000	64.129185 
1671.000000	64.102911 
1670.000000	64.080405 
1669.000000	64.062809 
1668.000000	64.050412 
1667.000000	64.043045 
1666.000000	64.040207 
1665.000000	64.041495 
1664.000000	64.046406 
1663.000000	64.054489 
1662.000000	64.064884 
1661.000000	64.076423 
1660.000000	64.087605 
1659.000000	64.096760 
1658.000000	64.102220 
1657.000000	64.103031 
1656.000000	64.099097 
1655.000000	64.091086 
1654.000000	64.080524 
1653.000000	64.069437 
1652.000000	64.059877 
1651.000000	64.053511 
1650.000000	64.051198 
1649.000000	64.053201 
1648.000000	64.058804 
1647.000000	64.066863 
1646.000000	64.075851 
1645.000000	64.084506 
1644.000000	64.091491 
1643.000000	64.095950 
1642.000000	64.097356 
1641.000000	64.095544 
1640.000000	64.090967 
1639.000000	64.084315 
1638.000000	64.076852 
1637.000000	64.070153 
1636.000000	64.065790 
1635.000000	64.065074 
1634.000000	64.068913 
1633.000000	64.077615 
1632.000000	64.090967 
1631.000000	64.108371 
1630.000000	64.128851 
1629.000000	64.151263 
1628.000000	64.174342 
1627.000000	64.196825 
1626.000000	64.217448 
1625.000000	64.234900 
1624.000000	64.248228 
1623.000000	64.256596 
1622.000000	64.259767 
1621.000000	64.257836 
1620.000000	64.251422 
1619.000000	64.241361 
1618.000000	64.228940 
1617.000000	64.215135 
1616.000000	64.200687 
1615.000000	64.185857 
1614.000000	64.170575 
1613.000000	64.154672 
1612.000000	64.138150 
1611.000000	64.121341 
1610.000000	64.105057 
1609.000000	64.090538 
1608.000000	64.079046 
1607.000000	64.071607 
1606.000000	64.068675 
1605.000000	64.070057 
1604.000000	64.074921 
1603.000000	64.081859 
1602.000000	64.089083 
1601.000000	64.094734 
1600.000000	64.097285 
1599.000000	64.095354 
1598.000000	64.088606 
1597.000000	64.077305 
1596.000000	64.062905 
1595.000000	64.047408 
1594.000000	64.033341 
1593.000000	64.023256 
1592.000000	64.019203 
1591.000000	64.022469 
1590.000000	64.032888 
1589.000000	64.049172 
1588.000000	64.068675 
1587.000000	64.088225 
1586.000000	64.104485 
1585.000000	64.114809 
1584.000000	64.117646 
1583.000000	64.112854 
1582.000000	64.101696 
1581.000000	64.086556 
1580.000000	64.070296 
1579.000000	64.055705 
1578.000000	64.044809 
1577.000000	64.038658 
1576.000000	64.037132 
1575.000000	64.039254 
1574.000000	64.043211 
1573.000000	64.046955 
1572.000000	64.048671 
1571.000000	64.047408 
1570.000000	64.043068 
1569.000000	64.036560 
1568.000000	64.029359 
1567.000000	64.023399 
1566.000000	64.020442 
1565.000000	64.021492 
1564.000000	64.026832 
1563.000000	64.035439 
1562.000000	64.045381 
1561.000000	64.053940 
1560.000000	64.058375 
1559.000000	64.056396 
1558.000000	64.046764 
1557.000000	64.029479 
1556.000000	64.005923 
1555.000000	63.978385 
1554.000000	63.949728 
1553.000000	63.922905 
1552.000000	63.900589 
1551.000000	63.885164 
1550.000000	63.878393 
1549.000000	63.881540 
1548.000000	63.895058 
1547.000000	63.918375 
1546.000000	63.949918 
1545.000000	63.986706 
1544.000000	64.024996 
1543.000000	64.060640 
1542.000000	64.089751 
1541.000000	64.109301 
1540.000000	64.117813 
1539.000000	64.115548 
1538.000000	64.104104 
1537.000000	64.086461 
1536.000000	64.065814 
1535.000000	64.045190 
1534.000000	64.026927 
1533.000000	64.012408 
1532.000000	64.002203 
1531.000000	63.996577 
1530.000000	63.995504 
1529.000000	63.999080 
1528.000000	64.007306 
1527.000000	64.019989 
1526.000000	64.036512 
1525.000000	64.055585 
1524.000000	64.075350 
1523.000000	64.093542 
1522.000000	64.108061 
1521.000000	64.117455 
1520.000000	64.120960 
1519.000000	64.118695 
1518.000000	64.111638 
1517.000000	64.101219 
1516.000000	64.089179 
1515.000000	64.076972 
1514.000000	64.065909 
1513.000000	64.056491 
1512.000000	64.049029 
1511.000000	64.042925 
1510.000000	64.037466 
1509.000000	64.031386 
1508.000000	64.023566 
1507.000000	64.012932 
1506.000000	63.998532 
1505.000000	63.979887 
1504.000000	63.956904 
1503.000000	63.930439 
1502.000000	63.902044 
1501.000000	63.874459 
1500.000000	63.851046 
1499.000000	63.835501 
1498.000000	63.830780 
1497.000000	63.838410 
1496.000000	63.857960 
1495.000000	63.886570 
1494.000000	63.919782 
1493.000000	63.952565 
1492.000000	63.980388 
1491.000000	64.000487 
1490.000000	64.012074 
1489.000000	64.016175 
1488.000000	64.014935 
1487.000000	64.011096 
1486.000000	64.006829 
1485.000000	64.003396 
1484.000000	64.000892 
1483.000000	63.998985 
1482.000000	63.996720 
1481.000000	63.993167 
1480.000000	63.987517 
1479.000000	63.979649 
1478.000000	63.969898 
1477.000000	63.958954 
1476.000000	63.947677 
1475.000000	63.936710 
1474.000000	63.926386 
1473.000000	63.916540 
1472.000000	63.906598 
1471.000000	63.895916 
1470.000000	63.883900 
1469.000000	63.870549 
1468.000000	63.856291 
1467.000000	63.842344 
1466.000000	63.830280 
1465.000000	63.822031 
1464.000000	63.819432 
1463.000000	63.823890 
1462.000000	63.836193 
1461.000000	63.856482 
1460.000000	63.883852 
1459.000000	63.916754 
1458.000000	63.952994 
1457.000000	63.990092 
1456.000000	64.025473 
1455.000000	64.056634 
1454.000000	64.081263 
1453.000000	64.097595 
1452.000000	64.104700 
1451.000000	64.102268 
1450.000000	64.091134 
1449.000000	64.072680 
1448.000000	64.049220 
1447.000000	64.023232 
1446.000000	63.997149 
1445.000000	63.973045 
1444.000000	63.952469 
1443.000000	63.936567 
1442.000000	63.926005 
1441.000000	63.921236 
1440.000000	63.922500 
1439.000000	63.929677 
1438.000000	63.942575 
1437.000000	63.960313 
1436.000000	63.981723 
1435.000000	64.005088 
1434.000000	64.028501 
1433.000000	64.050054 
1432.000000	64.068245 
1431.000000	64.082074 
1430.000000	64.091467 
1429.000000	64.097023 
1428.000000	64.099717 
1427.000000	64.100933 
1426.000000	64.101791 
1425.000000	64.103007 
1424.000000	64.104580 
1423.000000	64.106178 
1422.000000	64.106917 
1421.000000	64.105749 
1420.000000	64.101314 
1419.000000	64.092659 
1418.000000	64.078903 
1417.000000	64.059734 
1416.000000	64.035391 
1415.000000	64.006733 
1414.000000	63.975238 
1413.000000	63.942980 
1412.000000	63.912487 
1411.000000	63.886094 
1410.000000	63.865852 
1409.000000	63.853096 
1408.000000	63.848066 
1407.000000	63.850092 
1406.000000	63.857388 
1405.000000	63.867807 
1404.000000	63.879275 
1403.000000	63.890314 
1402.000000	63.900017 
1401.000000	63.908553 
1400.000000	63.916611 
1399.000000	63.925099 
1398.000000	63.934516 
1397.000000	63.944911 
1396.000000	63.955664 
1395.000000	63.965606 
1394.000000	63.973307 
1393.000000	63.977384 
1392.000000	63.976836 
1391.000000	63.971257 
1390.000000	63.960862 
1389.000000	63.946509 
1388.000000	63.929152 
1387.000000	63.909983 
1386.000000	63.890099 
1385.000000	63.870334 
1384.000000	63.851308 
1383.000000	63.833570 
1382.000000	63.817977 
1381.000000	63.805460 
1380.000000	63.797330 
1379.000000	63.794946 
1378.000000	63.799452 
1377.000000	63.811230 
1376.000000	63.829636 
1375.000000	63.852953 
1374.000000	63.878440 
1373.000000	63.902568 
1372.000000	63.921880 
1371.000000	63.933563 
1370.000000	63.935923 
1369.000000	63.928842 
1368.000000	63.913631 
1367.000000	63.892889 
1366.000000	63.869643 
1365.000000	63.846802 
1364.000000	63.826560 
1363.000000	63.810253 
1362.000000	63.798141 
1361.000000	63.789963 
1360.000000	63.785076 
1359.000000	63.782930 
1358.000000	63.783168 
1357.000000	63.785743 
1356.000000	63.790607 
1355.000000	63.797855 
1354.000000	63.807272 
1353.000000	63.818526 
1352.000000	63.830971 
1351.000000	63.844156 
1350.000000	63.857507 
1349.000000	63.870739 
1348.000000	63.883662 
1347.000000	63.896250 
1346.000000	63.908505 
1345.000000	63.920331 
1344.000000	63.931608 
1343.000000	63.942193 
1342.000000	63.952136 
1341.000000	63.961482 
1340.000000	63.970446 
1339.000000	63.979148 
1338.000000	63.987445 
1337.000000	63.994932 
1336.000000	64.000773 
1335.000000	64.003801 
1334.000000	64.003109 
1333.000000	63.998055 
1332.000000	63.988828 
1331.000000	63.976311 
1330.000000	63.961911 
1329.000000	63.947582 
1328.000000	63.935351 
1327.000000	63.926863 
1326.000000	63.923192 
1325.000000	63.924384 
1324.000000	63.929748 
1323.000000	63.937854 
1322.000000	63.946890 
1321.000000	63.954949 
1320.000000	63.960433 
1319.000000	63.962435 
1318.000000	63.960766 
1317.000000	63.955593 
1316.000000	63.947534 
1315.000000	63.937330 
1314.000000	63.925623 
1313.000000	63.912725 
1312.000000	63.898921 
1311.000000	63.884520 
1310.000000	63.870120 
1309.000000	63.856625 
1308.000000	63.845348 
1307.000000	63.837862 
1306.000000	63.835525 
1305.000000	63.839149 
1304.000000	63.848662 
1303.000000	63.862943 
1302.000000	63.879942 
1301.000000	63.896894 
1300.000000	63.910841 
1299.000000	63.919138 
1298.000000	63.920092 
1297.000000	63.912987 
1296.000000	63.898181 
1295.000000	63.876724 
1294.000000	63.850283 
1293.000000	63.820576 
1292.000000	63.789153 
1291.000000	63.757181 
1290.000000	63.725733 
1289.000000	63.695836 
1288.000000	63.668632 
1287.000000	63.645362 
1286.000000	63.627433 
1285.000000	63.615798 
1284.000000	63.610839 
1283.000000	63.611960 
1282.000000	63.617753 
1281.000000	63.626122 
1280.000000	63.634657 
1279.000000	63.641381 
1278.000000	63.645076 
1277.000000	63.645601 
1276.000000	63.643717 
1275.000000	63.640809 
1274.000000	63.638663 
1273.000000	63.638401 
1272.000000	63.640594 
1271.000000	63.645052 
1270.000000	63.650727 
1269.000000	63.656568 
1268.000000	63.661670 
1267.000000	63.665795 
1266.000000	63.669443 
1265.000000	63.673830 
1264.000000	63.680410 
1263.000000	63.690471 
1262.000000	63.704872 
1261.000000	63.723468 
1260.000000	63.745355 
1259.000000	63.769030 
1258.000000	63.792467 
1257.000000	63.813734 
1256.000000	63.831353 
1255.000000	63.844561 
1254.000000	63.853430 
1253.000000	63.858699 
1252.000000	63.861727 
1251.000000	63.863921 
1250.000000	63.866639 
1249.000000	63.870668 
1248.000000	63.876152 
1247.000000	63.882446 
1246.000000	63.888382 
1245.000000	63.892340 
1244.000000	63.892960 
1243.000000	63.889265 
1242.000000	63.881301 
1241.000000	63.869595 
1240.000000	63.855791 
1239.000000	63.841509 
1238.000000	63.828516 
1237.000000	63.817834 
1236.000000	63.809585 
1235.000000	63.803172 
1234.000000	63.797712 
1233.000000	63.792204 
1232.000000	63.786077 
1231.000000	63.779187 
1230.000000	63.771963 
1229.000000	63.765048 
1228.000000	63.759064 
1227.000000	63.754439 
1226.000000	63.751006 
1225.000000	63.748121 
1224.000000	63.744878 
1223.000000	63.740611 
1222.000000	63.735175 
1221.000000	63.729023 
1220.000000	63.722991 
1219.000000	63.718223 
1218.000000	63.715505 
1217.000000	63.715171 
1216.000000	63.716483 
1215.000000	63.718152 
1214.000000	63.718223 
1213.000000	63.714766 
1212.000000	63.706254 
1211.000000	63.691902 
1210.000000	63.672161 
1209.000000	63.648390 
1208.000000	63.623070 
1207.000000	63.599205 
1206.000000	63.580107 
1205.000000	63.568663 
1204.000000	63.566946 
1203.000000	63.575720 
1202.000000	63.594222 
1201.000000	63.619995 
1200.000000	63.649058 
1199.000000	63.676667 
1198.000000	63.697838 
1197.000000	63.708400 
1196.000000	63.705968 
1195.000000	63.690662 
1194.000000	63.665056 
1193.000000	63.633704 
1192.000000	63.602209 
1191.000000	63.575839 
1190.000000	63.558745 
1189.000000	63.552713 
1188.000000	63.556909 
1187.000000	63.568401 
1186.000000	63.582921 
1185.000000	63.596081 
1184.000000	63.604354 
1183.000000	63.605928 
1182.000000	63.600897 
1181.000000	63.591122 
1180.000000	63.579225 
1179.000000	63.568353 
1178.000000	63.560962 
1177.000000	63.558602 
1176.000000	63.561415 
1175.000000	63.568639 
1174.000000	63.578724 
1173.000000	63.589429 
1172.000000	63.598418 
1171.000000	63.603281 
1170.000000	63.602280 
1169.000000	63.594317 
1168.000000	63.579583 
1167.000000	63.559341 
1166.000000	63.535904 
1165.000000	63.512706 
1164.000000	63.493275 
1163.000000	63.480782 
1162.000000	63.477325 
1161.000000	63.483166 
1160.000000	63.496828 
1159.000000	63.515615 
1158.000000	63.536071 
1157.000000	63.554787 
1156.000000	63.569641 
1155.000000	63.579893 
1154.000000	63.586544 
1153.000000	63.591527 
1152.000000	63.597321 
1151.000000	63.605761 
1150.000000	63.617682 
1149.000000	63.632726 
1148.000000	63.649535 
1147.000000	63.666129 
1146.000000	63.680529 
1145.000000	63.691067 
1144.000000	63.696861 
1143.000000	63.697648 
1142.000000	63.693785 
1141.000000	63.685965 
1140.000000	63.674783 
1139.000000	63.660812 
1138.000000	63.644385 
1137.000000	63.626050 
1136.000000	63.606548 
1135.000000	63.587164 
1134.000000	63.569688 
1133.000000	63.556146 
1132.000000	63.548350 
1131.000000	63.547658 
1130.000000	63.554525 
1129.000000	63.568401 
1128.000000	63.587546 
1127.000000	63.609552 
1126.000000	63.631892 
1125.000000	63.652110 
1124.000000	63.668251 
1123.000000	63.679218 
1122.000000	63.684844 
1121.000000	63.685512 
1120.000000	63.681960 
1119.000000	63.674831 
1118.000000	63.664579 
1117.000000	63.651728 
1116.000000	63.636827 
1115.000000	63.620853 
1114.000000	63.605237 
1113.000000	63.591933 
1112.000000	63.582897 
1111.000000	63.579463 
1110.000000	63.581871 
1109.000000	63.589143 
1108.000000	63.599109 
1107.000000	63.608407 
1106.000000	63.613605 
1105.000000	63.612174 
1104.000000	63.602828 
1103.000000	63.585853 
1102.000000	63.562870 
1101.000000	63.536477 
1100.000000	63.509249 
1099.000000	63.483023 
1098.000000	63.458681 
1097.000000	63.436031 
1096.000000	63.414549 
1095.000000	63.394165 
1094.000000	63.375473 
1093.000000	63.359975 
1092.000000	63.349962 
1091.000000	63.347887 
1090.000000	63.355183 
1089.000000	63.371968 
1088.000000	63.396644 
1087.000000	63.426494 
1086.000000	63.458037 
1085.000000	63.488292 
1084.000000	63.515353 
1083.000000	63.538956 
1082.000000	63.560223 
1081.000000	63.581156 
1080.000000	63.603782 
1079.000000	63.629102 
1078.000000	63.656830 
1077.000000	63.685202 
1076.000000	63.711667 
1075.000000	63.733124 
1074.000000	63.747501 
1073.000000	63.753271 
1072.000000	63.750314 
1071.000000	63.739204 
1070.000000	63.721323 
1069.000000	63.698053 
1068.000000	63.670563 
1067.000000	63.639926 
1066.000000	63.607239 
1065.000000	63.573741 
1064.000000	63.540935 
1063.000000	63.510704 
1062.000000	63.485050 
1061.000000	63.465690 
1060.000000	63.453841 
1059.000000	63.449525 
1058.000000	63.451814 
1057.000000	63.458943 
1056.000000	63.468527 
1055.000000	63.478231 
1054.000000	63.486003 
1053.000000	63.490414 
1052.000000	63.490891 
1051.000000	63.487434 
1050.000000	63.480758 
1049.000000	63.471889 
1048.000000	63.462209 
1047.000000	63.453030 
1046.000000	63.445615 
1045.000000	63.440918 
1044.000000	63.439369 
1043.000000	63.440847 
1042.000000	63.444733 
1041.000000	63.449978 
1040.000000	63.455557 
1039.000000	63.460707 
1038.000000	63.464927 
1037.000000	63.468098 
1036.000000	63.470745 
1035.000000	63.473677 
1034.000000	63.477349 
1033.000000	63.481783 
1032.000000	63.486266 
1031.000000	63.489627 
1030.000000	63.490605 
1029.000000	63.488388 
1028.000000	63.483095 
1027.000000	63.475990 
1026.000000	63.469219 
1025.000000	63.465428 
1024.000000	63.466978 
1023.000000	63.475012 
1022.000000	63.488960 
1021.000000	63.506388 
1020.000000	63.523483 
1019.000000	63.535881 
1018.000000	63.539719 
1017.000000	63.533067 
1016.000000	63.516378 
1015.000000	63.493132 
1014.000000	63.468813 
1013.000000	63.450074 
1012.000000	63.442873 
1011.000000	63.451027 
1010.000000	63.475203 
1009.000000	63.512420 
1008.000000	63.556623 
1007.000000	63.600134 
1006.000000	63.635206 
1005.000000	63.655686 
1004.000000	63.658452 
1003.000000	63.643884 
1002.000000	63.615846 
1001.000000	63.580274 
1000.000000	63.544154 
999.000000	 63.513875 
998.000000	 63.493990 
997.000000	 63.486790 
996.000000	 63.491988 
995.000000	 63.507437 
994.000000	 63.529443 
993.000000	 63.554239 
992.000000	 63.578224 
991.000000	 63.598585 
990.000000	 63.613796 
989.000000	 63.623237 
988.000000	 63.627457 
987.000000	 63.627648 
986.000000	 63.625550 
985.000000	 63.622784 
984.000000	 63.620758 
983.000000	 63.619947 
982.000000	 63.619923 
981.000000	 63.619303 
980.000000	 63.616132 
979.000000	 63.608527 
978.000000	 63.595151 
977.000000	 63.575696 
976.000000	 63.551259 
975.000000	 63.524198 
974.000000	 63.497686 
973.000000	 63.475131 
972.000000	 63.459491 
971.000000	 63.452744 
970.000000	 63.455224 
969.000000	 63.466048 
968.000000	 63.483071 
967.000000	 63.503956 
966.000000	 63.526391 
965.000000	 63.548970 
964.000000	 63.571190 
963.000000	 63.593292 
962.000000	 63.615894 
961.000000	 63.639330 
960.000000	 63.663172 
959.000000	 63.685822 
958.000000	 63.704776 
957.000000	 63.716745 
956.000000	 63.718390 
955.000000	 63.707518 
954.000000	 63.683629 
953.000000	 63.648509 
952.000000	 63.606071 
951.000000	 63.561940 
950.000000	 63.522505 
949.000000	 63.493347 
948.000000	 63.478469 
947.000000	 63.479375 
946.000000	 63.494849 
945.000000	 63.521146 
944.000000	 63.553190 
943.000000	 63.585186 
942.000000	 63.612270 
941.000000	 63.631057 
940.000000	 63.640379 
939.000000	 63.640642 
938.000000	 63.634037 
937.000000	 63.623595 
936.000000	 63.612651 
935.000000	 63.604021 
934.000000	 63.599872 
933.000000	 63.601636 
932.000000	 63.609910 
931.000000	 63.624501 
930.000000	 63.644361 
929.000000	 63.668036 
928.000000	 63.693284 
927.000000	 63.717746 
926.000000	 63.739085 
925.000000	 63.755416 
924.000000	 63.766002 
923.000000	 63.771128 
922.000000	 63.772368 
921.000000	 63.771724 
920.000000	 63.771724 
919.000000	 63.773727 
918.000000	 63.777804 
917.000000	 63.781881 
916.000000	 63.782739 
915.000000	 63.776445 
914.000000	 63.759636 
913.000000	 63.730573 
912.000000	 63.689970 
911.000000	 63.640904 
910.000000	 63.588285 
909.000000	 63.537740 
908.000000	 63.494253 
907.000000	 63.461041 
906.000000	 63.439130 
905.000000	 63.427472 
904.000000	 63.423657 
903.000000	 63.425016 
902.000000	 63.429594 
901.000000	 63.436627 
900.000000	 63.446617 
899.000000	 63.460659 
898.000000	 63.479518 
897.000000	 63.502597 
896.000000	 63.527941 
895.000000	 63.552451 
894.000000	 63.572573 
893.000000	 63.585305 
892.000000	 63.588738 
891.000000	 63.582825 
890.000000	 63.569116 
889.000000	 63.550519 
888.000000	 63.530635 
887.000000	 63.512802 
886.000000	 63.499617 
885.000000	 63.492560 
884.000000	 63.492035 
883.000000	 63.497471 
882.000000	 63.507914 
881.000000	 63.522148 
880.000000	 63.539052 
879.000000	 63.557887 
878.000000	 63.578081 
877.000000	 63.599157 
876.000000	 63.620734 
875.000000	 63.642191 
874.000000	 63.662910 
873.000000	 63.681650 
872.000000	 63.696694 
871.000000	 63.705897 
870.000000	 63.707208 
869.000000	 63.699221 
868.000000	 63.681745 
867.000000	 63.656306 
866.000000	 63.626241 
865.000000	 63.595986 
864.000000	 63.570475 
863.000000	 63.553714 
862.000000	 63.547801 
861.000000	 63.552546 
860.000000	 63.565421 
859.000000	 63.582158 
858.000000	 63.597941 
857.000000	 63.608407 
856.000000	 63.610887 
855.000000	 63.604664 
854.000000	 63.591027 
853.000000	 63.572168 
852.000000	 63.550186 
851.000000	 63.526463 
850.000000	 63.501381 
849.000000	 63.474726 
848.000000	 63.446497 
847.000000	 63.417696 
846.000000	 63.390731 
845.000000	 63.369154 
844.000000	 63.356876 
843.000000	 63.356995 
842.000000	 63.370800 
841.000000	 63.397026 
840.000000	 63.431882 
839.000000	 63.469481 
838.000000	 63.503241 
837.000000	 63.526940 
836.000000	 63.536143 
835.000000	 63.529253 
834.000000	 63.507866 
833.000000	 63.475871 
832.000000	 63.439226 
831.000000	 63.404297 
830.000000	 63.377237 
829.000000	 63.362669 
828.000000	 63.363122 
827.000000	 63.378953 
826.000000	 63.408184 
825.000000	 63.447451 
824.000000	 63.492202 
823.000000	 63.537859 
822.000000	 63.580584 
821.000000	 63.617849 
820.000000	 63.648748 
819.000000	 63.673567 
818.000000	 63.693094 
817.000000	 63.708186 
816.000000	 63.719248 
815.000000	 63.726091 
814.000000	 63.728165 
813.000000	 63.725161 
812.000000	 63.717794 
811.000000	 63.707661 
810.000000	 63.697528 
809.000000	 63.690352 
808.000000	 63.688945 
807.000000	 63.694667 
806.000000	 63.707256 
805.000000	 63.724160 
804.000000	 63.740992 
803.000000	 63.752675 
802.000000	 63.754987 
801.000000	 63.745403 
800.000000	 63.723969 
799.000000	 63.693094 
798.000000	 63.657093 
797.000000	 63.620924 
796.000000	 63.589119 
795.000000	 63.564825 
794.000000	 63.549017 
793.000000	 63.540887 
792.000000	 63.538169 
791.000000	 63.537931 
790.000000	 63.537955 
789.000000	 63.536763 
788.000000	 63.534474 
787.000000	 63.532471 
786.000000	 63.533067 
785.000000	 63.538599 
784.000000	 63.550615 
783.000000	 63.569188 
782.000000	 63.592243 
781.000000	 63.616371 
780.000000	 63.636612 
779.000000	 63.647842 
778.000000	 63.645315 
777.000000	 63.626122 
776.000000	 63.589739 
775.000000	 63.538527 
774.000000	 63.477325 
773.000000	 63.412857 
772.000000	 63.352465 
771.000000	 63.302636 
770.000000	 63.267993 
769.000000	 63.250565 
768.000000	 63.249731 
767.000000	 63.262677 
766.000000	 63.285255 
765.000000	 63.313102 
764.000000	 63.342380 
763.000000	 63.370871 
762.000000	 63.397479 
761.000000	 63.422846 
760.000000	 63.448548 
759.000000	 63.476634 
758.000000	 63.508605 
757.000000	 63.544750 
756.000000	 63.583827 
755.000000	 63.622903 
754.000000	 63.658094 
753.000000	 63.684701 
752.000000	 63.699007 
751.000000	 63.698339 
750.000000	 63.682413 
749.000000	 63.653182 
748.000000	 63.614726 
747.000000	 63.572478 
746.000000	 63.532376 
745.000000	 63.499236 
744.000000	 63.475918 
743.000000	 63.462805 
742.000000	 63.457870 
741.000000	 63.457298 
740.000000	 63.456416 
739.000000	 63.450622 
738.000000	 63.436484 
737.000000	 63.412046 
736.000000	 63.377261 
735.000000	 63.333463 
734.000000	 63.283514 
733.000000	 63.231205 
732.000000	 63.180780 
731.000000	 63.136148 
730.000000	 63.100290 
729.000000	 63.074660 
728.000000	 63.058876 
727.000000	 63.050866 
726.000000	 63.047742 
725.000000	 63.046097 
724.000000	 63.043761 
723.000000	 63.039875 
722.000000	 63.035655 
721.000000	 63.033580 
720.000000	 63.036727 
719.000000	 63.047313 
718.000000	 63.065052 
717.000000	 63.086962 
716.000000	 63.106966 
715.000000	 63.117432 
714.000000	 63.110899 
713.000000	 63.082218 
712.000000	 63.030529 
711.000000	 62.960147 
710.000000	 62.879562 
709.000000	 62.799954 
708.000000	 62.732768 
707.000000	 62.687730 
706.000000	 62.670445 
705.000000	 62.682104 
704.000000	 62.719082 
703.000000	 62.774896 
702.000000	 62.841820 
701.000000	 62.913227 
700.000000	 62.983512 
699.000000	 63.049912 
698.000000	 63.111948 
697.000000	 63.170433 
696.000000	 63.226342 
695.000000	 63.278841 
694.000000	 63.324737 
693.000000	 63.358926 
692.000000	 63.376331 
691.000000	 63.372635 
690.000000	 63.345956 
689.000000	 63.298630 
688.000000	 63.237905 
687.000000	 63.174057 
686.000000	 63.118457 
685.000000	 63.081955 
684.000000	 63.072323 
683.000000	 63.093018 
682.000000	 63.141274 
681.000000	 63.210010 
680.000000	 63.286757 
679.000000	 63.356447 
678.000000	 63.402533 
677.000000	 63.409972 
676.000000	 63.367867 
675.000000	 63.271069 
674.000000	 63.123059 
673.000000	 62.934160 
672.000000	 62.723588 
671.000000	 62.515640 
670.000000	 62.337684 
669.000000	 62.213897 
668.000000	 62.163662 
667.000000	 62.198066 
666.000000	 62.317633 
665.000000	 62.511396 
664.000000	 62.760138 
663.000000	 63.039493 
662.000000	 63.323354 
661.000000	 63.587474 
660.000000	 63.813447 
659.000000	 63.990187 
658.000000	 64.114022 
657.000000	 64.187002 
656.000000	 64.215874 
655.000000	 64.208602 
654.000000	 64.174342 
653.000000	 64.119815 
652.000000	 64.050865 
651.000000	 63.969969 
650.000000	 63.880944 
649.000000	 63.785672 
648.000000	 63.687252 
647.000000	 63.587546 
646.000000	 63.489437 
645.000000	 63.394093 
644.000000	 63.301205 
643.000000	 63.208627 
642.000000	 63.113665 
641.000000	 63.013386 
640.000000	 62.905097 
639.000000	 62.788534 
638.000000	 62.666344 
637.000000	 62.543225 
636.000000	 62.424898 
635.000000	 62.317085 
634.000000	 62.224125 
633.000000	 62.147879 
632.000000	 62.087750 
631.000000	 62.039875 
630.000000	 61.999177 
629.000000	 61.961960 
628.000000	 61.927628 
627.000000	 61.897301 
626.000000	 61.875557 
625.000000	 61.868524 
624.000000	 61.883664 
623.000000	 61.925792 
622.000000	 61.997485 
621.000000	 62.096881 
620.000000	 62.219071 
619.000000	 62.356185 
618.000000	 62.498998 
617.000000	 62.637519 
616.000000	 62.763547 
615.000000	 62.871384 
614.000000	 62.958860 
613.000000	 63.026595 
612.000000	 63.078832 
611.000000	 63.122463 
610.000000	 63.165426 
609.000000	 63.214778 
608.000000	 63.275885 
607.000000	 63.351011 
606.000000	 63.436651 
605.000000	 63.523793 
604.000000	 63.599967 
603.000000	 63.651514 
602.000000	 63.666224 
601.000000	 63.636088 
600.000000	 63.560414 
599.000000	 63.445591 
598.000000	 63.303923 
597.000000	 63.151192 
596.000000	 63.003516 
595.000000	 62.874579 
594.000000	 62.774324 
593.000000	 62.707543 
592.000000	 62.674283 
591.000000	 62.670469 
590.000000	 62.689876 
589.000000	 62.724995 
588.000000	 62.767243 
587.000000	 62.809705 
586.000000	 62.847018 
585.000000	 62.876582 
584.000000	 62.896728 
583.000000	 62.909722 
582.000000	 62.920355 
581.000000	 62.935495 
580.000000	 62.961983 
579.000000	 63.005661 
578.000000	 63.069510 
577.000000	 63.152503 
576.000000	 63.249158 
575.000000	 63.350725 
574.000000	 63.446545 
573.000000	 63.526487 
572.000000	 63.582301 
571.000000	 63.609433 
570.000000	 63.607501 
569.000000	 63.579821 
568.000000	 63.532781 
567.000000	 63.474655 
566.000000	 63.413476 
565.000000	 63.357448 
564.000000	 63.311600 
563.000000	 63.278174 
562.000000	 63.255476 
561.000000	 63.240146 
560.000000	 63.226389 
559.000000	 63.207793 
558.000000	 63.178634 
557.000000	 63.135027 
556.000000	 63.076400 
555.000000	 63.005304 
554.000000	 62.927603 
553.000000	 62.851047 
552.000000	 62.784194 
551.000000	 62.734603 
550.000000	 62.707185 
549.000000	 62.703275 
548.000000	 62.720561 
547.000000	 62.753343 
546.000000	 62.793827 
545.000000	 62.833404 
544.000000	 62.863159 
543.000000	 62.876510 
542.000000	 62.868237 
541.000000	 62.837696 
540.000000	 62.788605 
539.000000	 62.728834 
538.000000	 62.668848 
537.000000	 62.619614 
536.000000	 62.589836 
535.000000	 62.585043 
534.000000	 62.605953 
533.000000	 62.649655 
532.000000	 62.710666 
531.000000	 62.782406 
530.000000	 62.858986 
529.000000	 62.934660 
528.000000	 63.004159 
527.000000	 63.062858 
526.000000	 63.106703 
525.000000	 63.133072 
524.000000	 63.141274 
523.000000	 63.134217 
522.000000	 63.117837 
521.000000	 63.101124 
520.000000	 63.093185 
519.000000	 63.102364 
518.000000	 63.132190 
517.000000	 63.180041 
516.000000	 63.236927 
515.000000	 63.289523 
514.000000	 63.323640 
513.000000	 63.328599 
512.000000	 63.299942 
511.000000	 63.241648 
510.000000	 63.164067 
509.000000	 63.081359 
508.000000	 63.007640 
507.000000	 62.952327 
506.000000	 62.919878 
505.000000	 62.908887 
504.000000	 62.914705 
503.000000	 62.931752 
502.000000	 62.955856 
501.000000	 62.985658 
500.000000	 63.021516 
499.000000	 63.064479 
498.000000	 63.114237 
497.000000	 63.167977 
496.000000	 63.219571 
495.000000	 63.260865 
494.000000	 63.284230 
493.000000	 63.285207 
492.000000	 63.264513 
491.000000	 63.227772 
490.000000	 63.185954 
489.000000	 63.151264 
488.000000	 63.133692 
487.000000	 63.137888 
486.000000	 63.162350 
485.000000	 63.199114 
484.000000	 63.236188 
483.000000	 63.260531 
482.000000	 63.262581 
481.000000	 63.237857 
480.000000	 63.188695 
479.000000	 63.122630 
478.000000	 63.050031 
477.000000	 62.981557 
476.000000	 62.925481 
475.000000	 62.885785 
474.000000	 62.861514 
473.000000	 62.849378 
472.000000	 62.845516 
471.000000	 62.847042 
470.000000	 62.852430 
469.000000	 62.861442 
468.000000	 62.873196 
467.000000	 62.885260 
466.000000	 62.892079 
465.000000	 62.884163 
464.000000	 62.850022 
463.000000	 62.779641 
462.000000	 62.667179 
461.000000	 62.513804 
460.000000	 62.328696 
459.000000	 62.127804 
458.000000	 61.931419 
457.000000	 61.760282 
456.000000	 61.631441 
455.000000	 61.552429 
454.000000	 61.523890 
453.000000	 61.539459 
452.000000	 61.590003 
451.000000	 61.664509 
450.000000	 61.756801 
449.000000	 61.866068 
448.000000	 61.995601 
447.000000	 62.148666 
446.000000	 62.326407 
445.000000	 62.524366 
444.000000	 62.728691 
443.000000	 62.916564 
442.000000	 63.062095 
441.000000	 63.140535 
440.000000	 63.133716 
439.000000	 63.034105 
438.000000	 62.848591 
437.000000	 62.597441 
436.000000	 62.309384 
435.000000	 62.018895 
434.000000	 61.759066 
433.000000	 61.559891 
432.000000	 61.441659 
431.000000	 61.418747 
430.000000	 61.494493 
429.000000	 61.669445 
428.000000	 61.941337 
427.000000	 62.305998 
426.000000	 62.751555 
425.000000	 63.262128 
424.000000	 63.815116 
423.000000	 64.382147 
422.000000	 64.926934 
421.000000	 65.419673 
420.000000	 65.840888 
419.000000	 66.185545 
418.000000	 66.461968 
417.000000	 66.685104 
416.000000	 66.870689 
415.000000	 67.027044 
414.000000	 67.153549 
413.000000	 67.249655 
412.000000	 67.314600 
411.000000	 67.352819 
410.000000	 67.371630 
409.000000	 67.386126 
408.000000	 67.408704 
407.000000	 67.450547 
406.000000	 67.509102 
405.000000	 67.570042 
404.000000	 67.601919 
403.000000	 67.577242 
402.000000	 67.458200 
401.000000	 67.206907 
400.000000	 66.790199 
399.000000	 66.196966 
398.000000	 65.431857 
397.000000	 64.518809 
396.000000	 63.501334 
395.000000	 62.428689 
394.000000	 61.386942 
393.000000	 60.493659 
392.000000	 59.850215 
391.000000	 59.514522 
390.000000	 59.497189 
389.000000	 59.752154 
388.000000	 60.149335 
387.000000	 60.510063 
386.000000	 60.664010 
385.000000	 60.494136 
384.000000	 59.953022 
383.000000	 59.092378 
382.000000	 58.037781 
381.000000	 56.980848 
380.000000	 56.119537 
379.000000	 55.644440 
378.000000	 55.651330 
377.000000	 56.187009 
376.000000	 57.282400 
375.000000	 58.915710 
374.000000	 61.010289 
373.000000	 63.422727 
372.000000	 66.027569 
371.000000	 68.562316 
370.000000	 70.660448 

