PE IR       SPECTRUM    SPECTRUM    ASCII       PEDS        1.60        
  -1
BZ60B0~1.ASC
17/04/07
16:19:45.00
17/04/07
16:19:45.00
tln
$BZ1503107-1_t0038$<tbV0>[2.6,-5.2,8.0,0.0,27,1,0]
370.000000
64









2002,4.07    
MIRTGS : RIGHTBACK : INTERNAL 2
MIR : ON : INTERNAL 2
OPTKBR

0.200000
8
8.000000
FILLER
RATIO
SPECTRUM
UNLOCKED 256

DOUBLE
64
COMBINED
1
0
0


1.000000
RATIO


1
0
TRUE
51149
0
LEFT NOT FITTED RIGHT NOT FITTED 0
NONE
NONE
15600
12.000000
4.427000
51148
TRUE
1 0 8 72 0 0 0 0 

15798.010000






#HDR
-1
-1
#GR
CM-1
%T
0.00002384185791015625
0.0
5000.000000
-1.000000
4631
8
79.389619
53.178691
#DATA
5000.000000	65.534782 
4999.000000	65.395498 
4998.000000	65.214943 
4997.000000	65.005588 
4996.000000	64.783239 
4995.000000	64.565563 
4994.000000	64.370894 
4993.000000	64.215826 
4992.000000	64.114117 
4991.000000	64.074468 
4990.000000	64.099526 
4989.000000	64.184331 
4988.000000	64.317202 
4987.000000	64.480662 
4986.000000	64.653086 
4985.000000	64.811635 
4984.000000	64.936137 
4983.000000	65.012264 
4982.000000	65.033817 
4981.000000	65.003538 
4980.000000	64.933037 
4979.000000	64.839577 
4978.000000	64.743638 
4977.000000	64.663219 
4976.000000	64.610886 
4975.000000	64.590287 
4974.000000	64.596915 
4973.000000	64.619421 
4972.000000	64.643621 
4971.000000	64.656710 
4970.000000	64.650893 
4969.000000	64.625501 
4968.000000	64.586353 
4967.000000	64.544510 
4966.000000	64.511609 
4965.000000	64.497375 
4964.000000	64.505696 
4963.000000	64.534616 
4962.000000	64.576888 
4961.000000	64.622664 
4960.000000	64.662218 
4959.000000	64.689159 
4958.000000	64.702272 
4957.000000	64.704966 
4956.000000	64.703845 
4955.000000	64.705491 
4954.000000	64.714002 
4953.000000	64.730167 
4952.000000	64.751458 
4951.000000	64.772844 
4950.000000	64.789175 
4949.000000	64.797616 
4948.000000	64.798784 
4947.000000	64.798092 
4946.000000	64.802765 
4945.000000	64.819455 
4944.000000	64.850664 
4943.000000	64.894533 
4942.000000	64.942574 
4941.000000	64.981794 
4940.000000	64.997005 
4939.000000	64.975547 
4938.000000	64.910626 
4937.000000	64.803719 
4936.000000	64.665389 
4935.000000	64.513278 
4934.000000	64.368748 
4933.000000	64.252090 
4932.000000	64.177942 
4931.000000	64.152336 
4930.000000	64.171028 
4929.000000	64.221215 
4928.000000	64.283990 
4927.000000	64.339852 
4926.000000	64.373064 
4925.000000	64.376258 
4924.000000	64.351010 
4923.000000	64.308190 
4922.000000	64.263963 
4921.000000	64.236402 
4920.000000	64.240431 
4919.000000	64.284276 
4918.000000	64.367866 
4917.000000	64.482474 
4916.000000	64.613914 
4915.000000	64.745140 
4914.000000	64.860415 
4913.000000	64.948248 
4912.000000	65.003561 
4911.000000	65.027499 
4910.000000	65.025711 
4909.000000	65.006446 
4908.000000	64.978051 
4907.000000	64.947104 
4906.000000	64.917755 
4905.000000	64.891052 
4904.000000	64.866685 
4903.000000	64.842653 
4902.000000	64.817190 
4901.000000	64.789509 
4900.000000	64.760613 
4899.000000	64.733266 
4898.000000	64.711666 
4897.000000	64.700365 
4896.000000	64.702987 
4895.000000	64.721345 
4894.000000	64.754629 
4893.000000	64.798879 
4892.000000	64.848279 
4891.000000	64.895868 
4890.000000	64.936065 
4889.000000	64.965510 
4888.000000	64.984488 
4887.000000	64.996504 
4886.000000	65.007138 
4885.000000	65.022516 
4884.000000	65.046644 
4883.000000	65.080332 
4882.000000	65.119600 
4881.000000	65.156626 
4880.000000	65.181398 
4879.000000	65.184974 
4878.000000	65.161299 
4877.000000	65.109491 
4876.000000	65.033531 
4875.000000	64.941740 
4874.000000	64.844655 
4873.000000	64.753150 
4872.000000	64.676117 
4871.000000	64.619541 
4870.000000	64.585900 
4869.000000	64.574956 
4868.000000	64.584422 
4867.000000	64.611315 
4866.000000	64.652323 
4865.000000	64.704799 
4864.000000	64.766192 
4863.000000	64.834666 
4862.000000	64.907479 
4861.000000	64.982128 
4860.000000	65.055608 
4859.000000	65.124893 
4858.000000	65.187096 
4857.000000	65.239286 
4856.000000	65.279245 
4855.000000	65.304827 
4854.000000	65.314722 
4853.000000	65.308475 
4852.000000	65.287089 
4851.000000	65.253162 
4850.000000	65.211081 
4849.000000	65.166306 
4848.000000	65.124773 
4847.000000	65.091753 
4846.000000	65.070748 
4845.000000	65.062880 
4844.000000	65.066671 
4843.000000	65.078711 
4842.000000	65.094637 
4841.000000	65.109467 
4840.000000	65.119504 
4839.000000	65.122723 
4838.000000	65.119647 
4837.000000	65.112829 
4836.000000	65.106225 
4835.000000	65.103292 
4834.000000	65.106511 
4833.000000	65.116810 
4832.000000	65.133070 
4831.000000	65.152430 
4830.000000	65.171265 
4829.000000	65.186595 
4828.000000	65.196180 
4827.000000	65.199375 
4826.000000	65.196585 
4825.000000	65.189194 
4824.000000	65.178179 
4823.000000	65.163826 
4822.000000	65.145492 
4821.000000	65.122199 
4820.000000	65.093326 
4819.000000	65.059828 
4818.000000	65.024781 
4817.000000	64.993119 
4816.000000	64.971113 
4815.000000	64.964127 
4814.000000	64.975047 
4813.000000	65.002155 
4812.000000	65.038967 
4811.000000	65.075206 
4810.000000	65.098619 
4809.000000	65.098381 
4808.000000	65.067768 
4807.000000	65.006446 
4806.000000	64.920616 
4805.000000	64.822340 
4804.000000	64.726376 
4803.000000	64.646863 
4802.000000	64.593720 
4801.000000	64.570569 
4800.000000	64.574337 
4799.000000	64.596796 
4798.000000	64.627337 
4797.000000	64.655971 
4796.000000	64.676117 
4795.000000	64.685750 
4794.000000	64.687156 
4793.000000	64.685344 
4792.000000	64.685916 
4791.000000	64.692950 
4790.000000	64.707493 
4789.000000	64.727735 
4788.000000	64.749503 
4787.000000	64.767861 
4786.000000	64.778900 
4785.000000	64.781332 
4784.000000	64.777183 
4783.000000	64.770865 
4782.000000	64.768433 
4781.000000	64.775490 
4780.000000	64.796185 
4779.000000	64.831900 
4778.000000	64.880800 
4777.000000	64.938116 
4776.000000	64.997172 
4775.000000	65.050888 
4774.000000	65.093278 
4773.000000	65.120720 
4772.000000	65.132737 
4771.000000	65.131688 
4770.000000	65.122556 
4769.000000	65.111851 
4768.000000	65.105080 
4767.000000	65.105795 
4766.000000	65.114569 
4765.000000	65.129232 
4764.000000	65.146088 
4763.000000	65.161395 
4762.000000	65.172743 
4761.000000	65.180134 
4760.000000	65.186405 
4759.000000	65.196251 
4758.000000	65.214514 
4757.000000	65.244364 
4756.000000	65.286159 
4755.000000	65.336132 
4754.000000	65.386962 
4753.000000	65.428757 
4752.000000	65.451717 
4751.000000	65.448331 
4750.000000	65.415358 
4749.000000	65.355253 
4748.000000	65.275502 
4747.000000	65.188026 
4746.000000	65.106225 
4745.000000	65.043210 
4744.000000	65.008926 
4743.000000	65.008711 
4742.000000	65.042567 
4741.000000	65.104889 
4740.000000	65.185785 
4739.000000	65.273046 
4738.000000	65.354537 
4737.000000	65.420126 
4736.000000	65.463352 
4735.000000	65.481448 
4734.000000	65.475368 
4733.000000	65.448617 
4732.000000	65.405917 
4731.000000	65.351867 
4730.000000	65.290331 
4729.000000	65.225219 
4728.000000	65.160012 
4727.000000	65.098714 
4726.000000	65.045475 
4725.000000	65.004920 
4724.000000	64.981055 
4723.000000	64.976143 
4722.000000	64.990448 
4721.000000	65.021681 
4720.000000	65.066099 
4719.000000	65.118169 
4718.000000	65.173840 
4717.000000	65.230560 
4716.000000	65.288400 
4715.000000	65.349268 
4714.000000	65.415358 
4713.000000	65.487313 
4712.000000	65.562844 
4711.000000	65.635871 
4710.000000	65.697193 
4709.000000	65.735864 
4708.000000	65.742230 
4707.000000	65.709877 
4706.000000	65.638113 
4705.000000	65.532183 
4704.000000	65.402698 
4703.000000	65.263533 
4702.000000	65.129113 
4701.000000	65.011858 
4700.000000	64.920473 
4699.000000	64.858889 
4698.000000	64.826607 
4697.000000	64.819741 
4696.000000	64.832806 
4695.000000	64.859724 
4694.000000	64.894700 
4693.000000	64.932894 
4692.000000	64.969778 
4691.000000	65.001940 
4690.000000	65.026378 
4689.000000	65.041089 
4688.000000	65.044641 
4687.000000	65.036916 
4686.000000	65.019226 
4685.000000	64.994025 
4684.000000	64.964485 
4683.000000	64.933967 
4682.000000	64.905500 
4681.000000	64.881229 
4680.000000	64.862298 
4679.000000	64.848804 
4678.000000	64.840292 
4677.000000	64.836239 
4676.000000	64.836168 
4675.000000	64.839577 
4674.000000	64.846372 
4673.000000	64.856290 
4672.000000	64.869117 
4671.000000	64.884018 
4670.000000	64.900112 
4669.000000	64.916443 
4668.000000	64.931941 
4667.000000	64.945220 
4666.000000	64.954781 
4665.000000	64.959335 
4664.000000	64.957904 
4663.000000	64.950108 
4662.000000	64.936327 
4661.000000	64.917850 
4660.000000	64.896988 
4659.000000	64.876747 
4658.000000	64.860582 
4657.000000	64.851665 
4656.000000	64.852356 
4655.000000	64.863753 
4654.000000	64.885663 
4653.000000	64.916586 
4652.000000	64.954018 
4651.000000	64.994788 
4650.000000	65.035629 
4649.000000	65.073394 
4648.000000	65.104961 
4647.000000	65.127420 
4646.000000	65.138077 
4645.000000	65.134787 
4644.000000	65.116810 
4643.000000	65.084958 
4642.000000	65.041971 
4641.000000	64.992523 
4640.000000	64.942908 
4639.000000	64.899754 
4638.000000	64.869093 
4637.000000	64.854860 
4636.000000	64.858269 
4635.000000	64.877367 
4634.000000	64.907550 
4633.000000	64.943075 
4632.000000	64.978361 
4631.000000	65.009546 
4630.000000	65.035200 
4629.000000	65.056419 
4628.000000	65.076017 
4627.000000	65.097355 
4626.000000	65.122914 
4625.000000	65.152931 
4624.000000	65.184807 
4623.000000	65.213942 
4622.000000	65.233778 
4621.000000	65.238213 
4620.000000	65.222287 
4619.000000	65.184259 
4618.000000	65.125703 
4617.000000	65.051555 
4616.000000	64.969301 
4615.000000	64.887714 
4614.000000	64.815092 
4613.000000	64.758014 
4612.000000	64.719939 
4611.000000	64.701390 
4610.000000	64.699435 
4609.000000	64.708662 
4608.000000	64.722466 
4607.000000	64.734625 
4606.000000	64.740800 
4605.000000	64.739179 
4604.000000	64.730596 
4603.000000	64.717984 
4602.000000	64.705610 
4601.000000	64.697957 
4600.000000	64.697790 
4599.000000	64.705753 
4598.000000	64.720273 
4597.000000	64.738178 
4596.000000	64.755988 
4595.000000	64.770960 
4594.000000	64.781808 
4593.000000	64.789223 
4592.000000	64.795637 
4591.000000	64.804339 
4590.000000	64.817714 
4589.000000	64.837265 
4588.000000	64.862298 
4587.000000	64.891290 
4586.000000	64.921927 
4585.000000	64.952445 
4584.000000	64.982843 
4583.000000	65.013647 
4582.000000	65.045642 
4581.000000	65.078425 
4580.000000	65.110230 
4579.000000	65.136218 
4578.000000	65.149188 
4577.000000	65.141391 
4576.000000	65.107107 
4575.000000	65.044212 
4574.000000	64.956259 
4573.000000	64.852738 
4572.000000	64.748072 
4571.000000	64.658999 
4570.000000	64.601349 
4569.000000	64.585852 
4568.000000	64.616203 
4567.000000	64.688587 
4566.000000	64.792227 
4565.000000	64.911651 
4564.000000	65.030241 
4563.000000	65.133404 
4562.000000	65.211033 
4561.000000	65.258264 
4560.000000	65.276098 
4559.000000	65.269804 
4558.000000	65.247368 
4557.000000	65.216732 
4556.000000	65.185475 
4555.000000	65.159726 
4554.000000	65.144443 
4553.000000	65.143442 
4552.000000	65.160155 
4551.000000	65.197348 
4550.000000	65.256500 
4549.000000	65.336632 
4548.000000	65.433144 
4547.000000	65.536856 
4546.000000	65.635013 
4545.000000	65.712642 
4544.000000	65.755605 
4543.000000	65.753173 
4542.000000	65.701580 
4541.000000	65.604639 
4540.000000	65.473914 
4539.000000	65.326046 
4538.000000	65.180420 
4537.000000	65.054011 
4536.000000	64.959025 
4535.000000	64.899778 
4534.000000	64.872980 
4533.000000	64.868760 
4532.000000	64.874505 
4531.000000	64.877963 
4530.000000	64.869666 
4529.000000	64.846611 
4528.000000	64.811706 
4527.000000	64.773488 
4526.000000	64.742231 
4525.000000	64.728093 
4524.000000	64.737725 
4523.000000	64.772796 
4522.000000	64.829206 
4521.000000	64.898896 
4520.000000	64.971542 
4519.000000	65.037274 
4518.000000	65.088272 
4517.000000	65.119981 
4516.000000	65.131568 
4515.000000	65.125322 
4514.000000	65.105509 
4513.000000	65.077137 
4512.000000	65.044569 
4511.000000	65.011596 
4510.000000	64.979934 
4509.000000	64.950108 
4508.000000	64.921116 
4507.000000	64.891934 
4506.000000	64.861941 
4505.000000	64.831233 
4504.000000	64.801073 
4503.000000	64.773964 
4502.000000	64.752364 
4501.000000	64.738082 
4500.000000	64.730954 
4499.000000	64.728498 
4498.000000	64.725875 
4497.000000	64.717316 
4496.000000	64.697217 
4495.000000	64.662265 
4494.000000	64.613127 
4493.000000	64.555501 
4492.000000	64.499568 
4491.000000	64.458608 
4490.000000	64.445805 
4489.000000	64.471101 
4488.000000	64.539074 
4487.000000	64.646363 
4486.000000	64.781761 
4485.000000	64.927673 
4484.000000	65.064120 
4483.000000	65.171909 
4482.000000	65.236353 
4481.000000	65.250158 
4480.000000	65.215420 
4479.000000	65.141057 
4478.000000	65.039873 
4477.000000	64.926099 
4476.000000	64.812612 
4475.000000	64.708685 
4474.000000	64.619588 
4473.000000	64.547038 
4472.000000	64.491319 
4471.000000	64.449691 
4470.000000	64.418196 
4469.000000	64.393305 
4468.000000	64.373755 
4467.000000	64.361000 
4466.000000	64.359688 
4465.000000	64.376783 
4464.000000	64.420199 
4463.000000	64.495038 
4462.000000	64.602851 
4461.000000	64.740276 
4460.000000	64.899563 
4459.000000	65.068817 
4458.000000	65.236091 
4457.000000	65.386486 
4456.000000	65.511083 
4455.000000	65.616440 
4454.000000	65.713572 
4453.000000	65.809822 
4452.000000	65.909886 
4451.000000	66.014862 
4450.000000	66.119980 
4449.000000	66.214489 
4448.000000	66.290950 
4447.000000	66.347813 
4446.000000	66.396617 
4445.000000	66.462516 
4444.000000	66.569924 
4443.000000	66.734385 
4442.000000	66.958045 
4441.000000	67.228221 
4440.000000	67.511200 
4439.000000	67.765665 
4438.000000	67.958664 
4437.000000	68.075823 
4436.000000	68.141961 
4435.000000	68.195176 
4434.000000	68.296098 
4433.000000	68.466949 
4432.000000	68.681502 
4431.000000	68.837523 
4430.000000	68.775892 
4429.000000	68.316793 
4428.000000	67.316007 
4427.000000	65.715003 
4426.000000	63.576292 
4425.000000	61.087346 
4424.000000	58.522534 
4423.000000	56.202745 
4422.000000	54.411435 
4421.000000	53.368020 
4420.000000	53.178691 
4419.000000	53.837370 
4418.000000	55.231070 
4417.000000	57.173681 
4416.000000	59.442281 
4415.000000	61.806416 
4414.000000	64.059853 
4413.000000	66.035866 
4412.000000	67.621636 
4411.000000	68.753147 
4410.000000	69.415950 
4409.000000	69.644713 
4408.000000	69.504928 
4407.000000	69.102263 
4406.000000	68.541669 
4405.000000	67.928862 
4404.000000	67.335295 
4403.000000	66.810274 
4402.000000	66.365218 
4401.000000	65.994858 
4400.000000	65.680360 
4399.000000	65.414476 
4398.000000	65.196681 
4397.000000	65.033340 
4396.000000	64.935636 
4395.000000	64.907932 
4394.000000	64.948844 
4393.000000	65.041947 
4392.000000	65.168118 
4391.000000	65.308141 
4390.000000	65.441823 
4389.000000	65.550565 
4388.000000	65.621304 
4387.000000	65.647363 
4386.000000	65.632224 
4385.000000	65.587592 
4384.000000	65.523886 
4383.000000	65.449690 
4382.000000	65.378093 
4381.000000	65.320825 
4380.000000	65.282535 
4379.000000	65.262722 
4378.000000	65.260291 
4377.000000	65.272068 
4376.000000	65.293812 
4375.000000	65.321397 
4374.000000	65.349864 
4373.000000	65.375638 
4372.000000	65.398645 
4371.000000	65.418767 
4370.000000	65.434002 
4369.000000	65.441536 
4368.000000	65.438461 
4367.000000	65.421581 
4366.000000	65.388417 
4365.000000	65.338659 
4364.000000	65.275120 
4363.000000	65.202188 
4362.000000	65.125536 
4361.000000	65.050339 
4360.000000	64.980936 
4359.000000	64.921593 
4358.000000	64.876627 
4357.000000	64.849543 
4356.000000	64.843010 
4355.000000	64.858722 
4354.000000	64.896512 
4353.000000	64.952945 
4352.000000	65.022182 
4351.000000	65.095734 
4350.000000	65.164709 
4349.000000	65.221166 
4348.000000	65.259766 
4347.000000	65.278387 
4346.000000	65.278768 
4345.000000	65.265870 
4344.000000	65.246438 
4343.000000	65.227484 
4342.000000	65.214371 
4341.000000	65.210223 
4340.000000	65.214586 
4339.000000	65.224194 
4338.000000	65.233659 
4337.000000	65.237236 
4336.000000	65.228962 
4335.000000	65.203976 
4334.000000	65.159153 
4333.000000	65.093803 
4332.000000	65.008854 
4331.000000	64.907264 
4330.000000	64.793992 
4329.000000	64.675736 
4328.000000	64.560055 
4327.000000	64.454960 
4326.000000	64.368128 
4325.000000	64.306187 
4324.000000	64.272999 
4323.000000	64.269614 
4322.000000	64.293217 
4321.000000	64.338517 
4320.000000	64.397597 
4319.000000	64.462375 
4318.000000	64.524412 
4317.000000	64.577984 
4316.000000	64.619612 
4315.000000	64.649605 
4314.000000	64.670395 
4313.000000	64.687013 
4312.000000	64.705133 
4311.000000	64.730048 
4310.000000	64.765262 
4309.000000	64.811539 
4308.000000	64.866805 
4307.000000	64.926314 
4306.000000	64.984035 
4305.000000	65.033912 
4304.000000	65.071487 
4303.000000	65.095138 
4302.000000	65.106415 
4301.000000	65.109658 
4300.000000	65.110611 
4299.000000	65.115499 
4298.000000	65.129160 
4297.000000	65.153264 
4296.000000	65.186285 
4295.000000	65.224409 
4294.000000	65.262484 
4293.000000	65.295553 
4292.000000	65.320110 
4291.000000	65.335464 
4290.000000	65.342855 
4289.000000	65.345072 
4288.000000	65.344500 
4287.000000	65.342140 
4286.000000	65.337038 
4285.000000	65.326738 
4284.000000	65.307641 
4283.000000	65.276765 
4282.000000	65.232729 
4281.000000	65.176987 
4280.000000	65.113544 
4279.000000	65.048646 
4278.000000	64.989495 
4277.000000	64.943027 
4276.000000	64.913845 
4275.000000	64.903807 
4274.000000	64.911723 
4273.000000	64.934158 
4272.000000	64.965701 
4271.000000	65.000724 
4270.000000	65.034127 
4269.000000	65.062522 
4268.000000	65.083837 
4267.000000	65.097784 
4266.000000	65.104889 
4265.000000	65.106344 
4264.000000	65.103316 
4263.000000	65.096783 
4262.000000	65.087461 
4261.000000	65.075874 
4260.000000	65.062665 
4259.000000	65.048646 
4258.000000	65.035057 
4257.000000	65.023255 
4256.000000	65.014600 
4255.000000	65.009784 
4254.000000	65.008735 
4253.000000	65.010452 
4252.000000	65.013122 
4251.000000	65.014481 
4250.000000	65.012478 
4249.000000	65.005660 
4248.000000	64.993786 
4247.000000	64.977836 
4246.000000	64.960050 
4245.000000	64.943337 
4244.000000	64.931130 
4243.000000	64.926171 
4242.000000	64.930486 
4241.000000	64.944767 
4240.000000	64.968276 
4239.000000	64.999246 
4238.000000	65.034961 
4237.000000	65.072417 
4236.000000	65.108823 
4235.000000	65.141868 
4234.000000	65.170049 
4233.000000	65.192437 
4232.000000	65.208745 
4231.000000	65.218949 
4230.000000	65.223145 
4229.000000	65.221595 
4228.000000	65.214467 
4227.000000	65.201997 
4226.000000	65.184760 
4225.000000	65.163564 
4224.000000	65.139341 
4223.000000	65.112948 
4222.000000	65.085124 
4221.000000	65.056443 
4220.000000	65.027284 
4219.000000	64.998555 
4218.000000	64.970803 
4217.000000	64.945483 
4216.000000	64.924716 
4215.000000	64.911580 
4214.000000	64.909005 
4213.000000	64.919400 
4212.000000	64.943218 
4211.000000	64.978933 
4210.000000	65.022397 
4209.000000	65.067625 
4208.000000	65.107655 
4207.000000	65.135931 
4206.000000	65.147471 
4205.000000	65.140438 
4204.000000	65.116548 
4203.000000	65.080904 
4202.000000	65.040898 
4201.000000	65.005230 
4200.000000	64.981818 
4199.000000	64.976692 
4198.000000	64.991974 
4197.000000	65.025401 
4196.000000	65.070009 
4195.000000	65.115928 
4194.000000	65.151977 
4193.000000	65.167474 
4192.000000	65.155124 
4191.000000	65.112304 
4190.000000	65.042495 
4189.000000	64.954543 
4188.000000	64.861249 
4187.000000	64.776897 
4186.000000	64.714002 
4185.000000	64.681148 
4184.000000	64.680576 
4183.000000	64.708471 
4182.000000	64.755439 
4181.000000	64.808845 
4180.000000	64.855766 
4179.000000	64.885687 
4178.000000	64.892840 
4177.000000	64.876723 
4176.000000	64.842295 
4175.000000	64.797782 
4174.000000	64.753508 
4173.000000	64.719057 
4172.000000	64.702224 
4171.000000	64.707279 
4170.000000	64.735078 
4169.000000	64.783000 
4168.000000	64.846253 
4167.000000	64.918303 
4166.000000	64.991903 
4165.000000	65.059733 
4164.000000	65.114784 
4163.000000	65.151786 
4162.000000	65.167522 
4161.000000	65.161824 
4160.000000	65.137243 
4159.000000	65.099215 
4158.000000	65.054798 
4157.000000	65.011811 
4156.000000	64.977693 
4155.000000	64.958119 
4154.000000	64.956307 
4153.000000	64.972376 
4152.000000	65.004038 
4151.000000	65.046906 
4150.000000	65.095591 
4149.000000	65.144705 
4148.000000	65.189504 
4147.000000	65.226936 
4146.000000	65.255737 
4145.000000	65.276312 
4144.000000	65.290069 
4143.000000	65.298652 
4142.000000	65.303039 
4141.000000	65.303587 
4140.000000	65.299725 
4139.000000	65.290188 
4138.000000	65.273547 
4137.000000	65.248990 
4136.000000	65.216660 
4135.000000	65.178751 
4134.000000	65.138745 
4133.000000	65.101003 
4132.000000	65.069580 
4131.000000	65.047883 
4130.000000	65.037465 
4129.000000	65.037465 
4128.000000	65.045213 
4127.000000	65.056490 
4126.000000	65.066981 
4125.000000	65.073108 
4124.000000	65.073275 
4123.000000	65.067720 
4122.000000	65.058732 
4121.000000	65.049672 
4120.000000	65.044331 
4119.000000	65.045857 
4118.000000	65.055918 
4117.000000	65.074133 
4116.000000	65.098571 
4115.000000	65.126037 
4114.000000	65.152835 
4113.000000	65.175175 
4112.000000	65.190029 
4111.000000	65.194821 
4110.000000	65.188241 
4109.000000	65.169906 
4108.000000	65.140223 
4107.000000	65.100479 
4106.000000	65.053009 
4105.000000	65.001130 
4104.000000	64.948487 
4103.000000	64.899182 
4102.000000	64.857387 
4101.000000	64.826464 
4100.000000	64.808607 
4099.000000	64.804458 
4098.000000	64.812827 
4097.000000	64.830923 
4096.000000	64.854645 
4095.000000	64.879298 
4094.000000	64.900279 
4093.000000	64.914083 
4092.000000	64.918851 
4091.000000	64.914369 
4090.000000	64.902091 
4089.000000	64.884614 
4088.000000	64.865207 
4087.000000	64.847111 
4086.000000	64.833188 
4085.000000	64.825749 
4084.000000	64.826488 
4083.000000	64.836406 
4082.000000	64.855861 
4081.000000	64.884424 
4080.000000	64.920735 
4079.000000	64.962697 
4078.000000	65.007138 
4077.000000	65.050387 
4076.000000	65.088462 
4075.000000	65.117979 
4074.000000	65.136313 
4073.000000	65.142107 
4072.000000	65.135598 
4071.000000	65.118837 
4070.000000	65.094733 
4069.000000	65.066790 
4068.000000	65.038394 
4067.000000	65.012502 
4066.000000	64.991092 
4065.000000	64.975309 
4064.000000	64.965248 
4063.000000	64.960312 
4062.000000	64.959383 
4061.000000	64.961314 
4060.000000	64.964699 
4059.000000	64.968800 
4058.000000	64.973211 
4057.000000	64.978408 
4056.000000	64.985418 
4055.000000	64.995455 
4054.000000	65.009379 
4053.000000	65.027165 
4052.000000	65.047955 
4051.000000	65.069961 
4050.000000	65.091037 
4049.000000	65.108942 
4048.000000	65.122008 
4047.000000	65.129542 
4046.000000	65.132260 
4045.000000	65.131831 
4044.000000	65.130496 
4043.000000	65.130162 
4042.000000	65.132212 
4041.000000	65.136647 
4040.000000	65.142416 
4039.000000	65.147590 
4038.000000	65.149879 
4037.000000	65.147495 
4036.000000	65.139603 
4035.000000	65.126466 
4034.000000	65.109658 
4033.000000	65.091681 
4032.000000	65.075898 
4031.000000	65.066099 
4030.000000	65.065860 
4029.000000	65.078139 
4028.000000	65.104079 
4027.000000	65.142798 
4026.000000	65.190744 
4025.000000	65.242266 
4024.000000	65.290212 
4023.000000	65.327429 
4022.000000	65.348172 
4021.000000	65.349435 
4020.000000	65.331602 
4019.000000	65.298676 
4018.000000	65.257287 
4017.000000	65.215325 
4016.000000	65.180134 
4015.000000	65.157294 
4014.000000	65.149188 
4013.000000	65.154910 
4012.000000	65.170788 
4011.000000	65.191578 
4010.000000	65.211892 
4009.000000	65.227532 
4008.000000	65.235924 
4007.000000	65.236663 
4006.000000	65.231013 
4005.000000	65.221452 
4004.000000	65.210986 
4003.000000	65.202236 
4002.000000	65.197205 
4001.000000	65.196490 
4000.000000	65.199804 
3999.000000	65.205621 
3998.000000	65.212059 
3997.000000	65.217018 
3996.000000	65.218877 
3995.000000	65.216684 
3994.000000	65.210342 
3993.000000	65.200352 
3992.000000	65.187525 
3991.000000	65.172648 
3990.000000	65.156269 
3989.000000	65.138578 
3988.000000	65.119767 
3987.000000	65.100479 
3986.000000	65.081930 
3985.000000	65.066599 
3984.000000	65.057945 
3983.000000	65.059947 
3982.000000	65.075969 
3981.000000	65.107893 
3980.000000	65.154957 
3979.000000	65.213322 
3978.000000	65.276217 
3977.000000	65.335226 
3976.000000	65.381622 
3975.000000	65.408372 
3974.000000	65.411686 
3973.000000	65.391683 
3972.000000	65.352606 
3971.000000	65.301871 
3970.000000	65.248537 
3969.000000	65.201640 
3968.000000	65.168142 
3967.000000	65.152168 
3966.000000	65.154147 
3965.000000	65.171718 
3964.000000	65.199899 
3963.000000	65.233039 
3962.000000	65.265226 
3961.000000	65.291690 
3960.000000	65.309023 
3959.000000	65.315461 
3958.000000	65.310764 
3957.000000	65.295886 
3956.000000	65.272927 
3955.000000	65.244579 
3954.000000	65.213894 
3953.000000	65.183758 
3952.000000	65.157032 
3951.000000	65.136075 
3950.000000	65.122652 
3949.000000	65.117216 
3948.000000	65.119314 
3947.000000	65.127038 
3946.000000	65.137481 
3945.000000	65.147042 
3944.000000	65.151762 
3943.000000	65.148305 
3942.000000	65.134263 
3941.000000	65.109086 
3940.000000	65.074014 
3939.000000	65.032100 
3938.000000	64.987492 
3937.000000	64.944791 
3936.000000	64.908480 
3935.000000	64.881849 
3934.000000	64.866471 
3933.000000	64.862298 
3932.000000	64.867806 
3931.000000	64.881086 
3930.000000	64.900302 
3929.000000	64.924168 
3928.000000	64.952135 
3927.000000	64.984011 
3926.000000	65.019798 
3925.000000	65.058898 
3924.000000	65.100073 
3923.000000	65.141320 
3922.000000	65.180540 
3921.000000	65.215826 
3920.000000	65.246129 
3919.000000	65.271639 
3918.000000	65.293288 
3917.000000	65.312886 
3916.000000	65.332126 
3915.000000	65.352058 
3914.000000	65.372800 
3913.000000	65.393543 
3912.000000	65.413069 
3911.000000	65.430498 
3910.000000	65.445613 
3909.000000	65.459275 
3908.000000	65.472936 
3907.000000	65.488266 
3906.000000	65.506267 
3905.000000	65.526866 
3904.000000	65.548634 
3903.000000	65.569067 
3902.000000	65.585184 
3901.000000	65.594339 
3900.000000	65.594840 
3899.000000	65.586090 
3898.000000	65.568828 
3897.000000	65.544462 
3896.000000	65.515065 
3895.000000	65.482711 
3894.000000	65.449190 
3893.000000	65.415787 
3892.000000	65.383958 
3891.000000	65.354824 
3890.000000	65.329575 
3889.000000	65.309286 
3888.000000	65.294694 
3887.000000	65.285849 
3886.000000	65.281677 
3885.000000	65.280103 
3884.000000	65.278267 
3883.000000	65.273308 
3882.000000	65.262722 
3881.000000	65.245342 
3880.000000	65.221762 
3879.000000	65.194106 
3878.000000	65.165567 
3877.000000	65.139722 
3876.000000	65.119624 
3875.000000	65.107059 
3874.000000	65.102100 
3873.000000	65.103149 
3872.000000	65.107631 
3871.000000	65.112519 
3870.000000	65.115427 
3869.000000	65.114974 
3868.000000	65.111351 
3867.000000	65.105843 
3866.000000	65.100598 
3865.000000	65.097641 
3864.000000	65.098619 
3863.000000	65.104317 
3862.000000	65.114617 
3861.000000	65.128445 
3860.000000	65.144276 
3859.000000	65.160751 
3858.000000	65.176510 
3857.000000	65.190458 
3856.000000	65.201640 
3855.000000	65.209007 
3854.000000	65.211725 
3853.000000	65.209221 
3852.000000	65.201282 
3851.000000	65.188241 
3850.000000	65.171313 
3849.000000	65.152645 
3848.000000	65.134859 
3847.000000	65.120816 
3846.000000	65.112829 
3845.000000	65.112185 
3844.000000	65.118718 
3843.000000	65.130853 
3842.000000	65.145826 
3841.000000	65.160465 
3840.000000	65.171837 
3839.000000	65.178227 
3838.000000	65.179419 
3837.000000	65.176987 
3836.000000	65.173816 
3835.000000	65.173172 
3834.000000	65.177655 
3833.000000	65.188050 
3832.000000	65.203404 
3831.000000	65.220379 
3830.000000	65.233850 
3829.000000	65.238070 
3828.000000	65.228366 
3827.000000	65.202283 
3826.000000	65.160393 
3825.000000	65.106558 
3824.000000	65.047311 
3823.000000	64.990425 
3822.000000	64.943575 
3821.000000	64.912295 
3820.000000	64.899039 
3819.000000	64.902448 
3818.000000	64.918112 
3817.000000	64.939546 
3816.000000	64.959883 
3815.000000	64.973831 
3814.000000	64.978885 
3813.000000	64.975523 
3812.000000	64.967203 
3811.000000	64.958858 
3810.000000	64.956068 
3809.000000	64.962935 
3808.000000	64.981961 
3807.000000	65.013480 
3806.000000	65.055847 
3805.000000	65.106511 
3804.000000	65.162038 
3803.000000	65.219092 
3802.000000	65.274405 
3801.000000	65.325331 
3800.000000	65.369272 
3799.000000	65.403747 
3798.000000	65.426421 
3797.000000	65.435671 
3796.000000	65.430450 
3795.000000	65.410542 
3794.000000	65.377116 
3793.000000	65.332770 
3792.000000	65.280795 
3791.000000	65.224742 
3790.000000	65.168094 
3789.000000	65.114164 
3788.000000	65.065836 
3787.000000	65.025591 
3786.000000	64.995336 
3785.000000	64.976263 
3784.000000	64.968919 
3783.000000	64.973115 
3782.000000	64.987206 
3781.000000	65.009212 
3780.000000	65.036487 
3779.000000	65.066742 
3778.000000	65.097641 
3777.000000	65.127849 
3776.000000	65.156626 
3775.000000	65.184068 
3774.000000	65.210461 
3773.000000	65.236806 
3772.000000	65.264439 
3771.000000	65.294766 
3770.000000	65.328884 
3769.000000	65.367507 
3768.000000	65.410614 
3767.000000	65.457105 
3766.000000	65.504360 
3765.000000	65.548276 
3764.000000	65.583705 
3763.000000	65.605378 
3762.000000	65.609097 
3761.000000	65.592956 
3760.000000	65.557813 
3759.000000	65.508103 
3758.000000	65.450668 
3757.000000	65.393447 
3756.000000	65.343546 
3755.000000	65.306043 
3754.000000	65.282869 
3753.000000	65.272974 
3752.000000	65.272688 
3751.000000	65.277457 
3750.000000	65.282654 
3749.000000	65.285158 
3748.000000	65.283465 
3747.000000	65.277647 
3746.000000	65.268778 
3745.000000	65.258026 
3744.000000	65.246200 
3743.000000	65.233254 
3742.000000	65.218877 
3741.000000	65.202999 
3740.000000	65.186572 
3739.000000	65.171480 
3738.000000	65.160584 
3737.000000	65.156793 
3736.000000	65.161824 
3735.000000	65.175557 
3734.000000	65.195751 
3733.000000	65.218329 
3732.000000	65.237951 
3731.000000	65.249490 
3730.000000	65.249133 
3729.000000	65.235638 
3728.000000	65.210485 
3727.000000	65.177631 
3726.000000	65.142345 
3725.000000	65.110373 
3724.000000	65.086269 
3723.000000	65.073060 
3722.000000	65.071296 
3721.000000	65.079951 
3720.000000	65.096592 
3719.000000	65.118765 
3718.000000	65.144681 
3717.000000	65.173649 
3716.000000	65.205621 
3715.000000	65.241146 
3714.000000	65.280222 
3713.000000	65.321779 
3712.000000	65.363240 
3711.000000	65.400671 
3710.000000	65.429210 
3709.000000	65.444588 
3708.000000	65.443849 
3707.000000	65.426445 
3706.000000	65.394377 
3705.000000	65.352463 
3704.000000	65.306925 
3703.000000	65.264415 
3702.000000	65.230226 
3701.000000	65.207839 
3700.000000	65.197753 
3699.000000	65.197753 
3698.000000	65.203595 
3697.000000	65.210342 
3696.000000	65.213632 
3695.000000	65.210628 
3694.000000	65.200805 
3693.000000	65.185737 
3692.000000	65.168595 
3691.000000	65.152788 
3690.000000	65.141010 
3689.000000	65.134692 
3688.000000	65.133428 
3687.000000	65.135431 
3686.000000	65.138030 
3685.000000	65.138816 
3684.000000	65.136313 
3683.000000	65.130782 
3682.000000	65.123820 
3681.000000	65.118098 
3680.000000	65.116524 
3679.000000	65.121650 
3678.000000	65.134787 
3677.000000	65.156006 
3676.000000	65.184378 
3675.000000	65.218043 
3674.000000	65.255212 
3673.000000	65.293955 
3672.000000	65.332317 
3671.000000	65.368366 
3670.000000	65.400099 
3669.000000	65.425777 
3668.000000	65.443682 
3667.000000	65.453028 
3666.000000	65.453934 
3665.000000	65.447688 
3664.000000	65.436697 
3663.000000	65.424156 
3662.000000	65.413546 
3661.000000	65.407490 
3660.000000	65.407371 
3659.000000	65.412783 
3658.000000	65.421843 
3657.000000	65.431547 
3656.000000	65.438771 
3655.000000	65.440988 
3654.000000	65.437006 
3653.000000	65.427374 
3652.000000	65.414261 
3651.000000	65.400767 
3650.000000	65.390443 
3649.000000	65.386438 
3648.000000	65.390634 
3647.000000	65.403199 
3646.000000	65.422272 
3645.000000	65.444350 
3644.000000	65.464973 
3643.000000	65.479397 
3642.000000	65.484261 
3641.000000	65.478396 
3640.000000	65.463757 
3639.000000	65.444326 
3638.000000	65.425920 
3637.000000	65.414524 
3636.000000	65.414667 
3635.000000	65.428018 
3634.000000	65.452671 
3633.000000	65.483641 
3632.000000	65.513753 
3631.000000	65.535593 
3630.000000	65.543651 
3629.000000	65.535688 
3628.000000	65.513300 
3627.000000	65.481710 
3626.000000	65.447974 
3625.000000	65.419220 
3624.000000	65.400767 
3623.000000	65.394949 
3622.000000	65.401172 
3621.000000	65.415883 
3620.000000	65.434622 
3619.000000	65.452527 
3618.000000	65.465664 
3617.000000	65.471553 
3616.000000	65.469241 
3615.000000	65.459346 
3614.000000	65.443325 
3613.000000	65.423059 
3612.000000	65.400457 
3611.000000	65.377187 
3610.000000	65.354943 
3609.000000	65.334963 
3608.000000	65.318250 
3607.000000	65.305233 
3606.000000	65.295910 
3605.000000	65.289402 
3604.000000	65.284395 
3603.000000	65.279436 
3602.000000	65.273380 
3601.000000	65.265774 
3600.000000	65.257072 
3599.000000	65.248537 
3598.000000	65.241980 
3597.000000	65.239071 
3596.000000	65.241241 
3595.000000	65.248918 
3594.000000	65.261816 
3593.000000	65.278911 
3592.000000	65.298509 
3591.000000	65.318679 
3590.000000	65.337133 
3589.000000	65.352153 
3588.000000	65.362119 
3587.000000	65.366077 
3586.000000	65.363216 
3585.000000	65.353226 
3584.000000	65.336012 
3583.000000	65.311694 
3582.000000	65.280532 
3581.000000	65.243339 
3580.000000	65.201401 
3579.000000	65.156626 
3578.000000	65.111470 
3577.000000	65.068960 
3576.000000	65.032410 
3575.000000	65.004849 
3574.000000	64.988541 
3573.000000	64.984464 
3572.000000	64.991784 
3571.000000	65.008187 
3570.000000	65.029597 
3569.000000	65.051555 
3568.000000	65.069603 
3567.000000	65.080690 
3566.000000	65.083479 
3565.000000	65.078806 
3564.000000	65.069270 
3563.000000	65.058636 
3562.000000	65.050745 
3561.000000	65.048623 
3560.000000	65.053868 
3559.000000	65.066218 
3558.000000	65.083742 
3557.000000	65.103125 
3556.000000	65.120768 
3555.000000	65.133261 
3554.000000	65.138339 
3553.000000	65.134978 
3552.000000	65.123462 
3551.000000	65.105199 
3550.000000	65.082430 
3549.000000	65.057587 
3548.000000	65.032839 
3547.000000	65.010166 
3546.000000	64.991116 
3545.000000	64.976882 
3544.000000	64.968228 
3543.000000	64.965534 
3542.000000	64.968729 
3541.000000	64.977335 
3540.000000	64.990353 
3539.000000	65.006041 
3538.000000	65.022325 
3537.000000	65.036988 
3536.000000	65.047955 
3535.000000	65.053701 
3534.000000	65.053510 
3533.000000	65.047717 
3532.000000	65.037775 
3531.000000	65.025949 
3530.000000	65.014886 
3529.000000	65.007138 
3528.000000	65.004944 
3527.000000	65.009665 
3526.000000	65.021944 
3525.000000	65.041589 
3524.000000	65.067815 
3523.000000	65.099096 
3522.000000	65.133380 
3521.000000	65.168213 
3520.000000	65.200710 
3519.000000	65.228009 
3518.000000	65.247535 
3517.000000	65.257334 
3516.000000	65.256619 
3515.000000	65.245866 
3514.000000	65.226817 
3513.000000	65.202331 
3512.000000	65.175914 
3511.000000	65.151047 
3510.000000	65.130829 
3509.000000	65.117049 
3508.000000	65.110468 
3507.000000	65.110254 
3506.000000	65.114617 
3505.000000	65.121221 
3504.000000	65.127611 
3503.000000	65.131855 
3502.000000	65.132808 
3501.000000	65.130543 
3500.000000	65.125989 
3499.000000	65.120887 
3498.000000	65.117192 
3497.000000	65.116643 
3496.000000	65.120196 
3495.000000	65.127754 
3494.000000	65.138125 
3493.000000	65.149116 
3492.000000	65.158057 
3491.000000	65.162563 
3490.000000	65.161275 
3489.000000	65.153980 
3488.000000	65.141820 
3487.000000	65.127110 
3486.000000	65.112614 
3485.000000	65.100979 
3484.000000	65.093898 
3483.000000	65.091943 
3482.000000	65.094399 
3481.000000	65.099596 
3480.000000	65.105462 
3479.000000	65.110015 
3478.000000	65.112185 
3477.000000	65.111970 
3476.000000	65.110635 
3475.000000	65.110015 
3474.000000	65.112257 
3473.000000	65.118861 
3472.000000	65.129947 
3471.000000	65.144324 
3470.000000	65.159249 
3469.000000	65.171337 
3468.000000	65.177249 
3467.000000	65.174531 
3466.000000	65.162587 
3465.000000	65.142774 
3464.000000	65.118312 
3463.000000	65.093493 
3462.000000	65.072941 
3461.000000	65.060091 
3460.000000	65.056824 
3459.000000	65.062737 
3458.000000	65.075445 
3457.000000	65.091037 
3456.000000	65.105175 
3455.000000	65.114045 
3454.000000	65.115427 
3453.000000	65.108871 
3452.000000	65.095567 
3451.000000	65.078139 
3450.000000	65.059781 
3449.000000	65.043687 
3448.000000	65.032410 
3447.000000	65.027475 
3446.000000	65.029287 
3445.000000	65.037155 
3444.000000	65.049672 
3443.000000	65.064930 
3442.000000	65.081095 
3441.000000	65.096449 
3440.000000	65.109753 
3439.000000	65.120172 
3438.000000	65.127277 
3437.000000	65.131044 
3436.000000	65.131664 
3435.000000	65.129470 
3434.000000	65.125036 
3433.000000	65.118932 
3432.000000	65.112113 
3431.000000	65.105652 
3430.000000	65.101003 
3429.000000	65.099453 
3428.000000	65.102100 
3427.000000	65.109658 
3426.000000	65.121984 
3425.000000	65.138053 
3424.000000	65.155887 
3423.000000	65.173006 
3422.000000	65.186882 
3421.000000	65.195536 
3420.000000	65.198493 
3419.000000	65.196514 
3418.000000	65.191888 
3417.000000	65.187716 
3416.000000	65.187287 
3415.000000	65.193438 
3414.000000	65.207600 
3413.000000	65.229415 
3412.000000	65.256738 
3411.000000	65.286183 
3410.000000	65.313839 
3409.000000	65.335917 
3408.000000	65.349674 
3407.000000	65.353846 
3406.000000	65.348982 
3405.000000	65.337181 
3404.000000	65.321445 
3403.000000	65.305018 
3402.000000	65.290689 
3401.000000	65.280246 
3400.000000	65.274500 
3399.000000	65.273022 
3398.000000	65.274858 
3397.000000	65.278601 
3396.000000	65.283083 
3395.000000	65.287804 
3394.000000	65.292906 
3393.000000	65.299224 
3392.000000	65.307545 
3391.000000	65.318632 
3390.000000	65.332841 
3389.000000	65.349793 
3388.000000	65.368294 
3387.000000	65.386605 
3386.000000	65.402531 
3385.000000	65.414166 
3384.000000	65.419816 
3383.000000	65.418481 
3382.000000	65.409636 
3381.000000	65.393590 
3380.000000	65.371203 
3379.000000	65.343999 
3378.000000	65.313553 
3377.000000	65.281891 
3376.000000	65.250658 
3375.000000	65.221428 
3374.000000	65.195226 
3373.000000	65.172672 
3372.000000	65.153765 
3371.000000	65.137791 
3370.000000	65.123677 
3369.000000	65.110135 
3368.000000	65.096044 
3367.000000	65.080380 
3366.000000	65.062832 
3365.000000	65.043807 
3364.000000	65.024614 
3363.000000	65.007400 
3362.000000	64.994788 
3361.000000	64.989185 
3360.000000	64.992618 
3359.000000	65.006136 
3358.000000	65.029215 
3357.000000	65.059852 
3356.000000	65.094733 
3355.000000	65.129828 
3354.000000	65.160870 
3353.000000	65.184354 
3352.000000	65.198087 
3351.000000	65.201687 
3350.000000	65.196585 
3349.000000	65.185642 
3348.000000	65.172743 
3347.000000	65.161561 
3346.000000	65.155529 
3345.000000	65.156531 
3344.000000	65.164923 
3343.000000	65.179443 
3342.000000	65.197896 
3341.000000	65.217304 
3340.000000	65.234541 
3339.000000	65.246915 
3338.000000	65.252757 
3337.000000	65.251302 
3336.000000	65.242528 
3335.000000	65.227174 
3334.000000	65.206527 
3333.000000	65.182161 
3332.000000	65.155696 
3331.000000	65.128898 
3330.000000	65.103435 
3329.000000	65.080714 
3328.000000	65.061736 
3327.000000	65.047073 
3326.000000	65.036606 
3325.000000	65.029811 
3324.000000	65.025687 
3323.000000	65.022587 
3322.000000	65.018963 
3321.000000	65.013217 
3320.000000	65.004420 
3319.000000	64.991998 
3318.000000	64.976859 
3317.000000	64.960789 
3316.000000	64.946937 
3315.000000	64.938879 
3314.000000	64.940047 
3313.000000	64.952778 
3312.000000	64.977693 
3311.000000	65.013241 
3310.000000	65.056085 
3309.000000	65.101432 
3308.000000	65.143990 
3307.000000	65.179085 
3306.000000	65.203332 
3305.000000	65.215373 
3304.000000	65.215897 
3303.000000	65.207266 
3302.000000	65.193080 
3301.000000	65.177226 
3300.000000	65.163350 
3299.000000	65.153765 
3298.000000	65.149569 
3297.000000	65.150094 
3296.000000	65.154051 
3295.000000	65.159082 
3294.000000	65.162944 
3293.000000	65.163803 
3292.000000	65.160632 
3291.000000	65.153455 
3290.000000	65.143346 
3289.000000	65.132117 
3288.000000	65.121865 
3287.000000	65.114426 
3286.000000	65.110921 
3285.000000	65.111660 
3284.000000	65.116071 
3283.000000	65.122818 
3282.000000	65.130162 
3281.000000	65.136504 
3280.000000	65.140557 
3279.000000	65.141344 
3278.000000	65.138244 
3277.000000	65.130734 
3276.000000	65.118527 
3275.000000	65.101313 
3274.000000	65.079307 
3273.000000	65.052986 
3272.000000	65.023589 
3271.000000	64.993214 
3270.000000	64.964437 
3269.000000	64.940285 
3268.000000	64.923381 
3267.000000	64.915227 
3266.000000	64.916110 
3265.000000	64.924454 
3264.000000	64.937472 
3263.000000	64.951705 
3262.000000	64.963841 
3261.000000	64.971375 
3260.000000	64.973258 
3259.000000	64.969921 
3258.000000	64.963388 
3257.000000	64.956426 
3256.000000	64.952325 
3255.000000	64.954185 
3254.000000	64.964342 
3253.000000	64.984107 
3252.000000	65.013480 
3251.000000	65.051126 
3250.000000	65.094709 
3249.000000	65.140962 
3248.000000	65.186285 
3247.000000	65.226984 
3246.000000	65.259838 
3245.000000	65.282416 
3244.000000	65.293240 
3243.000000	65.291786 
3242.000000	65.278792 
3241.000000	65.255761 
3240.000000	65.224885 
3239.000000	65.188550 
3238.000000	65.149521 
3237.000000	65.110397 
3236.000000	65.073728 
3235.000000	65.041756 
3234.000000	65.016317 
3233.000000	64.998435 
3232.000000	64.988470 
3231.000000	64.985775 
3230.000000	64.988708 
3229.000000	64.995241 
3228.000000	65.003228 
3227.000000	65.010857 
3226.000000	65.016984 
3225.000000	65.021419 
3224.000000	65.024995 
3223.000000	65.029001 
3222.000000	65.034842 
3221.000000	65.043711 
3220.000000	65.055894 
3219.000000	65.070867 
3218.000000	65.087080 
3217.000000	65.102767 
3216.000000	65.115880 
3215.000000	65.124797 
3214.000000	65.128302 
3213.000000	65.125989 
3212.000000	65.118002 
3211.000000	65.105032 
3210.000000	65.088272 
3209.000000	65.068936 
3208.000000	65.048551 
3207.000000	65.029025 
3206.000000	65.012049 
3205.000000	64.999175 
3204.000000	64.991307 
3203.000000	64.988899 
3202.000000	64.991402 
3201.000000	64.997339 
3200.000000	65.004634 
3199.000000	65.010976 
3198.000000	65.014433 
3197.000000	65.013790 
3196.000000	65.008926 
3195.000000	65.000844 
3194.000000	64.991402 
3193.000000	64.982748 
3192.000000	64.976906 
3191.000000	64.974999 
3190.000000	64.977169 
3189.000000	64.982533 
3188.000000	64.989733 
3187.000000	64.997386 
3186.000000	65.004563 
3185.000000	65.011143 
3184.000000	65.017819 
3183.000000	65.026092 
3182.000000	65.037751 
3181.000000	65.054130 
3180.000000	65.075564 
3179.000000	65.100955 
3178.000000	65.128183 
3177.000000	65.154218 
3176.000000	65.175819 
3175.000000	65.190505 
3174.000000	65.197134 
3173.000000	65.196037 
3172.000000	65.189027 
3171.000000	65.178751 
3170.000000	65.167784 
3169.000000	65.158271 
3168.000000	65.151429 
3167.000000	65.147399 
3166.000000	65.145754 
3165.000000	65.146160 
3164.000000	65.148663 
3163.000000	65.154170 
3162.000000	65.164017 
3161.000000	65.179872 
3160.000000	65.202498 
3159.000000	65.231490 
3158.000000	65.264320 
3157.000000	65.296959 
3156.000000	65.324068 
3155.000000	65.340542 
3154.000000	65.342211 
3153.000000	65.327072 
3152.000000	65.295529 
3151.000000	65.250492 
3150.000000	65.196537 
3149.000000	65.139007 
3148.000000	65.083265 
3147.000000	65.033698 
3146.000000	64.993166 
3145.000000	64.963078 
3144.000000	64.943408 
3143.000000	64.933300 
3142.000000	64.931249 
3141.000000	64.935827 
3140.000000	64.945626 
3139.000000	64.959788 
3138.000000	64.977622 
3137.000000	64.998745 
3136.000000	65.022826 
3135.000000	65.049600 
3134.000000	65.078544 
3133.000000	65.108847 
3132.000000	65.139222 
3131.000000	65.167903 
3130.000000	65.193033 
3129.000000	65.212440 
3128.000000	65.224480 
3127.000000	65.227556 
3126.000000	65.221357 
3125.000000	65.205860 
3124.000000	65.181899 
3123.000000	65.150594 
3122.000000	65.113639 
3121.000000	65.073037 
3120.000000	65.031003 
3119.000000	64.990091 
3118.000000	64.952921 
3117.000000	64.922070 
3116.000000	64.899563 
3115.000000	64.886832 
3114.000000	64.884352 
3113.000000	64.891338 
3112.000000	64.906001 
3111.000000	64.925503 
3110.000000	64.946818 
3109.000000	64.966940 
3108.000000	64.983630 
3107.000000	64.995503 
3106.000000	65.002536 
3105.000000	65.005755 
3104.000000	65.007019 
3103.000000	65.008449 
3102.000000	65.012121 
3101.000000	65.019702 
3100.000000	65.031862 
3099.000000	65.048432 
3098.000000	65.067958 
3097.000000	65.088200 
3096.000000	65.106296 
3095.000000	65.119338 
3094.000000	65.124964 
3093.000000	65.121769 
3092.000000	65.109753 
3091.000000	65.090537 
3090.000000	65.066957 
3089.000000	65.042638 
3088.000000	65.021443 
3087.000000	65.006756 
3086.000000	65.000748 
3085.000000	65.004038 
3084.000000	65.015840 
3083.000000	65.034055 
3082.000000	65.056085 
3081.000000	65.079021 
3080.000000	65.100288 
3079.000000	65.118074 
3078.000000	65.131139 
3077.000000	65.139150 
3076.000000	65.142130 
3075.000000	65.140533 
3074.000000	65.135407 
3073.000000	65.128111 
3072.000000	65.120387 
3071.000000	65.114140 
3070.000000	65.111255 
3069.000000	65.113186 
3068.000000	65.120649 
3067.000000	65.133357 
3066.000000	65.150022 
3065.000000	65.168523 
3064.000000	65.186238 
3063.000000	65.200853 
3062.000000	65.210676 
3061.000000	65.215086 
3060.000000	65.214395 
3059.000000	65.209865 
3058.000000	65.202999 
3057.000000	65.195226 
3056.000000	65.187501 
3055.000000	65.180206 
3054.000000	65.173363 
3053.000000	65.166807 
3052.000000	65.160346 
3051.000000	65.154266 
3050.000000	65.148925 
3049.000000	65.144872 
3048.000000	65.142583 
3047.000000	65.142035 
3046.000000	65.142822 
3045.000000	65.144038 
3044.000000	65.144586 
3043.000000	65.143513 
3042.000000	65.140318 
3041.000000	65.135073 
3040.000000	65.128374 
3039.000000	65.121197 
3038.000000	65.114331 
3037.000000	65.108203 
3036.000000	65.102648 
3035.000000	65.096735 
3034.000000	65.089178 
3033.000000	65.078544 
3032.000000	65.063858 
3031.000000	65.044903 
3030.000000	65.022206 
3029.000000	64.997458 
3028.000000	64.972949 
3027.000000	64.951562 
3026.000000	64.935922 
3025.000000	64.928102 
3024.000000	64.929223 
3023.000000	64.939355 
3022.000000	64.957451 
3021.000000	64.981675 
3020.000000	65.009498 
3019.000000	65.038275 
3018.000000	65.065503 
3017.000000	65.089225 
3016.000000	65.108299 
3015.000000	65.122342 
3014.000000	65.131568 
3013.000000	65.136551 
3012.000000	65.138077 
3011.000000	65.136957 
3010.000000	65.133738 
3009.000000	65.129065 
3008.000000	65.123367 
3007.000000	65.117359 
3006.000000	65.111541 
3005.000000	65.106248 
3004.000000	65.101456 
3003.000000	65.096735 
3002.000000	65.091609 
3001.000000	65.085530 
3000.000000	65.078520 
2999.000000	65.070986 
2998.000000	65.064215 
2997.000000	65.060091 
2996.000000	65.060496 
2995.000000	65.066981 
2994.000000	65.079879 
2993.000000	65.098094 
2992.000000	65.118980 
2991.000000	65.138840 
2990.000000	65.153574 
2989.000000	65.159869 
2988.000000	65.155887 
2987.000000	65.141797 
2986.000000	65.119838 
2985.000000	65.093779 
2984.000000	65.068173 
2983.000000	65.047121 
2982.000000	65.033864 
2981.000000	65.029954 
2980.000000	65.035414 
2979.000000	65.048599 
2978.000000	65.066885 
2977.000000	65.087032 
2976.000000	65.105962 
2975.000000	65.120935 
2974.000000	65.129876 
2973.000000	65.131521 
2972.000000	65.125298 
2971.000000	65.111351 
2970.000000	65.090489 
2969.000000	65.064120 
2968.000000	65.034270 
2967.000000	65.003442 
2966.000000	64.974403 
2965.000000	64.949917 
2964.000000	64.932441 
2963.000000	64.923691 
2962.000000	64.924550 
2961.000000	64.934635 
2960.000000	64.952421 
2959.000000	64.975237 
2958.000000	64.999771 
2957.000000	65.022349 
2956.000000	65.039753 
2955.000000	65.049648 
2954.000000	65.051078 
2953.000000	65.044593 
2952.000000	65.032100 
2951.000000	65.016388 
2950.000000	65.000319 
2949.000000	64.986562 
2948.000000	64.976739 
2947.000000	64.971590 
2946.000000	64.970684 
2945.000000	64.972853 
2944.000000	64.976406 
2943.000000	64.979648 
2942.000000	64.981245 
2941.000000	64.980363 
2940.000000	64.976763 
2939.000000	64.970684 
2938.000000	64.962816 
2937.000000	64.954066 
2936.000000	64.945459 
2935.000000	64.937853 
2934.000000	64.932084 
2933.000000	64.928913 
2932.000000	64.928722 
2931.000000	64.931774 
2930.000000	64.937853 
2929.000000	64.946627 
2928.000000	64.957737 
2927.000000	64.970803 
2926.000000	64.985442 
2925.000000	65.001058 
2924.000000	65.016770 
2923.000000	65.031194 
2922.000000	65.042710 
2921.000000	65.049576 
2920.000000	65.050435 
2919.000000	65.044641 
2918.000000	65.032815 
2917.000000	65.016365 
2916.000000	64.997363 
2915.000000	64.978075 
2914.000000	64.960360 
2913.000000	64.945602 
2912.000000	64.934515 
2911.000000	64.927339 
2910.000000	64.923930 
2909.000000	64.924097 
2908.000000	64.927864 
2907.000000	64.935231 
2906.000000	64.946174 
2905.000000	64.960241 
2904.000000	64.976382 
2903.000000	64.993047 
2902.000000	65.008258 
2901.000000	65.020036 
2900.000000	65.026855 
2899.000000	65.028309 
2898.000000	65.025067 
2897.000000	65.018939 
2896.000000	65.012454 
2895.000000	65.008234 
2894.000000	65.008449 
2893.000000	65.014290 
2892.000000	65.025496 
2891.000000	65.040659 
2890.000000	65.057158 
2889.000000	65.072345 
2888.000000	65.083599 
2887.000000	65.089058 
2886.000000	65.087699 
2885.000000	65.079474 
2884.000000	65.065288 
2883.000000	65.046596 
2882.000000	65.025472 
2881.000000	65.004277 
2880.000000	64.985466 
2879.000000	64.971351 
2878.000000	64.964056 
2877.000000	64.965271 
2876.000000	64.975786 
2875.000000	64.995622 
2874.000000	65.023779 
2873.000000	65.058350 
2872.000000	65.096807 
2871.000000	65.136170 
2870.000000	65.173482 
2869.000000	65.205836 
2868.000000	65.230989 
2867.000000	65.247058 
2866.000000	65.252971 
2865.000000	65.248274 
2864.000000	65.233373 
2863.000000	65.209579 
2862.000000	65.179204 
2861.000000	65.145087 
2860.000000	65.110969 
2859.000000	65.080237 
2858.000000	65.055751 
2857.000000	65.038919 
2856.000000	65.029692 
2855.000000	65.026283 
2854.000000	65.026021 
2853.000000	65.025782 
2852.000000	65.022754 
2851.000000	65.015411 
2850.000000	65.003800 
2849.000000	64.989614 
2848.000000	64.975523 
2847.000000	64.964771 
2846.000000	64.960026 
2845.000000	64.962911 
2844.000000	64.973306 
2843.000000	64.989686 
2842.000000	65.009355 
2841.000000	65.028929 
2840.000000	65.045261 
2839.000000	65.056037 
2838.000000	65.060424 
2837.000000	65.058732 
2836.000000	65.052747 
2835.000000	65.045022 
2834.000000	65.038394 
2833.000000	65.035510 
2832.000000	65.037894 
2831.000000	65.045762 
2830.000000	65.057706 
2829.000000	65.071225 
2828.000000	65.083026 
2827.000000	65.089678 
2826.000000	65.088534 
2825.000000	65.078425 
2824.000000	65.059995 
2823.000000	65.035533 
2822.000000	65.008711 
2821.000000	64.983701 
2820.000000	64.964389 
2819.000000	64.953351 
2818.000000	64.951562 
2817.000000	64.958047 
2816.000000	64.970564 
2815.000000	64.986205 
2814.000000	65.002036 
2813.000000	65.015816 
2812.000000	65.026473 
2811.000000	65.034174 
2810.000000	65.039587 
2809.000000	65.044093 
2808.000000	65.048789 
2807.000000	65.054321 
2806.000000	65.060853 
2805.000000	65.067958 
2804.000000	65.075016 
2803.000000	65.081357 
2802.000000	65.086841 
2801.000000	65.091681 
2800.000000	65.096569 
2799.000000	65.102386 
2798.000000	65.110015 
2797.000000	65.119838 
2796.000000	65.131688 
2795.000000	65.144729 
2794.000000	65.157389 
2793.000000	65.167641 
2792.000000	65.173316 
2791.000000	65.172386 
2790.000000	65.163612 
2789.000000	65.146493 
2788.000000	65.121793 
2787.000000	65.091323 
2786.000000	65.058088 
2785.000000	65.025496 
2784.000000	64.997148 
2783.000000	64.976167 
2782.000000	64.964866 
2781.000000	64.964318 
2780.000000	64.974379 
2779.000000	64.993476 
2778.000000	65.019059 
2777.000000	65.048074 
2776.000000	65.077424 
2775.000000	65.104174 
2774.000000	65.126156 
2773.000000	65.142154 
2772.000000	65.151691 
2771.000000	65.154981 
2770.000000	65.152502 
2769.000000	65.144968 
2768.000000	65.132880 
2767.000000	65.116739 
2766.000000	65.097117 
2765.000000	65.075111 
2764.000000	65.052175 
2763.000000	65.030479 
2762.000000	65.012311 
2761.000000	64.999914 
2760.000000	64.994978 
2759.000000	64.998340 
2758.000000	65.009641 
2757.000000	65.027260 
2756.000000	65.048742 
2755.000000	65.071058 
2754.000000	65.091204 
2753.000000	65.106749 
2752.000000	65.116238 
2751.000000	65.119361 
2750.000000	65.116906 
2749.000000	65.110540 
2748.000000	65.102338 
2747.000000	65.094184 
2746.000000	65.087532 
2745.000000	65.082597 
2744.000000	65.078735 
2743.000000	65.074300 
2742.000000	65.067338 
2741.000000	65.056061 
2740.000000	65.039634 
2739.000000	65.018343 
2738.000000	64.994239 
2737.000000	64.970660 
2736.000000	64.951753 
2735.000000	64.941406 
2734.000000	64.942336 
2733.000000	64.955544 
2732.000000	64.979839 
2731.000000	65.011811 
2730.000000	65.046620 
2729.000000	65.079212 
2728.000000	65.104866 
2727.000000	65.120506 
2726.000000	65.124988 
2725.000000	65.119194 
2724.000000	65.105414 
2723.000000	65.086793 
2722.000000	65.066337 
2721.000000	65.046238 
2720.000000	65.027570 
2719.000000	65.010380 
2718.000000	64.994120 
2717.000000	64.978146 
2716.000000	64.962172 
2715.000000	64.946794 
2714.000000	64.933228 
2713.000000	64.923262 
2712.000000	64.918756 
2711.000000	64.921402 
2710.000000	64.931869 
2709.000000	64.949941 
2708.000000	64.974284 
2707.000000	65.002703 
2706.000000	65.032744 
2705.000000	65.061974 
2704.000000	65.088367 
2703.000000	65.110707 
2702.000000	65.128469 
2701.000000	65.141820 
2700.000000	65.151262 
2699.000000	65.157365 
2698.000000	65.160560 
2697.000000	65.160965 
2696.000000	65.158510 
2695.000000	65.153074 
2694.000000	65.144777 
2693.000000	65.134072 
2692.000000	65.121793 
2691.000000	65.108871 
2690.000000	65.096402 
2689.000000	65.084934 
2688.000000	65.074443 
2687.000000	65.064215 
2686.000000	65.053153 
2685.000000	65.040159 
2684.000000	65.024638 
2683.000000	65.006804 
2682.000000	64.987897 
2681.000000	64.969801 
2680.000000	64.954757 
2679.000000	64.944553 
2678.000000	64.940118 
2677.000000	64.941239 
2676.000000	64.946794 
2675.000000	64.954638 
2674.000000	64.962601 
2673.000000	64.969229 
2672.000000	64.974045 
2671.000000	64.977455 
2670.000000	64.980840 
2669.000000	64.985799 
2668.000000	64.993762 
2667.000000	65.005040 
2666.000000	65.019202 
2665.000000	65.034794 
2664.000000	65.049815 
2663.000000	65.062427 
2662.000000	65.071058 
2661.000000	65.074872 
2660.000000	65.074038 
2659.000000	65.069484 
2658.000000	65.062546 
2657.000000	65.054702 
2656.000000	65.047407 
2655.000000	65.041732 
2654.000000	65.038108 
2653.000000	65.036201 
2652.000000	65.035271 
2651.000000	65.034246 
2650.000000	65.031743 
2649.000000	65.026593 
2648.000000	65.017867 
2647.000000	65.005540 
2646.000000	64.990377 
2645.000000	64.973950 
2644.000000	64.958429 
2643.000000	64.945912 
2642.000000	64.938187 
2641.000000	64.936065 
2640.000000	64.939212 
2639.000000	64.946246 
2638.000000	64.955353 
2637.000000	64.964652 
2636.000000	64.972662 
2635.000000	64.978909 
2634.000000	64.983868 
2633.000000	64.988756 
2632.000000	64.995074 
2631.000000	65.004229 
2630.000000	65.016889 
2629.000000	65.032911 
2628.000000	65.051174 
2627.000000	65.070009 
2626.000000	65.087342 
2625.000000	65.101337 
2624.000000	65.110445 
2623.000000	65.113663 
2622.000000	65.110468 
2621.000000	65.100932 
2620.000000	65.085649 
2619.000000	65.065670 
2618.000000	65.042519 
2617.000000	65.018224 
2616.000000	64.995050 
2615.000000	64.975118 
2614.000000	64.959979 
2613.000000	64.950585 
2612.000000	64.946818 
2611.000000	64.947628 
2610.000000	64.951276 
2609.000000	64.955639 
2608.000000	64.958953 
2607.000000	64.960050 
2606.000000	64.958548 
2605.000000	64.954829 
2604.000000	64.949798 
2603.000000	64.944529 
2602.000000	64.939689 
2601.000000	64.935326 
2600.000000	64.931011 
2599.000000	64.926028 
2598.000000	64.919590 
2597.000000	64.911413 
2596.000000	64.901995 
2595.000000	64.892649 
2594.000000	64.885091 
2593.000000	64.881491 
2592.000000	64.883732 
2591.000000	64.893126 
2590.000000	64.909863 
2589.000000	64.933252 
2588.000000	64.961433 
2587.000000	64.991831 
2586.000000	65.021729 
2585.000000	65.048360 
2584.000000	65.069293 
2583.000000	65.082788 
2582.000000	65.088105 
2581.000000	65.085530 
2580.000000	65.076184 
2579.000000	65.062046 
2578.000000	65.045499 
2577.000000	65.029072 
2576.000000	65.015029 
2575.000000	65.004992 
2574.000000	64.999485 
2573.000000	64.998245 
2572.000000	65.000081 
2571.000000	65.003156 
2570.000000	65.005731 
2569.000000	65.006399 
2568.000000	65.004587 
2567.000000	65.000557 
2566.000000	64.995336 
2565.000000	64.990401 
2564.000000	64.987373 
2563.000000	64.987492 
2562.000000	64.991497 
2561.000000	64.999508 
2560.000000	65.010905 
2559.000000	65.024662 
2558.000000	65.039324 
2557.000000	65.053319 
2556.000000	65.064811 
2555.000000	65.072107 
2554.000000	65.073704 
2553.000000	65.068578 
2552.000000	65.056395 
2551.000000	65.037608 
2550.000000	65.013670 
2549.000000	64.986705 
2548.000000	64.959478 
2547.000000	64.934754 
2546.000000	64.914822 
2545.000000	64.901041 
2544.000000	64.893674 
2543.000000	64.892172 
2542.000000	64.895224 
2541.000000	64.901447 
2540.000000	64.909648 
2539.000000	64.919447 
2538.000000	64.930844 
2537.000000	64.944267 
2536.000000	64.960122 
2535.000000	64.978384 
2534.000000	64.998316 
2533.000000	65.018415 
2532.000000	65.036606 
2531.000000	65.050649 
2530.000000	65.058588 
2529.000000	65.059113 
2528.000000	65.052103 
2527.000000	65.038394 
2526.000000	65.019822 
2525.000000	64.998722 
2524.000000	64.977765 
2523.000000	64.959216 
2522.000000	64.944839 
2521.000000	64.935517 
2520.000000	64.931416 
2519.000000	64.932012 
2518.000000	64.936304 
2517.000000	64.943003 
2516.000000	64.951133 
2515.000000	64.959836 
2514.000000	64.968848 
2513.000000	64.978051 
2512.000000	64.987802 
2511.000000	64.998316 
2510.000000	65.009617 
2509.000000	65.021395 
2508.000000	65.032863 
2507.000000	65.042805 
2506.000000	65.049982 
2505.000000	65.053391 
2504.000000	65.052628 
2503.000000	65.048098 
2502.000000	65.041112 
2501.000000	65.033507 
2500.000000	65.027260 
2499.000000	65.024042 
2498.000000	65.024495 
2497.000000	65.028309 
2496.000000	65.033936 
2495.000000	65.039300 
2494.000000	65.041971 
2493.000000	65.039968 
2492.000000	65.032005 
2491.000000	65.018010 
2490.000000	64.998936 
2489.000000	64.976763 
2488.000000	64.954042 
2487.000000	64.933466 
2486.000000	64.917397 
2485.000000	64.907574 
2484.000000	64.904880 
2483.000000	64.909458 
2482.000000	64.920473 
2481.000000	64.936542 
2480.000000	64.955949 
2479.000000	64.976859 
2478.000000	64.997291 
2477.000000	65.015673 
2476.000000	65.030717 
2475.000000	65.041613 
2474.000000	65.047883 
2473.000000	65.049386 
2472.000000	65.046286 
2471.000000	65.039157 
2470.000000	65.028762 
2469.000000	65.016222 
2468.000000	65.002632 
2467.000000	64.989328 
2466.000000	64.977598 
2465.000000	64.968514 
2464.000000	64.962840 
2463.000000	64.960885 
2462.000000	64.962410 
2461.000000	64.966750 
2460.000000	64.972925 
2459.000000	64.979982 
2458.000000	64.986991 
2457.000000	64.993143 
2456.000000	64.997792 
2455.000000	65.000796 
2454.000000	65.002083 
2453.000000	65.001654 
2452.000000	64.999413 
2451.000000	64.995169 
2450.000000	64.988827 
2449.000000	64.980649 
2448.000000	64.971160 
2447.000000	64.961051 
2446.000000	64.951539 
2445.000000	64.944124 
2444.000000	64.940214 
2443.000000	64.940834 
2442.000000	64.946603 
2441.000000	64.957380 
2440.000000	64.972376 
2439.000000	64.990139 
2438.000000	65.008735 
2437.000000	65.026330 
2436.000000	65.041399 
2435.000000	65.053367 
2434.000000	65.062642 
2433.000000	65.070509 
2432.000000	65.079164 
2431.000000	65.090775 
2430.000000	65.107059 
2429.000000	65.128231 
2428.000000	65.153098 
2427.000000	65.178465 
2426.000000	65.199828 
2425.000000	65.212106 
2424.000000	65.210890 
2423.000000	65.193486 
2422.000000	65.159797 
2421.000000	65.112400 
2420.000000	65.056514 
2419.000000	64.998626 
2418.000000	64.945507 
2417.000000	64.902615 
2416.000000	64.873337 
2415.000000	64.858508 
2414.000000	64.857053 
2413.000000	64.866137 
2412.000000	64.882516 
2411.000000	64.903354 
2410.000000	64.926862 
2409.000000	64.951944 
2408.000000	64.978408 
2407.000000	65.006041 
2406.000000	65.034484 
2405.000000	65.062284 
2404.000000	65.087342 
2403.000000	65.107369 
2402.000000	65.120267 
2401.000000	65.124893 
2400.000000	65.121269 
2399.000000	65.110969 
2398.000000	65.096473 
2397.000000	65.080833 
2396.000000	65.066742 
2395.000000	65.056157 
2394.000000	65.049719 
2393.000000	65.046977 
2392.000000	65.046501 
2391.000000	65.046405 
2390.000000	65.044951 
2389.000000	65.040946 
2388.000000	65.033841 
2387.000000	65.023589 
2386.000000	65.010762 
2385.000000	64.996147 
2384.000000	64.980149 
2383.000000	64.962959 
2382.000000	64.944481 
2381.000000	64.924621 
2380.000000	64.903640 
2379.000000	64.882278 
2378.000000	64.861679 
2377.000000	64.843511 
2376.000000	64.829492 
2375.000000	64.821314 
2374.000000	64.819765 
2373.000000	64.824962 
2372.000000	64.835977 
2371.000000	64.851379 
2370.000000	64.869117 
2369.000000	64.887261 
2368.000000	64.904189 
2367.000000	64.918994 
2366.000000	64.931249 
2365.000000	64.941120 
2364.000000	64.949083 
2363.000000	64.955735 
2362.000000	64.961600 
2361.000000	64.967083 
2360.000000	64.972400 
2359.000000	64.977788 
2358.000000	64.983344 
2357.000000	64.989066 
2356.000000	64.994573 
2355.000000	64.999556 
2354.000000	65.003252 
2353.000000	65.004777 
2352.000000	65.003085 
2351.000000	64.997529 
2350.000000	64.987802 
2349.000000	64.974308 
2348.000000	64.958095 
2347.000000	64.940857 
2346.000000	64.924383 
2345.000000	64.910483 
2344.000000	64.900231 
2343.000000	64.893960 
2342.000000	64.891052 
2341.000000	64.890241 
2340.000000	64.889788 
2339.000000	64.888048 
2338.000000	64.883923 
2337.000000	64.877080 
2336.000000	64.868092 
2335.000000	64.857983 
2334.000000	64.848113 
2333.000000	64.839673 
2332.000000	64.833259 
2331.000000	64.829039 
2330.000000	64.826655 
2329.000000	64.825606 
2328.000000	64.825344 
2327.000000	64.825654 
2326.000000	64.826655 
2325.000000	64.828872 
2324.000000	64.832949 
2323.000000	64.839363 
2322.000000	64.848256 
2321.000000	64.859390 
2320.000000	64.872097 
2319.000000	64.885449 
2318.000000	64.898228 
2317.000000	64.909219 
2316.000000	64.917397 
2315.000000	64.922046 
2314.000000	64.922785 
2313.000000	64.919710 
2312.000000	64.913511 
2311.000000	64.905261 
2310.000000	64.896416 
2309.000000	64.888715 
2308.000000	64.883756 
2307.000000	64.882636 
2306.000000	64.885425 
2305.000000	64.891338 
2304.000000	64.898681 
2303.000000	64.905118 
2302.000000	64.908480 
2301.000000	64.907050 
2300.000000	64.900422 
2299.000000	64.889454 
2298.000000	64.876365 
2297.000000	64.863944 
2296.000000	64.855289 
2295.000000	64.852786 
2294.000000	64.857530 
2293.000000	64.869070 
2292.000000	64.885449 
2291.000000	64.903783 
2290.000000	64.920806 
2289.000000	64.933562 
2288.000000	64.940309 
2287.000000	64.940595 
2286.000000	64.935517 
2285.000000	64.927077 
2284.000000	64.917874 
2283.000000	64.910483 
2282.000000	64.906787 
2281.000000	64.907789 
2280.000000	64.913177 
2279.000000	64.921617 
2278.000000	64.931201 
2277.000000	64.939808 
2276.000000	64.945554 
2275.000000	64.947271 
2274.000000	64.944338 
2273.000000	64.937233 
2272.000000	64.927124 
2271.000000	64.915513 
2270.000000	64.904069 
2269.000000	64.894104 
2268.000000	64.886617 
2267.000000	64.881777 
2266.000000	64.879298 
2265.000000	64.878273 
2264.000000	64.877533 
2263.000000	64.875769 
2262.000000	64.871931 
2261.000000	64.865303 
2260.000000	64.855790 
2259.000000	64.843988 
2258.000000	64.830660 
2257.000000	64.817309 
2256.000000	64.805698 
2255.000000	64.797520 
2254.000000	64.794182 
2253.000000	64.796638 
2252.000000	64.805221 
2251.000000	64.819526 
2250.000000	64.838385 
2249.000000	64.860057 
2248.000000	64.882493 
2247.000000	64.903473 
2246.000000	64.920973 
2245.000000	64.933586 
2244.000000	64.940595 
2243.000000	64.942145 
2242.000000	64.939355 
2241.000000	64.933848 
2240.000000	64.927649 
2239.000000	64.922904 
2238.000000	64.921283 
2237.000000	64.923834 
2236.000000	64.930319 
2235.000000	64.939880 
2234.000000	64.950346 
2233.000000	64.959073 
2232.000000	64.963126 
2231.000000	64.960074 
2230.000000	64.948463 
2229.000000	64.928078 
2228.000000	64.900231 
2227.000000	64.867496 
2226.000000	64.833283 
2225.000000	64.801192 
2224.000000	64.774370 
2223.000000	64.755082 
2222.000000	64.744281 
2221.000000	64.741706 
2220.000000	64.746046 
2219.000000	64.755392 
2218.000000	64.767742 
2217.000000	64.781498 
2216.000000	64.795351 
2215.000000	64.808607 
2214.000000	64.820861 
2213.000000	64.831995 
2212.000000	64.841675 
2211.000000	64.849805 
2210.000000	64.856362 
2209.000000	64.861512 
2208.000000	64.865612 
2207.000000	64.869070 
2206.000000	64.872336 
2205.000000	64.875602 
2204.000000	64.878821 
2203.000000	64.881658 
2202.000000	64.883661 
2201.000000	64.884543 
2200.000000	64.884257 
2199.000000	64.883041 
2198.000000	64.881515 
2197.000000	64.880394 
2196.000000	64.880323 
2195.000000	64.881491 
2194.000000	64.883852 
2193.000000	64.886903 
2192.000000	64.890098 
2191.000000	64.893031 
2190.000000	64.895534 
2189.000000	64.897942 
2188.000000	64.900636 
2187.000000	64.903664 
2186.000000	64.906454 
2185.000000	64.907670 
2184.000000	64.905405 
2183.000000	64.897727 
2182.000000	64.883279 
2181.000000	64.861845 
2180.000000	64.834666 
2179.000000	64.804553 
2178.000000	64.775371 
2177.000000	64.751100 
2176.000000	64.735078 
2175.000000	64.729309 
2174.000000	64.733982 
2173.000000	64.747333 
2172.000000	64.766144 
2171.000000	64.786481 
2170.000000	64.804482 
2169.000000	64.817214 
2168.000000	64.823246 
2167.000000	64.822840 
2166.000000	64.817547 
2165.000000	64.810061 
2164.000000	64.803266 
2163.000000	64.799761 
2162.000000	64.801287 
2161.000000	64.808678 
2160.000000	64.821577 
2159.000000	64.838671 
2158.000000	64.858269 
2157.000000	64.878129 
2156.000000	64.896321 
2155.000000	64.911007 
2154.000000	64.920973 
2153.000000	64.925479 
2152.000000	64.924311 
2151.000000	64.917802 
2150.000000	64.906835 
2149.000000	64.892554 
2148.000000	64.876365 
2147.000000	64.859867 
2146.000000	64.844584 
2145.000000	64.831876 
2144.000000	64.822840 
2143.000000	64.818000 
2142.000000	64.817523 
2141.000000	64.821147 
2140.000000	64.828157 
2139.000000	64.837479 
2138.000000	64.847874 
2137.000000	64.858007 
2136.000000	64.866685 
2135.000000	64.872694 
2134.000000	64.875149 
2133.000000	64.873528 
2132.000000	64.867711 
2131.000000	64.858078 
2130.000000	64.845561 
2129.000000	64.831614 
2128.000000	64.818143 
2127.000000	64.806914 
2126.000000	64.799690 
2125.000000	64.797806 
2124.000000	64.801645 
2123.000000	64.810729 
2122.000000	64.823794 
2121.000000	64.838910 
2120.000000	64.853978 
2119.000000	64.867162 
2118.000000	64.877033 
2117.000000	64.883041 
2116.000000	64.885473 
2115.000000	64.885258 
2114.000000	64.883804 
2113.000000	64.882302 
2112.000000	64.881563 
2111.000000	64.881825 
2110.000000	64.882707 
2109.000000	64.883255 
2108.000000	64.882469 
2107.000000	64.879512 
2106.000000	64.874172 
2105.000000	64.866781 
2104.000000	64.858365 
2103.000000	64.850306 
2102.000000	64.843750 
2101.000000	64.839386 
2100.000000	64.837336 
2099.000000	64.837026 
2098.000000	64.837336 
2097.000000	64.837098 
2096.000000	64.835429 
2095.000000	64.832234 
2094.000000	64.828300 
2093.000000	64.825081 
2092.000000	64.824056 
2091.000000	64.826297 
2090.000000	64.831972 
2089.000000	64.839839 
2088.000000	64.847517 
2087.000000	64.852070 
2086.000000	64.850807 
2085.000000	64.842057 
2084.000000	64.825820 
2083.000000	64.803671 
2082.000000	64.778923 
2081.000000	64.755702 
2080.000000	64.738583 
2079.000000	64.731216 
2078.000000	64.735984 
2077.000000	64.753532 
2076.000000	64.782381 
2075.000000	64.819431 
2074.000000	64.860010 
2073.000000	64.899015 
2072.000000	64.931249 
2071.000000	64.952445 
2070.000000	64.959573 
2069.000000	64.951491 
2068.000000	64.928722 
2067.000000	64.893388 
2066.000000	64.848971 
2065.000000	64.799833 
2064.000000	64.750623 
2063.000000	64.705944 
2062.000000	64.669799 
2061.000000	64.645123 
2060.000000	64.633440 
2059.000000	64.634799 
2058.000000	64.647674 
2057.000000	64.669609 
2056.000000	64.697217 
2055.000000	64.727139 
2054.000000	64.756107 
2053.000000	64.781665 
2052.000000	64.802217 
2051.000000	64.817023 
2050.000000	64.826059 
2049.000000	64.829611 
2048.000000	64.828324 
2047.000000	64.822769 
2046.000000	64.813566 
2045.000000	64.801239 
2044.000000	64.786577 
2043.000000	64.770388 
2042.000000	64.753794 
2041.000000	64.737939 
2040.000000	64.724016 
2039.000000	64.713072 
2038.000000	64.705872 
2037.000000	64.702725 
2036.000000	64.703607 
2035.000000	64.708423 
2034.000000	64.716982 
2033.000000	64.728951 
2032.000000	64.743876 
2031.000000	64.761257 
2030.000000	64.780306 
2029.000000	64.799809 
2028.000000	64.818120 
2027.000000	64.833378 
2026.000000	64.843702 
2025.000000	64.847707 
2024.000000	64.844751 
2023.000000	64.835095 
2022.000000	64.819741 
2021.000000	64.800643 
2020.000000	64.779901 
2019.000000	64.759707 
2018.000000	64.741873 
2017.000000	64.727687 
2016.000000	64.717864 
2015.000000	64.712595 
2014.000000	64.711928 
2013.000000	64.715695 
2012.000000	64.723658 
2011.000000	64.735531 
2010.000000	64.750885 
2009.000000	64.769101 
2008.000000	64.789199 
2007.000000	64.809751 
2006.000000	64.829063 
2005.000000	64.845156 
2004.000000	64.856338 
2003.000000	64.860987 
2002.000000	64.858126 
2001.000000	64.847183 
2000.000000	64.828538 
1999.000000	64.803218 
1998.000000	64.773130 
1997.000000	64.740467 
1996.000000	64.707827 
1995.000000	64.677572 
1994.000000	64.651799 
1993.000000	64.631748 
1992.000000	64.617919 
1991.000000	64.610028 
1990.000000	64.607095 
1989.000000	64.607810 
1988.000000	64.610886 
1987.000000	64.615106 
1986.000000	64.619517 
1985.000000	64.623498 
1984.000000	64.626789 
1983.000000	64.629292 
1982.000000	64.631080 
1981.000000	64.632248 
1980.000000	64.633178 
1979.000000	64.634299 
1978.000000	64.636397 
1977.000000	64.640378 
1976.000000	64.647054 
1975.000000	64.657187 
1974.000000	64.670872 
1973.000000	64.687776 
1972.000000	64.706683 
1971.000000	64.725947 
1970.000000	64.743542 
1969.000000	64.757585 
1968.000000	64.766669 
1967.000000	64.770054 
1966.000000	64.767861 
1965.000000	64.760994 
1964.000000	64.750933 
1963.000000	64.739274 
1962.000000	64.727592 
1961.000000	64.717197 
1960.000000	64.709281 
1959.000000	64.704775 
1958.000000	64.704298 
1957.000000	64.708399 
1956.000000	64.717197 
1955.000000	64.730405 
1954.000000	64.747118 
1953.000000	64.765834 
1952.000000	64.784407 
1951.000000	64.800620 
1950.000000	64.812374 
1949.000000	64.818358 
1948.000000	64.818215 
1947.000000	64.812803 
1946.000000	64.804053 
1945.000000	64.794278 
1944.000000	64.785957 
1943.000000	64.780855 
1942.000000	64.779829 
1941.000000	64.782404 
1940.000000	64.787268 
1939.000000	64.792227 
1938.000000	64.795136 
1937.000000	64.793801 
1936.000000	64.786934 
1935.000000	64.773964 
1934.000000	64.755249 
1933.000000	64.732074 
1932.000000	64.706254 
1931.000000	64.680147 
1930.000000	64.656281 
1929.000000	64.637041 
1928.000000	64.624452 
1927.000000	64.619755 
1926.000000	64.623236 
1925.000000	64.634180 
1924.000000	64.651083 
1923.000000	64.671564 
1922.000000	64.692854 
1921.000000	64.712429 
1920.000000	64.728045 
1919.000000	64.738321 
1918.000000	64.742732 
1917.000000	64.741706 
1916.000000	64.736127 
1915.000000	64.727449 
1914.000000	64.716815 
1913.000000	64.705157 
1912.000000	64.693069 
1911.000000	64.680886 
1910.000000	64.668750 
1909.000000	64.657020 
1908.000000	64.646196 
1907.000000	64.637017 
1906.000000	64.630079 
1905.000000	64.625644 
1904.000000	64.623451 
1903.000000	64.622402 
1902.000000	64.620971 
1901.000000	64.617443 
1900.000000	64.610409 
1899.000000	64.599275 
1898.000000	64.584398 
1897.000000	64.567160 
1896.000000	64.549851 
1895.000000	64.535093 
1894.000000	64.525318 
1893.000000	64.522266 
1892.000000	64.526510 
1891.000000	64.537429 
1890.000000	64.553284 
1889.000000	64.571738 
1888.000000	64.590001 
1887.000000	64.605736 
1886.000000	64.617395 
1885.000000	64.624357 
1884.000000	64.627099 
1883.000000	64.626908 
1882.000000	64.625453 
1881.000000	64.624524 
1880.000000	64.625573 
1879.000000	64.629387 
1878.000000	64.635992 
1877.000000	64.644670 
1876.000000	64.654278 
1875.000000	64.663338 
1874.000000	64.670467 
1873.000000	64.674544 
1872.000000	64.674925 
1871.000000	64.671635 
1870.000000	64.665222 
1869.000000	64.656543 
1868.000000	64.646840 
1867.000000	64.637422 
1866.000000	64.629459 
1865.000000	64.624023 
1864.000000	64.621710 
1863.000000	64.622640 
1862.000000	64.626526 
1861.000000	64.632725 
1860.000000	64.640402 
1859.000000	64.648461 
1858.000000	64.656114 
1857.000000	64.662456 
1856.000000	64.667201 
1855.000000	64.670348 
1854.000000	64.672565 
1853.000000	64.674615 
1852.000000	64.677476 
1851.000000	64.682173 
1850.000000	64.689278 
1849.000000	64.698910 
1848.000000	64.710474 
1847.000000	64.722704 
1846.000000	64.733600 
1845.000000	64.740943 
1844.000000	64.742660 
1843.000000	64.737296 
1842.000000	64.724302 
1841.000000	64.704418 
1840.000000	64.679646 
1839.000000	64.653086 
1838.000000	64.628481 
1837.000000	64.609360 
1836.000000	64.598512 
1835.000000	64.597201 
1834.000000	64.605140 
1833.000000	64.620423 
1832.000000	64.639949 
1831.000000	64.660072 
1830.000000	64.677286 
1829.000000	64.689087 
1828.000000	64.694309 
1827.000000	64.693236 
1826.000000	64.687418 
1825.000000	64.679074 
1824.000000	64.670681 
1823.000000	64.664220 
1822.000000	64.660811 
1821.000000	64.660358 
1820.000000	64.661908 
1819.000000	64.663767 
1818.000000	64.664053 
1817.000000	64.661145 
1816.000000	64.653968 
1815.000000	64.642405 
1814.000000	64.627361 
1813.000000	64.610385 
1812.000000	64.593768 
1811.000000	64.579701 
1810.000000	64.570164 
1809.000000	64.566206 
1808.000000	64.567947 
1807.000000	64.574670 
1806.000000	64.584851 
1805.000000	64.596509 
1804.000000	64.607906 
1803.000000	64.617657 
1802.000000	64.625000 
1801.000000	64.629960 
1800.000000	64.632892 
1799.000000	64.634299 
1798.000000	64.634537 
1797.000000	64.633631 
1796.000000	64.631152 
1795.000000	64.626359 
1794.000000	64.618611 
1793.000000	64.607667 
1792.000000	64.594030 
1791.000000	64.578843 
1790.000000	64.563918 
1789.000000	64.551019 
1788.000000	64.541721 
1787.000000	64.536809 
1786.000000	64.536333 
1785.000000	64.539480 
1784.000000	64.544796 
1783.000000	64.550757 
1782.000000	64.555954 
1781.000000	64.559555 
1780.000000	64.561295 
1779.000000	64.561653 
1778.000000	64.561390 
1777.000000	64.561390 
1776.000000	64.562153 
1775.000000	64.563632 
1774.000000	64.565205 
1773.000000	64.565777 
1772.000000	64.564132 
1771.000000	64.559340 
1770.000000	64.551258 
1769.000000	64.540481 
1768.000000	64.528250 
1767.000000	64.516234 
1766.000000	64.506268 
1765.000000	64.499616 
1764.000000	64.496588 
1763.000000	64.496779 
1762.000000	64.498829 
1761.000000	64.501118 
1760.000000	64.502000 
1759.000000	64.500355 
1758.000000	64.495706 
1757.000000	64.488554 
1756.000000	64.479994 
1755.000000	64.471125 
1754.000000	64.462876 
1753.000000	64.455914 
1752.000000	64.450144 
1751.000000	64.445090 
1750.000000	64.440131 
1749.000000	64.434909 
1748.000000	64.429187 
1747.000000	64.423131 
1746.000000	64.417123 
1745.000000	64.411520 
1744.000000	64.406442 
1743.000000	64.401578 
1742.000000	64.396286 
1741.000000	64.389634 
1740.000000	64.380598 
1739.000000	64.368200 
1738.000000	64.352011 
1737.000000	64.332437 
1736.000000	64.310526 
1735.000000	64.288187 
1734.000000	64.267897 
1733.000000	64.252281 
1732.000000	64.243626 
1731.000000	64.243364 
1730.000000	64.251995 
1729.000000	64.268779 
1728.000000	64.291739 
1727.000000	64.318275 
1726.000000	64.345335 
1725.000000	64.370179 
1724.000000	64.390707 
1723.000000	64.405918 
1722.000000	64.415693 
1721.000000	64.420795 
1720.000000	64.422273 
1719.000000	64.421176 
1718.000000	64.418530 
1717.000000	64.415001 
1716.000000	64.411139 
1715.000000	64.407539 
1714.000000	64.404964 
1713.000000	64.404273 
1712.000000	64.406442 
1711.000000	64.412212 
1710.000000	64.421963 
1709.000000	64.435529 
1708.000000	64.452171 
1707.000000	64.470839 
1706.000000	64.490461 
1705.000000	64.510059 
1704.000000	64.528822 
1703.000000	64.546728 
1702.000000	64.563679 
1701.000000	64.579629 
1700.000000	64.594030 
1699.000000	64.606094 
1698.000000	64.614772 
1697.000000	64.619278 
1696.000000	64.619064 
1695.000000	64.614367 
1694.000000	64.606213 
1693.000000	64.596533 
1692.000000	64.587306 
1691.000000	64.580297 
1690.000000	64.576363 
1689.000000	64.575457 
1688.000000	64.576435 
1687.000000	64.577364 
1686.000000	64.576101 
1685.000000	64.570903 
1684.000000	64.560914 
1683.000000	64.546608 
1682.000000	64.529800 
1681.000000	64.513301 
1680.000000	64.500308 
1679.000000	64.493894 
1678.000000	64.496254 
1677.000000	64.508271 
1676.000000	64.529395 
1675.000000	64.557385 
1674.000000	64.589118 
1673.000000	64.620447 
1672.000000	64.647269 
1671.000000	64.665865 
1670.000000	64.673447 
1669.000000	64.668679 
1668.000000	64.651656 
1667.000000	64.623832 
1666.000000	64.587807 
1665.000000	64.546942 
1664.000000	64.504909 
1663.000000	64.465236 
1662.000000	64.430832 
1661.000000	64.403748 
1660.000000	64.385104 
1659.000000	64.375042 
1658.000000	64.372658 
1657.000000	64.376354 
1656.000000	64.384150 
1655.000000	64.393901 
1654.000000	64.403748 
1653.000000	64.411950 
1652.000000	64.417457 
1651.000000	64.419674 
1650.000000	64.418816 
1649.000000	64.415359 
1648.000000	64.410161 
1647.000000	64.404320 
1646.000000	64.398956 
1645.000000	64.395070 
1644.000000	64.393472 
1643.000000	64.394903 
1642.000000	64.399552 
1641.000000	64.407491 
1640.000000	64.418339 
1639.000000	64.431357 
1638.000000	64.445424 
1637.000000	64.459300 
1636.000000	64.471721 
1635.000000	64.481425 
1634.000000	64.487481 
1633.000000	64.489483 
1632.000000	64.487314 
1631.000000	64.481067 
1630.000000	64.471292 
1629.000000	64.458632 
1628.000000	64.443802 
1627.000000	64.427304 
1626.000000	64.409637 
1625.000000	64.391207 
1624.000000	64.372301 
1623.000000	64.353060 
1622.000000	64.333724 
1621.000000	64.314675 
1620.000000	64.296364 
1619.000000	64.279675 
1618.000000	64.265465 
1617.000000	64.254927 
1616.000000	64.249134 
1615.000000	64.249134 
1614.000000	64.255547 
1613.000000	64.268565 
1612.000000	64.287734 
1611.000000	64.311957 
1610.000000	64.339494 
1609.000000	64.368247 
1608.000000	64.396047 
1607.000000	64.420819 
1606.000000	64.440917 
1605.000000	64.455318 
1604.000000	64.463710 
1603.000000	64.466428 
1602.000000	64.464473 
1601.000000	64.459109 
1600.000000	64.451575 
1599.000000	64.443182 
1598.000000	64.434885 
1597.000000	64.427256 
1596.000000	64.420461 
1595.000000	64.414596 
1594.000000	64.409613 
1593.000000	64.405393 
1592.000000	64.402079 
1591.000000	64.399766 
1590.000000	64.398980 
1589.000000	64.400315 
1588.000000	64.404344 
1587.000000	64.411211 
1586.000000	64.420580 
1585.000000	64.431262 
1584.000000	64.441347 
1583.000000	64.448499 
1582.000000	64.450693 
1581.000000	64.446854 
1580.000000	64.437150 
1579.000000	64.422917 
1578.000000	64.406657 
1577.000000	64.391350 
1576.000000	64.379739 
1575.000000	64.373779 
1574.000000	64.374446 
1573.000000	64.381623 
1572.000000	64.394450 
1571.000000	64.411425 
1570.000000	64.430928 
1569.000000	64.451289 
1568.000000	64.470863 
1567.000000	64.487934 
1566.000000	64.500856 
1565.000000	64.508152 
1564.000000	64.508509 
1563.000000	64.501070 
1562.000000	64.485883 
1561.000000	64.463877 
1560.000000	64.436888 
1559.000000	64.407348 
1558.000000	64.377832 
1557.000000	64.350414 
1556.000000	64.326596 
1555.000000	64.306783 
1554.000000	64.290690 
1553.000000	64.277696 
1552.000000	64.267182 
1551.000000	64.259195 
1550.000000	64.254307 
1549.000000	64.253687 
1548.000000	64.258575 
1547.000000	64.269518 
1546.000000	64.286041 
1545.000000	64.306163 
1544.000000	64.327120 
1543.000000	64.345550 
1542.000000	64.358711 
1541.000000	64.364933 
1540.000000	64.363837 
1539.000000	64.356732 
1538.000000	64.345908 
1537.000000	64.333915 
1536.000000	64.323043 
1535.000000	64.314889 
1534.000000	64.309978 
1533.000000	64.307928 
1532.000000	64.307689 
1531.000000	64.308071 
1530.000000	64.307999 
1529.000000	64.307093 
1528.000000	64.305782 
1527.000000	64.305114 
1526.000000	64.306759 
1525.000000	64.312529 
1524.000000	64.323854 
1523.000000	64.341282 
1522.000000	64.364576 
1521.000000	64.392495 
1520.000000	64.422988 
1519.000000	64.453339 
1518.000000	64.480996 
1517.000000	64.503383 
1516.000000	64.518761 
1515.000000	64.526128 
1514.000000	64.525532 
1513.000000	64.517736 
1512.000000	64.504265 
1511.000000	64.486885 
1510.000000	64.467573 
1509.000000	64.447927 
1508.000000	64.429450 
1507.000000	64.413022 
1506.000000	64.399361 
1505.000000	64.388799 
1504.000000	64.381456 
1503.000000	64.377379 
1502.000000	64.376378 
1501.000000	64.378452 
1500.000000	64.383625 
1499.000000	64.391732 
1498.000000	64.402389 
1497.000000	64.414668 
1496.000000	64.427256 
1495.000000	64.438319 
1494.000000	64.446043 
1493.000000	64.448714 
1492.000000	64.445638 
1491.000000	64.436936 
1490.000000	64.423894 
1489.000000	64.408373 
1488.000000	64.392781 
1487.000000	64.379048 
1486.000000	64.368653 
1485.000000	64.362549 
1484.000000	64.360785 
1483.000000	64.362907 
1482.000000	64.367818 
1481.000000	64.374041 
1480.000000	64.379811 
1479.000000	64.383530 
1478.000000	64.383769 
1477.000000	64.379453 
1476.000000	64.370179 
1475.000000	64.356184 
1474.000000	64.338326 
1473.000000	64.317917 
1472.000000	64.296460 
1471.000000	64.275527 
1470.000000	64.256691 
1469.000000	64.241361 
1468.000000	64.230704 
1467.000000	64.225602 
1466.000000	64.226484 
1465.000000	64.233231 
1464.000000	64.245080 
1463.000000	64.260387 
1462.000000	64.276838 
1461.000000	64.291644 
1460.000000	64.301848 
1459.000000	64.305162 
1458.000000	64.300274 
1457.000000	64.287543 
1456.000000	64.268898 
1455.000000	64.247703 
1454.000000	64.227962 
1453.000000	64.213776 
1452.000000	64.208126 
1451.000000	64.212632 
1450.000000	64.226889 
1449.000000	64.248871 
1448.000000	64.275336 
1447.000000	64.302563 
1446.000000	64.327192 
1445.000000	64.346790 
1444.000000	64.360332 
1443.000000	64.368057 
1442.000000	64.371299 
1441.000000	64.372014 
1440.000000	64.372253 
1439.000000	64.373540 
1438.000000	64.376783 
1437.000000	64.382171 
1436.000000	64.389181 
1435.000000	64.397048 
1434.000000	64.404630 
1433.000000	64.410972 
1432.000000	64.415502 
1431.000000	64.417910 
1430.000000	64.418482 
1429.000000	64.417624 
1428.000000	64.415931 
1427.000000	64.414000 
1426.000000	64.412260 
1425.000000	64.410948 
1424.000000	64.409995 
1423.000000	64.409089 
1422.000000	64.407706 
1421.000000	64.405179 
1420.000000	64.400839 
1419.000000	64.394068 
1418.000000	64.384365 
1417.000000	64.371681 
1416.000000	64.356446 
1415.000000	64.339780 
1414.000000	64.323139 
1413.000000	64.308071 
1412.000000	64.296197 
1411.000000	64.288783 
1410.000000	64.286184 
1409.000000	64.287996 
1408.000000	64.292931 
1407.000000	64.299249 
1406.000000	64.304995 
1405.000000	64.308714 
1404.000000	64.309644 
1403.000000	64.308023 
1402.000000	64.305090 
1401.000000	64.302492 
1400.000000	64.302062 
1399.000000	64.304995 
1398.000000	64.311742 
1397.000000	64.321589 
1396.000000	64.332914 
1395.000000	64.343547 
1394.000000	64.351320 
1393.000000	64.354515 
1392.000000	64.352250 
1391.000000	64.344525 
1390.000000	64.332270 
1389.000000	64.317035 
1388.000000	64.300489 
1387.000000	64.284205 
1386.000000	64.269280 
1385.000000	64.256381 
1384.000000	64.245510 
1383.000000	64.236426 
1382.000000	64.228725 
1381.000000	64.222073 
1380.000000	64.216375 
1379.000000	64.211773 
1378.000000	64.208650 
1377.000000	64.207410 
1376.000000	64.208316 
1375.000000	64.211463 
1374.000000	64.216542 
1373.000000	64.222836 
1372.000000	64.229440 
1371.000000	64.235210 
1370.000000	64.239168 
1369.000000	64.240503 
1368.000000	64.239072 
1367.000000	64.235281 
1366.000000	64.230179 
1365.000000	64.225292 
1364.000000	64.222311 
1363.000000	64.222669 
1362.000000	64.227151 
1361.000000	64.235615 
1360.000000	64.246702 
1359.000000	64.258313 
1358.000000	64.267921 
1357.000000	64.273285 
1356.000000	64.272832 
1355.000000	64.266157 
1354.000000	64.254283 
1353.000000	64.239430 
1352.000000	64.224290 
1351.000000	64.211702 
1350.000000	64.203834 
1349.000000	64.201784 
1348.000000	64.205384 
1347.000000	64.213418 
1346.000000	64.223837 
1345.000000	64.234542 
1344.000000	64.243793 
1343.000000	64.250612 
1342.000000	64.254832 
1341.000000	64.257192 
1340.000000	64.258742 
1339.000000	64.260745 
1338.000000	64.263987 
1337.000000	64.268732 
1336.000000	64.274716 
1335.000000	64.281105 
1334.000000	64.286661 
1333.000000	64.290118 
1332.000000	64.290189 
1331.000000	64.286112 
1330.000000	64.277338 
1329.000000	64.263963 
1328.000000	64.246368 
1327.000000	64.225268 
1326.000000	64.201593 
1325.000000	64.176630 
1324.000000	64.151644 
1323.000000	64.127969 
1322.000000	64.106845 
1321.000000	64.089274 
1320.000000	64.075970 
1319.000000	64.066958 
1318.000000	64.061880 
1317.000000	64.059972 
1316.000000	64.060688 
1315.000000	64.063644 
1314.000000	64.069104 
1313.000000	64.077568 
1312.000000	64.089655 
1311.000000	64.105701 
1310.000000	64.125347 
1309.000000	64.146971 
1308.000000	64.168071 
1307.000000	64.185547 
1306.000000	64.196395 
1305.000000	64.198422 
1304.000000	64.190936 
1303.000000	64.175224 
1302.000000	64.154195 
1301.000000	64.132070 
1300.000000	64.113283 
1299.000000	64.101648 
1298.000000	64.099597 
1297.000000	64.107680 
1296.000000	64.124798 
1295.000000	64.148354 
1294.000000	64.175271 
1293.000000	64.202237 
1292.000000	64.226460 
1291.000000	64.245724 
1290.000000	64.258694 
1289.000000	64.264535 
1288.000000	64.262890 
1287.000000	64.253664 
1286.000000	64.237213 
1285.000000	64.214277 
1284.000000	64.186263 
1283.000000	64.155125 
1282.000000	64.123439 
1281.000000	64.093875 
1280.000000	64.068746 
1279.000000	64.049792 
1278.000000	64.037632 
1277.000000	64.032173 
1276.000000	64.032697 
1275.000000	64.037871 
1274.000000	64.046359 
1273.000000	64.056873 
1272.000000	64.068245 
1271.000000	64.079380 
1270.000000	64.089369 
1269.000000	64.097142 
1268.000000	64.101910 
1267.000000	64.103078 
1266.000000	64.100384 
1265.000000	64.093971 
1264.000000	64.084601 
1263.000000	64.073324 
1262.000000	64.061522 
1261.000000	64.050722 
1260.000000	64.042210 
1259.000000	64.036893 
1258.000000	64.035248 
1257.000000	64.037418 
1256.000000	64.043164 
1255.000000	64.051938 
1254.000000	64.062809 
1253.000000	64.074659 
1252.000000	64.086103 
1251.000000	64.095973 
1250.000000	64.103150 
1249.000000	64.107084 
1248.000000	64.107847 
1247.000000	64.106297 
1246.000000	64.103817 
1245.000000	64.102077 
1244.000000	64.102673 
1243.000000	64.106655 
1242.000000	64.114475 
1241.000000	64.125466 
1240.000000	64.138221 
1239.000000	64.150738 
1238.000000	64.160895 
1237.000000	64.166927 
1236.000000	64.167809 
1235.000000	64.163303 
1234.000000	64.154124 
1233.000000	64.141583 
1232.000000	64.127612 
1231.000000	64.114165 
1230.000000	64.102983 
1229.000000	64.095473 
1228.000000	64.092636 
1227.000000	64.094781 
1226.000000	64.101791 
1225.000000	64.112901 
1224.000000	64.126944 
1223.000000	64.142489 
1222.000000	64.157891 
1221.000000	64.171481 
1220.000000	64.181661 
1219.000000	64.187264 
1218.000000	64.187669 
1217.000000	64.182662 
1216.000000	64.172720 
1215.000000	64.158725 
1214.000000	64.142036 
1213.000000	64.124131 
1212.000000	64.106750 
1211.000000	64.091539 
1210.000000	64.080142 
1209.000000	64.073824 
1208.000000	64.073514 
1207.000000	64.079642 
1206.000000	64.092135 
1205.000000	64.110040 
1204.000000	64.131927 
1203.000000	64.156103 
1202.000000	64.180517 
1201.000000	64.203047 
1200.000000	64.221882 
1199.000000	64.235305 
1198.000000	64.242243 
1197.000000	64.241933 
1196.000000	64.234161 
1195.000000	64.219260 
1194.000000	64.198207 
1193.000000	64.172434 
1192.000000	64.143800 
1191.000000	64.114332 
1190.000000	64.086341 
1189.000000	64.061880 
1188.000000	64.042711 
1187.000000	64.029908 
1186.000000	64.023756 
1185.000000	64.023709 
1184.000000	64.028239 
1183.000000	64.035081 
1182.000000	64.041757 
1181.000000	64.045882 
1180.000000	64.045572 
1179.000000	64.039945 
1178.000000	64.028906 
1177.000000	64.013028 
1176.000000	63.993215 
1175.000000	63.970279 
1174.000000	63.944959 
1173.000000	63.917756 
1172.000000	63.889503 
1171.000000	63.861179 
1170.000000	63.834476 
1169.000000	63.811898 
1168.000000	63.796687 
1167.000000	63.791918 
1166.000000	63.799929 
1165.000000	63.821673 
1164.000000	63.856124 
1163.000000	63.900136 
1162.000000	63.949084 
1161.000000	63.997602 
1160.000000	64.040517 
1159.000000	64.073872 
1158.000000	64.095401 
1157.000000	64.104771 
1156.000000	64.103364 
1155.000000	64.093804 
1154.000000	64.079308 
1153.000000	64.062952 
1152.000000	64.047360 
1151.000000	64.034676 
1150.000000	64.025831 
1149.000000	64.021015 
1148.000000	64.019393 
1147.000000	64.019703 
1146.000000	64.020061 
1145.000000	64.018535 
1144.000000	64.013290 
1143.000000	64.003396 
1142.000000	63.988995 
1141.000000	63.971543 
1140.000000	63.953828 
1139.000000	63.938879 
1138.000000	63.929390 
1137.000000	63.926529 
1136.000000	63.929653 
1135.000000	63.936281 
1134.000000	63.942670 
1133.000000	63.944911 
1132.000000	63.939738 
1131.000000	63.925766 
1130.000000	63.903689 
1129.000000	63.876438 
1128.000000	63.848114 
1127.000000	63.824057 
1126.000000	63.809418 
1125.000000	63.808298 
1124.000000	63.822817 
1123.000000	63.852286 
1122.000000	63.893246 
1121.000000	63.939809 
1120.000000	63.984918 
1119.000000	64.021611 
1118.000000	64.044356 
1117.000000	64.050292 
1116.000000	64.039778 
1115.000000	64.015889 
1114.000000	63.983631 
1113.000000	63.948893 
1112.000000	63.916969 
1111.000000	63.891983 
1110.000000	63.875842 
1109.000000	63.868761 
1108.000000	63.868951 
1107.000000	63.873386 
1106.000000	63.878488 
1105.000000	63.881111 
1104.000000	63.878941 
1103.000000	63.870978 
1102.000000	63.857436 
1101.000000	63.839697 
1100.000000	63.819789 
1099.000000	63.799762 
1098.000000	63.781666 
1097.000000	63.767027 
1096.000000	63.757085 
1095.000000	63.752961 
1094.000000	63.755607 
1093.000000	63.765788 
1092.000000	63.783836 
1091.000000	63.809370 
1090.000000	63.840866 
1089.000000	63.875508 
1088.000000	63.909649 
1087.000000	63.939309 
1086.000000	63.960814 
1085.000000	63.971757 
1084.000000	63.971614 
1083.000000	63.962054 
1082.000000	63.946914 
1081.000000	63.931202 
1080.000000	63.920164 
1079.000000	63.917756 
1078.000000	63.926386 
1077.000000	63.945865 
1076.000000	63.973760 
1075.000000	64.005756 
1074.000000	64.036750 
1073.000000	64.061784 
1072.000000	64.077067 
1071.000000	64.080500 
1070.000000	64.071941 
1069.000000	64.052915 
1068.000000	64.026236 
1067.000000	63.995170 
1066.000000	63.963007 
1065.000000	63.932466 
1064.000000	63.905501 
1063.000000	63.883280 
1062.000000	63.866448 
1061.000000	63.855171 
1060.000000	63.849639 
1059.000000	63.849782 
1058.000000	63.855695 
1057.000000	63.867235 
1056.000000	63.883972 
1055.000000	63.904905 
1054.000000	63.928222 
1053.000000	63.951230 
1052.000000	63.970899 
1051.000000	63.983798 
1050.000000	63.987278 
1049.000000	63.980078 
1048.000000	63.962578 
1047.000000	63.936877 
1046.000000	63.906145 
1045.000000	63.873982 
1044.000000	63.843441 
1043.000000	63.816714 
1042.000000	63.794803 
1041.000000	63.777899 
1040.000000	63.765835 
1039.000000	63.758468 
1038.000000	63.755869 
1037.000000	63.758754 
1036.000000	63.767862 
1035.000000	63.784098 
1034.000000	63.807845 
1033.000000	63.838934 
1032.000000	63.876366 
1031.000000	63.918542 
1030.000000	63.963127 
1029.000000	64.007210 
1028.000000	64.047884 
1027.000000	64.082074 
1026.000000	64.107012 
1025.000000	64.120674 
1024.000000	64.121818 
1023.000000	64.110422 
1022.000000	64.088106 
1021.000000	64.057755 
1020.000000	64.023637 
1019.000000	63.990473 
1018.000000	63.962674 
1017.000000	63.943552 
1016.000000	63.934969 
1015.000000	63.936710 
1014.000000	63.946866 
1013.000000	63.962388 
1012.000000	63.979816 
1011.000000	63.996028 
1010.000000	64.008951 
1009.000000	64.017534 
1008.000000	64.022231 
1007.000000	64.024305 
1006.000000	64.025449 
1005.000000	64.027070 
1004.000000	64.029788 
1003.000000	64.033460 
1002.000000	64.036870 
1001.000000	64.038491 
1000.000000	64.036583 
999.000000	 64.029979 
998.000000	 64.018583 
997.000000	 64.003157 
996.000000	 63.985705 
995.000000	 63.968801 
994.000000	 63.955307 
993.000000	 63.947558 
992.000000	 63.946700 
991.000000	 63.952517 
990.000000	 63.963317 
989.000000	 63.976407 
988.000000	 63.988566 
987.000000	 63.996839 
986.000000	 63.999128 
985.000000	 63.994741 
984.000000	 63.984203 
983.000000	 63.969111 
982.000000	 63.951659 
981.000000	 63.934111 
980.000000	 63.918232 
979.000000	 63.905167 
978.000000	 63.895511 
977.000000	 63.889336 
976.000000	 63.886547 
975.000000	 63.887190 
974.000000	 63.891363 
973.000000	 63.899302 
972.000000	 63.910841 
971.000000	 63.925600 
970.000000	 63.942551 
969.000000	 63.960361 
968.000000	 63.977336 
967.000000	 63.991975 
966.000000	 64.003252 
965.000000	 64.010524 
964.000000	 64.013719 
963.000000	 64.012932 
962.000000	 64.008402 
961.000000	 64.000201 
960.000000	 63.988161 
959.000000	 63.972139 
958.000000	 63.952541 
957.000000	 63.930678 
956.000000	 63.908910 
955.000000	 63.890600 
954.000000	 63.879370 
953.000000	 63.878536 
952.000000	 63.890075 
951.000000	 63.913893 
950.000000	 63.947796 
949.000000	 63.987588 
948.000000	 64.028358 
947.000000	 64.065146 
946.000000	 64.094424 
945.000000	 64.114570 
944.000000	 64.126229 
943.000000	 64.131641 
942.000000	 64.133715 
941.000000	 64.135432 
940.000000	 64.138531 
939.000000	 64.143157 
938.000000	 64.148259 
937.000000	 64.152240 
936.000000	 64.153575 
935.000000	 64.151716 
934.000000	 64.147448 
933.000000	 64.142894 
932.000000	 64.140725 
931.000000	 64.143490 
930.000000	 64.152503 
929.000000	 64.167594 
928.000000	 64.187097 
927.000000	 64.208126 
926.000000	 64.227533 
925.000000	 64.242577 
924.000000	 64.251923 
923.000000	 64.255475 
922.000000	 64.254260 
921.000000	 64.249682 
920.000000	 64.242959 
919.000000	 64.234519 
918.000000	 64.224100 
917.000000	 64.210510 
916.000000	 64.192414 
915.000000	 64.168596 
914.000000	 64.139008 
913.000000	 64.104485 
912.000000	 64.066839 
911.000000	 64.028525 
910.000000	 63.991856 
909.000000	 63.958978 
908.000000	 63.931441 
907.000000	 63.910245 
906.000000	 63.895893 
905.000000	 63.888931 
904.000000	 63.889813 
903.000000	 63.899064 
902.000000	 63.916850 
901.000000	 63.942718 
900.000000	 63.975477 
899.000000	 64.012980 
898.000000	 64.052486 
897.000000	 64.090776 
896.000000	 64.124584 
895.000000	 64.151191 
894.000000	 64.168500 
893.000000	 64.175271 
892.000000	 64.171028 
891.000000	 64.156436 
890.000000	 64.132928 
889.000000	 64.102697 
888.000000	 64.068603 
887.000000	 64.034199 
886.000000	 64.003396 
885.000000	 63.980245 
884.000000	 63.968300 
883.000000	 63.970327 
882.000000	 63.987445 
881.000000	 64.018797 
880.000000	 64.061617 
879.000000	 64.111423 
878.000000	 64.162755 
877.000000	 64.209985 
876.000000	 64.248323 
875.000000	 64.274477 
874.000000	 64.287304 
873.000000	 64.287376 
872.000000	 64.276790 
871.000000	 64.258313 
870.000000	 64.234685 
869.000000	 64.207673 
868.000000	 64.178490 
867.000000	 64.147329 
866.000000	 64.114165 
865.000000	 64.078998 
864.000000	 64.042735 
863.000000	 64.006948 
862.000000	 63.973879 
861.000000	 63.945817 
860.000000	 63.924407 
859.000000	 63.910102 
858.000000	 63.901805 
857.000000	 63.897132 
856.000000	 63.892674 
855.000000	 63.885211 
854.000000	 63.872385 
853.000000	 63.853669 
852.000000	 63.830447 
851.000000	 63.805699 
850.000000	 63.783240 
849.000000	 63.766813 
848.000000	 63.759016 
847.000000	 63.760662 
846.000000	 63.770508 
845.000000	 63.785743 
844.000000	 63.802504 
843.000000	 63.817048 
842.000000	 63.826417 
841.000000	 63.828945 
840.000000	 63.824415 
839.000000	 63.813996 
838.000000	 63.799595 
837.000000	 63.783311 
836.000000	 63.767004 
835.000000	 63.752174 
834.000000	 63.739895 
833.000000	 63.731002 
832.000000	 63.725876 
831.000000	 63.725018 
830.000000	 63.728022 
829.000000	 63.733553 
828.000000	 63.739252 
827.000000	 63.742160 
826.000000	 63.739442 
825.000000	 63.729047 
824.000000	 63.710761 
823.000000	 63.686466 
822.000000	 63.660120 
821.000000	 63.636922 
820.000000	 63.622188 
819.000000	 63.620233 
818.000000	 63.633346 
817.000000	 63.661074 
816.000000	 63.700461 
815.000000	 63.746523 
814.000000	 63.792943 
813.000000	 63.833332 
812.000000	 63.862299 
811.000000	 63.876581 
810.000000	 63.875126 
809.000000	 63.859415 
808.000000	 63.832640 
807.000000	 63.799405 
806.000000	 63.764715 
805.000000	 63.733124 
804.000000	 63.708448 
803.000000	 63.693237 
802.000000	 63.688778 
801.000000	 63.695025 
800.000000	 63.710856 
799.000000	 63.734483 
798.000000	 63.763594 
797.000000	 63.795590 
796.000000	 63.827705 
795.000000	 63.857436 
794.000000	 63.882923 
793.000000	 63.902997 
792.000000	 63.917469 
791.000000	 63.927507 
790.000000	 63.935327 
789.000000	 63.943815 
788.000000	 63.955688 
787.000000	 63.972926 
786.000000	 63.995790 
785.000000	 64.022731 
784.000000	 64.050436 
783.000000	 64.074826 
782.000000	 64.091873 
781.000000	 64.098620 
780.000000	 64.093828 
779.000000	 64.078211 
778.000000	 64.054107 
777.000000	 64.025378 
776.000000	 63.995718 
775.000000	 63.967800 
774.000000	 63.942646 
773.000000	 63.919591 
772.000000	 63.896727 
771.000000	 63.871908 
770.000000	 63.843202 
769.000000	 63.809657 
768.000000	 63.771772 
767.000000	 63.731360 
766.000000	 63.690948 
765.000000	 63.653373 
764.000000	 63.621115 
763.000000	 63.595795 
762.000000	 63.577795 
761.000000	 63.566255 
760.000000	 63.558888 
759.000000	 63.553333 
758.000000	 63.546586 
757.000000	 63.537788 
756.000000	 63.527488 
755.000000	 63.519430 
754.000000	 63.519001 
753.000000	 63.532829 
752.000000	 63.566851 
751.000000	 63.623905 
750.000000	 63.702607 
749.000000	 63.795495 
748.000000	 63.890409 
747.000000	 63.971829 
746.000000	 64.024281 
745.000000	 64.035749 
744.000000	 64.000701 
743.000000	 63.922262 
742.000000	 63.811945 
741.000000	 63.687324 
740.000000	 63.568353 
739.000000	 63.473534 
738.000000	 63.416051 
737.000000	 63.401174 
736.000000	 63.425922 
735.000000	 63.480877 
734.000000	 63.552951 
733.000000	 63.628149 
732.000000	 63.695311 
731.000000	 63.747191 
730.000000	 63.782024 
729.000000	 63.801693 
728.000000	 63.810920 
727.000000	 63.814187 
726.000000	 63.814544 
725.000000	 63.813281 
724.000000	 63.809275 
723.000000	 63.800573 
722.000000	 63.784694 
721.000000	 63.760566 
720.000000	 63.728356 
719.000000	 63.689994 
718.000000	 63.648962 
717.000000	 63.609719 
716.000000	 63.576364 
715.000000	 63.551926 
714.000000	 63.538265 
713.000000	 63.536119 
712.000000	 63.545656 
711.000000	 63.566946 
710.000000	 63.599610 
709.000000	 63.642859 
708.000000	 63.696241 
707.000000	 63.757824 
706.000000	 63.823294 
705.000000	 63.885450 
704.000000	 63.935780 
703.000000	 63.965296 
702.000000	 63.966417 
701.000000	 63.935136 
700.000000	 63.872265 
699.000000	 63.783884 
698.000000	 63.681554 
697.000000	 63.578653 
696.000000	 63.488078 
695.000000	 63.418483 
694.000000	 63.373327 
693.000000	 63.349199 
692.000000	 63.337516 
691.000000	 63.327121 
690.000000	 63.308095 
689.000000	 63.275098 
688.000000	 63.229560 
687.000000	 63.179850 
686.000000	 63.139510 
685.000000	 63.123083 
684.000000	 63.143062 
683.000000	 63.206553 
682.000000	 63.313579 
681.000000	 63.456916 
680.000000	 63.623380 
679.000000	 63.797140 
678.000000	 63.962006 
677.000000	 64.105677 
676.000000	 64.219403 
675.000000	 64.299225 
674.000000	 64.343166 
673.000000	 64.352297 
672.000000	 64.326477 
671.000000	 64.263987 
670.000000	 64.162945 
669.000000	 64.023995 
668.000000	 63.852310 
667.000000	 63.659548 
666.000000	 63.464164 
665.000000	 63.290095 
664.000000	 63.160395 
663.000000	 63.092517 
662.000000	 63.092541 
661.000000	 63.153266 
660.000000	 63.254666 
659.000000	 63.368678 
658.000000	 63.464736 
657.000000	 63.518095 
656.000000	 63.515281 
655.000000	 63.458514 
654.000000	 63.362789 
653.000000	 63.253855 
652.000000	 63.160967 
651.000000	 63.111186 
650.000000	 63.121151 
649.000000	 63.196086 
648.000000	 63.330602 
647.000000	 63.510584 
646.000000	 63.716936 
645.000000	 63.930654 
644.000000	 64.137387 
643.000000	 64.328145 
642.000000	 64.498424 
641.000000	 64.646816 
640.000000	 64.771938 
639.000000	 64.871597 
638.000000	 64.942646 
637.000000	 64.979982 
636.000000	 64.978384 
635.000000	 64.935469 
634.000000	 64.853954 
633.000000	 64.740991 
632.000000	 64.607524 
631.000000	 64.467644 
630.000000	 64.335155 
629.000000	 64.220833 
628.000000	 64.129471 
627.000000	 64.060449 
626.000000	 64.006614 
625.000000	 63.958144 
624.000000	 63.902807 
623.000000	 63.829350 
622.000000	 63.729166 
621.000000	 63.597393 
620.000000	 63.435435 
619.000000	 63.247752 
618.000000	 63.046145 
617.000000	 62.845993 
616.000000	 62.667298 
615.000000	 62.529420 
614.000000	 62.450385 
613.000000	 62.442827 
612.000000	 62.511014 
611.000000	 62.648630 
610.000000	 62.840080 
609.000000	 63.062524 
608.000000	 63.290071 
607.000000	 63.497972 
606.000000	 63.667941 
605.000000	 63.790607 
604.000000	 63.867020 
603.000000	 63.906335 
602.000000	 63.922023 
601.000000	 63.926672 
600.000000	 63.930320 
599.000000	 63.935589 
598.000000	 63.938951 
597.000000	 63.930463 
596.000000	 63.900637 
595.000000	 63.840937 
594.000000	 63.748002 
593.000000	 63.624882 
592.000000	 63.481044 
591.000000	 63.331747 
590.000000	 63.193964 
589.000000	 63.085007 
588.000000	 63.018345 
587.000000	 63.001823 
586.000000	 63.035726 
585.000000	 63.113713 
584.000000	 63.224458 
583.000000	 63.353657 
582.000000	 63.486671 
581.000000	 63.611078 
580.000000	 63.718128 
579.000000	 63.804292 
578.000000	 63.870644 
577.000000	 63.921117 
576.000000	 63.960313 
575.000000	 63.993144 
574.000000	 64.022231 
573.000000	 64.047765 
572.000000	 64.066648 
571.000000	 64.075326 
570.000000	 64.069700 
569.000000	 64.047503 
568.000000	 64.008831 
567.000000	 63.956975 
566.000000	 63.897919 
565.000000	 63.839340 
564.000000	 63.789391 
563.000000	 63.754677 
562.000000	 63.739895 
561.000000	 63.746833 
560.000000	 63.774394 
559.000000	 63.818836 
558.000000	 63.874745 
557.000000	 63.936519 
556.000000	 63.997483 
555.000000	 64.050483 
554.000000	 64.088892 
553.000000	 64.107465 
552.000000	 64.104104 
551.000000	 64.079976 
550.000000	 64.039754 
549.000000	 63.989686 
548.000000	 63.936161 
547.000000	 63.883280 
546.000000	 63.831639 
545.000000	 63.778638 
544.000000	 63.720703 
543.000000	 63.654851 
542.000000	 63.580775 
541.000000	 63.501572 
540.000000	 63.422942 
539.000000	 63.352704 
538.000000	 63.297009 
537.000000	 63.261365 
536.000000	 63.248085 
535.000000	 63.258075 
534.000000	 63.289952 
533.000000	 63.341808 
532.000000	 63.410973 
531.000000	 63.494849 
530.000000	 63.590455 
529.000000	 63.694667 
528.000000	 63.803768 
527.000000	 63.912749 
526.000000	 64.015221 
525.000000	 64.104890 
524.000000	 64.176321 
523.000000	 64.225602 
522.000000	 64.250731 
521.000000	 64.252901 
520.000000	 64.235424 
519.000000	 64.203763 
518.000000	 64.163064 
517.000000	 64.117312 
516.000000	 64.068031 
515.000000	 64.015460 
514.000000	 63.958621 
513.000000	 63.895988 
512.000000	 63.827657 
511.000000	 63.756656 
510.000000	 63.689160 
509.000000	 63.632941 
508.000000	 63.596248 
507.000000	 63.585877 
506.000000	 63.604545 
505.000000	 63.649606 
504.000000	 63.712263 
503.000000	 63.779091 
502.000000	 63.832926 
501.000000	 63.856434 
500.000000	 63.834738 
499.000000	 63.758945 
498.000000	 63.628864 
497.000000	 63.453888 
496.000000	 63.250732 
495.000000	 63.040900 
494.000000	 62.846660 
493.000000	 62.687706 
492.000000	 62.576889 
491.000000	 62.519979 
490.000000	 62.515807 
489.000000	 62.558698 
488.000000	 62.639784 
487.000000	 62.750053 
486.000000	 62.879967 
485.000000	 63.021731 
484.000000	 63.166928 
483.000000	 63.308405 
482.000000	 63.437938 
481.000000	 63.549017 
480.000000	 63.636732 
479.000000	 63.699007 
478.000000	 63.736963 
477.000000	 63.754653 
476.000000	 63.759636 
475.000000	 63.758134 
474.000000	 63.753938 
473.000000	 63.746380 
472.000000	 63.731122 
471.000000	 63.701748 
470.000000	 63.652348 
469.000000	 63.579845 
468.000000	 63.486146 
467.000000	 63.378310 
466.000000	 63.267827 
465.000000	 63.168597 
464.000000	 63.094043 
463.000000	 63.052487 
462.000000	 63.046574 
461.000000	 63.073515 
460.000000	 63.125824 
459.000000	 63.192462 
458.000000	 63.262796 
457.000000	 63.326239 
456.000000	 63.377881 
455.000000	 63.418459 
454.000000	 63.454794 
453.000000	 63.494944 
452.000000	 63.549423 
451.000000	 63.628506 
450.000000	 63.737726 
449.000000	 63.876295 
448.000000	 64.033484 
447.000000	 64.190387 
446.000000	 64.321613 
445.000000	 64.401602 
444.000000	 64.408469 
443.000000	 64.330863 
442.000000	 64.173007 
441.000000	 63.956403 
440.000000	 63.717293 
439.000000	 63.500142 
438.000000	 63.349819 
437.000000	 63.300442 
436.000000	 63.370490 
435.000000	 63.554024 
434.000000	 63.825821 
433.000000	 64.139533 
432.000000	 64.438033 
431.000000	 64.661884 
430.000000	 64.762878 
429.000000	 64.711451 
428.000000	 64.500141 
427.000000	 64.147734 
426.000000	 63.693952 
425.000000	 63.194084 
424.000000	 62.705874 
423.000000	 62.285733 
422.000000	 61.980533 
421.000000	 61.821150 
420.000000	 61.817955 
419.000000	 61.967802 
418.000000	 62.256336 
417.000000	 62.650775 
416.000000	 63.104486 
415.000000	 63.563251 
414.000000	 63.973212 
413.000000	 64.286613 
412.000000	 64.471721 
411.000000	 64.514970 
410.000000	 64.427232 
409.000000	 64.238071 
408.000000	 63.995385 
407.000000	 63.760876 
406.000000	 63.595890 
405.000000	 63.548874 
404.000000	 63.647150 
403.000000	 63.890862 
402.000000	 64.257383 
401.000000	 64.712285 
400.000000	 65.214276 
399.000000	 65.711903 
398.000000	 66.175341 
397.000000	 66.599202 
396.000000	 67.008638 
395.000000	 67.433619 
394.000000	 67.950510 
393.000000	 68.662929 
392.000000	 69.664025 
391.000000	 71.001696 
390.000000	 72.646164 
389.000000	 74.481725 
388.000000	 76.300668 
387.000000	 77.853608 
386.000000	 78.924751 
385.000000	 79.389619 
384.000000	 79.251551 
383.000000	 78.643083 
382.000000	 77.817654 
381.000000	 77.061653 
380.000000	 76.617336 
379.000000	 76.608014 
378.000000	 77.045869 
377.000000	 77.783727 
376.000000	 78.590416 
375.000000	 79.161119 
374.000000	 79.245042 
373.000000	 78.627490 
372.000000	 77.219700 
371.000000	 74.987936 
370.000000	 71.952486 

