PE IR       SPECTRUM    SPECTRUM    ASCII       PEDS        1.60        
  -1
BZ6131~1.ASC
17/04/07
18:57:17.00
17/04/07
18:57:17.00
tln
$BZ1503107-1_t0069$<tbV0>[7.8,2.6,8.0,0.0,27,1,0]
370.000000
64









2002,4.07    
MIRTGS : RIGHTBACK : INTERNAL 2
MIR : ON : INTERNAL 2
OPTKBR

0.200000
8
8.000000
FILLER
RATIO
SPECTRUM
UNLOCKED 256

DOUBLE
64
COMBINED
1
0
0


1.000000
RATIO


1
0
TRUE
51149
0
LEFT NOT FITTED RIGHT NOT FITTED 0
NONE
NONE
15600
12.000000
4.427000
51148
TRUE
1 0 8 72 0 0 0 0 

15798.010000






#HDR
-1
-1
#GR
CM-1
%T
0.00002384185791015625
0.0
5000.000000
-1.000000
4631
8
66.381621
46.279501
#DATA
5000.000000	65.395784 
4999.000000	65.465331 
4998.000000	65.507578 
4997.000000	65.526628 
4996.000000	65.529656 
4995.000000	65.524792 
4994.000000	65.519022 
4993.000000	65.517926 
4992.000000	65.523600 
4991.000000	65.536737 
4990.000000	65.554618 
4989.000000	65.573334 
4988.000000	65.587568 
4987.000000	65.592360 
4986.000000	65.583920 
4985.000000	65.560436 
4984.000000	65.522480 
4983.000000	65.473008 
4982.000000	65.416646 
4981.000000	65.358948 
4980.000000	65.305471 
4979.000000	65.260839 
4978.000000	65.228104 
4977.000000	65.208625 
4976.000000	65.201830 
4975.000000	65.205717 
4974.000000	65.217876 
4973.000000	65.235543 
4972.000000	65.256118 
4971.000000	65.276694 
4970.000000	65.293884 
4969.000000	65.304064 
4968.000000	65.303969 
4967.000000	65.290808 
4966.000000	65.262866 
4965.000000	65.220403 
4964.000000	65.165853 
4963.000000	65.104269 
4962.000000	65.042328 
4961.000000	64.987397 
4960.000000	64.946198 
4959.000000	64.922881 
4958.000000	64.918208 
4957.000000	64.928221 
4956.000000	64.945054 
4955.000000	64.958453 
4954.000000	64.958500 
4953.000000	64.938616 
4952.000000	64.897775 
4951.000000	64.841032 
4950.000000	64.778614 
4949.000000	64.723157 
4948.000000	64.686608 
4947.000000	64.677000 
4946.000000	64.696598 
4945.000000	64.741325 
4944.000000	64.802098 
4943.000000	64.867758 
4942.000000	64.927291 
4941.000000	64.972472 
4940.000000	64.999318 
4939.000000	65.008187 
4938.000000	65.003085 
4937.000000	64.989209 
4936.000000	64.972329 
4935.000000	64.956927 
4934.000000	64.946293 
4933.000000	64.942312 
4932.000000	64.945888 
4931.000000	64.957594 
4930.000000	64.976239 
4929.000000	64.999222 
4928.000000	65.021848 
4927.000000	65.038180 
4926.000000	65.041971 
4925.000000	65.028524 
4924.000000	64.995884 
4923.000000	64.946079 
4922.000000	64.884781 
4921.000000	64.820742 
4920.000000	64.763474 
4919.000000	64.722132 
4918.000000	64.703226 
4917.000000	64.710092 
4916.000000	64.742279 
4915.000000	64.796066 
4914.000000	64.865446 
4913.000000	64.943289 
4912.000000	65.022611 
4911.000000	65.097379 
4910.000000	65.162849 
4909.000000	65.215754 
4908.000000	65.253973 
4907.000000	65.276622 
4906.000000	65.283751 
4905.000000	65.276408 
4904.000000	65.256667 
4903.000000	65.226745 
4902.000000	65.189146 
4901.000000	65.146303 
4900.000000	65.100574 
4899.000000	65.054631 
4898.000000	65.011239 
4897.000000	64.973187 
4896.000000	64.942741 
4895.000000	64.921188 
4894.000000	64.908504 
4893.000000	64.902615 
4892.000000	64.900636 
4891.000000	64.898967 
4890.000000	64.895439 
4889.000000	64.888715 
4888.000000	64.880490 
4887.000000	64.874219 
4886.000000	64.875268 
4885.000000	64.888548 
4884.000000	64.918112 
4883.000000	64.965367 
4882.000000	65.028524 
4881.000000	65.102386 
4880.000000	65.179657 
4879.000000	65.252614 
4878.000000	65.314221 
4877.000000	65.359377 
4876.000000	65.385437 
4875.000000	65.392231 
4874.000000	65.381741 
4873.000000	65.357017 
4872.000000	65.321898 
4871.000000	65.279889 
4870.000000	65.234756 
4869.000000	65.189361 
4868.000000	65.145921 
4867.000000	65.105390 
4866.000000	65.068054 
4865.000000	65.033245 
4864.000000	64.999246 
4863.000000	64.964222 
4862.000000	64.926576 
4861.000000	64.885711 
4860.000000	64.841985 
4859.000000	64.797091 
4858.000000	64.753437 
4857.000000	64.713907 
4856.000000	64.680695 
4855.000000	64.655089 
4854.000000	64.636778 
4853.000000	64.624524 
4852.000000	64.616703 
4851.000000	64.611744 
4850.000000	64.608836 
4849.000000	64.608216 
4848.000000	64.611124 
4847.000000	64.618873 
4846.000000	64.631867 
4845.000000	64.649343 
4844.000000	64.669322 
4843.000000	64.688372 
4842.000000	64.703106 
4841.000000	64.711141 
4840.000000	64.712285 
4839.000000	64.708852 
4838.000000	64.704895 
4837.000000	64.705252 
4836.000000	64.714074 
4835.000000	64.733576 
4834.000000	64.763569 
4833.000000	64.801287 
4832.000000	64.842414 
4831.000000	64.882326 
4830.000000	64.916944 
4829.000000	64.943909 
4828.000000	64.962577 
4827.000000	64.973807 
4826.000000	64.979195 
4825.000000	64.980244 
4824.000000	64.978075 
4823.000000	64.973163 
4822.000000	64.965462 
4821.000000	64.954710 
4820.000000	64.940786 
4819.000000	64.923787 
4818.000000	64.903783 
4817.000000	64.880537 
4816.000000	64.853191 
4815.000000	64.820528 
4814.000000	64.781212 
4813.000000	64.734959 
4812.000000	64.682817 
4811.000000	64.627695 
4810.000000	64.574408 
4809.000000	64.528346 
4808.000000	64.494538 
4807.000000	64.475870 
4806.000000	64.471960 
4805.000000	64.479041 
4804.000000	64.490580 
4803.000000	64.499115 
4802.000000	64.497613 
4801.000000	64.482092 
4800.000000	64.452481 
4799.000000	64.412856 
4798.000000	64.370107 
4797.000000	64.332342 
4796.000000	64.306354 
4795.000000	64.295816 
4794.000000	64.300322 
4793.000000	64.315652 
4792.000000	64.335227 
4791.000000	64.352583 
4790.000000	64.362859 
4789.000000	64.364266 
4788.000000	64.358162 
4787.000000	64.348053 
4786.000000	64.338374 
4785.000000	64.332294 
4784.000000	64.331722 
4783.000000	64.336133 
4782.000000	64.344239 
4781.000000	64.354562 
4780.000000	64.366626 
4779.000000	64.381122 
4778.000000	64.400315 
4777.000000	64.426851 
4776.000000	64.463424 
4775.000000	64.511132 
4774.000000	64.569759 
4773.000000	64.637017 
4772.000000	64.709496 
4771.000000	64.783310 
4770.000000	64.854526 
4769.000000	64.919948 
4768.000000	64.976501 
4767.000000	65.021252 
4766.000000	65.050983 
4765.000000	65.062308 
4764.000000	65.052151 
4763.000000	65.018773 
4762.000000	64.962959 
4761.000000	64.888596 
4760.000000	64.802908 
4759.000000	64.715504 
4758.000000	64.637231 
4757.000000	64.578032 
4756.000000	64.545154 
4755.000000	64.541697 
4754.000000	64.566087 
4753.000000	64.612436 
4752.000000	64.671826 
4751.000000	64.734292 
4750.000000	64.790487 
4749.000000	64.833974 
4748.000000	64.861679 
4747.000000	64.874100 
4746.000000	64.874196 
4745.000000	64.865970 
4744.000000	64.853286 
4743.000000	64.838266 
4742.000000	64.821100 
4741.000000	64.800310 
4740.000000	64.774036 
4739.000000	64.740729 
4738.000000	64.700460 
4737.000000	64.655590 
4736.000000	64.610671 
4735.000000	64.571309 
4734.000000	64.543390 
4733.000000	64.531683 
4732.000000	64.539051 
4731.000000	64.565324 
4730.000000	64.607667 
4729.000000	64.660739 
4728.000000	64.718127 
4727.000000	64.773488 
4726.000000	64.821910 
4725.000000	64.860486 
4724.000000	64.888763 
4723.000000	64.908337 
4722.000000	64.921975 
4721.000000	64.932632 
4720.000000	64.941954 
4719.000000	64.949941 
4718.000000	64.954757 
4717.000000	64.954066 
4716.000000	64.945363 
4715.000000	64.927363 
4714.000000	64.900302 
4713.000000	64.866447 
4712.000000	64.829802 
4711.000000	64.795064 
4710.000000	64.766359 
4709.000000	64.746212 
4708.000000	64.735031 
4707.000000	64.731287 
4706.000000	64.731931 
4705.000000	64.733505 
4704.000000	64.733290 
4703.000000	64.730048 
4702.000000	64.723706 
4701.000000	64.715576 
4700.000000	64.707565 
4699.000000	64.701271 
4698.000000	64.697074 
4697.000000	64.693546 
4696.000000	64.688086 
4695.000000	64.676642 
4694.000000	64.655280 
4693.000000	64.620876 
4692.000000	64.572262 
4691.000000	64.511346 
4690.000000	64.442753 
4689.000000	64.373707 
4688.000000	64.312672 
4687.000000	64.268112 
4686.000000	64.246392 
4685.000000	64.250421 
4684.000000	64.278841 
4683.000000	64.326119 
4682.000000	64.383721 
4681.000000	64.441370 
4680.000000	64.489960 
4679.000000	64.522767 
4678.000000	64.537978 
4677.000000	64.538264 
4676.000000	64.530634 
4675.000000	64.524245 
4674.000000	64.528322 
4673.000000	64.549970 
4672.000000	64.592027 
4671.000000	64.652895 
4670.000000	64.726352 
4669.000000	64.803957 
4668.000000	64.876294 
4667.000000	64.935803 
4666.000000	64.977812 
4665.000000	65.001678 
4664.000000	65.009570 
4663.000000	65.005302 
4662.000000	64.992856 
4661.000000	64.975190 
4660.000000	64.952921 
4659.000000	64.924454 
4658.000000	64.887237 
4657.000000	64.839172 
4656.000000	64.779520 
4655.000000	64.710092 
4654.000000	64.635419 
4653.000000	64.562439 
4652.000000	64.498877 
4651.000000	64.452290 
4650.000000	64.427971 
4649.000000	64.428448 
4648.000000	64.453005 
4647.000000	64.497852 
4646.000000	64.556622 
4645.000000	64.621686 
4644.000000	64.684963 
4643.000000	64.739775 
4642.000000	64.780569 
4641.000000	64.805316 
4640.000000	64.814829 
4639.000000	64.813351 
4638.000000	64.806938 
4637.000000	64.802885 
4636.000000	64.808440 
4635.000000	64.828562 
4634.000000	64.865303 
4633.000000	64.916896 
4632.000000	64.978551 
4631.000000	65.043258 
4630.000000	65.103578 
4629.000000	65.153050 
4628.000000	65.187668 
4627.000000	65.206980 
4626.000000	65.213775 
4625.000000	65.212869 
4624.000000	65.209770 
4623.000000	65.209841 
4622.000000	65.216398 
4621.000000	65.230393 
4620.000000	65.250062 
4619.000000	65.272259 
4618.000000	65.292429 
4617.000000	65.306735 
4616.000000	65.311741 
4615.000000	65.305495 
4614.000000	65.287303 
4613.000000	65.258216 
4612.000000	65.220189 
4611.000000	65.175461 
4610.000000	65.126800 
4609.000000	65.077257 
4608.000000	65.029811 
4607.000000	64.987182 
4606.000000	64.951920 
4605.000000	64.926171 
4604.000000	64.911532 
4603.000000	64.909124 
4602.000000	64.920067 
4601.000000	64.945387 
4600.000000	64.985775 
4599.000000	65.041184 
4598.000000	65.110468 
4597.000000	65.190434 
4596.000000	65.276074 
4595.000000	65.359997 
4594.000000	65.433526 
4593.000000	65.487694 
4592.000000	65.515136 
4591.000000	65.511107 
4590.000000	65.474939 
4589.000000	65.410399 
4588.000000	65.325498 
4587.000000	65.230846 
4586.000000	65.138101 
4585.000000	65.057516 
4584.000000	64.996552 
4583.000000	64.958667 
4582.000000	64.943718 
4581.000000	64.947819 
4580.000000	64.964914 
4579.000000	64.987707 
4578.000000	65.009522 
4577.000000	65.025353 
4576.000000	65.032792 
4575.000000	65.032696 
4574.000000	65.028786 
4573.000000	65.026807 
4572.000000	65.032958 
4571.000000	65.052175 
4570.000000	65.086627 
4569.000000	65.134811 
4568.000000	65.191698 
4567.000000	65.250372 
4566.000000	65.303134 
4565.000000	65.343689 
4564.000000	65.368247 
4563.000000	65.376901 
4562.000000	65.372371 
4561.000000	65.359473 
4560.000000	65.342640 
4559.000000	65.324592 
4558.000000	65.305137 
4557.000000	65.281748 
4556.000000	65.250229 
4555.000000	65.206766 
4554.000000	65.150070 
4553.000000	65.083050 
4552.000000	65.012311 
4551.000000	64.946913 
4550.000000	64.896583 
4549.000000	64.869379 
4548.000000	64.869213 
4547.000000	64.894962 
4546.000000	64.940452 
4545.000000	64.995980 
4544.000000	65.050530 
4543.000000	65.094375 
4542.000000	65.120935 
4541.000000	65.128326 
4540.000000	65.119123 
4539.000000	65.099501 
4538.000000	65.077114 
4537.000000	65.058994 
4536.000000	65.049886 
4535.000000	65.051126 
4534.000000	65.060806 
4533.000000	65.074634 
4532.000000	65.087819 
4531.000000	65.096712 
4530.000000	65.100145 
4529.000000	65.099859 
4528.000000	65.099692 
4527.000000	65.105319 
4526.000000	65.122342 
4525.000000	65.155434 
4524.000000	65.206861 
4523.000000	65.276193 
4522.000000	65.360093 
4521.000000	65.452218 
4520.000000	65.544271 
4519.000000	65.627336 
4518.000000	65.693759 
4517.000000	65.738272 
4516.000000	65.759229 
4515.000000	65.759038 
4514.000000	65.742945 
4513.000000	65.718269 
4512.000000	65.691757 
4511.000000	65.668725 
4510.000000	65.651988 
4509.000000	65.642285 
4508.000000	65.638661 
4507.000000	65.639734 
4506.000000	65.644311 
4505.000000	65.652418 
4504.000000	65.665078 
4503.000000	65.683531 
4502.000000	65.709042 
4501.000000	65.741872 
4500.000000	65.780663 
4499.000000	65.821957 
4498.000000	65.861749 
4497.000000	65.896344 
4496.000000	65.922999 
4495.000000	65.940618 
4494.000000	65.950107 
4493.000000	65.954017 
4492.000000	65.954685 
4491.000000	65.953993 
4490.000000	65.953779 
4489.000000	65.954828 
4488.000000	65.956997 
4487.000000	65.958786 
4486.000000	65.958380 
4485.000000	65.953755 
4484.000000	65.942907 
4483.000000	65.924882 
4482.000000	65.901327 
4481.000000	65.874981 
4480.000000	65.850234 
4479.000000	65.830039 
4478.000000	65.815067 
4477.000000	65.802502 
4476.000000	65.786504 
4475.000000	65.760517 
4474.000000	65.719318 
4473.000000	65.661382 
4472.000000	65.589976 
4471.000000	65.510916 
4470.000000	65.430903 
4469.000000	65.353989 
4468.000000	65.280485 
4467.000000	65.207767 
4466.000000	65.131211 
4465.000000	65.046763 
4464.000000	64.952421 
4463.000000	64.846897 
4462.000000	64.732074 
4461.000000	64.613461 
4460.000000	64.499044 
4459.000000	64.398550 
4458.000000	64.320611 
4457.000000	64.265561 
4456.000000	64.230108 
4455.000000	64.214253 
4454.000000	64.215421 
4453.000000	64.221620 
4452.000000	64.223361 
4451.000000	64.218330 
4450.000000	64.209103 
4449.000000	64.198756 
4448.000000	64.197087 
4447.000000	64.217758 
4446.000000	64.272689 
4445.000000	64.370155 
4444.000000	64.496707 
4443.000000	64.618563 
4442.000000	64.694905 
4441.000000	64.692497 
4440.000000	64.597129 
4439.000000	64.424562 
4438.000000	64.229798 
4437.000000	64.090061 
4436.000000	64.092898 
4435.000000	64.292907 
4434.000000	64.709186 
4433.000000	65.280079 
4432.000000	65.874481 
4431.000000	66.296052 
4430.000000	66.338348 
4429.000000	65.818738 
4428.000000	64.639234 
4427.000000	62.800097 
4426.000000	60.421371 
4425.000000	57.704448 
4424.000000	54.877901 
4423.000000	52.183365 
4422.000000	49.810528 
4421.000000	47.938752 
4420.000000	46.717453 
4419.000000	46.279501 
4418.000000	46.726441 
4417.000000	48.082923 
4416.000000	50.274467 
4415.000000	53.094935 
4414.000000	56.229448 
4413.000000	59.314608 
4412.000000	62.006425 
4411.000000	64.056634 
4410.000000	65.352153 
4409.000000	65.918707 
4408.000000	65.899109 
4407.000000	65.498042 
4406.000000	64.931607 
4405.000000	64.389991 
4404.000000	63.993167 
4403.000000	63.815855 
4402.000000	63.854837 
4401.000000	64.073348 
4400.000000	64.398527 
4399.000000	64.762783 
4398.000000	65.108418 
4397.000000	65.399909 
4396.000000	65.627074 
4395.000000	65.796279 
4394.000000	65.924000 
4393.000000	66.019272 
4392.000000	66.092753 
4391.000000	66.154241 
4390.000000	66.207981 
4389.000000	66.253638 
4388.000000	66.291165 
4387.000000	66.321563 
4386.000000	66.346502 
4385.000000	66.367816 
4384.000000	66.381621 
4383.000000	66.379809 
4382.000000	66.360759 
4381.000000	66.325712 
4380.000000	66.270327 
4379.000000	66.190552 
4378.000000	66.091299 
4377.000000	65.981221 
4376.000000	65.868878 
4375.000000	65.763068 
4374.000000	65.670299 
4373.000000	65.595197 
4372.000000	65.541386 
4371.000000	65.510034 
4370.000000	65.499758 
4369.000000	65.507531 
4368.000000	65.528202 
4367.000000	65.557193 
4366.000000	65.591382 
4365.000000	65.628099 
4364.000000	65.664577 
4363.000000	65.698814 
4362.000000	65.729236 
4361.000000	65.754652 
4360.000000	65.773868 
4359.000000	65.786790 
4358.000000	65.793943 
4357.000000	65.796661 
4356.000000	65.796184 
4355.000000	65.793180 
4354.000000	65.786933 
4353.000000	65.775394 
4352.000000	65.755939 
4351.000000	65.726256 
4350.000000	65.685653 
4349.000000	65.635943 
4348.000000	65.581679 
4347.000000	65.528821 
4346.000000	65.484261 
4345.000000	65.453886 
4344.000000	65.441584 
4343.000000	65.447974 
4342.000000	65.470814 
4341.000000	65.505409 
4340.000000	65.546131 
4339.000000	65.587568 
4338.000000	65.625667 
4337.000000	65.658187 
4336.000000	65.684723 
4335.000000	65.706062 
4334.000000	65.723395 
4333.000000	65.737414 
4332.000000	65.748357 
4331.000000	65.755605 
4330.000000	65.758323 
4329.000000	65.755295 
4328.000000	65.745711 
4327.000000	65.729117 
4326.000000	65.705776 
4325.000000	65.676808 
4324.000000	65.644454 
4323.000000	65.611505 
4322.000000	65.581631 
4321.000000	65.557408 
4320.000000	65.540122 
4319.000000	65.528464 
4318.000000	65.519237 
4317.000000	65.507388 
4316.000000	65.487217 
4315.000000	65.454101 
4314.000000	65.405917 
4313.000000	65.343809 
4312.000000	65.272092 
4311.000000	65.197896 
4310.000000	65.129470 
4309.000000	65.074658 
4308.000000	65.039110 
4307.000000	65.024852 
4306.000000	65.030026 
4305.000000	65.049099 
4304.000000	65.074300 
4303.000000	65.097045 
4302.000000	65.110254 
4301.000000	65.109181 
4300.000000	65.092968 
4299.000000	65.064096 
4298.000000	65.028047 
4297.000000	64.991617 
4296.000000	64.961719 
4295.000000	64.943671 
4294.000000	64.940166 
4293.000000	64.951229 
4292.000000	64.974141 
4291.000000	65.004420 
4290.000000	65.037083 
4289.000000	65.067577 
4288.000000	65.092825 
4287.000000	65.111684 
4286.000000	65.125083 
4285.000000	65.135097 
4284.000000	65.144705 
4283.000000	65.156650 
4282.000000	65.173006 
4281.000000	65.194606 
4280.000000	65.221238 
4279.000000	65.251755 
4278.000000	65.284323 
4277.000000	65.316867 
4276.000000	65.347766 
4275.000000	65.375781 
4274.000000	65.400338 
4273.000000	65.421009 
4272.000000	65.437793 
4271.000000	65.450143 
4270.000000	65.457582 
4269.000000	65.458917 
4268.000000	65.453028 
4267.000000	65.438604 
4266.000000	65.415287 
4265.000000	65.383648 
4264.000000	65.345764 
4263.000000	65.304970 
4262.000000	65.265440 
4261.000000	65.231466 
4260.000000	65.206670 
4259.000000	65.193080 
4258.000000	65.190863 
4257.000000	65.198063 
4256.000000	65.210890 
4255.000000	65.224599 
4254.000000	65.234541 
4253.000000	65.237021 
4252.000000	65.230131 
4251.000000	65.214490 
4250.000000	65.192937 
4249.000000	65.169572 
4248.000000	65.148568 
4247.000000	65.133404 
4246.000000	65.125632 
4245.000000	65.124320 
4244.000000	65.126514 
4243.000000	65.128135 
4242.000000	65.125060 
4241.000000	65.114092 
4240.000000	65.093922 
4239.000000	65.065145 
4238.000000	65.030264 
4237.000000	64.992904 
4236.000000	64.957523 
4235.000000	64.927673 
4234.000000	64.906787 
4233.000000	64.897155 
4232.000000	64.900493 
4231.000000	64.917755 
4230.000000	64.949035 
4229.000000	64.993357 
4228.000000	65.047907 
4227.000000	65.108036 
4226.000000	65.167117 
4225.000000	65.217375 
4224.000000	65.251278 
4223.000000	65.262961 
4222.000000	65.249633 
4221.000000	65.212178 
4220.000000	65.155291 
4219.000000	65.086293 
4218.000000	65.013813 
4217.000000	64.946150 
4216.000000	64.889764 
4215.000000	64.848852 
4214.000000	64.825034 
4213.000000	64.818191 
4212.000000	64.826941 
4211.000000	64.849591 
4210.000000	64.884591 
4209.000000	64.930081 
4208.000000	64.983105 
4207.000000	65.039539 
4206.000000	65.093660 
4205.000000	65.138936 
4204.000000	65.168595 
4203.000000	65.177512 
4202.000000	65.163493 
4201.000000	65.127897 
4200.000000	65.075635 
4199.000000	65.014386 
4198.000000	64.953041 
4197.000000	64.899706 
4196.000000	64.859914 
4195.000000	64.835762 
4194.000000	64.825439 
4193.000000	64.824295 
4192.000000	64.826178 
4191.000000	64.824771 
4190.000000	64.815878 
4189.000000	64.797568 
4188.000000	64.771866 
4187.000000	64.742994 
4186.000000	64.717745 
4185.000000	64.702939 
4184.000000	64.704871 
4183.000000	64.727377 
4182.000000	64.771008 
4181.000000	64.833021 
4180.000000	64.907169 
4179.000000	64.985036 
4178.000000	65.057539 
4177.000000	65.116810 
4176.000000	65.157556 
4175.000000	65.177798 
4174.000000	65.179800 
4173.000000	65.169095 
4172.000000	65.153193 
4171.000000	65.139245 
4170.000000	65.132474 
4169.000000	65.134572 
4168.000000	65.143704 
4167.000000	65.155029 
4166.000000	65.162396 
4165.000000	65.160036 
4164.000000	65.145373 
4163.000000	65.118932 
4162.000000	65.084290 
4161.000000	65.046858 
4160.000000	65.012621 
4159.000000	64.985990 
4158.000000	64.969062 
4157.000000	64.960885 
4156.000000	64.958500 
4155.000000	64.957332 
4154.000000	64.953231 
4153.000000	64.943027 
4152.000000	64.925742 
4151.000000	64.901947 
4150.000000	64.873266 
4149.000000	64.841413 
4148.000000	64.807462 
4147.000000	64.771819 
4146.000000	64.734315 
4145.000000	64.694690 
4144.000000	64.653205 
4143.000000	64.611029 
4142.000000	64.570736 
4141.000000	64.535641 
4140.000000	64.509820 
4139.000000	64.497017 
4138.000000	64.500379 
4137.000000	64.521431 
4136.000000	64.559650 
4135.000000	64.612174 
4134.000000	64.674282 
4133.000000	64.739489 
4132.000000	64.801216 
4131.000000	64.853358 
4130.000000	64.892053 
4129.000000	64.915704 
4128.000000	64.925885 
4127.000000	64.926338 
4126.000000	64.922356 
4125.000000	64.919567 
4124.000000	64.922451 
4123.000000	64.933276 
4122.000000	64.951896 
4121.000000	64.976072 
4120.000000	65.002512 
4119.000000	65.028119 
4118.000000	65.050959 
4117.000000	65.070939 
4116.000000	65.089201 
4115.000000	65.107631 
4114.000000	65.127968 
4113.000000	65.150737 
4112.000000	65.174865 
4111.000000	65.197658 
4110.000000	65.215826 
4109.000000	65.225863 
4108.000000	65.225577 
4107.000000	65.214204 
4106.000000	65.193009 
4105.000000	65.164875 
4104.000000	65.133666 
4103.000000	65.103363 
4102.000000	65.077280 
4101.000000	65.057659 
4100.000000	65.045905 
4099.000000	65.042042 
4098.000000	65.045189 
4097.000000	65.053319 
4096.000000	65.063762 
4095.000000	65.073132 
4094.000000	65.077948 
4093.000000	65.075349 
4092.000000	65.063500 
4091.000000	65.042448 
4090.000000	65.013980 
4089.000000	64.981269 
4088.000000	64.948034 
4087.000000	64.917755 
4086.000000	64.892601 
4085.000000	64.872932 
4084.000000	64.857435 
4083.000000	64.843559 
4082.000000	64.828729 
4081.000000	64.811086 
4080.000000	64.790534 
4079.000000	64.768671 
4078.000000	64.748764 
4077.000000	64.734363 
4076.000000	64.728641 
4075.000000	64.732766 
4074.000000	64.746022 
4073.000000	64.765429 
4072.000000	64.786982 
4071.000000	64.806437 
4070.000000	64.820718 
4069.000000	64.828300 
4068.000000	64.829778 
4067.000000	64.827489 
4066.000000	64.824986 
4065.000000	64.825940 
4064.000000	64.833116 
4063.000000	64.847850 
4062.000000	64.870142 
4061.000000	64.898753 
4060.000000	64.931678 
4059.000000	64.966702 
4058.000000	65.001940 
4057.000000	65.035986 
4056.000000	65.068078 
4055.000000	65.097784 
4054.000000	65.124702 
4053.000000	65.148019 
4052.000000	65.167069 
4051.000000	65.180730 
4050.000000	65.188050 
4049.000000	65.188193 
4048.000000	65.181255 
4047.000000	65.168023 
4046.000000	65.150117 
4045.000000	65.129852 
4044.000000	65.110087 
4043.000000	65.093326 
4042.000000	65.081501 
4041.000000	65.075206 
4040.000000	65.073609 
4039.000000	65.074419 
4038.000000	65.074324 
4037.000000	65.069437 
4036.000000	65.056371 
4035.000000	65.033030 
4034.000000	64.999556 
4033.000000	64.958143 
4032.000000	64.912891 
4031.000000	64.869022 
4030.000000	64.831781 
4029.000000	64.804983 
4028.000000	64.790749 
4027.000000	64.789080 
4026.000000	64.798378 
4025.000000	64.815521 
4024.000000	64.837503 
4023.000000	64.861893 
4022.000000	64.887714 
4021.000000	64.914894 
4020.000000	64.944124 
4019.000000	64.975929 
4018.000000	65.010285 
4017.000000	65.045833 
4016.000000	65.079903 
4015.000000	65.108919 
4014.000000	65.129399 
4013.000000	65.139055 
4012.000000	65.137147 
4011.000000	65.124845 
4010.000000	65.105199 
4009.000000	65.082526 
4008.000000	65.061330 
4007.000000	65.045022 
4006.000000	65.035724 
4005.000000	65.033388 
4004.000000	65.036010 
4003.000000	65.040230 
4002.000000	65.042328 
4001.000000	65.039157 
4000.000000	65.028786 
3999.000000	65.011143 
3998.000000	64.987635 
3997.000000	64.961242 
3996.000000	64.935255 
3995.000000	64.913272 
3994.000000	64.897751 
3993.000000	64.890551 
3992.000000	64.892530 
3991.000000	64.903903 
3990.000000	64.924001 
3989.000000	64.952135 
3988.000000	64.987683 
3987.000000	65.029764 
3986.000000	65.076899 
3985.000000	65.127110 
3984.000000	65.177869 
3983.000000	65.226125 
3982.000000	65.268683 
3981.000000	65.303111 
3980.000000	65.327787 
3979.000000	65.342688 
3978.000000	65.349030 
3977.000000	65.348768 
3976.000000	65.343618 
3975.000000	65.335130 
3974.000000	65.323710 
3973.000000	65.309000 
3972.000000	65.289640 
3971.000000	65.264582 
3970.000000	65.233111 
3969.000000	65.195798 
3968.000000	65.154004 
3967.000000	65.110135 
3966.000000	65.066909 
3965.000000	65.026688 
3964.000000	64.991044 
3963.000000	64.960384 
3962.000000	64.934349 
3961.000000	64.912152 
3960.000000	64.893054 
3959.000000	64.876794 
3958.000000	64.863896 
3957.000000	64.855551 
3956.000000	64.853286 
3955.000000	64.858293 
3954.000000	64.871406 
3953.000000	64.892506 
3952.000000	64.920616 
3951.000000	64.953613 
3950.000000	64.988589 
3949.000000	65.022182 
3948.000000	65.050745 
3947.000000	65.071153 
3946.000000	65.080976 
3945.000000	65.079140 
3944.000000	65.066027 
3943.000000	65.043449 
3942.000000	65.014457 
3941.000000	64.982557 
3940.000000	64.951586 
3939.000000	64.924407 
3938.000000	64.902520 
3937.000000	64.885640 
3936.000000	64.872455 
3935.000000	64.860725 
3934.000000	64.847970 
3933.000000	64.832854 
3932.000000	64.815640 
3931.000000	64.798259 
3930.000000	64.783859 
3929.000000	64.776134 
3928.000000	64.778351 
3927.000000	64.792251 
3926.000000	64.817595 
3925.000000	64.851999 
3924.000000	64.891386 
3923.000000	64.930820 
3922.000000	64.965629 
3921.000000	64.992237 
3920.000000	65.008759 
3919.000000	65.015220 
3918.000000	65.013217 
3917.000000	65.005087 
3916.000000	64.993381 
3915.000000	64.980626 
3914.000000	64.968800 
3913.000000	64.959168 
3912.000000	64.952659 
3911.000000	64.950323 
3910.000000	64.953422 
3909.000000	64.963293 
3908.000000	64.981126 
3907.000000	65.007472 
3906.000000	65.041899 
3905.000000	65.082788 
3904.000000	65.127205 
3903.000000	65.171241 
3902.000000	65.210843 
3901.000000	65.242481 
3900.000000	65.263581 
3899.000000	65.273118 
3898.000000	65.271687 
3897.000000	65.261578 
3896.000000	65.246295 
3895.000000	65.229630 
3894.000000	65.215134 
3893.000000	65.204906 
3892.000000	65.199565 
3891.000000	65.197420 
3890.000000	65.195417 
3889.000000	65.189409 
3888.000000	65.175652 
3887.000000	65.151619 
3886.000000	65.116739 
3885.000000	65.072846 
3884.000000	65.023756 
3883.000000	64.974761 
3882.000000	64.931201 
3881.000000	64.897680 
3880.000000	64.877080 
3879.000000	64.870405 
3878.000000	64.876484 
3877.000000	64.893293 
3876.000000	64.918208 
3875.000000	64.948868 
3874.000000	64.983391 
3873.000000	65.020132 
3872.000000	65.057730 
3871.000000	65.094256 
3870.000000	65.127420 
3869.000000	65.154671 
3868.000000	65.173697 
3867.000000	65.183091 
3866.000000	65.182709 
3865.000000	65.174221 
3864.000000	65.160298 
3863.000000	65.144824 
3862.000000	65.131235 
3861.000000	65.122175 
3860.000000	65.118670 
3859.000000	65.120029 
3858.000000	65.124106 
3857.000000	65.127944 
3856.000000	65.128636 
3855.000000	65.124201 
3854.000000	65.113997 
3853.000000	65.098810 
3852.000000	65.080642 
3851.000000	65.062141 
3850.000000	65.046191 
3849.000000	65.035200 
3848.000000	65.031075 
3847.000000	65.035057 
3846.000000	65.047430 
3845.000000	65.067481 
3844.000000	65.093874 
3843.000000	65.124511 
3842.000000	65.156960 
3841.000000	65.188407 
3840.000000	65.215682 
3839.000000	65.235853 
3838.000000	65.246415 
3837.000000	65.245676 
3836.000000	65.233373 
3835.000000	65.210485 
3834.000000	65.179848 
3833.000000	65.145373 
3832.000000	65.111923 
3831.000000	65.083837 
3830.000000	65.064477 
3829.000000	65.055274 
3828.000000	65.055561 
3827.000000	65.062904 
3826.000000	65.073323 
3825.000000	65.082979 
3824.000000	65.089130 
3823.000000	65.091466 
3822.000000	65.092301 
3821.000000	65.096068 
3820.000000	65.107965 
3819.000000	65.131998 
3818.000000	65.169501 
3817.000000	65.218257 
3816.000000	65.272378 
3815.000000	65.324044 
3814.000000	65.364980 
3813.000000	65.389084 
3812.000000	65.393590 
3811.000000	65.379762 
3810.000000	65.352487 
3809.000000	65.318655 
3808.000000	65.285372 
3807.000000	65.258216 
3806.000000	65.240359 
3805.000000	65.231823 
3804.000000	65.230560 
3803.000000	65.233826 
3802.000000	65.239071 
3801.000000	65.245389 
3800.000000	65.252923 
3799.000000	65.262746 
3798.000000	65.275835 
3797.000000	65.291976 
3796.000000	65.309834 
3795.000000	65.326690 
3794.000000	65.339350 
3793.000000	65.344667 
3792.000000	65.340590 
3791.000000	65.326666 
3790.000000	65.304374 
3789.000000	65.276908 
3788.000000	65.248584 
3787.000000	65.224027 
3786.000000	65.207505 
3785.000000	65.201520 
3784.000000	65.206837 
3783.000000	65.221452 
3782.000000	65.241479 
3781.000000	65.261435 
3780.000000	65.275382 
3779.000000	65.278339 
3778.000000	65.267014 
3777.000000	65.241122 
3776.000000	65.203237 
3775.000000	65.158510 
3774.000000	65.113639 
3773.000000	65.074586 
3772.000000	65.045237 
3771.000000	65.026307 
3770.000000	65.015316 
3769.000000	65.007877 
3768.000000	64.999365 
3767.000000	64.986467 
3766.000000	64.968371 
3765.000000	64.947390 
3764.000000	64.928340 
3763.000000	64.916634 
3762.000000	64.917039 
3761.000000	64.932084 
3760.000000	64.961504 
3759.000000	65.002107 
3758.000000	65.048480 
3757.000000	65.094423 
3756.000000	65.134143 
3755.000000	65.163636 
3754.000000	65.181040 
3753.000000	65.186381 
3752.000000	65.181326 
3751.000000	65.168404 
3750.000000	65.150761 
3749.000000	65.131568 
3748.000000	65.113806 
3747.000000	65.100145 
3746.000000	65.092372 
3745.000000	65.091204 
3744.000000	65.095734 
3743.000000	65.103745 
3742.000000	65.111613 
3741.000000	65.114998 
3740.000000	65.109872 
3739.000000	65.093636 
3738.000000	65.065693 
3737.000000	65.027904 
3736.000000	64.984369 
3735.000000	64.940905 
3734.000000	64.903616 
3733.000000	64.877963 
3732.000000	64.867424 
3731.000000	64.873051 
3730.000000	64.893102 
3729.000000	64.923691 
3728.000000	64.959692 
3727.000000	64.995741 
3726.000000	65.027236 
3725.000000	65.051054 
3724.000000	65.065503 
3723.000000	65.070581 
3722.000000	65.067625 
3721.000000	65.058708 
3720.000000	65.046167 
3719.000000	65.031957 
3718.000000	65.017437 
3717.000000	65.003299 
3716.000000	64.990019 
3715.000000	64.977765 
3714.000000	64.966654 
3713.000000	64.956951 
3712.000000	64.949297 
3711.000000	64.944314 
3710.000000	64.942789 
3709.000000	64.945220 
3708.000000	64.951992 
3707.000000	64.963030 
3706.000000	64.978027 
3705.000000	64.996671 
3704.000000	65.018296 
3703.000000	65.042066 
3702.000000	65.066838 
3701.000000	65.091204 
3700.000000	65.113472 
3699.000000	65.131783 
3698.000000	65.144228 
3697.000000	65.149164 
3696.000000	65.145802 
3695.000000	65.134572 
3694.000000	65.117168 
3693.000000	65.096330 
3692.000000	65.075516 
3691.000000	65.058302 
3690.000000	65.047669 
3689.000000	65.045285 
3688.000000	65.051364 
3687.000000	65.064787 
3686.000000	65.083312 
3685.000000	65.104365 
3684.000000	65.125465 
3683.000000	65.144968 
3682.000000	65.162134 
3681.000000	65.177536 
3680.000000	65.192627 
3679.000000	65.209174 
3678.000000	65.228629 
3677.000000	65.251588 
3676.000000	65.277218 
3675.000000	65.303206 
3674.000000	65.326309 
3673.000000	65.342855 
3672.000000	65.349888 
3671.000000	65.345621 
3670.000000	65.330266 
3669.000000	65.305542 
3668.000000	65.274596 
3667.000000	65.240597 
3666.000000	65.206360 
3665.000000	65.173459 
3664.000000	65.142107 
3663.000000	65.111398 
3662.000000	65.080142 
3661.000000	65.047788 
3660.000000	65.015316 
3659.000000	64.985179 
3658.000000	64.961218 
3657.000000	64.947581 
3656.000000	64.947676 
3655.000000	64.962697 
3654.000000	64.991188 
3653.000000	65.028977 
3652.000000	65.070056 
3651.000000	65.107631 
3650.000000	65.135741 
3649.000000	65.150547 
3648.000000	65.151453 
3647.000000	65.140557 
3646.000000	65.122294 
3645.000000	65.102052 
3644.000000	65.085077 
3643.000000	65.075159 
3642.000000	65.073871 
3641.000000	65.080690 
3640.000000	65.092992 
3639.000000	65.107679 
3638.000000	65.121221 
3637.000000	65.130710 
3636.000000	65.134358 
3635.000000	65.131711 
3634.000000	65.123510 
3633.000000	65.111064 
3632.000000	65.096259 
3631.000000	65.080952 
3630.000000	65.066695 
3629.000000	65.054368 
3628.000000	65.044426 
3627.000000	65.036773 
3626.000000	65.030884 
3625.000000	65.025925 
3624.000000	65.021038 
3623.000000	65.015578 
3622.000000	65.009212 
3621.000000	65.002155 
3620.000000	64.994788 
3619.000000	64.987921 
3618.000000	64.982557 
3617.000000	64.979934 
3616.000000	64.980864 
3615.000000	64.986014 
3614.000000	64.995670 
3613.000000	65.009689 
3612.000000	65.027713 
3611.000000	65.048909 
3610.000000	65.072059 
3609.000000	65.095686 
3608.000000	65.118074 
3607.000000	65.137553 
3606.000000	65.152716 
3605.000000	65.162611 
3604.000000	65.166950 
3603.000000	65.166282 
3602.000000	65.161728 
3601.000000	65.155339 
3600.000000	65.149092 
3599.000000	65.144681 
3598.000000	65.142893 
3597.000000	65.143704 
3596.000000	65.146017 
3595.000000	65.147972 
3594.000000	65.147376 
3593.000000	65.142250 
3592.000000	65.131568 
3591.000000	65.115356 
3590.000000	65.095114 
3589.000000	65.073108 
3588.000000	65.052318 
3587.000000	65.035605 
3586.000000	65.025162 
3585.000000	65.022110 
3584.000000	65.025997 
3583.000000	65.034985 
3582.000000	65.046262 
3581.000000	65.056657 
3580.000000	65.063285 
3579.000000	65.064311 
3578.000000	65.059208 
3577.000000	65.048885 
3576.000000	65.035438 
3575.000000	65.021824 
3574.000000	65.011000 
3573.000000	65.005373 
3572.000000	65.006494 
3571.000000	65.014481 
3570.000000	65.028285 
3569.000000	65.045642 
3568.000000	65.063619 
3567.000000	65.078878 
3566.000000	65.088319 
3565.000000	65.089750 
3564.000000	65.081882 
3563.000000	65.065169 
3562.000000	65.041279 
3561.000000	65.013575 
3560.000000	64.986133 
3559.000000	64.963579 
3558.000000	64.950227 
3557.000000	64.949202 
3556.000000	64.961934 
3555.000000	64.987587 
3554.000000	65.023326 
3553.000000	65.064764 
3552.000000	65.106701 
3551.000000	65.144133 
3550.000000	65.173101 
3549.000000	65.191221 
3548.000000	65.198063 
3547.000000	65.194964 
3546.000000	65.184664 
3545.000000	65.170431 
3544.000000	65.155386 
3543.000000	65.141987 
3542.000000	65.131735 
3541.000000	65.125036 
3540.000000	65.121531 
3539.000000	65.120434 
3538.000000	65.120959 
3537.000000	65.122961 
3536.000000	65.126752 
3535.000000	65.132999 
3534.000000	65.142369 
3533.000000	65.155148 
3532.000000	65.170764 
3531.000000	65.187573 
3530.000000	65.203189 
3529.000000	65.214705 
3528.000000	65.219688 
3527.000000	65.216636 
3526.000000	65.205860 
3525.000000	65.189623 
3524.000000	65.171718 
3523.000000	65.156793 
3522.000000	65.149331 
3521.000000	65.152359 
3520.000000	65.166735 
3519.000000	65.190529 
3518.000000	65.219545 
3517.000000	65.248155 
3516.000000	65.270471 
3515.000000	65.281629 
3514.000000	65.278840 
3513.000000	65.262079 
3512.000000	65.233755 
3511.000000	65.198278 
3510.000000	65.160727 
3509.000000	65.125942 
3508.000000	65.097594 
3507.000000	65.077209 
3506.000000	65.064668 
3505.000000	65.058135 
3504.000000	65.055155 
3503.000000	65.052962 
3502.000000	65.049648 
3501.000000	65.044021 
3500.000000	65.035867 
3499.000000	65.025901 
3498.000000	65.015196 
3497.000000	65.004920 
3496.000000	64.995908 
3495.000000	64.988851 
3494.000000	64.984130 
3493.000000	64.981865 
3492.000000	64.982032 
3491.000000	64.984250 
3490.000000	64.987754 
3489.000000	64.991545 
3488.000000	64.994478 
3487.000000	64.995288 
3486.000000	64.993000 
3485.000000	64.986920 
3484.000000	64.977240 
3483.000000	64.964723 
3482.000000	64.950919 
3481.000000	64.937543 
3480.000000	64.926457 
3479.000000	64.919233 
3478.000000	64.916849 
3477.000000	64.919638 
3476.000000	64.927339 
3475.000000	64.939165 
3474.000000	64.953947 
3473.000000	64.970445 
3472.000000	64.987421 
3471.000000	65.003848 
3470.000000	65.018749 
3469.000000	65.031385 
3468.000000	65.041303 
3467.000000	65.048623 
3466.000000	65.053701 
3465.000000	65.057325 
3464.000000	65.060353 
3463.000000	65.063619 
3462.000000	65.067958 
3461.000000	65.073680 
3460.000000	65.080738 
3459.000000	65.088772 
3458.000000	65.097236 
3457.000000	65.105605 
3456.000000	65.113544 
3455.000000	65.120816 
3454.000000	65.127468 
3453.000000	65.133547 
3452.000000	65.139055 
3451.000000	65.143656 
3450.000000	65.146827 
3449.000000	65.147686 
3448.000000	65.145158 
3447.000000	65.138077 
3446.000000	65.125584 
3445.000000	65.106892 
3444.000000	65.081834 
3443.000000	65.050458 
3442.000000	65.013337 
3441.000000	64.971780 
3440.000000	64.928030 
3439.000000	64.884877 
3438.000000	64.845824 
3437.000000	64.814805 
3436.000000	64.795756 
3435.000000	64.791822 
3434.000000	64.804673 
3433.000000	64.833974 
3432.000000	64.877176 
3431.000000	64.929556 
3430.000000	64.985227 
3429.000000	65.037703 
3428.000000	65.081644 
3427.000000	65.113329 
3426.000000	65.131735 
3425.000000	65.138292 
3424.000000	65.136146 
3423.000000	65.129566 
3422.000000	65.122246 
3421.000000	65.116453 
3420.000000	65.112185 
3419.000000	65.107727 
3418.000000	65.099835 
3417.000000	65.085053 
3416.000000	65.060782 
3415.000000	65.026545 
3414.000000	64.984083 
3413.000000	64.937233 
3412.000000	64.891290 
3411.000000	64.852023 
3410.000000	64.824056 
3409.000000	64.810323 
3408.000000	64.811658 
3407.000000	64.826798 
3406.000000	64.852571 
3405.000000	64.885044 
3404.000000	64.920043 
3403.000000	64.954161 
3402.000000	64.984893 
3401.000000	65.011048 
3400.000000	65.032100 
3399.000000	65.048217 
3398.000000	65.059924 
3397.000000	65.067696 
3396.000000	65.071940 
3395.000000	65.072917 
3394.000000	65.071177 
3393.000000	65.067291 
3392.000000	65.062093 
3391.000000	65.056371 
3390.000000	65.050935 
3389.000000	65.046429 
3388.000000	65.043640 
3387.000000	65.043187 
3386.000000	65.045857 
3385.000000	65.052390 
3384.000000	65.063548 
3383.000000	65.079879 
3382.000000	65.101194 
3381.000000	65.126371 
3380.000000	65.153241 
3379.000000	65.178561 
3378.000000	65.198707 
3377.000000	65.210127 
3376.000000	65.210890 
3375.000000	65.200877 
3374.000000	65.182113 
3373.000000	65.158653 
3372.000000	65.135264 
3371.000000	65.116524 
3370.000000	65.105295 
3369.000000	65.102100 
3368.000000	65.105152 
3367.000000	65.111064 
3366.000000	65.115904 
3365.000000	65.116500 
3364.000000	65.111351 
3363.000000	65.101099 
3362.000000	65.088176 
3361.000000	65.075922 
3360.000000	65.067243 
3359.000000	65.063905 
3358.000000	65.065574 
3357.000000	65.070295 
3356.000000	65.074992 
3355.000000	65.076613 
3354.000000	65.073013 
3353.000000	65.063762 
3352.000000	65.050125 
3351.000000	65.034890 
3350.000000	65.020847 
3349.000000	65.010619 
3348.000000	65.005755 
3347.000000	65.006160 
3346.000000	65.010595 
3345.000000	65.016460 
3344.000000	65.020823 
3343.000000	65.020775 
3342.000000	65.014266 
3341.000000	65.000486 
3340.000000	64.979696 
3339.000000	64.953613 
3338.000000	64.925026 
3337.000000	64.897489 
3336.000000	64.874577 
3335.000000	64.859533 
3334.000000	64.854526 
3333.000000	64.860415 
3332.000000	64.876508 
3331.000000	64.900255 
3330.000000	64.927721 
3329.000000	64.954352 
3328.000000	64.975810 
3327.000000	64.988565 
3326.000000	64.990639 
3325.000000	64.981889 
3324.000000	64.964151 
3323.000000	64.940452 
3322.000000	64.914798 
3321.000000	64.891219 
3320.000000	64.873313 
3319.000000	64.863753 
3318.000000	64.864039 
3317.000000	64.874601 
3316.000000	64.894962 
3315.000000	64.924073 
3314.000000	64.960312 
3313.000000	65.001702 
3312.000000	65.045690 
3311.000000	65.089344 
3310.000000	65.129137 
3309.000000	65.161371 
3308.000000	65.182423 
3307.000000	65.189480 
3306.000000	65.180802 
3305.000000	65.156126 
3304.000000	65.117192 
3303.000000	65.067315 
3302.000000	65.010976 
3301.000000	64.953064 
3300.000000	64.898371 
3299.000000	64.850807 
3298.000000	64.813303 
3297.000000	64.787435 
3296.000000	64.773464 
3295.000000	64.770555 
3294.000000	64.776825 
3293.000000	64.789986 
3292.000000	64.806962 
3291.000000	64.825153 
3290.000000	64.841842 
3289.000000	64.855241 
3288.000000	64.864087 
3287.000000	64.868235 
3286.000000	64.868211 
3285.000000	64.865159 
3284.000000	64.860510 
3283.000000	64.855790 
3282.000000	64.852094 
3281.000000	64.850091 
3280.000000	64.849781 
3279.000000	64.850854 
3278.000000	64.852809 
3277.000000	64.854979 
3276.000000	64.856958 
3275.000000	64.858579 
3274.000000	64.859986 
3273.000000	64.861512 
3272.000000	64.863562 
3271.000000	64.866614 
3270.000000	64.871072 
3269.000000	64.877152 
3268.000000	64.885020 
3267.000000	64.894199 
3266.000000	64.903807 
3265.000000	64.913034 
3264.000000	64.921045 
3263.000000	64.927196 
3262.000000	64.931368 
3261.000000	64.933943 
3260.000000	64.935922 
3259.000000	64.938354 
3258.000000	64.942288 
3257.000000	64.948272 
3256.000000	64.956569 
3255.000000	64.966607 
3254.000000	64.977478 
3253.000000	64.987826 
3252.000000	64.996385 
3251.000000	65.001726 
3250.000000	65.002632 
3249.000000	64.998006 
3248.000000	64.986920 
3247.000000	64.968943 
3246.000000	64.943885 
3245.000000	64.912700 
3244.000000	64.877223 
3243.000000	64.840769 
3242.000000	64.807343 
3241.000000	64.781665 
3240.000000	64.768028 
3239.000000	64.769530 
3238.000000	64.787268 
3237.000000	64.819884 
3236.000000	64.863777 
3235.000000	64.913654 
3234.000000	64.963459 
3233.000000	65.007567 
3232.000000	65.041732 
3231.000000	65.063834 
3230.000000	65.073895 
3229.000000	65.073871 
3228.000000	65.066742 
3227.000000	65.055799 
3226.000000	65.043759 
3225.000000	65.032243 
3224.000000	65.021419 
3223.000000	65.010643 
3222.000000	64.998984 
3221.000000	64.985728 
3220.000000	64.970803 
3219.000000	64.955115 
3218.000000	64.940166 
3217.000000	64.927768 
3216.000000	64.919424 
3215.000000	64.915704 
3214.000000	64.916253 
3213.000000	64.919686 
3212.000000	64.924001 
3211.000000	64.927148 
3210.000000	64.927625 
3209.000000	64.924812 
3208.000000	64.919281 
3207.000000	64.912295 
3206.000000	64.905834 
3205.000000	64.901757 
3204.000000	64.901542 
3203.000000	64.905881 
3202.000000	64.915132 
3201.000000	64.929223 
3200.000000	64.947819 
3199.000000	64.970374 
3198.000000	64.996290 
3197.000000	65.024709 
3196.000000	65.054345 
3195.000000	65.083479 
3194.000000	65.109825 
3193.000000	65.130829 
3192.000000	65.144467 
3191.000000	65.149402 
3190.000000	65.145254 
3189.000000	65.132522 
3188.000000	65.112996 
3187.000000	65.088748 
3186.000000	65.061807 
3185.000000	65.033650 
3184.000000	65.005278 
3183.000000	64.977502 
3182.000000	64.951014 
3181.000000	64.926719 
3180.000000	64.906144 
3179.000000	64.890861 
3178.000000	64.882159 
3177.000000	64.880490 
3176.000000	64.884996 
3175.000000	64.893651 
3174.000000	64.903616 
3173.000000	64.911818 
3172.000000	64.915823 
3171.000000	64.914608 
3170.000000	64.908623 
3169.000000	64.899730 
3168.000000	64.890670 
3167.000000	64.884328 
3166.000000	64.882969 
3165.000000	64.887499 
3164.000000	64.897370 
3163.000000	64.910912 
3162.000000	64.926075 
3161.000000	64.940571 
3160.000000	64.953064 
3159.000000	64.963197 
3158.000000	64.971971 
3157.000000	64.980721 
3156.000000	64.991116 
3155.000000	65.004205 
3154.000000	65.020346 
3153.000000	65.038943 
3152.000000	65.058636 
3151.000000	65.077686 
3150.000000	65.094351 
3149.000000	65.107512 
3148.000000	65.116667 
3147.000000	65.121865 
3146.000000	65.123558 
3145.000000	65.122365 
3144.000000	65.118789 
3143.000000	65.113043 
3142.000000	65.105223 
3141.000000	65.095281 
3140.000000	65.083241 
3139.000000	65.069103 
3138.000000	65.053200 
3137.000000	65.035915 
3136.000000	65.017628 
3135.000000	64.998793 
3134.000000	64.979767 
3133.000000	64.960908 
3132.000000	64.942669 
3131.000000	64.925837 
3130.000000	64.911222 
3129.000000	64.900183 
3128.000000	64.894270 
3127.000000	64.894843 
3126.000000	64.902615 
3125.000000	64.917206 
3124.000000	64.937067 
3123.000000	64.959383 
3122.000000	64.980554 
3121.000000	64.996933 
3120.000000	65.005803 
3119.000000	65.005779 
3118.000000	64.997172 
3117.000000	64.982104 
3116.000000	64.963912 
3115.000000	64.946317 
3114.000000	64.932775 
3113.000000	64.925837 
3112.000000	64.926624 
3111.000000	64.934921 
3110.000000	64.949393 
3109.000000	64.967989 
3108.000000	64.988160 
3107.000000	65.007638 
3106.000000	65.024590 
3105.000000	65.037560 
3104.000000	65.045809 
3103.000000	65.049052 
3102.000000	65.047502 
3101.000000	65.041780 
3100.000000	65.032696 
3099.000000	65.021419 
3098.000000	65.008926 
3097.000000	64.995813 
3096.000000	64.982223 
3095.000000	64.968156 
3094.000000	64.953446 
3093.000000	64.938020 
3092.000000	64.922142 
3091.000000	64.906573 
3090.000000	64.892125 
3089.000000	64.879822 
3088.000000	64.870333 
3087.000000	64.863991 
3086.000000	64.860773 
3085.000000	64.860439 
3084.000000	64.862775 
3083.000000	64.867568 
3082.000000	64.874887 
3081.000000	64.884924 
3080.000000	64.897727 
3079.000000	64.913105 
3078.000000	64.930415 
3077.000000	64.948534 
3076.000000	64.965796 
3075.000000	64.980554 
3074.000000	64.991545 
3073.000000	64.998292 
3072.000000	65.001201 
3071.000000	65.001654 
3070.000000	65.001487 
3069.000000	65.002775 
3068.000000	65.006971 
3067.000000	65.015006 
3066.000000	65.026879 
3065.000000	65.041637 
3064.000000	65.057778 
3063.000000	65.073466 
3062.000000	65.086746 
3061.000000	65.096187 
3060.000000	65.100979 
3059.000000	65.101027 
3058.000000	65.096998 
3057.000000	65.090203 
3056.000000	65.082263 
3055.000000	65.074491 
3054.000000	65.067768 
3053.000000	65.062260 
3052.000000	65.057539 
3051.000000	65.052866 
3050.000000	65.047192 
3049.000000	65.039730 
3048.000000	65.029931 
3047.000000	65.018081 
3046.000000	65.004563 
3045.000000	64.990043 
3044.000000	64.974927 
3043.000000	64.959263 
3042.000000	64.942526 
3041.000000	64.923834 
3040.000000	64.902257 
3039.000000	64.877271 
3038.000000	64.849138 
3037.000000	64.819240 
3036.000000	64.789938 
3035.000000	64.764237 
3034.000000	64.745354 
3033.000000	64.735913 
3032.000000	64.737629 
3031.000000	64.750742 
3030.000000	64.773964 
3029.000000	64.804625 
3028.000000	64.839053 
3027.000000	64.873242 
3026.000000	64.903116 
3025.000000	64.925479 
3024.000000	64.938116 
3023.000000	64.940190 
3022.000000	64.932227 
3021.000000	64.916157 
3020.000000	64.894866 
3019.000000	64.871644 
3018.000000	64.849996 
3017.000000	64.832830 
3016.000000	64.822268 
3015.000000	64.819240 
3014.000000	64.823508 
3013.000000	64.833831 
3012.000000	64.848327 
3011.000000	64.864778 
3010.000000	64.881372 
3009.000000	64.896798 
3008.000000	64.910745 
3007.000000	64.923596 
3006.000000	64.936184 
3005.000000	64.949607 
3004.000000	64.964628 
3003.000000	64.981389 
3002.000000	64.999341 
3001.000000	65.017271 
3000.000000	65.033435 
2999.000000	65.046238 
2998.000000	65.054392 
2997.000000	65.057325 
2996.000000	65.055251 
2995.000000	65.049028 
2994.000000	65.039920 
2993.000000	65.029287 
2992.000000	65.017938 
2991.000000	65.006327 
2990.000000	64.994120 
2989.000000	64.980816 
2988.000000	64.965605 
2987.000000	64.948153 
2986.000000	64.928388 
2985.000000	64.906716 
2984.000000	64.883947 
2983.000000	64.861059 
2982.000000	64.839029 
2981.000000	64.818644 
2980.000000	64.800167 
2979.000000	64.783501 
2978.000000	64.768195 
2977.000000	64.753818 
2976.000000	64.740061 
2975.000000	64.727067 
2974.000000	64.715409 
2973.000000	64.706420 
2972.000000	64.701509 
2971.000000	64.702129 
2970.000000	64.709234 
2969.000000	64.722919 
2968.000000	64.742279 
2967.000000	64.765453 
2966.000000	64.789891 
2965.000000	64.812779 
2964.000000	64.831781 
2963.000000	64.845132 
2962.000000	64.852118 
2961.000000	64.852976 
2960.000000	64.848780 
2959.000000	64.840936 
2958.000000	64.830827 
2957.000000	64.819359 
2956.000000	64.807105 
2955.000000	64.794182 
2954.000000	64.780521 
2953.000000	64.766407 
2952.000000	64.752531 
2951.000000	64.739871 
2950.000000	64.729714 
2949.000000	64.723324 
2948.000000	64.721846 
2947.000000	64.725589 
2946.000000	64.734339 
2945.000000	64.746999 
2944.000000	64.762043 
2943.000000	64.777874 
2942.000000	64.793133 
2941.000000	64.807009 
2940.000000	64.819288 
2939.000000	64.830470 
2938.000000	64.841246 
2937.000000	64.852428 
2936.000000	64.864373 
2935.000000	64.876961 
2934.000000	64.889216 
2933.000000	64.899754 
2932.000000	64.906501 
2931.000000	64.907503 
2930.000000	64.901399 
2929.000000	64.887690 
2928.000000	64.867281 
2927.000000	64.842534 
2926.000000	64.816904 
2925.000000	64.794325 
2924.000000	64.778304 
2923.000000	64.771080 
2922.000000	64.773178 
2921.000000	64.783263 
2920.000000	64.798378 
2919.000000	64.814877 
2918.000000	64.829158 
2917.000000	64.838767 
2916.000000	64.842700 
2915.000000	64.841675 
2914.000000	64.837503 
2913.000000	64.832806 
2912.000000	64.830017 
2911.000000	64.830756 
2910.000000	64.835381 
2909.000000	64.843297 
2908.000000	64.853143 
2907.000000	64.863514 
2906.000000	64.873290 
2905.000000	64.881753 
2904.000000	64.888691 
2903.000000	64.894008 
2902.000000	64.897513 
2901.000000	64.898896 
2900.000000	64.897632 
2899.000000	64.893245 
2898.000000	64.885473 
2897.000000	64.874768 
2896.000000	64.862036 
2895.000000	64.848971 
2894.000000	64.837431 
2893.000000	64.829063 
2892.000000	64.824819 
2891.000000	64.824795 
2890.000000	64.827942 
2889.000000	64.832329 
2888.000000	64.835858 
2887.000000	64.836359 
2886.000000	64.832568 
2885.000000	64.824080 
2884.000000	64.811778 
2883.000000	64.797425 
2882.000000	64.783525 
2881.000000	64.772653 
2880.000000	64.767074 
2879.000000	64.768075 
2878.000000	64.775609 
2877.000000	64.788150 
2876.000000	64.803075 
2875.000000	64.817118 
2874.000000	64.827346 
2873.000000	64.831829 
2872.000000	64.829969 
2871.000000	64.822864 
2870.000000	64.812803 
2869.000000	64.802718 
2868.000000	64.795327 
2867.000000	64.792370 
2866.000000	64.794301 
2865.000000	64.800000 
2864.000000	64.807462 
2863.000000	64.814138 
2862.000000	64.817810 
2861.000000	64.817094 
2860.000000	64.811944 
2859.000000	64.803361 
2858.000000	64.792919 
2857.000000	64.782404 
2856.000000	64.773321 
2855.000000	64.766478 
2854.000000	64.762067 
2853.000000	64.759802 
2852.000000	64.759254 
2851.000000	64.759898 
2850.000000	64.761447 
2849.000000	64.763641 
2848.000000	64.766526 
2847.000000	64.769983 
2846.000000	64.773750 
2845.000000	64.777493 
2844.000000	64.780831 
2843.000000	64.783215 
2842.000000	64.784288 
2841.000000	64.783859 
2840.000000	64.781951 
2839.000000	64.778852 
2838.000000	64.775013 
2837.000000	64.770984 
2836.000000	64.767217 
2835.000000	64.764189 
2834.000000	64.762234 
2833.000000	64.761710 
2832.000000	64.762997 
2831.000000	64.766550 
2830.000000	64.772868 
2829.000000	64.782190 
2828.000000	64.794397 
2827.000000	64.808988 
2826.000000	64.824914 
2825.000000	64.840888 
2824.000000	64.855504 
2823.000000	64.867782 
2822.000000	64.877319 
2821.000000	64.884471 
2820.000000	64.890217 
2819.000000	64.895796 
2818.000000	64.902520 
2817.000000	64.911174 
2816.000000	64.921951 
2815.000000	64.934206 
2814.000000	64.946842 
2813.000000	64.958357 
2812.000000	64.967489 
2811.000000	64.973092 
2810.000000	64.974856 
2809.000000	64.972758 
2808.000000	64.967298 
2807.000000	64.958858 
2806.000000	64.947938 
2805.000000	64.934754 
2804.000000	64.919519 
2803.000000	64.902544 
2802.000000	64.884328 
2801.000000	64.865660 
2800.000000	64.847660 
2799.000000	64.831566 
2798.000000	64.818620 
2797.000000	64.809989 
2796.000000	64.806485 
2795.000000	64.808487 
2794.000000	64.815735 
2793.000000	64.827442 
2792.000000	64.842367 
2791.000000	64.858746 
2790.000000	64.874792 
2789.000000	64.889192 
2788.000000	64.901208 
2787.000000	64.910697 
2786.000000	64.918041 
2785.000000	64.923882 
2784.000000	64.928841 
2783.000000	64.933180 
2782.000000	64.936757 
2781.000000	64.938974 
2780.000000	64.939188 
2779.000000	64.936757 
2778.000000	64.931559 
2777.000000	64.924168 
2776.000000	64.915609 
2775.000000	64.907455 
2774.000000	64.901256 
2773.000000	64.898300 
2772.000000	64.899253 
2771.000000	64.904093 
2770.000000	64.912223 
2769.000000	64.922666 
2768.000000	64.934349 
2767.000000	64.946246 
2766.000000	64.957380 
2765.000000	64.966893 
2764.000000	64.973998 
2763.000000	64.978146 
2762.000000	64.979147 
2761.000000	64.977216 
2760.000000	64.973235 
2759.000000	64.968252 
2758.000000	64.963650 
2757.000000	64.960432 
2756.000000	64.959025 
2755.000000	64.959001 
2754.000000	64.959144 
2753.000000	64.957690 
2752.000000	64.952802 
2751.000000	64.943289 
2750.000000	64.929008 
2749.000000	64.911293 
2748.000000	64.892506 
2747.000000	64.875793 
2746.000000	64.864420 
2745.000000	64.860916 
2744.000000	64.866495 
2743.000000	64.881014 
2742.000000	64.902734 
2741.000000	64.929103 
2740.000000	64.957070 
2739.000000	64.983773 
2738.000000	65.007019 
2737.000000	65.025186 
2736.000000	65.037441 
2735.000000	65.043687 
2734.000000	65.044283 
2733.000000	65.040040 
2732.000000	65.031695 
2731.000000	65.020465 
2730.000000	65.007400 
2729.000000	64.994049 
2728.000000	64.981365 
2727.000000	64.970254 
2726.000000	64.960980 
2725.000000	64.953184 
2724.000000	64.945983 
2723.000000	64.938068 
2722.000000	64.928245 
2721.000000	64.915633 
2720.000000	64.900231 
2719.000000	64.882946 
2718.000000	64.865517 
2717.000000	64.850163 
2716.000000	64.839005 
2715.000000	64.833569 
2714.000000	64.834523 
2713.000000	64.841389 
2712.000000	64.852690 
2711.000000	64.866399 
2710.000000	64.880347 
2709.000000	64.892649 
2708.000000	64.902162 
2707.000000	64.908528 
2706.000000	64.911985 
2705.000000	64.913034 
2704.000000	64.912295 
2703.000000	64.910030 
2702.000000	64.906382 
2701.000000	64.901018 
2700.000000	64.893627 
2699.000000	64.883923 
2698.000000	64.872097 
2697.000000	64.858579 
2696.000000	64.844107 
2695.000000	64.829492 
2694.000000	64.815425 
2693.000000	64.802527 
2692.000000	64.791083 
2691.000000	64.781498 
2690.000000	64.774084 
2689.000000	64.769434 
2688.000000	64.768409 
2687.000000	64.771914 
2686.000000	64.780616 
2685.000000	64.794731 
2684.000000	64.813709 
2683.000000	64.836049 
2682.000000	64.859533 
2681.000000	64.881706 
2680.000000	64.900207 
2679.000000	64.913463 
2678.000000	64.920830 
2677.000000	64.922928 
2676.000000	64.921069 
2675.000000	64.917278 
2674.000000	64.913201 
2673.000000	64.909934 
2672.000000	64.907646 
2671.000000	64.905810 
2670.000000	64.902973 
2669.000000	64.897727 
2668.000000	64.888834 
2667.000000	64.875888 
2666.000000	64.859271 
2665.000000	64.840149 
2664.000000	64.820003 
2663.000000	64.800572 
2662.000000	64.783239 
2661.000000	64.768767 
2660.000000	64.757418 
2659.000000	64.749002 
2658.000000	64.743256 
2657.000000	64.739894 
2656.000000	64.738798 
2655.000000	64.740204 
2654.000000	64.744400 
2653.000000	64.751887 
2652.000000	64.762687 
2651.000000	64.776515 
2650.000000	64.792466 
2649.000000	64.809298 
2648.000000	64.825320 
2647.000000	64.838981 
2646.000000	64.848971 
2645.000000	64.854454 
2644.000000	64.855241 
2643.000000	64.851760 
2642.000000	64.844989 
2641.000000	64.836215 
2640.000000	64.827132 
2639.000000	64.819383 
2638.000000	64.814424 
2637.000000	64.813303 
2636.000000	64.816665 
2635.000000	64.824461 
2634.000000	64.835882 
2633.000000	64.849376 
2632.000000	64.863061 
2631.000000	64.874839 
2630.000000	64.882993 
2629.000000	64.886498 
2628.000000	64.885163 
2627.000000	64.880061 
2626.000000	64.873003 
2625.000000	64.866304 
2624.000000	64.861941 
2623.000000	64.861154 
2622.000000	64.863967 
2621.000000	64.869260 
2620.000000	64.874935 
2619.000000	64.878678 
2618.000000	64.878535 
2617.000000	64.873313 
2616.000000	64.863204 
2615.000000	64.849495 
2614.000000	64.834356 
2613.000000	64.820170 
2612.000000	64.808845 
2611.000000	64.801359 
2610.000000	64.797639 
2609.000000	64.796733 
2608.000000	64.796972 
2607.000000	64.796566 
2606.000000	64.794087 
2605.000000	64.788651 
2604.000000	64.779949 
2603.000000	64.768266 
2602.000000	64.754033 
2601.000000	64.737987 
2600.000000	64.721298 
2599.000000	64.705467 
2598.000000	64.692187 
2597.000000	64.682960 
2596.000000	64.678931 
2595.000000	64.680504 
2594.000000	64.686965 
2593.000000	64.696741 
2592.000000	64.707660 
2591.000000	64.717602 
2590.000000	64.724969 
2589.000000	64.729261 
2588.000000	64.731049 
2587.000000	64.732027 
2586.000000	64.734268 
2585.000000	64.739871 
2584.000000	64.750337 
2583.000000	64.766240 
2582.000000	64.787054 
2581.000000	64.811420 
2580.000000	64.837455 
2579.000000	64.863348 
2578.000000	64.887475 
2577.000000	64.908385 
2576.000000	64.924812 
2575.000000	64.935564 
2574.000000	64.939785 
2573.000000	64.936828 
2572.000000	64.926671 
2571.000000	64.910292 
2570.000000	64.889311 
2569.000000	64.866375 
2568.000000	64.844083 
2567.000000	64.825010 
2566.000000	64.810848 
2565.000000	64.801955 
2564.000000	64.797401 
2563.000000	64.795231 
2562.000000	64.792871 
2561.000000	64.788031 
2560.000000	64.779019 
2559.000000	64.765357 
2558.000000	64.747619 
2557.000000	64.727473 
2556.000000	64.707159 
2555.000000	64.688658 
2554.000000	64.673852 
2553.000000	64.663982 
2552.000000	64.659714 
2551.000000	64.661121 
2550.000000	64.667963 
2549.000000	64.679670 
2548.000000	64.695167 
2547.000000	64.712929 
2546.000000	64.731144 
2545.000000	64.748120 
2544.000000	64.761900 
2543.000000	64.771294 
2542.000000	64.775991 
2541.000000	64.776921 
2540.000000	64.776229 
2539.000000	64.776539 
2538.000000	64.780378 
2537.000000	64.789390 
2536.000000	64.803981 
2535.000000	64.822983 
2534.000000	64.843654 
2533.000000	64.862608 
2532.000000	64.876770 
2531.000000	64.883947 
2530.000000	64.883589 
2529.000000	64.876770 
2528.000000	64.866018 
2527.000000	64.854359 
2526.000000	64.844799 
2525.000000	64.839315 
2524.000000	64.838504 
2523.000000	64.841508 
2522.000000	64.846181 
2521.000000	64.849996 
2520.000000	64.850473 
2519.000000	64.845776 
2518.000000	64.835190 
2517.000000	64.818906 
2516.000000	64.798259 
2515.000000	64.775300 
2514.000000	64.752507 
2513.000000	64.732336 
2512.000000	64.716911 
2511.000000	64.707899 
2510.000000	64.706063 
2509.000000	64.711260 
2508.000000	64.722537 
2507.000000	64.738106 
2506.000000	64.755725 
2505.000000	64.772725 
2504.000000	64.786672 
2503.000000	64.795517 
2502.000000	64.798116 
2501.000000	64.794230 
2500.000000	64.784717 
2499.000000	64.771246 
2498.000000	64.756226 
2497.000000	64.742159 
2496.000000	64.731287 
2495.000000	64.725160 
2494.000000	64.724564 
2493.000000	64.729332 
2492.000000	64.738321 
2491.000000	64.749884 
2490.000000	64.762067 
2489.000000	64.773368 
2488.000000	64.782524 
2487.000000	64.789175 
2486.000000	64.793491 
2485.000000	64.796352 
2484.000000	64.798712 
2483.000000	64.801573 
2482.000000	64.805483 
2481.000000	64.810371 
2480.000000	64.815783 
2479.000000	64.820599 
2478.000000	64.823698 
2477.000000	64.824080 
2476.000000	64.821290 
2475.000000	64.815402 
2474.000000	64.807009 
2473.000000	64.797186 
2472.000000	64.787101 
2471.000000	64.777946 
2470.000000	64.770436 
2469.000000	64.764904 
2468.000000	64.761519 
2467.000000	64.760351 
2466.000000	64.761471 
2465.000000	64.765238 
2464.000000	64.772057 
2463.000000	64.782404 
2462.000000	64.796304 
2461.000000	64.813184 
2460.000000	64.831638 
2459.000000	64.849376 
2458.000000	64.863610 
2457.000000	64.871716 
2456.000000	64.871644 
2455.000000	64.862632 
2454.000000	64.845299 
2453.000000	64.821791 
2452.000000	64.795279 
2451.000000	64.769434 
2450.000000	64.747643 
2449.000000	64.732313 
2448.000000	64.724564 
2447.000000	64.724040 
2446.000000	64.729213 
2445.000000	64.737915 
2444.000000	64.747881 
2443.000000	64.757299 
2442.000000	64.764976 
2441.000000	64.770674 
2440.000000	64.774632 
2439.000000	64.777660 
2438.000000	64.780449 
2437.000000	64.783525 
2436.000000	64.787054 
2435.000000	64.790868 
2434.000000	64.794516 
2433.000000	64.797568 
2432.000000	64.799642 
2431.000000	64.800548 
2430.000000	64.800500 
2429.000000	64.799928 
2428.000000	64.799237 
2427.000000	64.798879 
2426.000000	64.799118 
2425.000000	64.799976 
2424.000000	64.801144 
2423.000000	64.802098 
2422.000000	64.802217 
2421.000000	64.800810 
2420.000000	64.797377 
2419.000000	64.791464 
2418.000000	64.782714 
2417.000000	64.771032 
2416.000000	64.756822 
2415.000000	64.740824 
2414.000000	64.724111 
2413.000000	64.708089 
2412.000000	64.694380 
2411.000000	64.684534 
2410.000000	64.679598 
2409.000000	64.680004 
2408.000000	64.685320 
2407.000000	64.694380 
2406.000000	64.705181 
2405.000000	64.715504 
2404.000000	64.723157 
2403.000000	64.726471 
2402.000000	64.724469 
2401.000000	64.716887 
2400.000000	64.704346 
2399.000000	64.687919 
2398.000000	64.668965 
2397.000000	64.648795 
2396.000000	64.628696 
2395.000000	64.609909 
2394.000000	64.593744 
2393.000000	64.581370 
2392.000000	64.573931 
2391.000000	64.572525 
2390.000000	64.577817 
2389.000000	64.589786 
2388.000000	64.607715 
2387.000000	64.630126 
2386.000000	64.654874 
2385.000000	64.679455 
2384.000000	64.701509 
2383.000000	64.719247 
2382.000000	64.731669 
2381.000000	64.738750 
2380.000000	64.741253 
2379.000000	64.740419 
2378.000000	64.737820 
2377.000000	64.734673 
2376.000000	64.731884 
2375.000000	64.729547 
2374.000000	64.727520 
2373.000000	64.725017 
2372.000000	64.721107 
2371.000000	64.714884 
2370.000000	64.705705 
2369.000000	64.693570 
2368.000000	64.678955 
2367.000000	64.662957 
2366.000000	64.647126 
2365.000000	64.632964 
2364.000000	64.621639 
2363.000000	64.613699 
2362.000000	64.609050 
2361.000000	64.606738 
2360.000000	64.605331 
2359.000000	64.603304 
2358.000000	64.599394 
2357.000000	64.592957 
2356.000000	64.584517 
2355.000000	64.575266 
2354.000000	64.567255 
2353.000000	64.562773 
2352.000000	64.563846 
2351.000000	64.571595 
2350.000000	64.586114 
2349.000000	64.606261 
2348.000000	64.629864 
2347.000000	64.653944 
2346.000000	64.675569 
2345.000000	64.692044 
2344.000000	64.701795 
2343.000000	64.704465 
2342.000000	64.701175 
2341.000000	64.694046 
2340.000000	64.686036 
2339.000000	64.680123 
2338.000000	64.678621 
2337.000000	64.682579 
2336.000000	64.691543 
2335.000000	64.703869 
2334.000000	64.716958 
2333.000000	64.728069 
2332.000000	64.734983 
2331.000000	64.736557 
2330.000000	64.733052 
2329.000000	64.725875 
2328.000000	64.717268 
2327.000000	64.709448 
2326.000000	64.704012 
2325.000000	64.701724 
2324.000000	64.702177 
2323.000000	64.704084 
2322.000000	64.705753 
2321.000000	64.705824 
2320.000000	64.703416 
2319.000000	64.698910 
2318.000000	64.693379 
2317.000000	64.688444 
2316.000000	64.685821 
2315.000000	64.686775 
2314.000000	64.691925 
2313.000000	64.700865 
2312.000000	64.712357 
2311.000000	64.724707 
2310.000000	64.736104 
2309.000000	64.744949 
2308.000000	64.750218 
2307.000000	64.751410 
2306.000000	64.748477 
2305.000000	64.741802 
2304.000000	64.731907 
2303.000000	64.719343 
2302.000000	64.704537 
2301.000000	64.687919 
2300.000000	64.670157 
2299.000000	64.651989 
2298.000000	64.634633 
2297.000000	64.619445 
2296.000000	64.607715 
2295.000000	64.600443 
2294.000000	64.598131 
2293.000000	64.600515 
2292.000000	64.606666 
2291.000000	64.614963 
2290.000000	64.623570 
2289.000000	64.630699 
2288.000000	64.634990 
2287.000000	64.635753 
2286.000000	64.633154 
2285.000000	64.627981 
2284.000000	64.621734 
2283.000000	64.616036 
2282.000000	64.612507 
2281.000000	64.612436 
2280.000000	64.616751 
2279.000000	64.625883 
2278.000000	64.639592 
2277.000000	64.657020 
2276.000000	64.676904 
2275.000000	64.697432 
2274.000000	64.716625 
2273.000000	64.732527 
2272.000000	64.743590 
2271.000000	64.749121 
2270.000000	64.749336 
2269.000000	64.745306 
2268.000000	64.738869 
2267.000000	64.732170 
2266.000000	64.727425 
2265.000000	64.726090 
2264.000000	64.728736 
2263.000000	64.734792 
2262.000000	64.742851 
2261.000000	64.750766 
2260.000000	64.756274 
2259.000000	64.757394 
2258.000000	64.752912 
2257.000000	64.742422 
2256.000000	64.726495 
2255.000000	64.706397 
2254.000000	64.683675 
2253.000000	64.660048 
2252.000000	64.637017 
2251.000000	64.615678 
2250.000000	64.596652 
2249.000000	64.580082 
2248.000000	64.565849 
2247.000000	64.553475 
2246.000000	64.542555 
2245.000000	64.532923 
2244.000000	64.524722 
2243.000000	64.518332 
2242.000000	64.514517 
2241.000000	64.513969 
2240.000000	64.517521 
2239.000000	64.525580 
2238.000000	64.538145 
2237.000000	64.554738 
2236.000000	64.574408 
2235.000000	64.595746 
2234.000000	64.617347 
2233.000000	64.637756 
2232.000000	64.655709 
2231.000000	64.670395 
2230.000000	64.681410 
2229.000000	64.688706 
2228.000000	64.692449 
2227.000000	64.693021 
2226.000000	64.690923 
2225.000000	64.686512 
2224.000000	64.680218 
2223.000000	64.672422 
2222.000000	64.663434 
2221.000000	64.653420 
2220.000000	64.642691 
2219.000000	64.631795 
2218.000000	64.621329 
2217.000000	64.612126 
2216.000000	64.605140 
2215.000000	64.601325 
2214.000000	64.601421 
2213.000000	64.605712 
2212.000000	64.613842 
2211.000000	64.624786 
2210.000000	64.636826 
2209.000000	64.647817 
2208.000000	64.655637 
2207.000000	64.658594 
2206.000000	64.655876 
2205.000000	64.647603 
2204.000000	64.634871 
2203.000000	64.619445 
2202.000000	64.603590 
2201.000000	64.589333 
2200.000000	64.578032 
2199.000000	64.570522 
2198.000000	64.566946 
2197.000000	64.566969 
2196.000000	64.569973 
2195.000000	64.575171 
2194.000000	64.581894 
2193.000000	64.589262 
2192.000000	64.596629 
2191.000000	64.603304 
2190.000000	64.608693 
2189.000000	64.612221 
2188.000000	64.613699 
2187.000000	64.613127 
2186.000000	64.610862 
2185.000000	64.607691 
2184.000000	64.604496 
2183.000000	64.602279 
2182.000000	64.601516 
2181.000000	64.602351 
2180.000000	64.604139 
2179.000000	64.605617 
2178.000000	64.605212 
2177.000000	64.601421 
2176.000000	64.593553 
2175.000000	64.582133 
2174.000000	64.568924 
2173.000000	64.556694 
2172.000000	64.548325 
2171.000000	64.546084 
2170.000000	64.550948 
2169.000000	64.562225 
2168.000000	64.577865 
2167.000000	64.594769 
2166.000000	64.609861 
2165.000000	64.620542 
2164.000000	64.625310 
2163.000000	64.624071 
2162.000000	64.617848 
2161.000000	64.608764 
2160.000000	64.599537 
2159.000000	64.592742 
2158.000000	64.590525 
2157.000000	64.593958 
2156.000000	64.602756 
2155.000000	64.615345 
2154.000000	64.629125 
2153.000000	64.641141 
2152.000000	64.648723 
2151.000000	64.650249 
2150.000000	64.645266 
2149.000000	64.634847 
2148.000000	64.621114 
2147.000000	64.606809 
2146.000000	64.594626 
2145.000000	64.586615 
2144.000000	64.583706 
2143.000000	64.585852 
2142.000000	64.592003 
2141.000000	64.600634 
2140.000000	64.610075 
2139.000000	64.619207 
2138.000000	64.627361 
2137.000000	64.634680 
2136.000000	64.641475 
2135.000000	64.648294 
2134.000000	64.655184 
2133.000000	64.661836 
2132.000000	64.667439 
2131.000000	64.670729 
2130.000000	64.670395 
2129.000000	64.665555 
2128.000000	64.655804 
2127.000000	64.641714 
2126.000000	64.624381 
2125.000000	64.605307 
2124.000000	64.586186 
2123.000000	64.568448 
2122.000000	64.553189 
2121.000000	64.541172 
2120.000000	64.532637 
2119.000000	64.527416 
2118.000000	64.525055 
2117.000000	64.524841 
2116.000000	64.525842 
2115.000000	64.527273 
2114.000000	64.528346 
2113.000000	64.528512 
2112.000000	64.527630 
2111.000000	64.525842 
2110.000000	64.523720 
2109.000000	64.522027 
2108.000000	64.521312 
2107.000000	64.522051 
2106.000000	64.524364 
2105.000000	64.528155 
2104.000000	64.532971 
2103.000000	64.538383 
2102.000000	64.544105 
2101.000000	64.550137 
2100.000000	64.556550 
2099.000000	64.563536 
2098.000000	64.570999 
2097.000000	64.578509 
2096.000000	64.585089 
2095.000000	64.589381 
2094.000000	64.589810 
2093.000000	64.585304 
2092.000000	64.575386 
2091.000000	64.560604 
2090.000000	64.542365 
2089.000000	64.522910 
2088.000000	64.504671 
2087.000000	64.489793 
2086.000000	64.479565 
2085.000000	64.474248 
2084.000000	64.472913 
2083.000000	64.474105 
2082.000000	64.476108 
2081.000000	64.477372 
2080.000000	64.477086 
2079.000000	64.475250 
2078.000000	64.472484 
2077.000000	64.469766 
2076.000000	64.467978 
2075.000000	64.467740 
2074.000000	64.468979 
2073.000000	64.471101 
2072.000000	64.473199 
2071.000000	64.474320 
2070.000000	64.473867 
2069.000000	64.471769 
2068.000000	64.468550 
2067.000000	64.465212 
2066.000000	64.462995 
2065.000000	64.463090 
2064.000000	64.466333 
2063.000000	64.472818 
2062.000000	64.482069 
2061.000000	64.492940 
2060.000000	64.503979 
2059.000000	64.513349 
2058.000000	64.519596 
2057.000000	64.521622 
2056.000000	64.518928 
2055.000000	64.511632 
2054.000000	64.500737 
2053.000000	64.487552 
2052.000000	64.473938 
2051.000000	64.461469 
2050.000000	64.451670 
2049.000000	64.445471 
2048.000000	64.443206 
2047.000000	64.444470 
2046.000000	64.448332 
2045.000000	64.453721 
2044.000000	64.459514 
2043.000000	64.465022 
2042.000000	64.469885 
2041.000000	64.474105 
2040.000000	64.478063 
2039.000000	64.482092 
2038.000000	64.486217 
2037.000000	64.490342 
2036.000000	64.493989 
2035.000000	64.496588 
2034.000000	64.497709 
2033.000000	64.497208 
2032.000000	64.495372 
2031.000000	64.492869 
2030.000000	64.490628 
2029.000000	64.489650 
2028.000000	64.490747 
2027.000000	64.494252 
2026.000000	64.499998 
2025.000000	64.507460 
2024.000000	64.515757 
2023.000000	64.523959 
2022.000000	64.531087 
2021.000000	64.536309 
2020.000000	64.538979 
2019.000000	64.538621 
2018.000000	64.535093 
2017.000000	64.528369 
2016.000000	64.518713 
2015.000000	64.506745 
2014.000000	64.493489 
2013.000000	64.480113 
2012.000000	64.468073 
2011.000000	64.458727 
2010.000000	64.452910 
2009.000000	64.450931 
2008.000000	64.452195 
2007.000000	64.455509 
2006.000000	64.459300 
2005.000000	64.461946 
2004.000000	64.462184 
2003.000000	64.459347 
2002.000000	64.453434 
2001.000000	64.445137 
2000.000000	64.435434 
1999.000000	64.425396 
1998.000000	64.415788 
1997.000000	64.407086 
1996.000000	64.399290 
1995.000000	64.392185 
1994.000000	64.385318 
1993.000000	64.378476 
1992.000000	64.371728 
1991.000000	64.365458 
1990.000000	64.360404 
1989.000000	64.357399 
1988.000000	64.357256 
1987.000000	64.360594 
1986.000000	64.367580 
1985.000000	64.377903 
1984.000000	64.390897 
1983.000000	64.405417 
1982.000000	64.420223 
1981.000000	64.433932 
1980.000000	64.445328 
1979.000000	64.453434 
1978.000000	64.457535 
1977.000000	64.457440 
1976.000000	64.453339 
1975.000000	64.445853 
1974.000000	64.435815 
1973.000000	64.424371 
1972.000000	64.412713 
1971.000000	64.402055 
1970.000000	64.393424 
1969.000000	64.387774 
1968.000000	64.385604 
1967.000000	64.387059 
1966.000000	64.391922 
1965.000000	64.399647 
1964.000000	64.409446 
1963.000000	64.420390 
1962.000000	64.431452 
1961.000000	64.441680 
1960.000000	64.450216 
1959.000000	64.456462 
1958.000000	64.460062 
1957.000000	64.460825 
1956.000000	64.459037 
1955.000000	64.455270 
1954.000000	64.450383 
1953.000000	64.445304 
1952.000000	64.441037 
1951.000000	64.438176 
1950.000000	64.437127 
1949.000000	64.437556 
1948.000000	64.438891 
1947.000000	64.440298 
1946.000000	64.440846 
1945.000000	64.439940 
1944.000000	64.437341 
1943.000000	64.433407 
1942.000000	64.429044 
1941.000000	64.425468 
1940.000000	64.423751 
1939.000000	64.424490 
1938.000000	64.427781 
1937.000000	64.433026 
1936.000000	64.439153 
1935.000000	64.444708 
1934.000000	64.448285 
1933.000000	64.448761 
1932.000000	64.445734 
1931.000000	64.439344 
1930.000000	64.430284 
1929.000000	64.419651 
1928.000000	64.408779 
1927.000000	64.398884 
1926.000000	64.390802 
1925.000000	64.384937 
1924.000000	64.381194 
1923.000000	64.379119 
1922.000000	64.378046 
1921.000000	64.377427 
1920.000000	64.376974 
1919.000000	64.376711 
1918.000000	64.377069 
1917.000000	64.378666 
1916.000000	64.382171 
1915.000000	64.388012 
1914.000000	64.396190 
1913.000000	64.406275 
1912.000000	64.417266 
1911.000000	64.427924 
1910.000000	64.436626 
1909.000000	64.441776 
1908.000000	64.441895 
1907.000000	64.435958 
1906.000000	64.423513 
1905.000000	64.404773 
1904.000000	64.380574 
1903.000000	64.352464 
1902.000000	64.322471 
1901.000000	64.293074 
1900.000000	64.266848 
1899.000000	64.246153 
1898.000000	64.232945 
1897.000000	64.228487 
1896.000000	64.232969 
1895.000000	64.245581 
1894.000000	64.264225 
1893.000000	64.286279 
1892.000000	64.308285 
1891.000000	64.327478 
1890.000000	64.341425 
1889.000000	64.349436 
1888.000000	64.351773 
1887.000000	64.350366 
1886.000000	64.347863 
1885.000000	64.347195 
1884.000000	64.350819 
1883.000000	64.360094 
1882.000000	64.374947 
1881.000000	64.393997 
1880.000000	64.414882 
1879.000000	64.434528 
1878.000000	64.450049 
1877.000000	64.459037 
1876.000000	64.460301 
1875.000000	64.453697 
1874.000000	64.440393 
1873.000000	64.422321 
1872.000000	64.401912 
1871.000000	64.381694 
1870.000000	64.363670 
1869.000000	64.349532 
1868.000000	64.340090 
1867.000000	64.335584 
1866.000000	64.335513 
1865.000000	64.339137 
1864.000000	64.345169 
1863.000000	64.352369 
1862.000000	64.359712 
1861.000000	64.365983 
1860.000000	64.370512 
1859.000000	64.372992 
1858.000000	64.373588 
1857.000000	64.372825 
1856.000000	64.371633 
1855.000000	64.371204 
1854.000000	64.372634 
1853.000000	64.376831 
1852.000000	64.383959 
1851.000000	64.393448 
1850.000000	64.403867 
1849.000000	64.413261 
1848.000000	64.419507 
1847.000000	64.420652 
1846.000000	64.415550 
1845.000000	64.403986 
1844.000000	64.386725 
1843.000000	64.365410 
1842.000000	64.342188 
1841.000000	64.319062 
1840.000000	64.297747 
1839.000000	64.279246 
1838.000000	64.263868 
1837.000000	64.251399 
1836.000000	64.241337 
1835.000000	64.233326 
1834.000000	64.227104 
1833.000000	64.222693 
1832.000000	64.219999 
1831.000000	64.219164 
1830.000000	64.219784 
1829.000000	64.221572 
1828.000000	64.224052 
1827.000000	64.226889 
1826.000000	64.230060 
1825.000000	64.233899 
1824.000000	64.238929 
1823.000000	64.245748 
1822.000000	64.254736 
1821.000000	64.265823 
1820.000000	64.278507 
1819.000000	64.291644 
1818.000000	64.303588 
1817.000000	64.312767 
1816.000000	64.317631 
1815.000000	64.317059 
1814.000000	64.310574 
1813.000000	64.298439 
1812.000000	64.281535 
1811.000000	64.261388 
1810.000000	64.240002 
1809.000000	64.219450 
1808.000000	64.201760 
1807.000000	64.188861 
1806.000000	64.181995 
1805.000000	64.181756 
1804.000000	64.187908 
1803.000000	64.199399 
1802.000000	64.214539 
1801.000000	64.231371 
1800.000000	64.248156 
1799.000000	64.263343 
1798.000000	64.276003 
1797.000000	64.285683 
1796.000000	64.292359 
1795.000000	64.296340 
1794.000000	64.297986 
1793.000000	64.297533 
1792.000000	64.295196 
1791.000000	64.291095 
1790.000000	64.285373 
1789.000000	64.278388 
1788.000000	64.270710 
1787.000000	64.263224 
1786.000000	64.257121 
1785.000000	64.253759 
1784.000000	64.254188 
1783.000000	64.258933 
1782.000000	64.267897 
1781.000000	64.280366 
1780.000000	64.294862 
1779.000000	64.309620 
1778.000000	64.322781 
1777.000000	64.332914 
1776.000000	64.339280 
1775.000000	64.341831 
1774.000000	64.341163 
1773.000000	64.338374 
1772.000000	64.334726 
1771.000000	64.331412 
1770.000000	64.329385 
1769.000000	64.329218 
1768.000000	64.331102 
1767.000000	64.334988 
1766.000000	64.340543 
1765.000000	64.347314 
1764.000000	64.354515 
1763.000000	64.361166 
1762.000000	64.365768 
1761.000000	64.366650 
1760.000000	64.361834 
1759.000000	64.349532 
1758.000000	64.328551 
1757.000000	64.298582 
1756.000000	64.260745 
1755.000000	64.217472 
1754.000000	64.172506 
1753.000000	64.130234 
1752.000000	64.095187 
1751.000000	64.071011 
1750.000000	64.060044 
1749.000000	64.062619 
1748.000000	64.077258 
1747.000000	64.100885 
1746.000000	64.129471 
1745.000000	64.158654 
1744.000000	64.184546 
1743.000000	64.204120 
1742.000000	64.215683 
1741.000000	64.218711 
1740.000000	64.213824 
1739.000000	64.202332 
1738.000000	64.186143 
1737.000000	64.167308 
1736.000000	64.147949 
1735.000000	64.129924 
1734.000000	64.114904 
1733.000000	64.104127 
1732.000000	64.098334 
1731.000000	64.097595 
1730.000000	64.101314 
1729.000000	64.108610 
1728.000000	64.118075 
1727.000000	64.128375 
1726.000000	64.138364 
1725.000000	64.147281 
1724.000000	64.154767 
1723.000000	64.160799 
1722.000000	64.165854 
1721.000000	64.170408 
1720.000000	64.174771 
1719.000000	64.179110 
1718.000000	64.183306 
1717.000000	64.186930 
1716.000000	64.189195 
1715.000000	64.189243 
1714.000000	64.186263 
1713.000000	64.179587 
1712.000000	64.169049 
1711.000000	64.154958 
1710.000000	64.138340 
1709.000000	64.120697 
1708.000000	64.103651 
1707.000000	64.089083 
1706.000000	64.078497 
1705.000000	64.072561 
1704.000000	64.071083 
1703.000000	64.072990 
1702.000000	64.076662 
1701.000000	64.080190 
1700.000000	64.082193 
1699.000000	64.081740 
1698.000000	64.078950 
1697.000000	64.074611 
1696.000000	64.070105 
1695.000000	64.066672 
1694.000000	64.065313 
1693.000000	64.066457 
1692.000000	64.069771 
1691.000000	64.074373 
1690.000000	64.079189 
1689.000000	64.083337 
1688.000000	64.086413 
1687.000000	64.088702 
1686.000000	64.091253 
1685.000000	64.095449 
1684.000000	64.102816 
1683.000000	64.114212 
1682.000000	64.129567 
1681.000000	64.147639 
1680.000000	64.166212 
1679.000000	64.182376 
1678.000000	64.193177 
1677.000000	64.196014 
1676.000000	64.189624 
1675.000000	64.174365 
1674.000000	64.152216 
1673.000000	64.126300 
1672.000000	64.100360 
1671.000000	64.077877 
1670.000000	64.061450 
1669.000000	64.052176 
1668.000000	64.049530 
1667.000000	64.051771 
1666.000000	64.056587 
1665.000000	64.061760 
1664.000000	64.065694 
1663.000000	64.067721 
1662.000000	64.068126 
1661.000000	64.067888 
1660.000000	64.068245 
1659.000000	64.070296 
1658.000000	64.074730 
1657.000000	64.081811 
1656.000000	64.091444 
1655.000000	64.103341 
1654.000000	64.117097 
1653.000000	64.132618 
1652.000000	64.149498 
1651.000000	64.167141 
1650.000000	64.184451 
1649.000000	64.199829 
1648.000000	64.211368 
1647.000000	64.217209 
1646.000000	64.215755 
1645.000000	64.206409 
1644.000000	64.189362 
1643.000000	64.166092 
1642.000000	64.138793 
1641.000000	64.110279 
1640.000000	64.083409 
1639.000000	64.060854 
1638.000000	64.044880 
1637.000000	64.036893 
1636.000000	64.037585 
1635.000000	64.046764 
1634.000000	64.063310 
1633.000000	64.085340 
1632.000000	64.110350 
1631.000000	64.135718 
1630.000000	64.158797 
1629.000000	64.177393 
1628.000000	64.190149 
1627.000000	64.196920 
1626.000000	64.198541 
1625.000000	64.196467 
1624.000000	64.192748 
1623.000000	64.189028 
1622.000000	64.186358 
1621.000000	64.184737 
1620.000000	64.183330 
1619.000000	64.180564 
1618.000000	64.174771 
1617.000000	64.164519 
1616.000000	64.149236 
1615.000000	64.129304 
1614.000000	64.106059 
1613.000000	64.081454 
1612.000000	64.057660 
1611.000000	64.036703 
1610.000000	64.019918 
1609.000000	64.007949 
1608.000000	64.000654 
1607.000000	63.997483 
1606.000000	63.997507 
1605.000000	63.999962 
1604.000000	64.004278 
1603.000000	64.009928 
1602.000000	64.016461 
1601.000000	64.023256 
1600.000000	64.029669 
1599.000000	64.034557 
1598.000000	64.036870 
1597.000000	64.035916 
1596.000000	64.031553 
1595.000000	64.024353 
1594.000000	64.015364 
1593.000000	64.006209 
1592.000000	63.998436 
1591.000000	63.993382 
1590.000000	63.991498 
1589.000000	63.992547 
1588.000000	63.995528 
1587.000000	63.999080 
1586.000000	64.001655 
1585.000000	64.002037 
1584.000000	63.999462 
1583.000000	63.993978 
1582.000000	63.986134 
1581.000000	63.976860 
1580.000000	63.967299 
1579.000000	63.958597 
1578.000000	63.951587 
1577.000000	63.946580 
1576.000000	63.943767 
1575.000000	63.942790 
1574.000000	63.943219 
1573.000000	63.944220 
1572.000000	63.945150 
1571.000000	63.945269 
1570.000000	63.943767 
1569.000000	63.940095 
1568.000000	63.933730 
1567.000000	63.924717 
1566.000000	63.913512 
1565.000000	63.901114 
1564.000000	63.888883 
1563.000000	63.878345 
1562.000000	63.870906 
1561.000000	63.867616 
1560.000000	63.868737 
1559.000000	63.874125 
1558.000000	63.883113 
1557.000000	63.894891 
1556.000000	63.908457 
1555.000000	63.922929 
1554.000000	63.937520 
1553.000000	63.951563 
1552.000000	63.964533 
1551.000000	63.975906 
1550.000000	63.985323 
1549.000000	63.992738 
1548.000000	63.998484 
1547.000000	64.003372 
1546.000000	64.008474 
1545.000000	64.015221 
1544.000000	64.024567 
1543.000000	64.036822 
1542.000000	64.051175 
1541.000000	64.066028 
1540.000000	64.078998 
1539.000000	64.087891 
1538.000000	64.090824 
1537.000000	64.087104 
1536.000000	64.076805 
1535.000000	64.061141 
1534.000000	64.041566 
1533.000000	64.019680 
1532.000000	63.996982 
1531.000000	63.974809 
1530.000000	63.954353 
1529.000000	63.936591 
1528.000000	63.922619 
1527.000000	63.913464 
1526.000000	63.909864 
1525.000000	63.912010 
1524.000000	63.919496 
1523.000000	63.931417 
1522.000000	63.946175 
1521.000000	63.962054 
1520.000000	63.977336 
1519.000000	63.990759 
1518.000000	64.001679 
1517.000000	64.010119 
1516.000000	64.016580 
1515.000000	64.021658 
1514.000000	64.025783 
1513.000000	64.029121 
1512.000000	64.031767 
1511.000000	64.033365 
1510.000000	64.033699 
1509.000000	64.032483 
1508.000000	64.029812 
1507.000000	64.025521 
1506.000000	64.019680 
1505.000000	64.011836 
1504.000000	64.001441 
1503.000000	63.987803 
1502.000000	63.970613 
1501.000000	63.950014 
1500.000000	63.926911 
1499.000000	63.903188 
1498.000000	63.881278 
1497.000000	63.863801 
1496.000000	63.852906 
1495.000000	63.849663 
1494.000000	63.854074 
1493.000000	63.864827 
1492.000000	63.879728 
1491.000000	63.896346 
1490.000000	63.912177 
1489.000000	63.925337 
1488.000000	63.934350 
1487.000000	63.938426 
1486.000000	63.937497 
1485.000000	63.931751 
1484.000000	63.921904 
1483.000000	63.908982 
1482.000000	63.894176 
1481.000000	63.878798 
1480.000000	63.864326 
1479.000000	63.852238 
1478.000000	63.843774 
1477.000000	63.839840 
1476.000000	63.840699 
1475.000000	63.845992 
1474.000000	63.854575 
1473.000000	63.864684 
1472.000000	63.874292 
1471.000000	63.881468 
1470.000000	63.884854 
1469.000000	63.883781 
1468.000000	63.878560 
1467.000000	63.870358 
1466.000000	63.860869 
1465.000000	63.851952 
1464.000000	63.845324 
1463.000000	63.842058 
1462.000000	63.842535 
1461.000000	63.846373 
1460.000000	63.852715 
1459.000000	63.860559 
1458.000000	63.869190 
1457.000000	63.878250 
1456.000000	63.887858 
1455.000000	63.898110 
1454.000000	63.908958 
1453.000000	63.919878 
1452.000000	63.929843 
1451.000000	63.937568 
1450.000000	63.941979 
1449.000000	63.942575 
1448.000000	63.939738 
1447.000000	63.934683 
1446.000000	63.929390 
1445.000000	63.925933 
1444.000000	63.926148 
1443.000000	63.931226 
1442.000000	63.941574 
1441.000000	63.956642 
1440.000000	63.975095 
1439.000000	63.995361 
1438.000000	64.015769 
1437.000000	64.034771 
1436.000000	64.051246 
1435.000000	64.064383 
1434.000000	64.073729 
1433.000000	64.079284 
1432.000000	64.081597 
1431.000000	64.081406 
1430.000000	64.079761 
1429.000000	64.078140 
1428.000000	64.077472 
1427.000000	64.078354 
1426.000000	64.080476 
1425.000000	64.082717 
1424.000000	64.083385 
1423.000000	64.080452 
1422.000000	64.072227 
1421.000000	64.057803 
1420.000000	64.037299 
1419.000000	64.011883 
1418.000000	63.983535 
1417.000000	63.954448 
1416.000000	63.926506 
1415.000000	63.901066 
1414.000000	63.878583 
1413.000000	63.858890 
1412.000000	63.841533 
1411.000000	63.826227 
1410.000000	63.813209 
1409.000000	63.803172 
1408.000000	63.797283 
1407.000000	63.796806 
1406.000000	63.802242 
1405.000000	63.813447 
1404.000000	63.829302 
1403.000000	63.848090 
1402.000000	63.867759 
1401.000000	63.886499 
1400.000000	63.903093 
1399.000000	63.917207 
1398.000000	63.929176 
1397.000000	63.939905 
1396.000000	63.950252 
1395.000000	63.960647 
1394.000000	63.970804 
1393.000000	63.979458 
1392.000000	63.984870 
1391.000000	63.985085 
1390.000000	63.978719 
1389.000000	63.965249 
1388.000000	63.945269 
1387.000000	63.920664 
1386.000000	63.894104 
1385.000000	63.868474 
1384.000000	63.846397 
1383.000000	63.829851 
1382.000000	63.819861 
1381.000000	63.816475 
1380.000000	63.818979 
1379.000000	63.826346 
1378.000000	63.837504 
1377.000000	63.851165 
1376.000000	63.866066 
1375.000000	63.880991 
1374.000000	63.894629 
1373.000000	63.905596 
1372.000000	63.912487 
1371.000000	63.914299 
1370.000000	63.910388 
1369.000000	63.901185 
1368.000000	63.887715 
1367.000000	63.871812 
1366.000000	63.855409 
1365.000000	63.840270 
1364.000000	63.827228 
1363.000000	63.816380 
1362.000000	63.806891 
1361.000000	63.797545 
1360.000000	63.787007 
1359.000000	63.774704 
1358.000000	63.760685 
1357.000000	63.746285 
1356.000000	63.733458 
1355.000000	63.724803 
1354.000000	63.722991 
1353.000000	63.729929 
1352.000000	63.746476 
1351.000000	63.771939 
1350.000000	63.804149 
1349.000000	63.839626 
1348.000000	63.873839 
1347.000000	63.902473 
1346.000000	63.922047 
1345.000000	63.930654 
1344.000000	63.928341 
1343.000000	63.917207 
1342.000000	63.900876 
1341.000000	63.883733 
1340.000000	63.870000 
1339.000000	63.862609 
1338.000000	63.862752 
1337.000000	63.869690 
1336.000000	63.881206 
1335.000000	63.894343 
1334.000000	63.906264 
1333.000000	63.915205 
1332.000000	63.920640 
1331.000000	63.923358 
1330.000000	63.924694 
1329.000000	63.926005 
1328.000000	63.927865 
1327.000000	63.929915 
1326.000000	63.930559 
1325.000000	63.927769 
1324.000000	63.919210 
1323.000000	63.903236 
1322.000000	63.879203 
1321.000000	63.847851 
1320.000000	63.811421 
1319.000000	63.773059 
1318.000000	63.736414 
1317.000000	63.704848 
1316.000000	63.681030 
1315.000000	63.666582 
1314.000000	63.661885 
1313.000000	63.666129 
1312.000000	63.677597 
1311.000000	63.694024 
1310.000000	63.712882 
1309.000000	63.731765 
1308.000000	63.748884 
1307.000000	63.763141 
1306.000000	63.774108 
1305.000000	63.782024 
1304.000000	63.787531 
1303.000000	63.791418 
1302.000000	63.794445 
1301.000000	63.797140 
1300.000000	63.799810 
1299.000000	63.802409 
1298.000000	63.805007 
1297.000000	63.807678 
1296.000000	63.810467 
1295.000000	63.813328 
1294.000000	63.816261 
1293.000000	63.818979 
1292.000000	63.820981 
1291.000000	63.821625 
1290.000000	63.820219 
1289.000000	63.816428 
1288.000000	63.810062 
1287.000000	63.801598 
1286.000000	63.791894 
1285.000000	63.781881 
1284.000000	63.772106 
1283.000000	63.762545 
1282.000000	63.752746 
1281.000000	63.741731 
1280.000000	63.728737 
1279.000000	63.713216 
1278.000000	63.695573 
1277.000000	63.677358 
1276.000000	63.660955 
1275.000000	63.649153 
1274.000000	63.644289 
1273.000000	63.647675 
1272.000000	63.658976 
1271.000000	63.676095 
1270.000000	63.695549 
1269.000000	63.713550 
1268.000000	63.726663 
1267.000000	63.732647 
1266.000000	63.731026 
1265.000000	63.723039 
1264.000000	63.711261 
1263.000000	63.698792 
1262.000000	63.688683 
1261.000000	63.683199 
1260.000000	63.683390 
1259.000000	63.689327 
1258.000000	63.699817 
1257.000000	63.712692 
1256.000000	63.725590 
1255.000000	63.736414 
1254.000000	63.743567 
1253.000000	63.746285 
1252.000000	63.744640 
1251.000000	63.739681 
1250.000000	63.732910 
1249.000000	63.726019 
1248.000000	63.720536 
1247.000000	63.717389 
1246.000000	63.716769 
1245.000000	63.717675 
1244.000000	63.718676 
1243.000000	63.717675 
1242.000000	63.712739 
1241.000000	63.702297 
1240.000000	63.685631 
1239.000000	63.663196 
1238.000000	63.636374 
1237.000000	63.607621 
1236.000000	63.579750 
1235.000000	63.556170 
1234.000000	63.540101 
1233.000000	63.534402 
1232.000000	63.540983 
1231.000000	63.560438 
1230.000000	63.591623 
1229.000000	63.631749 
1228.000000	63.676595 
1227.000000	63.721108 
1226.000000	63.759970 
1225.000000	63.788461 
1224.000000	63.803386 
1223.000000	63.803482 
1222.000000	63.789510 
1221.000000	63.764119 
1220.000000	63.731145 
1219.000000	63.695096 
1218.000000	63.660287 
1217.000000	63.630342 
1216.000000	63.607716 
1215.000000	63.593649 
1214.000000	63.588166 
1213.000000	63.590598 
1212.000000	63.599538 
1211.000000	63.613247 
1210.000000	63.629937 
1209.000000	63.647484 
1208.000000	63.664317 
1207.000000	63.679194 
1206.000000	63.691616 
1205.000000	63.701653 
1204.000000	63.709974 
1203.000000	63.717579 
1202.000000	63.725590 
1201.000000	63.734698 
1200.000000	63.744878 
1199.000000	63.755130 
1198.000000	63.763594 
1197.000000	63.767766 
1196.000000	63.765096 
1195.000000	63.753700 
1194.000000	63.732862 
1193.000000	63.703250 
1192.000000	63.667106 
1191.000000	63.627982 
1190.000000	63.590049 
1189.000000	63.557291 
1188.000000	63.532638 
1187.000000	63.517403 
1186.000000	63.511347 
1185.000000	63.512539 
1184.000000	63.517856 
1183.000000	63.523817 
1182.000000	63.527321 
1181.000000	63.526558 
1180.000000	63.521075 
1179.000000	63.512039 
1178.000000	63.501429 
1177.000000	63.491821 
1176.000000	63.485598 
1175.000000	63.484191 
1174.000000	63.487863 
1173.000000	63.495731 
1172.000000	63.506174 
1171.000000	63.517332 
1170.000000	63.527774 
1169.000000	63.536787 
1168.000000	63.544607 
1167.000000	63.552188 
1166.000000	63.560819 
1165.000000	63.571643 
1164.000000	63.585042 
1163.000000	63.600659 
1162.000000	63.617253 
1161.000000	63.633251 
1160.000000	63.646793 
1159.000000	63.656783 
1158.000000	63.662695 
1157.000000	63.664698 
1156.000000	63.663578 
1155.000000	63.660407 
1154.000000	63.656234 
1153.000000	63.651609 
1152.000000	63.646793 
1151.000000	63.641667 
1150.000000	63.636159 
1149.000000	63.630390 
1148.000000	63.624882 
1147.000000	63.620638 
1146.000000	63.618755 
1145.000000	63.620162 
1144.000000	63.625264 
1143.000000	63.633775 
1142.000000	63.644742 
1141.000000	63.656687 
1140.000000	63.667869 
1139.000000	63.676667 
1138.000000	63.681650 
1137.000000	63.681936 
1136.000000	63.677167 
1135.000000	63.667607 
1134.000000	63.654088 
1133.000000	63.638091 
1132.000000	63.621354 
1131.000000	63.605904 
1130.000000	63.593745 
1129.000000	63.586497 
1128.000000	63.585042 
1127.000000	63.589501 
1126.000000	63.599228 
1125.000000	63.612866 
1124.000000	63.628435 
1123.000000	63.644170 
1122.000000	63.658857 
1121.000000	63.671970 
1120.000000	63.683676 
1119.000000	63.694715 
1118.000000	63.706111 
1117.000000	63.718652 
1116.000000	63.732600 
1115.000000	63.747715 
1114.000000	63.763141 
1113.000000	63.777899 
1112.000000	63.790869 
1111.000000	63.801145 
1110.000000	63.808083 
1109.000000	63.811588 
1108.000000	63.811612 
1107.000000	63.808608 
1106.000000	63.802790 
1105.000000	63.794612 
1104.000000	63.784122 
1103.000000	63.771390 
1102.000000	63.756155 
1101.000000	63.738346 
1100.000000	63.717842 
1099.000000	63.694548 
1098.000000	63.668608 
1097.000000	63.640618 
1096.000000	63.611674 
1095.000000	63.583374 
1094.000000	63.557624 
1093.000000	63.536357 
1092.000000	63.521194 
1091.000000	63.513231 
1090.000000	63.512492 
1089.000000	63.518238 
1088.000000	63.528990 
1087.000000	63.542890 
1086.000000	63.558173 
1085.000000	63.573265 
1084.000000	63.586854 
1083.000000	63.598132 
1082.000000	63.606309 
1081.000000	63.610959 
1080.000000	63.611674 
1079.000000	63.608479 
1078.000000	63.601779 
1077.000000	63.592648 
1076.000000	63.582777 
1075.000000	63.574385 
1074.000000	63.569808 
1073.000000	63.570737 
1072.000000	63.577818 
1071.000000	63.590335 
1070.000000	63.606142 
1069.000000	63.622307 
1068.000000	63.635754 
1067.000000	63.644194 
1066.000000	63.646626 
1065.000000	63.643884 
1064.000000	63.638234 
1063.000000	63.633060 
1062.000000	63.631820 
1061.000000	63.637280 
1060.000000	63.650751 
1059.000000	63.672065 
1058.000000	63.699245 
1057.000000	63.729763 
1056.000000	63.760447 
1055.000000	63.788509 
1054.000000	63.811707 
1053.000000	63.828825 
1052.000000	63.839483 
1051.000000	63.843870 
1050.000000	63.842535 
1049.000000	63.836193 
1048.000000	63.825440 
1047.000000	63.811111 
1046.000000	63.793730 
1045.000000	63.773894 
1044.000000	63.752055 
1043.000000	63.728547 
1042.000000	63.703703 
1041.000000	63.677835 
1040.000000	63.651371 
1039.000000	63.625264 
1038.000000	63.600754 
1037.000000	63.579392 
1036.000000	63.562893 
1035.000000	63.552570 
1034.000000	63.548755 
1033.000000	63.550615 
1032.000000	63.555860 
1031.000000	63.561320 
1030.000000	63.563466 
1029.000000	63.559627 
1028.000000	63.548254 
1027.000000	63.529801 
1026.000000	63.506627 
1025.000000	63.482499 
1024.000000	63.461303 
1023.000000	63.446259 
1022.000000	63.439273 
1021.000000	63.440227 
1020.000000	63.447117 
1019.000000	63.456892 
1018.000000	63.466262 
1017.000000	63.472914 
1016.000000	63.476252 
1015.000000	63.477611 
1014.000000	63.479638 
1013.000000	63.485860 
1012.000000	63.499712 
1011.000000	63.523316 
1010.000000	63.556742 
1009.000000	63.598203 
1008.000000	63.644051 
1007.000000	63.689732 
1006.000000	63.730311 
1005.000000	63.761854 
1004.000000	63.781547 
1003.000000	63.788437 
1002.000000	63.783001 
1001.000000	63.767099 
1000.000000	63.743185 
999.000000	 63.714003 
998.000000	 63.681650 
997.000000	 63.648080 
996.000000	 63.614463 
995.000000	 63.581681 
994.000000	 63.550615 
993.000000	 63.522291 
992.000000	 63.498353 
991.000000	 63.480949 
990.000000	 63.472676 
989.000000	 63.475823 
988.000000	 63.492155 
987.000000	 63.522124 
986.000000	 63.564300 
985.000000	 63.615250 
984.000000	 63.669800 
983.000000	 63.721585 
982.000000	 63.764214 
981.000000	 63.792109 
980.000000	 63.801789 
979.000000	 63.792443 
978.000000	 63.766217 
977.000000	 63.727712 
976.000000	 63.683199 
975.000000	 63.639163 
974.000000	 63.601446 
973.000000	 63.573765 
972.000000	 63.557910 
971.000000	 63.553309 
970.000000	 63.557672 
969.000000	 63.567638 
968.000000	 63.579773 
967.000000	 63.590931 
966.000000	 63.598918 
965.000000	 63.602590 
964.000000	 63.601422 
963.000000	 63.595581 
962.000000	 63.585376 
961.000000	 63.571095 
960.000000	 63.552856 
959.000000	 63.530969 
958.000000	 63.506054 
957.000000	 63.479304 
956.000000	 63.452553 
955.000000	 63.428163 
954.000000	 63.408827 
953.000000	 63.397216 
952.000000	 63.395404 
951.000000	 63.404273 
950.000000	 63.423347 
949.000000	 63.450860 
948.000000	 63.483929 
947.000000	 63.519048 
946.000000	 63.552474 
945.000000	 63.580751 
944.000000	 63.601040 
943.000000	 63.611865 
942.000000	 63.612747 
941.000000	 63.604116 
940.000000	 63.587212 
939.000000	 63.564062 
938.000000	 63.537096 
937.000000	 63.508939 
936.000000	 63.482356 
935.000000	 63.460087 
934.000000	 63.444471 
933.000000	 63.437199 
932.000000	 63.439011 
931.000000	 63.449454 
930.000000	 63.466787 
929.000000	 63.488149 
928.000000	 63.509774 
927.000000	 63.527917 
926.000000	 63.539314 
925.000000	 63.542032 
924.000000	 63.535857 
923.000000	 63.522648 
922.000000	 63.505959 
921.000000	 63.490271 
920.000000	 63.480257 
919.000000	 63.479399 
918.000000	 63.489603 
917.000000	 63.510131 
916.000000	 63.538360 
915.000000	 63.570070 
914.000000	 63.600564 
913.000000	 63.625693 
912.000000	 63.642764 
911.000000	 63.650894 
910.000000	 63.651347 
909.000000	 63.646554 
908.000000	 63.639402 
907.000000	 63.632440 
906.000000	 63.627076 
905.000000	 63.623523 
904.000000	 63.621115 
903.000000	 63.618779 
902.000000	 63.615560 
901.000000	 63.611364 
900.000000	 63.606858 
899.000000	 63.603281 
898.000000	 63.601946 
897.000000	 63.603425 
896.000000	 63.607597 
895.000000	 63.613748 
894.000000	 63.621020 
893.000000	 63.628411 
892.000000	 63.635683 
891.000000	 63.643336 
890.000000	 63.652253 
889.000000	 63.663315 
888.000000	 63.676595 
887.000000	 63.690948 
886.000000	 63.703942 
885.000000	 63.712191 
884.000000	 63.712573 
883.000000	 63.703179 
882.000000	 63.684177 
881.000000	 63.658237 
880.000000	 63.630318 
879.000000	 63.606572 
878.000000	 63.592910 
877.000000	 63.593339 
876.000000	 63.608837 
875.000000	 63.637042 
874.000000	 63.672542 
873.000000	 63.707900 
872.000000	 63.735389 
871.000000	 63.748574 
870.000000	 63.743710 
869.000000	 63.720345 
868.000000	 63.681054 
867.000000	 63.630867 
866.000000	 63.575959 
865.000000	 63.522672 
864.000000	 63.476395 
863.000000	 63.440895 
862.000000	 63.418364 
861.000000	 63.408994 
860.000000	 63.411474 
859.000000	 63.423562 
858.000000	 63.442373 
857.000000	 63.465118 
856.000000	 63.489270 
855.000000	 63.512945 
854.000000	 63.534617 
853.000000	 63.552904 
852.000000	 63.566422 
851.000000	 63.573670 
850.000000	 63.573145 
849.000000	 63.563799 
848.000000	 63.545489 
847.000000	 63.519525 
846.000000	 63.488554 
845.000000	 63.456368 
844.000000	 63.427329 
843.000000	 63.405609 
842.000000	 63.394308 
841.000000	 63.394737 
840.000000	 63.406372 
839.000000	 63.426709 
838.000000	 63.452076 
837.000000	 63.478279 
836.000000	 63.501834 
835.000000	 63.520264 
834.000000	 63.533115 
833.000000	 63.541126 
832.000000	 63.546395 
831.000000	 63.551568 
830.000000	 63.558936 
829.000000	 63.569855 
828.000000	 63.584136 
827.000000	 63.600420 
826.000000	 63.616108 
825.000000	 63.628196 
824.000000	 63.633680 
823.000000	 63.630390 
822.000000	 63.617396 
821.000000	 63.595294 
820.000000	 63.565993 
819.000000	 63.532471 
818.000000	 63.498306 
817.000000	 63.467001 
816.000000	 63.441538 
815.000000	 63.423943 
814.000000	 63.414907 
813.000000	 63.413882 
812.000000	 63.419270 
811.000000	 63.428926 
810.000000	 63.440322 
809.000000	 63.451242 
808.000000	 63.459825 
807.000000	 63.465118 
806.000000	 63.466644 
805.000000	 63.464498 
804.000000	 63.459086 
803.000000	 63.451266 
802.000000	 63.442134 
801.000000	 63.432979 
800.000000	 63.424944 
799.000000	 63.418865 
798.000000	 63.415360 
797.000000	 63.414406 
796.000000	 63.415384 
795.000000	 63.417387 
794.000000	 63.419389 
793.000000	 63.420557 
792.000000	 63.420248 
791.000000	 63.418245 
790.000000	 63.414931 
789.000000	 63.410949 
788.000000	 63.407349 
787.000000	 63.405013 
786.000000	 63.404941 
785.000000	 63.408017 
784.000000	 63.415026 
783.000000	 63.426494 
782.000000	 63.442468 
781.000000	 63.462662 
780.000000	 63.485574 
779.000000	 63.508749 
778.000000	 63.528656 
777.000000	 63.541054 
776.000000	 63.542175 
775.000000	 63.529539 
774.000000	 63.502764 
773.000000	 63.463759 
772.000000	 63.416671 
771.000000	 63.366913 
770.000000	 63.320302 
769.000000	 63.281798 
768.000000	 63.254594 
767.000000	 63.239741 
766.000000	 63.236117 
765.000000	 63.240957 
764.000000	 63.250732 
763.000000	 63.262200 
762.000000	 63.272666 
761.000000	 63.280630 
760.000000	 63.285565 
759.000000	 63.288164 
758.000000	 63.289117 
757.000000	 63.289213 
756.000000	 63.289141 
755.000000	 63.288879 
754.000000	 63.288331 
753.000000	 63.286304 
752.000000	 63.281250 
751.000000	 63.271021 
750.000000	 63.253760 
749.000000	 63.228440 
748.000000	 63.195419 
747.000000	 63.157129 
746.000000	 63.117647 
745.000000	 63.081932 
744.000000	 63.054466 
743.000000	 63.038516 
742.000000	 63.035297 
741.000000	 63.043355 
740.000000	 63.058829 
739.000000	 63.076424 
738.000000	 63.090348 
737.000000	 63.095450 
736.000000	 63.088369 
735.000000	 63.067770 
734.000000	 63.035058 
733.000000	 62.993717 
732.000000	 62.948989 
731.000000	 62.906289 
730.000000	 62.870621 
729.000000	 62.846159 
728.000000	 62.835073 
727.000000	 62.837219 
726.000000	 62.850213 
725.000000	 62.870121 
724.000000	 62.892675 
723.000000	 62.913775 
722.000000	 62.931776 
721.000000	 62.947392 
720.000000	 62.964534 
719.000000	 62.988924 
718.000000	 63.026046 
717.000000	 63.078689 
716.000000	 63.145899 
715.000000	 63.222289 
714.000000	 63.298583 
713.000000	 63.363385 
712.000000	 63.406443 
711.000000	 63.420605 
710.000000	 63.404273 
709.000000	 63.360881 
708.000000	 63.298773 
707.000000	 63.227868 
706.000000	 63.157725 
705.000000	 63.094091 
704.000000	 63.038682 
703.000000	 62.988495 
702.000000	 62.937927 
701.000000	 62.880992 
700.000000	 62.814116 
699.000000	 62.738037 
698.000000	 62.657332 
697.000000	 62.581133 
696.000000	 62.519097 
695.000000	 62.482023 
694.000000	 62.478113 
693.000000	 62.512230 
692.000000	 62.583994 
691.000000	 62.687754 
690.000000	 62.812876 
689.000000	 62.945485 
688.000000	 63.070535 
687.000000	 63.174390 
686.000000	 63.247156 
685.000000	 63.283729 
684.000000	 63.284349 
683.000000	 63.253736 
682.000000	 63.200092 
681.000000	 63.133096 
680.000000	 63.062739 
679.000000	 62.998938 
678.000000	 62.949848 
677.000000	 62.922644 
676.000000	 62.920999 
675.000000	 62.945771 
674.000000	 62.993240 
673.000000	 63.055920 
672.000000	 63.123178 
671.000000	 63.182568 
670.000000	 63.223171 
669.000000	 63.236737 
668.000000	 63.221526 
667.000000	 63.182401 
666.000000	 63.130903 
665.000000	 63.082432 
664.000000	 63.052511 
663.000000	 63.052797 
662.000000	 63.088011 
661.000000	 63.154649 
660.000000	 63.241529 
659.000000	 63.332557 
658.000000	 63.410401 
657.000000	 63.460803 
656.000000	 63.476824 
655.000000	 63.459682 
654.000000	 63.417458 
653.000000	 63.362026 
652.000000	 63.305759 
651.000000	 63.257312 
650.000000	 63.220405 
649.000000	 63.192224 
648.000000	 63.165950 
647.000000	 63.132262 
646.000000	 63.084435 
645.000000	 63.018918 
644.000000	 62.936305 
643.000000	 62.841939 
642.000000	 62.743735 
641.000000	 62.651968 
640.000000	 62.576365 
639.000000	 62.526011 
638.000000	 62.507057 
637.000000	 62.522411 
636.000000	 62.570929 
635.000000	 62.647199 
634.000000	 62.741899 
633.000000	 62.841677 
632.000000	 62.931060 
631.000000	 62.994503 
630.000000	 63.019490 
629.000000	 62.998819 
628.000000	 62.932968 
627.000000	 62.829804 
626.000000	 62.703824 
625.000000	 62.573742 
624.000000	 62.458992 
623.000000	 62.375664 
622.000000	 62.334370 
621.000000	 62.338852 
620.000000	 62.386274 
619.000000	 62.468481 
618.000000	 62.574315 
617.000000	 62.691593 
616.000000	 62.809681 
615.000000	 62.919640 
614.000000	 63.016080 
613.000000	 63.095712 
612.000000	 63.158750 
611.000000	 63.207197 
610.000000	 63.245344 
609.000000	 63.278007 
608.000000	 63.310599 
607.000000	 63.347935 
606.000000	 63.391661 
605.000000	 63.439464 
604.000000	 63.485383 
603.000000	 63.520646 
602.000000	 63.536357 
601.000000	 63.525319 
600.000000	 63.484811 
599.000000	 63.416576 
598.000000	 63.327479 
597.000000	 63.226890 
596.000000	 63.124799 
595.000000	 63.029217 
594.000000	 62.944364 
593.000000	 62.870907 
592.000000	 62.807083 
591.000000	 62.750315 
590.000000	 62.698888 
589.000000	 62.653660 
588.000000	 62.617588 
587.000000	 62.595844 
586.000000	 62.593626 
585.000000	 62.614727 
584.000000	 62.658715 
583.000000	 62.722754 
582.000000	 62.801671 
581.000000	 62.889385 
580.000000	 62.979793 
579.000000	 63.068175 
578.000000	 63.151144 
577.000000	 63.225936 
576.000000	 63.289737 
575.000000	 63.338923 
574.000000	 63.369321 
573.000000	 63.376951 
572.000000	 63.359689 
571.000000	 63.318562 
570.000000	 63.258457 
569.000000	 63.188815 
568.000000	 63.121318 
567.000000	 63.068008 
566.000000	 63.037967 
565.000000	 63.035964 
564.000000	 63.060379 
563.000000	 63.103771 
562.000000	 63.154625 
561.000000	 63.200402 
560.000000	 63.230657 
559.000000	 63.239479 
558.000000	 63.226509 
557.000000	 63.196301 
556.000000	 63.156747 
555.000000	 63.116502 
554.000000	 63.082766 
553.000000	 63.059449 
552.000000	 63.047480 
551.000000	 63.045215 
550.000000	 63.049983 
549.000000	 63.059139 
548.000000	 63.071560 
547.000000	 63.087677 
546.000000	 63.108015 
545.000000	 63.133025 
544.000000	 63.162398 
543.000000	 63.194513 
542.000000	 63.226580 
541.000000	 63.254618 
540.000000	 63.274669 
539.000000	 63.282895 
538.000000	 63.277387 
537.000000	 63.257217 
536.000000	 63.223075 
535.000000	 63.176321 
534.000000	 63.119339 
533.000000	 63.054609 
532.000000	 62.984442 
531.000000	 62.911629 
530.000000	 62.839388 
529.000000	 62.771797 
528.000000	 62.713527 
527.000000	 62.669420 
526.000000	 62.643456 
525.000000	 62.637352 
524.000000	 62.649703 
523.000000	 62.675333 
522.000000	 62.706542 
521.000000	 62.733721 
520.000000	 62.748241 
519.000000	 62.743568 
518.000000	 62.718009 
517.000000	 62.675189 
516.000000	 62.624025 
515.000000	 62.575984 
514.000000	 62.542748 
513.000000	 62.533140 
512.000000	 62.550926 
511.000000	 62.593436 
510.000000	 62.652707 
509.000000	 62.717604 
508.000000	 62.776851 
507.000000	 62.821602 
506.000000	 62.847948 
505.000000	 62.856912 
504.000000	 62.854504 
503.000000	 62.848782 
502.000000	 62.849140 
501.000000	 62.863373 
500.000000	 62.896132 
499.000000	 62.947392 
498.000000	 63.011765 
497.000000	 63.079380 
496.000000	 63.137841 
495.000000	 63.174557 
494.000000	 63.180160 
493.000000	 63.149857 
492.000000	 63.085126 
491.000000	 62.992596 
490.000000	 62.882447 
489.000000	 62.766027 
488.000000	 62.653303 
487.000000	 62.551903 
486.000000	 62.466907 
485.000000	 62.400865 
484.000000	 62.355113 
483.000000	 62.329101 
482.000000	 62.321019 
481.000000	 62.327265 
480.000000	 62.342929 
479.000000	 62.360978 
478.000000	 62.372517 
477.000000	 62.368345 
476.000000	 62.340283 
475.000000	 62.283825 
474.000000	 62.199020 
473.000000	 62.091755 
472.000000	 61.972618 
471.000000	 61.853885 
470.000000	 61.746978 
469.000000	 61.660742 
468.000000	 61.599874 
467.000000	 61.564898 
466.000000	 61.552715 
465.000000	 61.557435 
464.000000	 61.572122 
463.000000	 61.589741 
462.000000	 61.604928 
461.000000	 61.612176 
460.000000	 61.609506 
459.000000	 61.596655 
458.000000	 61.578106 
457.000000	 61.561512 
456.000000	 61.556863 
455.000000	 61.574006 
454.000000	 61.620116 
453.000000	 61.697816 
452.000000	 61.803388 
451.000000	 61.925888 
450.000000	 62.051582 
449.000000	 62.166595 
448.000000	 62.262415 
447.000000	 62.337636 
446.000000	 62.400341 
445.000000	 62.465000 
444.000000	 62.548637 
443.000000	 62.663936 
442.000000	 62.813544 
441.000000	 62.986278 
440.000000	 63.156771 
439.000000	 63.290619 
438.000000	 63.354110 
437.000000	 63.322973 
436.000000	 63.190722 
435.000000	 62.971329 
434.000000	 62.697172 
433.000000	 62.411904 
432.000000	 62.161421 
431.000000	 61.982464 
430.000000	 61.892104 
429.000000	 61.889123 
428.000000	 61.956906 
427.000000	 62.071347 
426.000000	 62.207269 
425.000000	 62.348866 
424.000000	 62.494945 
423.000000	 62.650966 
422.000000	 62.821221 
421.000000	 63.005542 
420.000000	 63.194942 
419.000000	 63.366961 
418.000000	 63.489675 
417.000000	 63.533186 
416.000000	 63.479328 
415.000000	 63.332700 
414.000000	 63.120889 
413.000000	 62.894177 
412.000000	 62.708091 
411.000000	 62.607789 
410.000000	 62.610030 
409.000000	 62.700557 
408.000000	 62.831377 
407.000000	 62.932300 
406.000000	 62.930297 
405.000000	 62.770557 
404.000000	 62.431812 
403.000000	 61.945867 
402.000000	 61.372542 
401.000000	 60.782551 
400.000000	 60.231709 
399.000000	 59.758424 
398.000000	 59.348511 
397.000000	 58.931970 
396.000000	 58.423328 
395.000000	 57.757759 
394.000000	 56.907749 
393.000000	 55.897402 
392.000000	 54.820513 
391.000000	 53.818821 
390.000000	 53.052926 
389.000000	 52.654480 
388.000000	 52.673220 
387.000000	 53.056383 
386.000000	 53.650736 
385.000000	 54.240870 
384.000000	 54.607820 
383.000000	 54.593682 
382.000000	 54.109597 
381.000000	 53.199386 
380.000000	 52.028822 
379.000000	 50.871944 
378.000000	 49.995613 
377.000000	 49.659919 
376.000000	 50.065183 
375.000000	 51.316785 
374.000000	 53.356766 
373.000000	 56.058835 
372.000000	 59.197521 
371.000000	 62.626504 
370.000000	 66.327452 

