PE IR       SPECTRUM    SPECTRUM    ASCII       PEDS        1.60        
  -1
BZ6F22~1.ASC
17/04/07
13:48:11.00
17/04/07
13:48:11.00
tln
$BZ1503107-1_t0007$<tbV0>[-2.6,-13.0,8.0,0.0,27,1,0]
370.000000
64









2002,4.07    
MIRTGS : RIGHTBACK : INTERNAL 2
MIR : ON : INTERNAL 2
OPTKBR

0.200000
8
8.000000
FILLER
RATIO
SPECTRUM
UNLOCKED 256

DOUBLE
64
COMBINED
1
0
0


1.000000
RATIO


1
0
TRUE
51149
0
LEFT NOT FITTED RIGHT NOT FITTED 0
NONE
NONE
15600
12.000000
4.427000
51148
TRUE
1 0 8 72 0 0 0 0 

15798.010000






#HDR
-1
-1
#GR
CM-1
%T
0.00002384185791015625
0.0
5000.000000
-1.000000
4631
8
80.383372
47.948122
#DATA
5000.000000	64.493727 
4999.000000	64.468431 
4998.000000	64.468359 
4997.000000	64.496946 
4996.000000	64.552760 
4995.000000	64.629578 
4994.000000	64.717435 
4993.000000	64.804863 
4992.000000	64.880752 
4991.000000	64.937043 
4990.000000	64.968967 
4989.000000	64.975953 
4988.000000	64.959692 
4987.000000	64.923334 
4986.000000	64.869236 
4985.000000	64.798641 
4984.000000	64.711380 
4983.000000	64.607191 
4982.000000	64.488148 
4981.000000	64.359879 
4980.000000	64.231061 
4979.000000	64.113092 
4978.000000	64.018702 
4977.000000	63.959360 
4976.000000	63.941335 
4975.000000	63.964867 
4974.000000	64.022612 
4973.000000	64.102673 
4972.000000	64.190888 
4971.000000	64.274668 
4970.000000	64.344668 
4969.000000	64.396834 
4968.000000	64.432406 
4967.000000	64.455509 
4966.000000	64.470338 
4965.000000	64.479017 
4964.000000	64.481186 
4963.000000	64.472436 
4962.000000	64.445972 
4961.000000	64.395499 
4960.000000	64.318108 
4959.000000	64.217329 
4958.000000	64.104175 
4957.000000	63.997817 
4956.000000	63.922357 
4955.000000	63.904309 
4954.000000	63.966274 
4953.000000	64.120984 
4952.000000	64.366483 
4951.000000	64.685916 
4950.000000	65.047669 
4949.000000	65.410733 
4948.000000	65.730595 
4947.000000	65.967488 
4946.000000	66.092872 
4945.000000	66.096043 
4944.000000	65.982985 
4943.000000	65.776586 
4942.000000	65.507435 
4941.000000	65.209436 
4940.000000	64.910602 
4939.000000	64.631628 
4938.000000	64.381670 
4937.000000	64.162158 
4936.000000	63.969635 
4935.000000	63.801264 
4934.000000	63.658332 
4933.000000	63.546919 
4932.000000	63.478946 
4931.000000	63.467860 
4930.000000	63.526773 
4929.000000	63.662743 
4928.000000	63.874959 
4927.000000	64.151334 
4926.000000	64.469194 
4925.000000	64.795970 
4924.000000	65.093874 
4923.000000	65.324378 
4922.000000	65.454387 
4921.000000	65.462160 
4920.000000	65.340089 
4919.000000	65.098977 
4918.000000	64.768123 
4917.000000	64.391160 
4916.000000	64.019703 
4915.000000	63.703823 
4914.000000	63.484621 
4913.000000	63.386249 
4912.000000	63.412857 
4911.000000	63.549709 
4910.000000	63.767123 
4909.000000	64.029431 
4908.000000	64.301776 
4907.000000	64.557814 
4906.000000	64.781188 
4905.000000	64.968109 
4904.000000	65.122604 
4903.000000	65.254759 
4902.000000	65.374088 
4901.000000	65.486526 
4900.000000	65.590739 
4899.000000	65.679192 
4898.000000	65.738773 
4897.000000	65.755939 
4896.000000	65.719723 
4895.000000	65.625524 
4894.000000	65.477752 
4893.000000	65.289521 
4892.000000	65.082287 
4891.000000	64.883089 
4890.000000	64.719033 
4889.000000	64.613008 
4888.000000	64.577507 
4887.000000	64.612388 
4886.000000	64.704370 
4885.000000	64.830279 
4884.000000	64.962029 
4883.000000	65.072512 
4882.000000	65.141487 
4881.000000	65.159869 
4880.000000	65.127968 
4879.000000	65.053319 
4878.000000	64.946007 
4877.000000	64.814925 
4876.000000	64.666771 
4875.000000	64.506340 
4874.000000	64.337539 
4873.000000	64.165878 
4872.000000	64.002084 
4871.000000	63.861846 
4870.000000	63.763475 
4869.000000	63.723993 
4868.000000	63.753795 
4867.000000	63.853192 
4866.000000	64.009261 
4865.000000	64.198756 
4864.000000	64.392089 
4863.000000	64.560079 
4862.000000	64.679718 
4861.000000	64.738917 
4860.000000	64.736390 
4859.000000	64.682888 
4858.000000	64.596486 
4857.000000	64.499568 
4856.000000	64.412975 
4855.000000	64.352989 
4854.000000	64.330029 
4853.000000	64.345884 
4852.000000	64.395976 
4851.000000	64.468669 
4850.000000	64.549183 
4849.000000	64.621496 
4848.000000	64.672183 
4847.000000	64.692735 
4846.000000	64.681601 
4845.000000	64.644169 
4844.000000	64.591073 
4843.000000	64.537119 
4842.000000	64.496278 
4841.000000	64.478254 
4840.000000	64.485239 
4839.000000	64.511632 
4838.000000	64.545679 
4837.000000	64.572644 
4836.000000	64.580750 
4835.000000	64.564490 
4834.000000	64.527535 
4833.000000	64.481377 
4832.000000	64.442515 
4831.000000	64.427375 
4830.000000	64.446830 
4829.000000	64.502644 
4828.000000	64.585781 
4827.000000	64.678192 
4826.000000	64.757704 
4825.000000	64.804053 
4824.000000	64.805269 
4823.000000	64.761185 
4822.000000	64.684391 
4821.000000	64.596748 
4820.000000	64.523553 
4819.000000	64.486289 
4818.000000	64.496588 
4817.000000	64.552831 
4816.000000	64.639902 
4815.000000	64.733839 
4814.000000	64.808559 
4813.000000	64.844083 
4812.000000	64.831042 
4811.000000	64.775371 
4810.000000	64.696216 
4809.000000	64.622402 
4808.000000	64.583516 
4807.000000	64.602828 
4806.000000	64.691162 
4805.000000	64.843058 
4804.000000	65.039205 
4803.000000	65.249395 
4802.000000	65.441346 
4801.000000	65.586543 
4800.000000	65.666890 
4799.000000	65.677475 
4798.000000	65.626382 
4797.000000	65.531396 
4796.000000	65.414404 
4795.000000	65.296626 
4794.000000	65.193629 
4793.000000	65.114164 
4792.000000	65.059185 
4791.000000	65.023660 
4790.000000	64.998316 
4789.000000	64.973664 
4788.000000	64.941740 
4787.000000	64.896559 
4786.000000	64.836025 
4785.000000	64.759635 
4784.000000	64.670991 
4783.000000	64.576506 
4782.000000	64.485716 
4781.000000	64.409089 
4780.000000	64.356374 
4779.000000	64.335250 
4778.000000	64.347696 
4777.000000	64.389562 
4776.000000	64.449357 
4775.000000	64.510250 
4774.000000	64.553475 
4773.000000	64.562010 
4772.000000	64.526343 
4771.000000	64.446783 
4770.000000	64.335083 
4769.000000	64.211654 
4768.000000	64.103770 
4767.000000	64.039063 
4766.000000	64.039683 
4765.000000	64.116454 
4764.000000	64.265489 
4763.000000	64.468097 
4762.000000	64.695096 
4761.000000	64.912104 
4760.000000	65.086388 
4759.000000	65.193557 
4758.000000	65.221643 
4757.000000	65.173053 
4756.000000	65.062165 
4755.000000	64.911890 
4754.000000	64.747905 
4753.000000	64.593982 
4752.000000	64.468812 
4751.000000	64.383149 
4750.000000	64.341306 
4749.000000	64.340233 
4748.000000	64.373230 
4747.000000	64.430212 
4746.000000	64.500641 
4745.000000	64.573740 
4744.000000	64.638996 
4743.000000	64.687585 
4742.000000	64.712476 
4741.000000	64.710760 
4740.000000	64.683771 
4739.000000	64.637684 
4738.000000	64.582228 
4737.000000	64.528918 
4736.000000	64.488172 
4735.000000	64.467477 
4734.000000	64.469003 
4733.000000	64.489674 
4732.000000	64.521002 
4731.000000	64.551877 
4730.000000	64.570140 
4729.000000	64.565706 
4728.000000	64.532017 
4727.000000	64.466667 
4726.000000	64.372730 
4725.000000	64.257025 
4724.000000	64.130973 
4723.000000	64.007520 
4722.000000	63.900971 
4721.000000	63.824105 
4720.000000	63.787364 
4719.000000	63.797378 
4718.000000	63.854956 
4717.000000	63.954925 
4716.000000	64.085650 
4715.000000	64.230775 
4714.000000	64.371943 
4713.000000	64.491963 
4712.000000	64.577746 
4711.000000	64.622592 
4710.000000	64.627075 
4709.000000	64.598655 
4708.000000	64.550137 
4707.000000	64.496660 
4706.000000	64.453125 
4705.000000	64.430952 
4704.000000	64.437413 
4703.000000	64.473628 
4702.000000	64.535880 
4701.000000	64.615893 
4700.000000	64.703464 
4699.000000	64.787864 
4698.000000	64.860081 
4697.000000	64.913940 
4696.000000	64.946460 
4695.000000	64.958047 
4694.000000	64.951419 
4693.000000	64.930820 
4692.000000	64.901471 
4691.000000	64.867639 
4690.000000	64.832472 
4689.000000	64.797878 
4688.000000	64.765214 
4687.000000	64.735770 
4686.000000	64.711618 
4685.000000	64.695382 
4684.000000	64.689803 
4683.000000	64.698076 
4682.000000	64.722323 
4681.000000	64.762020 
4680.000000	64.813709 
4679.000000	64.871168 
4678.000000	64.926242 
4677.000000	64.970326 
4676.000000	64.995980 
4675.000000	64.998364 
4674.000000	64.976358 
4673.000000	64.933252 
4672.000000	64.875459 
4671.000000	64.811396 
4670.000000	64.749574 
4669.000000	64.697146 
4668.000000	64.658737 
4667.000000	64.637064 
4666.000000	64.631867 
4665.000000	64.640998 
4664.000000	64.660644 
4663.000000	64.686703 
4662.000000	64.714360 
4661.000000	64.738607 
4660.000000	64.754414 
4659.000000	64.757061 
4658.000000	64.743089 
4657.000000	64.711022 
4656.000000	64.662051 
4655.000000	64.600658 
4654.000000	64.534211 
4653.000000	64.471983 
4652.000000	64.423751 
4651.000000	64.397668 
4650.000000	64.398860 
4649.000000	64.428138 
4648.000000	64.482259 
4647.000000	64.553976 
4646.000000	64.633560 
4645.000000	64.710402 
4644.000000	64.774942 
4643.000000	64.819598 
4642.000000	64.839720 
4641.000000	64.833879 
4640.000000	64.803433 
4639.000000	64.752745 
4638.000000	64.688062 
4637.000000	64.617133 
4636.000000	64.547967 
4635.000000	64.488148 
4634.000000	64.444208 
4633.000000	64.419913 
4632.000000	64.415907 
4631.000000	64.429569 
4630.000000	64.455652 
4629.000000	64.487791 
4628.000000	64.519858 
4627.000000	64.547324 
4626.000000	64.568090 
4625.000000	64.582228 
4624.000000	64.591646 
4623.000000	64.598894 
4622.000000	64.605951 
4621.000000	64.612841 
4620.000000	64.617562 
4619.000000	64.617419 
4618.000000	64.609193 
4617.000000	64.590811 
4616.000000	64.562010 
4615.000000	64.524888 
4614.000000	64.483261 
4613.000000	64.441967 
4612.000000	64.405727 
4611.000000	64.377331 
4610.000000	64.358806 
4609.000000	64.351010 
4608.000000	64.354085 
4607.000000	64.367794 
4606.000000	64.391016 
4605.000000	64.421749 
4604.000000	64.456725 
4603.000000	64.491796 
4602.000000	64.522290 
4601.000000	64.544343 
4600.000000	64.555597 
4599.000000	64.556264 
4598.000000	64.549136 
4597.000000	64.539456 
4596.000000	64.533662 
4595.000000	64.538168 
4594.000000	64.558005 
4593.000000	64.595007 
4592.000000	64.648294 
4591.000000	64.712953 
4590.000000	64.781498 
4589.000000	64.844322 
4588.000000	64.892268 
4587.000000	64.917135 
4586.000000	64.913415 
4585.000000	64.878916 
4584.000000	64.815330 
4583.000000	64.728307 
4582.000000	64.626908 
4581.000000	64.522099 
4580.000000	64.425063 
4579.000000	64.344811 
4578.000000	64.286780 
4577.000000	64.251756 
4576.000000	64.236640 
4575.000000	64.235877 
4574.000000	64.243626 
4573.000000	64.255094 
4572.000000	64.268398 
4571.000000	64.283895 
4570.000000	64.304685 
4569.000000	64.333581 
4568.000000	64.373373 
4567.000000	64.424896 
4566.000000	64.487123 
4565.000000	64.557123 
4564.000000	64.630031 
4563.000000	64.700460 
4562.000000	64.762210 
4561.000000	64.810061 
4560.000000	64.839458 
4559.000000	64.847421 
4558.000000	64.832568 
4557.000000	64.795637 
4556.000000	64.739394 
4555.000000	64.668774 
4554.000000	64.590382 
4553.000000	64.512109 
4552.000000	64.441418 
4551.000000	64.384412 
4550.000000	64.345049 
4549.000000	64.324736 
4548.000000	64.321303 
4547.000000	64.329862 
4546.000000	64.344239 
4545.000000	64.358663 
4544.000000	64.368963 
4543.000000	64.373588 
4542.000000	64.373636 
4541.000000	64.372181 
4540.000000	64.372444 
4539.000000	64.376974 
4538.000000	64.386081 
4537.000000	64.398479 
4536.000000	64.411807 
4535.000000	64.423394 
4534.000000	64.431643 
4533.000000	64.435768 
4532.000000	64.435887 
4531.000000	64.432716 
4530.000000	64.427113 
4529.000000	64.420485 
4528.000000	64.414072 
4527.000000	64.410257 
4526.000000	64.412450 
4525.000000	64.423656 
4524.000000	64.445543 
4523.000000	64.479851 
4522.000000	64.527487 
4521.000000	64.586186 
4520.000000	64.651203 
4519.000000	64.716434 
4518.000000	64.775919 
4517.000000	64.825797 
4516.000000	64.864754 
4515.000000	64.895725 
4514.000000	64.922785 
4513.000000	64.947414 
4512.000000	64.969468 
4511.000000	64.985752 
4510.000000	64.993762 
4509.000000	64.995098 
4508.000000	64.994335 
4507.000000	64.999175 
4506.000000	65.017390 
4505.000000	65.054702 
4504.000000	65.112566 
4503.000000	65.183758 
4502.000000	65.262436 
4501.000000	65.345907 
4500.000000	65.440082 
4499.000000	65.557909 
4498.000000	65.719461 
4497.000000	65.945124 
4496.000000	66.244435 
4495.000000	66.609692 
4494.000000	67.011785 
4493.000000	67.406463 
4492.000000	67.740702 
4491.000000	67.970442 
4490.000000	68.078517 
4489.000000	68.078541 
4488.000000	68.018865 
4487.000000	67.960238 
4486.000000	67.964196 
4485.000000	68.063235 
4484.000000	68.245840 
4483.000000	68.458294 
4482.000000	68.631219 
4481.000000	68.686079 
4480.000000	68.562531 
4479.000000	68.231582 
4478.000000	67.707419 
4477.000000	67.042660 
4476.000000	66.321349 
4475.000000	65.627598 
4474.000000	65.020942 
4473.000000	64.535403 
4472.000000	64.177584 
4471.000000	63.924860 
4470.000000	63.737082 
4469.000000	63.569808 
4468.000000	63.388872 
4467.000000	63.173413 
4466.000000	62.923121 
4465.000000	62.653660 
4464.000000	62.390565 
4463.000000	62.173366 
4462.000000	62.023925 
4461.000000	61.956095 
4460.000000	61.930847 
4459.000000	61.864686 
4458.000000	61.623716 
4457.000000	61.042523 
4456.000000	59.985637 
4455.000000	58.366513 
4454.000000	56.236577 
4453.000000	53.764414 
4452.000000	51.279473 
4451.000000	49.198865 
4450.000000	47.967505 
4449.000000	47.948122 
4448.000000	49.331140 
4447.000000	52.071595 
4446.000000	55.876827 
4445.000000	60.253596 
4444.000000	64.610004 
4443.000000	68.376183 
4442.000000	71.123290 
4441.000000	72.641396 
4440.000000	72.953891 
4439.000000	72.285485 
4438.000000	70.987582 
4437.000000	69.439721 
4436.000000	67.974448 
4435.000000	66.799950 
4434.000000	66.018939 
4433.000000	65.601015 
4432.000000	65.456819 
4431.000000	65.451979 
4430.000000	65.480279 
4429.000000	65.471601 
4428.000000	65.396571 
4427.000000	65.271139 
4426.000000	65.115880 
4425.000000	64.965820 
4424.000000	64.838385 
4423.000000	64.744877 
4422.000000	64.687919 
4421.000000	64.660739 
4420.000000	64.652347 
4419.000000	64.649248 
4418.000000	64.640331 
4417.000000	64.618277 
4416.000000	64.581990 
4415.000000	64.534211 
4414.000000	64.479875 
4413.000000	64.434671 
4412.000000	64.419031 
4411.000000	64.439463 
4410.000000	64.490389 
4409.000000	64.564466 
4408.000000	64.650607 
4407.000000	64.735317 
4406.000000	64.806556 
4405.000000	64.852380 
4404.000000	64.866948 
4403.000000	64.856219 
4402.000000	64.831805 
4401.000000	64.804887 
4400.000000	64.784955 
4399.000000	64.777326 
4398.000000	64.782142 
4397.000000	64.795708 
4396.000000	64.811515 
4395.000000	64.824438 
4394.000000	64.829564 
4393.000000	64.823675 
4392.000000	64.805698 
4391.000000	64.776492 
4390.000000	64.739489 
4389.000000	64.699578 
4388.000000	64.663505 
4387.000000	64.637994 
4386.000000	64.627814 
4385.000000	64.634370 
4384.000000	64.654350 
4383.000000	64.680576 
4382.000000	64.703178 
4381.000000	64.712786 
4380.000000	64.702701 
4379.000000	64.671444 
4378.000000	64.622592 
4377.000000	64.565277 
4376.000000	64.510798 
4375.000000	64.471364 
4374.000000	64.456939 
4373.000000	64.473128 
4372.000000	64.520025 
4371.000000	64.592218 
4370.000000	64.680266 
4369.000000	64.772462 
4368.000000	64.857554 
4367.000000	64.926385 
4366.000000	64.973402 
4365.000000	64.996838 
4364.000000	64.998435 
4363.000000	64.982008 
4362.000000	64.952325 
4361.000000	64.914083 
4360.000000	64.871144 
4359.000000	64.826464 
4358.000000	64.782094 
4357.000000	64.739894 
4356.000000	64.701652 
4355.000000	64.669013 
4354.000000	64.643812 
4353.000000	64.627194 
4352.000000	64.620351 
4351.000000	64.624452 
4350.000000	64.640331 
4349.000000	64.668107 
4348.000000	64.706540 
4347.000000	64.752817 
4346.000000	64.802503 
4345.000000	64.849662 
4344.000000	64.888358 
4343.000000	64.913439 
4342.000000	64.922356 
4341.000000	64.915776 
4340.000000	64.897608 
4339.000000	64.874291 
4338.000000	64.853048 
4337.000000	64.840245 
4336.000000	64.839601 
4335.000000	64.851641 
4334.000000	64.873361 
4333.000000	64.899063 
4332.000000	64.922070 
4331.000000	64.935898 
4330.000000	64.936351 
4329.000000	64.921712 
4328.000000	64.892411 
4327.000000	64.850783 
4326.000000	64.800024 
4325.000000	64.743995 
4324.000000	64.686393 
4323.000000	64.630937 
4322.000000	64.581656 
4321.000000	64.542198 
4320.000000	64.515924 
4319.000000	64.505171 
4318.000000	64.510440 
4317.000000	64.530587 
4316.000000	64.562511 
4315.000000	64.602088 
4314.000000	64.644098 
4313.000000	64.684247 
4312.000000	64.719533 
4311.000000	64.748859 
4310.000000	64.772725 
4309.000000	64.792847 
4308.000000	64.811086 
4307.000000	64.828896 
4306.000000	64.846801 
4305.000000	64.864110 
4304.000000	64.879226 
4303.000000	64.890885 
4302.000000	64.898133 
4301.000000	64.901018 
4300.000000	64.900445 
4299.000000	64.897894 
4298.000000	64.895033 
4297.000000	64.893174 
4296.000000	64.892840 
4295.000000	64.893889 
4294.000000	64.895057 
4293.000000	64.894843 
4292.000000	64.891409 
4291.000000	64.883494 
4290.000000	64.870333 
4289.000000	64.851903 
4288.000000	64.829230 
4287.000000	64.803743 
4286.000000	64.778065 
4285.000000	64.755511 
4284.000000	64.739847 
4283.000000	64.734411 
4282.000000	64.741730 
4281.000000	64.762973 
4280.000000	64.797306 
4279.000000	64.841842 
4278.000000	64.892196 
4277.000000	64.943337 
4276.000000	64.990305 
4275.000000	65.029001 
4274.000000	65.056562 
4273.000000	65.071463 
4272.000000	65.073680 
4271.000000	65.064144 
4270.000000	65.044736 
4269.000000	65.017437 
4268.000000	64.984846 
4267.000000	64.948868 
4266.000000	64.911365 
4265.000000	64.872980 
4264.000000	64.834547 
4263.000000	64.795851 
4262.000000	64.756345 
4261.000000	64.715242 
4260.000000	64.671993 
4259.000000	64.626812 
4258.000000	64.581131 
4257.000000	64.537501 
4256.000000	64.499044 
4255.000000	64.469218 
4254.000000	64.450812 
4253.000000	64.445519 
4252.000000	64.453387 
4251.000000	64.472818 
4250.000000	64.500904 
4249.000000	64.533901 
4248.000000	64.568066 
4247.000000	64.599823 
4246.000000	64.626479 
4245.000000	64.645862 
4244.000000	64.657068 
4243.000000	64.660215 
4242.000000	64.656901 
4241.000000	64.649963 
4240.000000	64.643049 
4239.000000	64.640164 
4238.000000	64.644479 
4237.000000	64.658594 
4236.000000	64.682340 
4235.000000	64.713120 
4234.000000	64.745521 
4233.000000	64.772701 
4232.000000	64.787578 
4231.000000	64.784336 
4230.000000	64.760494 
4229.000000	64.717793 
4228.000000	64.662694 
4227.000000	64.605212 
4226.000000	64.557147 
4225.000000	64.529132 
4224.000000	64.528131 
4223.000000	64.555621 
4222.000000	64.607048 
4221.000000	64.672970 
4220.000000	64.741206 
4219.000000	64.800000 
4218.000000	64.840412 
4217.000000	64.858746 
4216.000000	64.856958 
4215.000000	64.841985 
4214.000000	64.823222 
4213.000000	64.810276 
4212.000000	64.810538 
4211.000000	64.827346 
4210.000000	64.859843 
4209.000000	64.903068 
4208.000000	64.950203 
4207.000000	64.993453 
4206.000000	65.026688 
4205.000000	65.045499 
4204.000000	65.047931 
4203.000000	65.034151 
4202.000000	65.005803 
4201.000000	64.965939 
4200.000000	64.918589 
4199.000000	64.868545 
4198.000000	64.820885 
4197.000000	64.780497 
4196.000000	64.751338 
4195.000000	64.736175 
4194.000000	64.736008 
4193.000000	64.749622 
4192.000000	64.774155 
4191.000000	64.805436 
4190.000000	64.838671 
4189.000000	64.869356 
4188.000000	64.893865 
4187.000000	64.909553 
4186.000000	64.915275 
4185.000000	64.911437 
4184.000000	64.899468 
4183.000000	64.881491 
4182.000000	64.859676 
4181.000000	64.836359 
4180.000000	64.813423 
4179.000000	64.792442 
4178.000000	64.774298 
4177.000000	64.759469 
4176.000000	64.747738 
4175.000000	64.738416 
4174.000000	64.730739 
4173.000000	64.723873 
4172.000000	64.717483 
4171.000000	64.711713 
4170.000000	64.707279 
4169.000000	64.705276 
4168.000000	64.707088 
4167.000000	64.714050 
4166.000000	64.726948 
4165.000000	64.745783 
4164.000000	64.769792 
4163.000000	64.796900 
4162.000000	64.824318 
4161.000000	64.848518 
4160.000000	64.866018 
4159.000000	64.873528 
4158.000000	64.869046 
4157.000000	64.851713 
4156.000000	64.822316 
4155.000000	64.782881 
4154.000000	64.736628 
4153.000000	64.687514 
4152.000000	64.639830 
4151.000000	64.597749 
4150.000000	64.564800 
4149.000000	64.543890 
4148.000000	64.537024 
4147.000000	64.544892 
4146.000000	64.566779 
4145.000000	64.600563 
4144.000000	64.642977 
4143.000000	64.689660 
4142.000000	64.735746 
4141.000000	64.776515 
4140.000000	64.808249 
4139.000000	64.828634 
4138.000000	64.837241 
4137.000000	64.835405 
4136.000000	64.825773 
4135.000000	64.811992 
4134.000000	64.797282 
4133.000000	64.784264 
4132.000000	64.774107 
4131.000000	64.766955 
4130.000000	64.761686 
4129.000000	64.756631 
4128.000000	64.750313 
4127.000000	64.742255 
4126.000000	64.733290 
4125.000000	64.725136 
4124.000000	64.720678 
4123.000000	64.722847 
4122.000000	64.734482 
4121.000000	64.757609 
4120.000000	64.792966 
4119.000000	64.839816 
4118.000000	64.896249 
4117.000000	64.959263 
4116.000000	65.024900 
4115.000000	65.088772 
4114.000000	65.146517 
4113.000000	65.193963 
4112.000000	65.227866 
4111.000000	65.246033 
4110.000000	65.247917 
4109.000000	65.234136 
4108.000000	65.207266 
4107.000000	65.170311 
4106.000000	65.127277 
4105.000000	65.081524 
4104.000000	65.035820 
4103.000000	64.991950 
4102.000000	64.950704 
4101.000000	64.912772 
4100.000000	64.878892 
4099.000000	64.850926 
4098.000000	64.831209 
4097.000000	64.822745 
4096.000000	64.828372 
4095.000000	64.849734 
4094.000000	64.886283 
4093.000000	64.935016 
4092.000000	64.990806 
4091.000000	65.046858 
4090.000000	65.096259 
4089.000000	65.133428 
4088.000000	65.155339 
4087.000000	65.161967 
4086.000000	65.156126 
4085.000000	65.142798 
4084.000000	65.127778 
4083.000000	65.116143 
4082.000000	65.111136 
4081.000000	65.114259 
4080.000000	65.124344 
4079.000000	65.138936 
4078.000000	65.153932 
4077.000000	65.165638 
4076.000000	65.170621 
4075.000000	65.166544 
4074.000000	65.152573 
4073.000000	65.129160 
4072.000000	65.098214 
4071.000000	65.062713 
4070.000000	65.026283 
4069.000000	64.992547 
4068.000000	64.964723 
4067.000000	64.945268 
4066.000000	64.935111 
4065.000000	64.933657 
4064.000000	64.939093 
4063.000000	64.948987 
4062.000000	64.961123 
4061.000000	64.974093 
4060.000000	64.987587 
4059.000000	65.001893 
4058.000000	65.017986 
4057.000000	65.036106 
4056.000000	65.055298 
4055.000000	65.072751 
4054.000000	65.084505 
4053.000000	65.085887 
4052.000000	65.073060 
4051.000000	65.043830 
4050.000000	64.998698 
4049.000000	64.940810 
4048.000000	64.875721 
4047.000000	64.810442 
4046.000000	64.751911 
4045.000000	64.706063 
4044.000000	64.676356 
4043.000000	64.664244 
4042.000000	64.669179 
4041.000000	64.689350 
4040.000000	64.722204 
4039.000000	64.764595 
4038.000000	64.813137 
4037.000000	64.864015 
4036.000000	64.913082 
4035.000000	64.956140 
4034.000000	64.989089 
4033.000000	65.008640 
4032.000000	65.012836 
4031.000000	65.001583 
4030.000000	64.976835 
4029.000000	64.942646 
4028.000000	64.904189 
4027.000000	64.867377 
4026.000000	64.837503 
4025.000000	64.818716 
4024.000000	64.812898 
4023.000000	64.819765 
4022.000000	64.836597 
4021.000000	64.858984 
4020.000000	64.881753 
4019.000000	64.899730 
4018.000000	64.909195 
4017.000000	64.907932 
4016.000000	64.896416 
4015.000000	64.877319 
4014.000000	64.855241 
4013.000000	64.835429 
4012.000000	64.822459 
4011.000000	64.819192 
4010.000000	64.826035 
4009.000000	64.840912 
4008.000000	64.860153 
4007.000000	64.879560 
4006.000000	64.895653 
4005.000000	64.906501 
4004.000000	64.911985 
4003.000000	64.913988 
4002.000000	64.915299 
4001.000000	64.918947 
4000.000000	64.927268 
3999.000000	64.940929 
3998.000000	64.959406 
3997.000000	64.980173 
3996.000000	64.999842 
3995.000000	65.014076 
3994.000000	65.019178 
3993.000000	65.012311 
3992.000000	64.991974 
3991.000000	64.958453 
3990.000000	64.913654 
3989.000000	64.861130 
3988.000000	64.805579 
3987.000000	64.752173 
3986.000000	64.705824 
3985.000000	64.670252 
3984.000000	64.647293 
3983.000000	64.636945 
3982.000000	64.637613 
3981.000000	64.646816 
3980.000000	64.662313 
3979.000000	64.682507 
3978.000000	64.707016 
3977.000000	64.736676 
3976.000000	64.772605 
3975.000000	64.815497 
3974.000000	64.864730 
3973.000000	64.918279 
3972.000000	64.972352 
3971.000000	65.022325 
3970.000000	65.063118 
3969.000000	65.090680 
3968.000000	65.102481 
3967.000000	65.098309 
3966.000000	65.080404 
3965.000000	65.053081 
3964.000000	65.021991 
3963.000000	64.992904 
3962.000000	64.971280 
3961.000000	64.961361 
3960.000000	64.965724 
3959.000000	64.984941 
3958.000000	65.017390 
3957.000000	65.059447 
3956.000000	65.106129 
3955.000000	65.151834 
3954.000000	65.190958 
3953.000000	65.219020 
3952.000000	65.233230 
3951.000000	65.233159 
3950.000000	65.220618 
3949.000000	65.199351 
3948.000000	65.174341 
3947.000000	65.150928 
3946.000000	65.134048 
3945.000000	65.126848 
3944.000000	65.130686 
3943.000000	65.143942 
3942.000000	65.163207 
3941.000000	65.182852 
3940.000000	65.196466 
3939.000000	65.198111 
3938.000000	65.183639 
3937.000000	65.151476 
3936.000000	65.102720 
3935.000000	65.041518 
3934.000000	64.974141 
3933.000000	64.907717 
3932.000000	64.848947 
3931.000000	64.802837 
3930.000000	64.771890 
3929.000000	64.756011 
3928.000000	64.753031 
3927.000000	64.759540 
3926.000000	64.772057 
3925.000000	64.787578 
3924.000000	64.804506 
3923.000000	64.822340 
3922.000000	64.841723 
3921.000000	64.862966 
3920.000000	64.886212 
3919.000000	64.910602 
3918.000000	64.934349 
3917.000000	64.955472 
3916.000000	64.971709 
3915.000000	64.981627 
3914.000000	64.984345 
3913.000000	64.980411 
3912.000000	64.970636 
3911.000000	64.956212 
3910.000000	64.937829 
3909.000000	64.915919 
3908.000000	64.890766 
3907.000000	64.862608 
3906.000000	64.832592 
3905.000000	64.802885 
3904.000000	64.776563 
3903.000000	64.757132 
3902.000000	64.747881 
3901.000000	64.751005 
3900.000000	64.766407 
3899.000000	64.791798 
3898.000000	64.822816 
3897.000000	64.854240 
3896.000000	64.880967 
3895.000000	64.899682 
3894.000000	64.909005 
3893.000000	64.910364 
3892.000000	64.907383 
3891.000000	64.904665 
3890.000000	64.906644 
3889.000000	64.915966 
3888.000000	64.932966 
3887.000000	64.955401 
3886.000000	64.979600 
3885.000000	65.000987 
3884.000000	65.015721 
3883.000000	65.021419 
3882.000000	65.017914 
3881.000000	65.006732 
3880.000000	64.990496 
3879.000000	64.971971 
3878.000000	64.953470 
3877.000000	64.936256 
3876.000000	64.920711 
3875.000000	64.906835 
3874.000000	64.894533 
3873.000000	64.884257 
3872.000000	64.876794 
3871.000000	64.872932 
3870.000000	64.873242 
3869.000000	64.877176 
3868.000000	64.883399 
3867.000000	64.889550 
3866.000000	64.893317 
3865.000000	64.893102 
3864.000000	64.889049 
3863.000000	64.882993 
3862.000000	64.878368 
3861.000000	64.879226 
3860.000000	64.889097 
3859.000000	64.909672 
3858.000000	64.939975 
3857.000000	64.976263 
3856.000000	65.012836 
3855.000000	65.043330 
3854.000000	65.062260 
3853.000000	65.066599 
3852.000000	65.056133 
3851.000000	65.033555 
3850.000000	65.003490 
3849.000000	64.971232 
3848.000000	64.941239 
3847.000000	64.916419 
3846.000000	64.897775 
3845.000000	64.884662 
3844.000000	64.875864 
3843.000000	64.870190 
3842.000000	64.866900 
3841.000000	64.866042 
3840.000000	64.867901 
3839.000000	64.873123 
3838.000000	64.881682 
3837.000000	64.893031 
3836.000000	64.906072 
3835.000000	64.919400 
3834.000000	64.931607 
3833.000000	64.941811 
3832.000000	64.949822 
3831.000000	64.956140 
3830.000000	64.961433 
3829.000000	64.966320 
3828.000000	64.970755 
3827.000000	64.973878 
3826.000000	64.974284 
3825.000000	64.970278 
3824.000000	64.960551 
3823.000000	64.944911 
3822.000000	64.924573 
3821.000000	64.902162 
3820.000000	64.881086 
3819.000000	64.864993 
3818.000000	64.856910 
3817.000000	64.858555 
3816.000000	64.869880 
3815.000000	64.888954 
3814.000000	64.912915 
3813.000000	64.938449 
3812.000000	64.963030 
3811.000000	64.985656 
3810.000000	65.006971 
3809.000000	65.028786 
3808.000000	65.053057 
3807.000000	65.081262 
3806.000000	65.113019 
3805.000000	65.145897 
3804.000000	65.175938 
3803.000000	65.198874 
3802.000000	65.211009 
3801.000000	65.210604 
3800.000000	65.198111 
3799.000000	65.176367 
3798.000000	65.149497 
3797.000000	65.122056 
3796.000000	65.097618 
3795.000000	65.078139 
3794.000000	65.063643 
3793.000000	65.052700 
3792.000000	65.043091 
3791.000000	65.032768 
3790.000000	65.020680 
3789.000000	65.007138 
3788.000000	64.993381 
3787.000000	64.981174 
3786.000000	64.972019 
3785.000000	64.966511 
3784.000000	64.964103 
3783.000000	64.962911 
3782.000000	64.960598 
3781.000000	64.954662 
3780.000000	64.943265 
3779.000000	64.925527 
3778.000000	64.901757 
3777.000000	64.873409 
3776.000000	64.842534 
3775.000000	64.811706 
3774.000000	64.783215 
3773.000000	64.759135 
3772.000000	64.740943 
3771.000000	64.729595 
3770.000000	64.725542 
3769.000000	64.728760 
3768.000000	64.738941 
3767.000000	64.755415 
3766.000000	64.777231 
3765.000000	64.802932 
3764.000000	64.830923 
3763.000000	64.859437 
3762.000000	64.886951 
3761.000000	64.912390 
3760.000000	64.935374 
3759.000000	64.956045 
3758.000000	64.975190 
3757.000000	64.993619 
3756.000000	65.012168 
3755.000000	65.031409 
3754.000000	65.051269 
3753.000000	65.071272 
3752.000000	65.090489 
3751.000000	65.108108 
3750.000000	65.123248 
3749.000000	65.135312 
3748.000000	65.143918 
3747.000000	65.148973 
3746.000000	65.150666 
3745.000000	65.149354 
3744.000000	65.145707 
3743.000000	65.140509 
3742.000000	65.134572 
3741.000000	65.128469 
3740.000000	65.122699 
3739.000000	65.117335 
3738.000000	65.111780 
3737.000000	65.104937 
3736.000000	65.095376 
3735.000000	65.081787 
3734.000000	65.063405 
3733.000000	65.040469 
3732.000000	65.014100 
3731.000000	64.986658 
3730.000000	64.960932 
3729.000000	64.939904 
3728.000000	64.925646 
3727.000000	64.919185 
3726.000000	64.920186 
3725.000000	64.927005 
3724.000000	64.936971 
3723.000000	64.947009 
3722.000000	64.954376 
3721.000000	64.957165 
3720.000000	64.954328 
3719.000000	64.946293 
3718.000000	64.934420 
3717.000000	64.920973 
3716.000000	64.908385 
3715.000000	64.899158 
3714.000000	64.895296 
3713.000000	64.898180 
3712.000000	64.908313 
3711.000000	64.925265 
3710.000000	64.947772 
3709.000000	64.974045 
3708.000000	65.001940 
3707.000000	65.029239 
3706.000000	65.053844 
3705.000000	65.074348 
3704.000000	65.089988 
3703.000000	65.100622 
3702.000000	65.106606 
3701.000000	65.108704 
3700.000000	65.107560 
3699.000000	65.103793 
3698.000000	65.097713 
3697.000000	65.089607 
3696.000000	65.079903 
3695.000000	65.069508 
3694.000000	65.059733 
3693.000000	65.052342 
3692.000000	65.049052 
3691.000000	65.051031 
3690.000000	65.058493 
3689.000000	65.070533 
3688.000000	65.085268 
3687.000000	65.100312 
3686.000000	65.113544 
3685.000000	65.123772 
3684.000000	65.131235 
3683.000000	65.137624 
3682.000000	65.145802 
3681.000000	65.158700 
3680.000000	65.178346 
3679.000000	65.204906 
3678.000000	65.236401 
3677.000000	65.268540 
3676.000000	65.296030 
3675.000000	65.313196 
3674.000000	65.315794 
3673.000000	65.301465 
3672.000000	65.270471 
3671.000000	65.225529 
3670.000000	65.171456 
3669.000000	65.114212 
3668.000000	65.059947 
3667.000000	65.013790 
3666.000000	64.979624 
3665.000000	64.959001 
3664.000000	64.951443 
3663.000000	64.954495 
3662.000000	64.964413 
3661.000000	64.977097 
3660.000000	64.988827 
3659.000000	64.996933 
3658.000000	65.000391 
3657.000000	64.999866 
3656.000000	64.997386 
3655.000000	64.995574 
3654.000000	64.996814 
3653.000000	65.002655 
3652.000000	65.013432 
3651.000000	65.027809 
3650.000000	65.043687 
3649.000000	65.059041 
3648.000000	65.072536 
3647.000000	65.084147 
3646.000000	65.095090 
3645.000000	65.107202 
3644.000000	65.122342 
3643.000000	65.141510 
3642.000000	65.164256 
3641.000000	65.188717 
3640.000000	65.212059 
3639.000000	65.231323 
3638.000000	65.244197 
3637.000000	65.249633 
3636.000000	65.248537 
3635.000000	65.243482 
3634.000000	65.237998 
3633.000000	65.235614 
3632.000000	65.238809 
3631.000000	65.248394 
3630.000000	65.263128 
3629.000000	65.279769 
3628.000000	65.293741 
3627.000000	65.300250 
3626.000000	65.295338 
3625.000000	65.277099 
3624.000000	65.245652 
3623.000000	65.203738 
3622.000000	65.155982 
3621.000000	65.108418 
3620.000000	65.067028 
3619.000000	65.036892 
3618.000000	65.021586 
3617.000000	65.022182 
3616.000000	65.037536 
3615.000000	65.064263 
3614.000000	65.097618 
3613.000000	65.132451 
3612.000000	65.163755 
3611.000000	65.187907 
3610.000000	65.202951 
3609.000000	65.208935 
3608.000000	65.207219 
3607.000000	65.200209 
3606.000000	65.190505 
3605.000000	65.180277 
3604.000000	65.170717 
3603.000000	65.161728 
3602.000000	65.151977 
3601.000000	65.139651 
3600.000000	65.123105 
3599.000000	65.101122 
3598.000000	65.073609 
3597.000000	65.041565 
3596.000000	65.006971 
3595.000000	64.972400 
3594.000000	64.940524 
3593.000000	64.913535 
3592.000000	64.893031 
3591.000000	64.879631 
3590.000000	64.873242 
3589.000000	64.873266 
3588.000000	64.878320 
3587.000000	64.886379 
3586.000000	64.895009 
3585.000000	64.901447 
3584.000000	64.903378 
3583.000000	64.899230 
3582.000000	64.888763 
3581.000000	64.873099 
3580.000000	64.854907 
3579.000000	64.838004 
3578.000000	64.826607 
3577.000000	64.824390 
3576.000000	64.833498 
3575.000000	64.853858 
3574.000000	64.883160 
3573.000000	64.917349 
3572.000000	64.951276 
3571.000000	64.979863 
3570.000000	64.999246 
3569.000000	65.007734 
3568.000000	65.005660 
3567.000000	64.995408 
3566.000000	64.980769 
3565.000000	64.966106 
3564.000000	64.955258 
3563.000000	64.950656 
3562.000000	64.953517 
3561.000000	64.962887 
3560.000000	64.976334 
3559.000000	64.990353 
3558.000000	65.001273 
3557.000000	65.006160 
3556.000000	65.003657 
3555.000000	64.994025 
3554.000000	64.979219 
3553.000000	64.962530 
3552.000000	64.947891 
3551.000000	64.938950 
3550.000000	64.938211 
3549.000000	64.946460 
3548.000000	64.962601 
3547.000000	64.984035 
3546.000000	65.007257 
3545.000000	65.028572 
3544.000000	65.045022 
3543.000000	65.054798 
3542.000000	65.057492 
3541.000000	65.053772 
3540.000000	65.045189 
3539.000000	65.033531 
3538.000000	65.020537 
3537.000000	65.007996 
3536.000000	64.997029 
3535.000000	64.988780 
3534.000000	64.983344 
3533.000000	64.980196 
3532.000000	64.977788 
3531.000000	64.974021 
3530.000000	64.966511 
3529.000000	64.953351 
3528.000000	64.933514 
3527.000000	64.907383 
3526.000000	64.876770 
3525.000000	64.844918 
3524.000000	64.815497 
3523.000000	64.792180 
3522.000000	64.777827 
3521.000000	64.774084 
3520.000000	64.781045 
3519.000000	64.797377 
3518.000000	64.820766 
3517.000000	64.848613 
3516.000000	64.878153 
3515.000000	64.907288 
3514.000000	64.934635 
3513.000000	64.959383 
3512.000000	64.981174 
3511.000000	64.999938 
3510.000000	65.015435 
3509.000000	65.027523 
3508.000000	65.036010 
3507.000000	65.040564 
3506.000000	65.041041 
3505.000000	65.037202 
3504.000000	65.029287 
3503.000000	65.017724 
3502.000000	65.003395 
3501.000000	64.987206 
3500.000000	64.970326 
3499.000000	64.953851 
3498.000000	64.938664 
3497.000000	64.925456 
3496.000000	64.914703 
3495.000000	64.906668 
3494.000000	64.901399 
3493.000000	64.898967 
3492.000000	64.899182 
3491.000000	64.901804 
3490.000000	64.906358 
3489.000000	64.912128 
3488.000000	64.918279 
3487.000000	64.924097 
3486.000000	64.929151 
3485.000000	64.933037 
3484.000000	64.935898 
3483.000000	64.938092 
3482.000000	64.940047 
3481.000000	64.942002 
3480.000000	64.943766 
3479.000000	64.944744 
3478.000000	64.943933 
3477.000000	64.940118 
3476.000000	64.932394 
3475.000000	64.920568 
3474.000000	64.905405 
3473.000000	64.888548 
3472.000000	64.872384 
3471.000000	64.859366 
3470.000000	64.851427 
3469.000000	64.849519 
3468.000000	64.853191 
3467.000000	64.860701 
3466.000000	64.869403 
3465.000000	64.876675 
3464.000000	64.880418 
3463.000000	64.879655 
3462.000000	64.874887 
3461.000000	64.868116 
3460.000000	64.862060 
3459.000000	64.859318 
3458.000000	64.861893 
3457.000000	64.870119 
3456.000000	64.882850 
3455.000000	64.897346 
3454.000000	64.910197 
3453.000000	64.918088 
3452.000000	64.918947 
3451.000000	64.912176 
3450.000000	64.899086 
3449.000000	64.882469 
3448.000000	64.865708 
3447.000000	64.851999 
3446.000000	64.843583 
3445.000000	64.841151 
3444.000000	64.843702 
3443.000000	64.849424 
3442.000000	64.855980 
3441.000000	64.861416 
3440.000000	64.864635 
3439.000000	64.865708 
3438.000000	64.865946 
3437.000000	64.867138 
3436.000000	64.870953 
3435.000000	64.878511 
3434.000000	64.889836 
3433.000000	64.904022 
3432.000000	64.919209 
3431.000000	64.933228 
3430.000000	64.943766 
3429.000000	64.949154 
3428.000000	64.948415 
3427.000000	64.941406 
3426.000000	64.928746 
3425.000000	64.911913 
3424.000000	64.892721 
3423.000000	64.873266 
3422.000000	64.855551 
3421.000000	64.841270 
3420.000000	64.831805 
3419.000000	64.828038 
3418.000000	64.830279 
3417.000000	64.838314 
3416.000000	64.851665 
3415.000000	64.869570 
3414.000000	64.891266 
3413.000000	64.915752 
3412.000000	64.942193 
3411.000000	64.969563 
3410.000000	64.996695 
3409.000000	65.022039 
3408.000000	65.043830 
3407.000000	65.060114 
3406.000000	65.069127 
3405.000000	65.069222 
3404.000000	65.059757 
3403.000000	65.040779 
3402.000000	65.013241 
3401.000000	64.978981 
3400.000000	64.940571 
3399.000000	64.901065 
3398.000000	64.863729 
3397.000000	64.831852 
3396.000000	64.808201 
3395.000000	64.795160 
3394.000000	64.793968 
3393.000000	64.804863 
3392.000000	64.826750 
3391.000000	64.857339 
3390.000000	64.893293 
3389.000000	64.930677 
3388.000000	64.965486 
3387.000000	64.994406 
3386.000000	65.015196 
3385.000000	65.027284 
3384.000000	65.031361 
3383.000000	65.029382 
3382.000000	65.023875 
3381.000000	65.017271 
3380.000000	65.011525 
3379.000000	65.007948 
3378.000000	65.006828 
3377.000000	65.008139 
3376.000000	65.011191 
3375.000000	65.015578 
3374.000000	65.020775 
3373.000000	65.026760 
3372.000000	65.033340 
3371.000000	65.040302 
3370.000000	65.047192 
3369.000000	65.053343 
3368.000000	65.057873 
3367.000000	65.059709 
3366.000000	65.058040 
3365.000000	65.052723 
3364.000000	65.044188 
3363.000000	65.033388 
3362.000000	65.021681 
3361.000000	65.010666 
3360.000000	65.002131 
3359.000000	64.997649 
3358.000000	64.998221 
3357.000000	65.004181 
3356.000000	65.015339 
3355.000000	65.030527 
3354.000000	65.048050 
3353.000000	65.065479 
3352.000000	65.080142 
3351.000000	65.089464 
3350.000000	65.091419 
3349.000000	65.084934 
3348.000000	65.070104 
3347.000000	65.048313 
3346.000000	65.022087 
3345.000000	64.994978 
3344.000000	64.970922 
3343.000000	64.953732 
3342.000000	64.946484 
3341.000000	64.950990 
3340.000000	64.967560 
3339.000000	64.994978 
3338.000000	65.030503 
3337.000000	65.070343 
3336.000000	65.110039 
3335.000000	65.145111 
3334.000000	65.171504 
3333.000000	65.186119 
3332.000000	65.187191 
3331.000000	65.174484 
3330.000000	65.149497 
3329.000000	65.115332 
3328.000000	65.076160 
3327.000000	65.036916 
3326.000000	65.002250 
3325.000000	64.975953 
3324.000000	64.960074 
3323.000000	64.954876 
3322.000000	64.958667 
3321.000000	64.968442 
3320.000000	64.980554 
3319.000000	64.991354 
3318.000000	64.998292 
3317.000000	65.000057 
3316.000000	64.996862 
3315.000000	64.990115 
3314.000000	64.981913 
3313.000000	64.974308 
3312.000000	64.969038 
3311.000000	64.967226 
3310.000000	64.969110 
3309.000000	64.974498 
3308.000000	64.982748 
3307.000000	64.993047 
3306.000000	65.004420 
3305.000000	65.015769 
3304.000000	65.025663 
3303.000000	65.032553 
3302.000000	65.035104 
3301.000000	65.032386 
3300.000000	65.024209 
3299.000000	65.011548 
3298.000000	64.996409 
3297.000000	64.981603 
3296.000000	64.970374 
3295.000000	64.965295 
3294.000000	64.967823 
3293.000000	64.977741 
3292.000000	64.993238 
3291.000000	65.011239 
3290.000000	65.028190 
3289.000000	65.040922 
3288.000000	65.047335 
3287.000000	65.046787 
3286.000000	65.039992 
3285.000000	65.028810 
3284.000000	65.015435 
3283.000000	65.002202 
3282.000000	64.990949 
3281.000000	64.982795 
3280.000000	64.977931 
3279.000000	64.975881 
3278.000000	64.975476 
3277.000000	64.975237 
3276.000000	64.973521 
3275.000000	64.968848 
3274.000000	64.960384 
3273.000000	64.947700 
3272.000000	64.931249 
3271.000000	64.912295 
3270.000000	64.892792 
3269.000000	64.875030 
3268.000000	64.861249 
3267.000000	64.853119 
3266.000000	64.851689 
3265.000000	64.856934 
3264.000000	64.868474 
3263.000000	64.885258 
3262.000000	64.906263 
3261.000000	64.930653 
3260.000000	64.957594 
3259.000000	64.986205 
3258.000000	65.015006 
3257.000000	65.042042 
3256.000000	65.064644 
3255.000000	65.079855 
3254.000000	65.084958 
3253.000000	65.078115 
3252.000000	65.058922 
3251.000000	65.028333 
3250.000000	64.989042 
3249.000000	64.944839 
3248.000000	64.899635 
3247.000000	64.856791 
3246.000000	64.818620 
3245.000000	64.786291 
3244.000000	64.760088 
3243.000000	64.739823 
3242.000000	64.725184 
3241.000000	64.716243 
3240.000000	64.713168 
3239.000000	64.716339 
3238.000000	64.725446 
3237.000000	64.739584 
3236.000000	64.756941 
3235.000000	64.775180 
3234.000000	64.791560 
3233.000000	64.803838 
3232.000000	64.810752 
3231.000000	64.812350 
3230.000000	64.809989 
3229.000000	64.805936 
3228.000000	64.802932 
3227.000000	64.803409 
3226.000000	64.808988 
3225.000000	64.820480 
3224.000000	64.837622 
3223.000000	64.859485 
3222.000000	64.884710 
3221.000000	64.911580 
3220.000000	64.938402 
3219.000000	64.963603 
3218.000000	64.985799 
3217.000000	65.003967 
3216.000000	65.017390 
3215.000000	65.025973 
3214.000000	65.030002 
3213.000000	65.030097 
3212.000000	65.026831 
3211.000000	65.021109 
3210.000000	65.013623 
3209.000000	65.005040 
3208.000000	64.995789 
3207.000000	64.986348 
3206.000000	64.977097 
3205.000000	64.968514 
3204.000000	64.961218 
3203.000000	64.955830 
3202.000000	64.952993 
3201.000000	64.953136 
3200.000000	64.956259 
3199.000000	64.961671 
3198.000000	64.968252 
3197.000000	64.974474 
3196.000000	64.978456 
3195.000000	64.978408 
3194.000000	64.972901 
3193.000000	64.961457 
3192.000000	64.944386 
3191.000000	64.923071 
3190.000000	64.899873 
3189.000000	64.877772 
3188.000000	64.859652 
3187.000000	64.847755 
3186.000000	64.843416 
3185.000000	64.846420 
3184.000000	64.855194 
3183.000000	64.867520 
3182.000000	64.880800 
3181.000000	64.893078 
3180.000000	64.903354 
3179.000000	64.911842 
3178.000000	64.919805 
3177.000000	64.928865 
3176.000000	64.940404 
3175.000000	64.954805 
3174.000000	64.970946 
3173.000000	64.986538 
3172.000000	64.998435 
3171.000000	65.003681 
3170.000000	65.000414 
3169.000000	64.988613 
3168.000000	64.970135 
3167.000000	64.948463 
3166.000000	64.927792 
3165.000000	64.912033 
3164.000000	64.903903 
3163.000000	64.904332 
3162.000000	64.912390 
3161.000000	64.925789 
3160.000000	64.941334 
3159.000000	64.955830 
3158.000000	64.966821 
3157.000000	64.973115 
3156.000000	64.974784 
3155.000000	64.972877 
3154.000000	64.968848 
3153.000000	64.964175 
3152.000000	64.959812 
3151.000000	64.955735 
3150.000000	64.950871 
3149.000000	64.943766 
3148.000000	64.932823 
3147.000000	64.917087 
3146.000000	64.896488 
3145.000000	64.872193 
3144.000000	64.846563 
3143.000000	64.822721 
3142.000000	64.803934 
3141.000000	64.793014 
3140.000000	64.791607 
3139.000000	64.799904 
3138.000000	64.816522 
3137.000000	64.838695 
3136.000000	64.862871 
3135.000000	64.885568 
3134.000000	64.903950 
3133.000000	64.916610 
3132.000000	64.923429 
3131.000000	64.925575 
3130.000000	64.925312 
3129.000000	64.924979 
3128.000000	64.926791 
3127.000000	64.931750 
3126.000000	64.939808 
3125.000000	64.949512 
3124.000000	64.958500 
3123.000000	64.964008 
3122.000000	64.963769 
3121.000000	64.956474 
3120.000000	64.942240 
3119.000000	64.922618 
3118.000000	64.900326 
3117.000000	64.878726 
3116.000000	64.860963 
3115.000000	64.849543 
3114.000000	64.845824 
3113.000000	64.849781 
3112.000000	64.860272 
3111.000000	64.875531 
3110.000000	64.893555 
3109.000000	64.912533 
3108.000000	64.931106 
3107.000000	64.948534 
3106.000000	64.964342 
3105.000000	64.978241 
3104.000000	64.989924 
3103.000000	64.998912 
3102.000000	65.004634 
3101.000000	65.006947 
3100.000000	65.006017 
3099.000000	65.002584 
3098.000000	64.997649 
3097.000000	64.992451 
3096.000000	64.987778 
3095.000000	64.983987 
3094.000000	64.980530 
3093.000000	64.976334 
3092.000000	64.969921 
3091.000000	64.960098 
3090.000000	64.946246 
3089.000000	64.928865 
3088.000000	64.909505 
3087.000000	64.890456 
3086.000000	64.874172 
3085.000000	64.863014 
3084.000000	64.858341 
3083.000000	64.860653 
3082.000000	64.869356 
3081.000000	64.883112 
3080.000000	64.900279 
3079.000000	64.919185 
3078.000000	64.938282 
3077.000000	64.956521 
3076.000000	64.973044 
3075.000000	64.987134 
3074.000000	64.998245 
3073.000000	65.005779 
3072.000000	65.009427 
3071.000000	65.009069 
3070.000000	65.004777 
3069.000000	64.997005 
3068.000000	64.986610 
3067.000000	64.974379 
3066.000000	64.960908 
3065.000000	64.946556 
3064.000000	64.931368 
3063.000000	64.915108 
3062.000000	64.897632 
3061.000000	64.878797 
3060.000000	64.858984 
3059.000000	64.838814 
3058.000000	64.819288 
3057.000000	64.801478 
3056.000000	64.786505 
3055.000000	64.775085 
3054.000000	64.767646 
3053.000000	64.764142 
3052.000000	64.764380 
3051.000000	64.767742 
3050.000000	64.773893 
3049.000000	64.782238 
3048.000000	64.792823 
3047.000000	64.805865 
3046.000000	64.821982 
3045.000000	64.841747 
3044.000000	64.865589 
3043.000000	64.893555 
3042.000000	64.925050 
3041.000000	64.958763 
3040.000000	64.992475 
3039.000000	65.023517 
3038.000000	65.049004 
3037.000000	65.066480 
3036.000000	65.074157 
3035.000000	65.071463 
3034.000000	65.059208 
3033.000000	65.039563 
3032.000000	65.015673 
3031.000000	64.991092 
3030.000000	64.969444 
3029.000000	64.953279 
3028.000000	64.944291 
3027.000000	64.942598 
3026.000000	64.947175 
3025.000000	64.955997 
3024.000000	64.966726 
3023.000000	64.977169 
3022.000000	64.985561 
3021.000000	64.990949 
3020.000000	64.993023 
3019.000000	64.992237 
3018.000000	64.989233 
3017.000000	64.984822 
3016.000000	64.979958 
3015.000000	64.975452 
3014.000000	64.972019 
3013.000000	64.970445 
3012.000000	64.971709 
3011.000000	64.976572 
3010.000000	64.985585 
3009.000000	64.998745 
3008.000000	65.015387 
3007.000000	65.034055 
3006.000000	65.052390 
3005.000000	65.067672 
3004.000000	65.077018 
3003.000000	65.078210 
3002.000000	65.070056 
3001.000000	65.052509 
3000.000000	65.026712 
2999.000000	64.994978 
2998.000000	64.960479 
2997.000000	64.926528 
2996.000000	64.896130 
2995.000000	64.871358 
2994.000000	64.853310 
2993.000000	64.842057 
2992.000000	64.836812 
2991.000000	64.836072 
2990.000000	64.838337 
2989.000000	64.842343 
2988.000000	64.847445 
2987.000000	64.853358 
2986.000000	64.860081 
2985.000000	64.867448 
2984.000000	64.875102 
2983.000000	64.882254 
2982.000000	64.887905 
2981.000000	64.891147 
2980.000000	64.891576 
2979.000000	64.889693 
2978.000000	64.886903 
2977.000000	64.885115 
2976.000000	64.886760 
2975.000000	64.893436 
2974.000000	64.905571 
2973.000000	64.921784 
2972.000000	64.939093 
2971.000000	64.953517 
2970.000000	64.960813 
2969.000000	64.957571 
2968.000000	64.942169 
2967.000000	64.915251 
2966.000000	64.879584 
2965.000000	64.839720 
2964.000000	64.800906 
2963.000000	64.768242 
2962.000000	64.745640 
2961.000000	64.735484 
2960.000000	64.737939 
2959.000000	64.751291 
2958.000000	64.772343 
2957.000000	64.797067 
2956.000000	64.821481 
2955.000000	64.842367 
2954.000000	64.858174 
2953.000000	64.868760 
2952.000000	64.875602 
2951.000000	64.881205 
2950.000000	64.888501 
2949.000000	64.900159 
2948.000000	64.917469 
2947.000000	64.940071 
2946.000000	64.965486 
2945.000000	64.990043 
2944.000000	65.009188 
2943.000000	65.018653 
2942.000000	65.015339 
2941.000000	64.998197 
2940.000000	64.968228 
2939.000000	64.928317 
2938.000000	64.882493 
2937.000000	64.835405 
2936.000000	64.791274 
2935.000000	64.753460 
2934.000000	64.724087 
2933.000000	64.704012 
2932.000000	64.692592 
2931.000000	64.688134 
2930.000000	64.688277 
2929.000000	64.690446 
2928.000000	64.692330 
2927.000000	64.692378 
2926.000000	64.689874 
2925.000000	64.685130 
2924.000000	64.679384 
2923.000000	64.674806 
2922.000000	64.673423 
2921.000000	64.677095 
2920.000000	64.686608 
2919.000000	64.701843 
2918.000000	64.721465 
2917.000000	64.743471 
2916.000000	64.765810 
2915.000000	64.786791 
2914.000000	64.805507 
2913.000000	64.821910 
2912.000000	64.836287 
2911.000000	64.849328 
2910.000000	64.861416 
2909.000000	64.872431 
2908.000000	64.881849 
2907.000000	64.888834 
2906.000000	64.892816 
2905.000000	64.893245 
2904.000000	64.889907 
2903.000000	64.882946 
2902.000000	64.873051 
2901.000000	64.860939 
2900.000000	64.847350 
2899.000000	64.832997 
2898.000000	64.818572 
2897.000000	64.804863 
2896.000000	64.792847 
2895.000000	64.783525 
2894.000000	64.777827 
2893.000000	64.776277 
2892.000000	64.779019 
2891.000000	64.785432 
2890.000000	64.794659 
2889.000000	64.805436 
2888.000000	64.816856 
2887.000000	64.828300 
2886.000000	64.839649 
2885.000000	64.851188 
2884.000000	64.863348 
2883.000000	64.876079 
2882.000000	64.889073 
2881.000000	64.901518 
2880.000000	64.912176 
2879.000000	64.919757 
2878.000000	64.923262 
2877.000000	64.922261 
2876.000000	64.916992 
2875.000000	64.908456 
2874.000000	64.897918 
2873.000000	64.886617 
2872.000000	64.875674 
2871.000000	64.865851 
2870.000000	64.857625 
2869.000000	64.851427 
2868.000000	64.847683 
2867.000000	64.847278 
2866.000000	64.851069 
2865.000000	64.859914 
2864.000000	64.874029 
2863.000000	64.892888 
2862.000000	64.914965 
2861.000000	64.937901 
2860.000000	64.958739 
2859.000000	64.974522 
2858.000000	64.982771 
2857.000000	64.981985 
2856.000000	64.972066 
2855.000000	64.954233 
2854.000000	64.931011 
2853.000000	64.905524 
2852.000000	64.880967 
2851.000000	64.860272 
2850.000000	64.845633 
2849.000000	64.838337 
2848.000000	64.838743 
2847.000000	64.846467 
2846.000000	64.860463 
2845.000000	64.879179 
2844.000000	64.900660 
2843.000000	64.922738 
2842.000000	64.943099 
2841.000000	64.959478 
2840.000000	64.969944 
2839.000000	64.973187 
2838.000000	64.968895 
2837.000000	64.957857 
2836.000000	64.942002 
2835.000000	64.924097 
2834.000000	64.907050 
2833.000000	64.893674 
2832.000000	64.885568 
2831.000000	64.882874 
2830.000000	64.884090 
2829.000000	64.886665 
2828.000000	64.887619 
2827.000000	64.884495 
2826.000000	64.876079 
2825.000000	64.862704 
2824.000000	64.846253 
2823.000000	64.829492 
2822.000000	64.815330 
2821.000000	64.805984 
2820.000000	64.802408 
2819.000000	64.803814 
2818.000000	64.808368 
2817.000000	64.813494 
2816.000000	64.816665 
2815.000000	64.816164 
2814.000000	64.811253 
2813.000000	64.802718 
2812.000000	64.792156 
2811.000000	64.781951 
2810.000000	64.774250 
2809.000000	64.770913 
2808.000000	64.773273 
2807.000000	64.782023 
2806.000000	64.797019 
2805.000000	64.817643 
2804.000000	64.842581 
2803.000000	64.869952 
2802.000000	64.897751 
2801.000000	64.923691 
2800.000000	64.945554 
2799.000000	64.961695 
2798.000000	64.971184 
2797.000000	64.973878 
2796.000000	64.970564 
2795.000000	64.962720 
2794.000000	64.952349 
2793.000000	64.941430 
2792.000000	64.931607 
2791.000000	64.924144 
2790.000000	64.919590 
2789.000000	64.918065 
2788.000000	64.919018 
2787.000000	64.921879 
2786.000000	64.925646 
2785.000000	64.929676 
2784.000000	64.933013 
2783.000000	64.934706 
2782.000000	64.933991 
2781.000000	64.930033 
2780.000000	64.922451 
2779.000000	64.911222 
2778.000000	64.896821 
2777.000000	64.880490 
2776.000000	64.863801 
2775.000000	64.848566 
2774.000000	64.836740 
2773.000000	64.829993 
2772.000000	64.829301 
2771.000000	64.834856 
2770.000000	64.845943 
2769.000000	64.860987 
2768.000000	64.877820 
2767.000000	64.894104 
2766.000000	64.907717 
2765.000000	64.917159 
2764.000000	64.921617 
2763.000000	64.921212 
2762.000000	64.916682 
2761.000000	64.909219 
2760.000000	64.900231 
2759.000000	64.891004 
2758.000000	64.882779 
2757.000000	64.876413 
2756.000000	64.872574 
2755.000000	64.871430 
2754.000000	64.872860 
2753.000000	64.876055 
2752.000000	64.879775 
2751.000000	64.882540 
2750.000000	64.882636 
2749.000000	64.878845 
2748.000000	64.870476 
2747.000000	64.858078 
2746.000000	64.843416 
2745.000000	64.829421 
2744.000000	64.819526 
2743.000000	64.816856 
2742.000000	64.823579 
2741.000000	64.840030 
2740.000000	64.864540 
2739.000000	64.893555 
2738.000000	64.922428 
2737.000000	64.946341 
2736.000000	64.961409 
2735.000000	64.965415 
2734.000000	64.958405 
2733.000000	64.942479 
2732.000000	64.921450 
2731.000000	64.899682 
2730.000000	64.881229 
2729.000000	64.869117 
2728.000000	64.864563 
2727.000000	64.867067 
2726.000000	64.874672 
2725.000000	64.884614 
2724.000000	64.894104 
2723.000000	64.901018 
2722.000000	64.904212 
2721.000000	64.903497 
2720.000000	64.899706 
2719.000000	64.894008 
2718.000000	64.887642 
2717.000000	64.881277 
2716.000000	64.875125 
2715.000000	64.869070 
2714.000000	64.862680 
2713.000000	64.855980 
2712.000000	64.849567 
2711.000000	64.844751 
2710.000000	64.843368 
2709.000000	64.847230 
2708.000000	64.857363 
2707.000000	64.873790 
2706.000000	64.894914 
2705.000000	64.918017 
2704.000000	64.939665 
2703.000000	64.956450 
2702.000000	64.965963 
2701.000000	64.967036 
2700.000000	64.960002 
2699.000000	64.946436 
2698.000000	64.928722 
2697.000000	64.909386 
2696.000000	64.890599 
2695.000000	64.873576 
2694.000000	64.858865 
2693.000000	64.846253 
2692.000000	64.835333 
2691.000000	64.825654 
2690.000000	64.817214 
2689.000000	64.810180 
2688.000000	64.804863 
2687.000000	64.801621 
2686.000000	64.800596 
2685.000000	64.801621 
2684.000000	64.804100 
2683.000000	64.807391 
2682.000000	64.810800 
2681.000000	64.813637 
2680.000000	64.815545 
2679.000000	64.816188 
2678.000000	64.815640 
2677.000000	64.813828 
2676.000000	64.810872 
2675.000000	64.806866 
2674.000000	64.801955 
2673.000000	64.796280 
2672.000000	64.790081 
2671.000000	64.783501 
2670.000000	64.776849 
2669.000000	64.770102 
2668.000000	64.763426 
2667.000000	64.756822 
2666.000000	64.750599 
2665.000000	64.745140 
2664.000000	64.741230 
2663.000000	64.739942 
2662.000000	64.742517 
2661.000000	64.749908 
2660.000000	64.762783 
2659.000000	64.781045 
2658.000000	64.803719 
2657.000000	64.829158 
2656.000000	64.855146 
2655.000000	64.879345 
2654.000000	64.899611 
2653.000000	64.914536 
2652.000000	64.923429 
2651.000000	64.926576 
2650.000000	64.925003 
2649.000000	64.920115 
2648.000000	64.913630 
2647.000000	64.906859 
2646.000000	64.900994 
2645.000000	64.896678 
2644.000000	64.894294 
2643.000000	64.893889 
2642.000000	64.895319 
2641.000000	64.898276 
2640.000000	64.902472 
2639.000000	64.907503 
2638.000000	64.912891 
2637.000000	64.918017 
2636.000000	64.922118 
2635.000000	64.924478 
2634.000000	64.924430 
2633.000000	64.921545 
2632.000000	64.915800 
2631.000000	64.907550 
2630.000000	64.897799 
2629.000000	64.887833 
2628.000000	64.878988 
2627.000000	64.872455 
2626.000000	64.868974 
2625.000000	64.868640 
2624.000000	64.870929 
2623.000000	64.874720 
2622.000000	64.878773 
2621.000000	64.881801 
2620.000000	64.883017 
2619.000000	64.882183 
2618.000000	64.879727 
2617.000000	64.876604 
2616.000000	64.873862 
2615.000000	64.872384 
2614.000000	64.872503 
2613.000000	64.873909 
2612.000000	64.875602 
2611.000000	64.876365 
2610.000000	64.874958 
2609.000000	64.870429 
2608.000000	64.862298 
2607.000000	64.850974 
2606.000000	64.837360 
2605.000000	64.822983 
2604.000000	64.809727 
2603.000000	64.799475 
2602.000000	64.794039 
2601.000000	64.794707 
2600.000000	64.802360 
2599.000000	64.817166 
2598.000000	64.838552 
2597.000000	64.865088 
2596.000000	64.894604 
2595.000000	64.924573 
2594.000000	64.952230 
2593.000000	64.975023 
2592.000000	64.991068 
2591.000000	64.999198 
2590.000000	64.999365 
2589.000000	64.992213 
2588.000000	64.979004 
2587.000000	64.961266 
2586.000000	64.940643 
2585.000000	64.918708 
2584.000000	64.896941 
2583.000000	64.876842 
2582.000000	64.860033 
2581.000000	64.848184 
2580.000000	64.842796 
2579.000000	64.844799 
2578.000000	64.854478 
2577.000000	64.870953 
2576.000000	64.892363 
2575.000000	64.915800 
2574.000000	64.937996 
2573.000000	64.955663 
2572.000000	64.966320 
2571.000000	64.968681 
2570.000000	64.962863 
2569.000000	64.950203 
2568.000000	64.932966 
2567.000000	64.913654 
2566.000000	64.894700 
2565.000000	64.878034 
2564.000000	64.864706 
2563.000000	64.855146 
2562.000000	64.849257 
2561.000000	64.846897 
2560.000000	64.847898 
2559.000000	64.852261 
2558.000000	64.859843 
2557.000000	64.870429 
2556.000000	64.883422 
2555.000000	64.897751 
2554.000000	64.911961 
2553.000000	64.924430 
2552.000000	64.933872 
2551.000000	64.939641 
2550.000000	64.941787 
2549.000000	64.941167 
2548.000000	64.939379 
2547.000000	64.938187 
2546.000000	64.939355 
2545.000000	64.944052 
2544.000000	64.953017 
2543.000000	64.966011 
2542.000000	64.982271 
2541.000000	65.000438 
2540.000000	65.019011 
2539.000000	65.036320 
2538.000000	65.051078 
2537.000000	65.062046 
2536.000000	65.068554 
2535.000000	65.069818 
2534.000000	65.065264 
2533.000000	65.054440 
2532.000000	65.037226 
2531.000000	65.014004 
2530.000000	64.985680 
2529.000000	64.953947 
2528.000000	64.920997 
2527.000000	64.889407 
2526.000000	64.861869 
2525.000000	64.840459 
2524.000000	64.826536 
2523.000000	64.820623 
2522.000000	64.822196 
2521.000000	64.830112 
2520.000000	64.842748 
2519.000000	64.858365 
2518.000000	64.875459 
2517.000000	64.892745 
2516.000000	64.909362 
2515.000000	64.924502 
2514.000000	64.937567 
2513.000000	64.948081 
2512.000000	64.955425 
2511.000000	64.959383 
2510.000000	64.959764 
2509.000000	64.956974 
2508.000000	64.951443 
2507.000000	64.944267 
2506.000000	64.936327 
2505.000000	64.928412 
2504.000000	64.920830 
2503.000000	64.913392 
2502.000000	64.905500 
2501.000000	64.896345 
2500.000000	64.885425 
2499.000000	64.872741 
2498.000000	64.859294 
2497.000000	64.846897 
2496.000000	64.837741 
2495.000000	64.834046 
2494.000000	64.837408 
2493.000000	64.848518 
2492.000000	64.866805 
2491.000000	64.890551 
2490.000000	64.917278 
2489.000000	64.944052 
2488.000000	64.968276 
2487.000000	64.987730 
2486.000000	65.001225 
2485.000000	65.008401 
2484.000000	65.009689 
2483.000000	65.006208 
2482.000000	64.999341 
2481.000000	64.990448 
2480.000000	64.980769 
2479.000000	64.971208 
2478.000000	64.962363 
2477.000000	64.954423 
2476.000000	64.947414 
2475.000000	64.941263 
2474.000000	64.935851 
2473.000000	64.931535 
2472.000000	64.928793 
2471.000000	64.928364 
2470.000000	64.930939 
2469.000000	64.936923 
2468.000000	64.946007 
2467.000000	64.957237 
2466.000000	64.968991 
2465.000000	64.979338 
2464.000000	64.986515 
2463.000000	64.989447 
2462.000000	64.987850 
2461.000000	64.982652 
2460.000000	64.975357 
2459.000000	64.967799 
2458.000000	64.961481 
2457.000000	64.957499 
2456.000000	64.955878 
2455.000000	64.955759 
2454.000000	64.955520 
2453.000000	64.953565 
2452.000000	64.948487 
2451.000000	64.939475 
2450.000000	64.926385 
2449.000000	64.909839 
2448.000000	64.890909 
2447.000000	64.870643 
2446.000000	64.850282 
2445.000000	64.830994 
2444.000000	64.813947 
2443.000000	64.800190 
2442.000000	64.790797 
2441.000000	64.786648 
2440.000000	64.788293 
2439.000000	64.795875 
2438.000000	64.808750 
2437.000000	64.825701 
2436.000000	64.844942 
2435.000000	64.864325 
2434.000000	64.881587 
2433.000000	64.895057 
2432.000000	64.903759 
2431.000000	64.907503 
2430.000000	64.906954 
2429.000000	64.903020 
2428.000000	64.897012 
2427.000000	64.889645 
2426.000000	64.881229 
2425.000000	64.871239 
2424.000000	64.858913 
2423.000000	64.843368 
2422.000000	64.824104 
2421.000000	64.801573 
2420.000000	64.776992 
2419.000000	64.752650 
2418.000000	64.731359 
2417.000000	64.715766 
2416.000000	64.707851 
2415.000000	64.708089 
2414.000000	64.715671 
2413.000000	64.728283 
2412.000000	64.743137 
2411.000000	64.757490 
2410.000000	64.769649 
2409.000000	64.779138 
2408.000000	64.786863 
2407.000000	64.794802 
2406.000000	64.805102 
2405.000000	64.819288 
2404.000000	64.837789 
2403.000000	64.859676 
2402.000000	64.882922 
2401.000000	64.904928 
2400.000000	64.923191 
2399.000000	64.936280 
2398.000000	64.943623 
2397.000000	64.945936 
2396.000000	64.944553 
2395.000000	64.940714 
2394.000000	64.935207 
2393.000000	64.928197 
2392.000000	64.919257 
2391.000000	64.907670 
2390.000000	64.893198 
2389.000000	64.876437 
2388.000000	64.858770 
2387.000000	64.842176 
2386.000000	64.828705 
2385.000000	64.820051 
2384.000000	64.816761 
2383.000000	64.818358 
2382.000000	64.823317 
2381.000000	64.829659 
2380.000000	64.835500 
2379.000000	64.839696 
2378.000000	64.841890 
2377.000000	64.842462 
2376.000000	64.842343 
2375.000000	64.842391 
2374.000000	64.842867 
2373.000000	64.843535 
2372.000000	64.843678 
2371.000000	64.842295 
2370.000000	64.838743 
2369.000000	64.832830 
2368.000000	64.825224 
2367.000000	64.816975 
2366.000000	64.809489 
2365.000000	64.803957 
2364.000000	64.801073 
2363.000000	64.800977 
2362.000000	64.803242 
2361.000000	64.807128 
2360.000000	64.811754 
2359.000000	64.816617 
2358.000000	64.821481 
2357.000000	64.826464 
2356.000000	64.831829 
2355.000000	64.837670 
2354.000000	64.843773 
2353.000000	64.849758 
2352.000000	64.854931 
2351.000000	64.858794 
2350.000000	64.860892 
2349.000000	64.861154 
2348.000000	64.859747 
2347.000000	64.857172 
2346.000000	64.853954 
2345.000000	64.850616 
2344.000000	64.847683 
2343.000000	64.845299 
2342.000000	64.843606 
2341.000000	64.842534 
2340.000000	64.842081 
2339.000000	64.842367 
2338.000000	64.843702 
2337.000000	64.846587 
2336.000000	64.851522 
2335.000000	64.858818 
2334.000000	64.868354 
2333.000000	64.879465 
2332.000000	64.890837 
2331.000000	64.900660 
2330.000000	64.907097 
2329.000000	64.908313 
2328.000000	64.903259 
2327.000000	64.891719 
2326.000000	64.874601 
2325.000000	64.853906 
2324.000000	64.832448 
2323.000000	64.813017 
2322.000000	64.798212 
2321.000000	64.789652 
2320.000000	64.787912 
2319.000000	64.792203 
2318.000000	64.800977 
2317.000000	64.812040 
2316.000000	64.823126 
2315.000000	64.832401 
2314.000000	64.838695 
2313.000000	64.841747 
2312.000000	64.841794 
2311.000000	64.839625 
2310.000000	64.836120 
2309.000000	64.832186 
2308.000000	64.828395 
2307.000000	64.825224 
2306.000000	64.822721 
2305.000000	64.820909 
2304.000000	64.819669 
2303.000000	64.818930 
2302.000000	64.818620 
2301.000000	64.818549 
2300.000000	64.818572 
2299.000000	64.818453 
2298.000000	64.817905 
2297.000000	64.816808 
2296.000000	64.814925 
2295.000000	64.812350 
2294.000000	64.809203 
2293.000000	64.805793 
2292.000000	64.802312 
2291.000000	64.798641 
2290.000000	64.794611 
2289.000000	64.789938 
2288.000000	64.784502 
2287.000000	64.778590 
2286.000000	64.772891 
2285.000000	64.768600 
2284.000000	64.767098 
2283.000000	64.769697 
2282.000000	64.777207 
2281.000000	64.789581 
2280.000000	64.805912 
2279.000000	64.824414 
2278.000000	64.842915 
2277.000000	64.859342 
2276.000000	64.872074 
2275.000000	64.880347 
2274.000000	64.884519 
2273.000000	64.885520 
2272.000000	64.884614 
2271.000000	64.882969 
2270.000000	64.881348 
2269.000000	64.879894 
2268.000000	64.878249 
2267.000000	64.875769 
2266.000000	64.872026 
2265.000000	64.866828 
2264.000000	64.860534 
2263.000000	64.853644 
2262.000000	64.847016 
2261.000000	64.841580 
2260.000000	64.838099 
2259.000000	64.837002 
2258.000000	64.838552 
2257.000000	64.842700 
2256.000000	64.849114 
2255.000000	64.857292 
2254.000000	64.866614 
2253.000000	64.876389 
2252.000000	64.885663 
2251.000000	64.893698 
2250.000000	64.899849 
2249.000000	64.903640 
2248.000000	64.904952 
2247.000000	64.903974 
2246.000000	64.901137 
2245.000000	64.897036 
2244.000000	64.892458 
2243.000000	64.887809 
2242.000000	64.883446 
2241.000000	64.879560 
2240.000000	64.876365 
2239.000000	64.874100 
2238.000000	64.873218 
2237.000000	64.873933 
2236.000000	64.876604 
2235.000000	64.881253 
2234.000000	64.887452 
2233.000000	64.894366 
2232.000000	64.900732 
2231.000000	64.905190 
2230.000000	64.906406 
2229.000000	64.903569 
2228.000000	64.896678 
2227.000000	64.886665 
2226.000000	64.875292 
2225.000000	64.864873 
2224.000000	64.857792 
2223.000000	64.855670 
2222.000000	64.859032 
2221.000000	64.867091 
2220.000000	64.877605 
2219.000000	64.887666 
2218.000000	64.894223 
2217.000000	64.895009 
2216.000000	64.889001 
2215.000000	64.877033 
2214.000000	64.861321 
2213.000000	64.845085 
2212.000000	64.831829 
2211.000000	64.824151 
2210.000000	64.823532 
2209.000000	64.829492 
2208.000000	64.840102 
2207.000000	64.852404 
2206.000000	64.863324 
2205.000000	64.870476 
2204.000000	64.872694 
2203.000000	64.870166 
2202.000000	64.864253 
2201.000000	64.857006 
2200.000000	64.850354 
2199.000000	64.845728 
2198.000000	64.843583 
2197.000000	64.843487 
2196.000000	64.844322 
2195.000000	64.844751 
2194.000000	64.843511 
2193.000000	64.840054 
2192.000000	64.834499 
2191.000000	64.827799 
2190.000000	64.821314 
2189.000000	64.816451 
2188.000000	64.814186 
2187.000000	64.814901 
2186.000000	64.818120 
2185.000000	64.822506 
2184.000000	64.826345 
2183.000000	64.827919 
2182.000000	64.826107 
2181.000000	64.820575 
2180.000000	64.812016 
2179.000000	64.802026 
2178.000000	64.792776 
2177.000000	64.786624 
2176.000000	64.785385 
2175.000000	64.789795 
2174.000000	64.799499 
2173.000000	64.812970 
2172.000000	64.827895 
2171.000000	64.841747 
2170.000000	64.852309 
2169.000000	64.857983 
2168.000000	64.858078 
2167.000000	64.852595 
2166.000000	64.842271 
2165.000000	64.828085 
2164.000000	64.811086 
2163.000000	64.792060 
2162.000000	64.771676 
2161.000000	64.750242 
2160.000000	64.727997 
2159.000000	64.704966 
2158.000000	64.681363 
2157.000000	64.657759 
2156.000000	64.634847 
2155.000000	64.613747 
2154.000000	64.595723 
2153.000000	64.582324 
2152.000000	64.575052 
2151.000000	64.575004 
2150.000000	64.582633 
2149.000000	64.597320 
2148.000000	64.617395 
2147.000000	64.640164 
2146.000000	64.662384 
2145.000000	64.680767 
2144.000000	64.692783 
2143.000000	64.697146 
2142.000000	64.694190 
2141.000000	64.685630 
2140.000000	64.674282 
2139.000000	64.663338 
2138.000000	64.655518 
2137.000000	64.653015 
2136.000000	64.656925 
2135.000000	64.667224 
2134.000000	64.682865 
2133.000000	64.702320 
2132.000000	64.724063 
2131.000000	64.746642 
2130.000000	64.769196 
2129.000000	64.791226 
2128.000000	64.812588 
2127.000000	64.833378 
2126.000000	64.853501 
2125.000000	64.872717 
2124.000000	64.890384 
2123.000000	64.905881 
2122.000000	64.918494 
2121.000000	64.927530 
2120.000000	64.932727 
2119.000000	64.934229 
2118.000000	64.932560 
2117.000000	64.928603 
2116.000000	64.923214 
2115.000000	64.916968 
2114.000000	64.910125 
2113.000000	64.902448 
2112.000000	64.893412 
2111.000000	64.882159 
2110.000000	64.868474 
2109.000000	64.852643 
2108.000000	64.835667 
2107.000000	64.819240 
2106.000000	64.805054 
2105.000000	64.794921 
2104.000000	64.789652 
2103.000000	64.789557 
2102.000000	64.793920 
2101.000000	64.801669 
2100.000000	64.811301 
2099.000000	64.821767 
2098.000000	64.832472 
2097.000000	64.843344 
2096.000000	64.854717 
2095.000000	64.866781 
2094.000000	64.879441 
2093.000000	64.891791 
2092.000000	64.902329 
2091.000000	64.909124 
2090.000000	64.910459 
2089.000000	64.905190 
2088.000000	64.893269 
2087.000000	64.875912 
2086.000000	64.855241 
2085.000000	64.834022 
2084.000000	64.814877 
2083.000000	64.799761 
2082.000000	64.789533 
2081.000000	64.784121 
2080.000000	64.782428 
2079.000000	64.782953 
2078.000000	64.784359 
2077.000000	64.785790 
2076.000000	64.786911 
2075.000000	64.787864 
2074.000000	64.788961 
2073.000000	64.790344 
2072.000000	64.792060 
2071.000000	64.793682 
2070.000000	64.794731 
2069.000000	64.794683 
2068.000000	64.793181 
2067.000000	64.790201 
2066.000000	64.785957 
2065.000000	64.780926 
2064.000000	64.775681 
2063.000000	64.770865 
2062.000000	64.767003 
2061.000000	64.764356 
2060.000000	64.762973 
2059.000000	64.762663 
2058.000000	64.763188 
2057.000000	64.764237 
2056.000000	64.765548 
2055.000000	64.767003 
2054.000000	64.768552 
2053.000000	64.770412 
2052.000000	64.772868 
2051.000000	64.776229 
2050.000000	64.780664 
2049.000000	64.786267 
2048.000000	64.792823 
2047.000000	64.800047 
2046.000000	64.807295 
2045.000000	64.813947 
2044.000000	64.819312 
2043.000000	64.822959 
2042.000000	64.824652 
2041.000000	64.824390 
2040.000000	64.822316 
2039.000000	64.818572 
2038.000000	64.813423 
2037.000000	64.806914 
2036.000000	64.799189 
2035.000000	64.790487 
2034.000000	64.781212 
2033.000000	64.772033 
2032.000000	64.763641 
2031.000000	64.757037 
2030.000000	64.752912 
2029.000000	64.751791 
2028.000000	64.753508 
2027.000000	64.757275 
2026.000000	64.761805 
2025.000000	64.765357 
2024.000000	64.766550 
2023.000000	64.764189 
2022.000000	64.758133 
2021.000000	64.749288 
2020.000000	64.739584 
2019.000000	64.731311 
2018.000000	64.726877 
2017.000000	64.727854 
2016.000000	64.734745 
2015.000000	64.746594 
2014.000000	64.761257 
2013.000000	64.776086 
2012.000000	64.788413 
2011.000000	64.796304 
2010.000000	64.799046 
2009.000000	64.797115 
2008.000000	64.792108 
2007.000000	64.786171 
2006.000000	64.781117 
2005.000000	64.778089 
2004.000000	64.777159 
2003.000000	64.777612 
2002.000000	64.777994 
2001.000000	64.776849 
2000.000000	64.773154 
1999.000000	64.766621 
1998.000000	64.757537 
1997.000000	64.746856 
1996.000000	64.735555 
1995.000000	64.724636 
1994.000000	64.714884 
1993.000000	64.706826 
1992.000000	64.700531 
1991.000000	64.696192 
1990.000000	64.693951 
1989.000000	64.694070 
1988.000000	64.696788 
1987.000000	64.702105 
1986.000000	64.709830 
1985.000000	64.719462 
1984.000000	64.730143 
1983.000000	64.740943 
1982.000000	64.751124 
1981.000000	64.760255 
1980.000000	64.768290 
1979.000000	64.775633 
1978.000000	64.783024 
1977.000000	64.791131 
1976.000000	64.800238 
1975.000000	64.810419 
1974.000000	64.820981 
1973.000000	64.831042 
1972.000000	64.839291 
1971.000000	64.844655 
1970.000000	64.846110 
1969.000000	64.843130 
1968.000000	64.835500 
1967.000000	64.823651 
1966.000000	64.808297 
1965.000000	64.790558 
1964.000000	64.771866 
1963.000000	64.753603 
1962.000000	64.737176 
1961.000000	64.723968 
1960.000000	64.714860 
1959.000000	64.710211 
1958.000000	64.709734 
1957.000000	64.712452 
1956.000000	64.717006 
1955.000000	64.721798 
1954.000000	64.725399 
1953.000000	64.726710 
1952.000000	64.725446 
1951.000000	64.722013 
1950.000000	64.717459 
1949.000000	64.712905 
1948.000000	64.709424 
1947.000000	64.707493 
1946.000000	64.707064 
1945.000000	64.707374 
1944.000000	64.707398 
1943.000000	64.706182 
1942.000000	64.703226 
1941.000000	64.698648 
1940.000000	64.693164 
1939.000000	64.688086 
1938.000000	64.684629 
1937.000000	64.684081 
1936.000000	64.686965 
1935.000000	64.693236 
1934.000000	64.702272 
1933.000000	64.712762 
1932.000000	64.723014 
1931.000000	64.731144 
1930.000000	64.735531 
1929.000000	64.734888 
1928.000000	64.728569 
1927.000000	64.716625 
1926.000000	64.699888 
1925.000000	64.680004 
1924.000000	64.659142 
1923.000000	64.639854 
1922.000000	64.624691 
1921.000000	64.615917 
1920.000000	64.614844 
1919.000000	64.621829 
1918.000000	64.635920 
1917.000000	64.655089 
1916.000000	64.676737 
1915.000000	64.697790 
1914.000000	64.715886 
1913.000000	64.729285 
1912.000000	64.737677 
1911.000000	64.741897 
1910.000000	64.743709 
1909.000000	64.745235 
1908.000000	64.748430 
1907.000000	64.754462 
1906.000000	64.763379 
1905.000000	64.774084 
1904.000000	64.784765 
1903.000000	64.793395 
1902.000000	64.798474 
1901.000000	64.799380 
1900.000000	64.796710 
1899.000000	64.791941 
1898.000000	64.787125 
1897.000000	64.784288 
1896.000000	64.784693 
1895.000000	64.788651 
1894.000000	64.795303 
1893.000000	64.803004 
1892.000000	64.809727 
1891.000000	64.813685 
1890.000000	64.813756 
1889.000000	64.809656 
1888.000000	64.801979 
1887.000000	64.792108 
1886.000000	64.781570 
1885.000000	64.771795 
1884.000000	64.763784 
1883.000000	64.757966 
1882.000000	64.754104 
1881.000000	64.751577 
1880.000000	64.749550 
1879.000000	64.747190 
1878.000000	64.743804 
1877.000000	64.739012 
1876.000000	64.732718 
1875.000000	64.725279 
1874.000000	64.717245 
1873.000000	64.709401 
1872.000000	64.702606 
1871.000000	64.697527 
1870.000000	64.694547 
1869.000000	64.693546 
1868.000000	64.694142 
1867.000000	64.695405 
1866.000000	64.696526 
1865.000000	64.696550 
1864.000000	64.695000 
1863.000000	64.691877 
1862.000000	64.687895 
1861.000000	64.684033 
1860.000000	64.681696 
1859.000000	64.682173 
1858.000000	64.686679 
1857.000000	64.695644 
1856.000000	64.709115 
1855.000000	64.726448 
1854.000000	64.746785 
1853.000000	64.769005 
1852.000000	64.791846 
1851.000000	64.813995 
1850.000000	64.834260 
1849.000000	64.851570 
1848.000000	64.865040 
1847.000000	64.873838 
1846.000000	64.877510 
1845.000000	64.875984 
1844.000000	64.869475 
1843.000000	64.858460 
1842.000000	64.843869 
1841.000000	64.826631 
1840.000000	64.807605 
1839.000000	64.787459 
1838.000000	64.766669 
1837.000000	64.745521 
1836.000000	64.724254 
1835.000000	64.703154 
1834.000000	64.682602 
1833.000000	64.663147 
1832.000000	64.645242 
1831.000000	64.629459 
1830.000000	64.616012 
1829.000000	64.605188 
1828.000000	64.597082 
1827.000000	64.592003 
1826.000000	64.590215 
1825.000000	64.592361 
1824.000000	64.599180 
1823.000000	64.611387 
1822.000000	64.629220 
1821.000000	64.652419 
1820.000000	64.679932 
1819.000000	64.709949 
1818.000000	64.739990 
1817.000000	64.767313 
1816.000000	64.789390 
1815.000000	64.804410 
1814.000000	64.811491 
1813.000000	64.810800 
1812.000000	64.803385 
1811.000000	64.790987 
1810.000000	64.775800 
1809.000000	64.759993 
1808.000000	64.745450 
1807.000000	64.733791 
1806.000000	64.725923 
1805.000000	64.722299 
1804.000000	64.722824 
1803.000000	64.727115 
1802.000000	64.734339 
1801.000000	64.743232 
1800.000000	64.752411 
1799.000000	64.760494 
1798.000000	64.766192 
1797.000000	64.768505 
1796.000000	64.767003 
1795.000000	64.761900 
1794.000000	64.753985 
1793.000000	64.744520 
1792.000000	64.734983 
1791.000000	64.726734 
1790.000000	64.721035 
1789.000000	64.718580 
1788.000000	64.719438 
1787.000000	64.722967 
1786.000000	64.727997 
1785.000000	64.733076 
1784.000000	64.736652 
1783.000000	64.737296 
1782.000000	64.734339 
1781.000000	64.727783 
1780.000000	64.718294 
1779.000000	64.707326 
1778.000000	64.696741 
1777.000000	64.688467 
1776.000000	64.684128 
1775.000000	64.684653 
1774.000000	64.690160 
1773.000000	64.699983 
1772.000000	64.712810 
1771.000000	64.727067 
1770.000000	64.741182 
1769.000000	64.754009 
1768.000000	64.764833 
1767.000000	64.773273 
1766.000000	64.779233 
1765.000000	64.782500 
1764.000000	64.782881 
1763.000000	64.780187 
1762.000000	64.774227 
1761.000000	64.765191 
1760.000000	64.753341 
1759.000000	64.739394 
1758.000000	64.724040 
1757.000000	64.708113 
1756.000000	64.692163 
1755.000000	64.676475 
1754.000000	64.660882 
1753.000000	64.645028 
1752.000000	64.628505 
1751.000000	64.611005 
1750.000000	64.592480 
1749.000000	64.573526 
1748.000000	64.555072 
1747.000000	64.538431 
1746.000000	64.525032 
1745.000000	64.516043 
1744.000000	64.512276 
1743.000000	64.513874 
1742.000000	64.520239 
1741.000000	64.530134 
1740.000000	64.541506 
1739.000000	64.551925 
1738.000000	64.558768 
1737.000000	64.559936 
1736.000000	64.554071 
1735.000000	64.541006 
1734.000000	64.521932 
1733.000000	64.499258 
1732.000000	64.476084 
1731.000000	64.455676 
1730.000000	64.441013 
1729.000000	64.434409 
1728.000000	64.436912 
1727.000000	64.448571 
1726.000000	64.468336 
1725.000000	64.494299 
1724.000000	64.523863 
1723.000000	64.554071 
1722.000000	64.582061 
1721.000000	64.605259 
1720.000000	64.621663 
1719.000000	64.630174 
1718.000000	64.630770 
1717.000000	64.624595 
1716.000000	64.613771 
1715.000000	64.601039 
1714.000000	64.589309 
1713.000000	64.581108 
1712.000000	64.577960 
1711.000000	64.580321 
1710.000000	64.587664 
1709.000000	64.598798 
1708.000000	64.612436 
1707.000000	64.627528 
1706.000000	64.643597 
1705.000000	64.660429 
1704.000000	64.678072 
1703.000000	64.696145 
1702.000000	64.713716 
1701.000000	64.729213 
1700.000000	64.740514 
1699.000000	64.745640 
1698.000000	64.743161 
1697.000000	64.732766 
1696.000000	64.715456 
1695.000000	64.693737 
1694.000000	64.670848 
1693.000000	64.650201 
1692.000000	64.634633 
1691.000000	64.625692 
1690.000000	64.623451 
1689.000000	64.626550 
1688.000000	64.632749 
1687.000000	64.639616 
1686.000000	64.645051 
1685.000000	64.647936 
1684.000000	64.648270 
1683.000000	64.646983 
1682.000000	64.645624 
1681.000000	64.645743 
1680.000000	64.648413 
1679.000000	64.653778 
1678.000000	64.661026 
1677.000000	64.668250 
1676.000000	64.673328 
1675.000000	64.674067 
1674.000000	64.669156 
1673.000000	64.658427 
1672.000000	64.642763 
1671.000000	64.623999 
1670.000000	64.604687 
1669.000000	64.587426 
1668.000000	64.574289 
1667.000000	64.566802 
1666.000000	64.565563 
1665.000000	64.570665 
1664.000000	64.581608 
1663.000000	64.597773 
1662.000000	64.618396 
1661.000000	64.642620 
1660.000000	64.669370 
1659.000000	64.697217 
1658.000000	64.724183 
1657.000000	64.747929 
1656.000000	64.766120 
1655.000000	64.776778 
1654.000000	64.778542 
1653.000000	64.771628 
1652.000000	64.757061 
1651.000000	64.737033 
1650.000000	64.714121 
1649.000000	64.691019 
1648.000000	64.669728 
1647.000000	64.651656 
1646.000000	64.637160 
1645.000000	64.626002 
1644.000000	64.617562 
1643.000000	64.611124 
1642.000000	64.606380 
1641.000000	64.603114 
1640.000000	64.601683 
1639.000000	64.602303 
1638.000000	64.605212 
1637.000000	64.610290 
1636.000000	64.617013 
1635.000000	64.624643 
1634.000000	64.632272 
1633.000000	64.639067 
1632.000000	64.644575 
1631.000000	64.648675 
1630.000000	64.651608 
1629.000000	64.653944 
1628.000000	64.656543 
1627.000000	64.660310 
1626.000000	64.666032 
1625.000000	64.673948 
1624.000000	64.683818 
1623.000000	64.694690 
1622.000000	64.705133 
1621.000000	64.713406 
1620.000000	64.717698 
1619.000000	64.716696 
1618.000000	64.709782 
1617.000000	64.697480 
1616.000000	64.681172 
1615.000000	64.663124 
1614.000000	64.645957 
1613.000000	64.632368 
1612.000000	64.624285 
1611.000000	64.622569 
1610.000000	64.626979 
1609.000000	64.636039 
1608.000000	64.647650 
1607.000000	64.659285 
1606.000000	64.668583 
1605.000000	64.673805 
1604.000000	64.674115 
1603.000000	64.669394 
1602.000000	64.660525 
1601.000000	64.649248 
1600.000000	64.637827 
1599.000000	64.628624 
1598.000000	64.623522 
1597.000000	64.623713 
1596.000000	64.629292 
1595.000000	64.639210 
1594.000000	64.651393 
1593.000000	64.663124 
1592.000000	64.671778 
1591.000000	64.675331 
1590.000000	64.672803 
1589.000000	64.664340 
1588.000000	64.651346 
1587.000000	64.636039 
1586.000000	64.620852 
1585.000000	64.607882 
1584.000000	64.598369 
1583.000000	64.592742 
1582.000000	64.590382 
1581.000000	64.590096 
1580.000000	64.590430 
1579.000000	64.590191 
1578.000000	64.588737 
1577.000000	64.586019 
1576.000000	64.582252 
1575.000000	64.577841 
1574.000000	64.572763 
1573.000000	64.566612 
1572.000000	64.558625 
1571.000000	64.548015 
1570.000000	64.534616 
1569.000000	64.519309 
1568.000000	64.503860 
1567.000000	64.490771 
1566.000000	64.482927 
1565.000000	64.482712 
1564.000000	64.491343 
1563.000000	64.508676 
1562.000000	64.533400 
1561.000000	64.563202 
1560.000000	64.595222 
1559.000000	64.626669 
1558.000000	64.654970 
1557.000000	64.678144 
1556.000000	64.694809 
1555.000000	64.704060 
1554.000000	64.705610 
1553.000000	64.699792 
1552.000000	64.687824 
1551.000000	64.671778 
1550.000000	64.654302 
1549.000000	64.638495 
1548.000000	64.627122 
1547.000000	64.621973 
1546.000000	64.623117 
1545.000000	64.628934 
1544.000000	64.636111 
1543.000000	64.640569 
1542.000000	64.638304 
1541.000000	64.626526 
1540.000000	64.604473 
1539.000000	64.573478 
1538.000000	64.536952 
1537.000000	64.499235 
1536.000000	64.465093 
1535.000000	64.438319 
1534.000000	64.421534 
1533.000000	64.415526 
1532.000000	64.419817 
1531.000000	64.432930 
1530.000000	64.453077 
1529.000000	64.478421 
1528.000000	64.507365 
1527.000000	64.538407 
1526.000000	64.570021 
1525.000000	64.600396 
1524.000000	64.627575 
1523.000000	64.649558 
1522.000000	64.664721 
1521.000000	64.672017 
1520.000000	64.671349 
1519.000000	64.663434 
1518.000000	64.649820 
1517.000000	64.632511 
1516.000000	64.613580 
1515.000000	64.594936 
1514.000000	64.578008 
1513.000000	64.563751 
1512.000000	64.552688 
1511.000000	64.545130 
1510.000000	64.541316 
1509.000000	64.541292 
1508.000000	64.544916 
1507.000000	64.552068 
1506.000000	64.562296 
1505.000000	64.575362 
1504.000000	64.590811 
1503.000000	64.608526 
1502.000000	64.628314 
1501.000000	64.650034 
1500.000000	64.673209 
1499.000000	64.696860 
1498.000000	64.719390 
1497.000000	64.738893 
1496.000000	64.753365 
1495.000000	64.760899 
1494.000000	64.760303 
1493.000000	64.751124 
1492.000000	64.734125 
1491.000000	64.710783 
1490.000000	64.683294 
1489.000000	64.654064 
1488.000000	64.625287 
1487.000000	64.598917 
1486.000000	64.576506 
1485.000000	64.559412 
1484.000000	64.548683 
1483.000000	64.545297 
1482.000000	64.549779 
1481.000000	64.562153 
1480.000000	64.581561 
1479.000000	64.606046 
1478.000000	64.632773 
1477.000000	64.658427 
1476.000000	64.679622 
1475.000000	64.693498 
1474.000000	64.698219 
1473.000000	64.693355 
1472.000000	64.679861 
1471.000000	64.659905 
1470.000000	64.636468 
1469.000000	64.612793 
1468.000000	64.591884 
1467.000000	64.576101 
1466.000000	64.567017 
1465.000000	64.565157 
1464.000000	64.570283 
1463.000000	64.581298 
1462.000000	64.596533 
1461.000000	64.613914 
1460.000000	64.631152 
1459.000000	64.646005 
1458.000000	64.656329 
1457.000000	64.660549 
1456.000000	64.657711 
1455.000000	64.647650 
1454.000000	64.630913 
1453.000000	64.608883 
1452.000000	64.583468 
1451.000000	64.557123 
1450.000000	64.532375 
1449.000000	64.511537 
1448.000000	64.496493 
1447.000000	64.488434 
1446.000000	64.487981 
1445.000000	64.494776 
1444.000000	64.507532 
1443.000000	64.524412 
1442.000000	64.543199 
1441.000000	64.561462 
1440.000000	64.577031 
1439.000000	64.588356 
1438.000000	64.594697 
1437.000000	64.596295 
1436.000000	64.594125 
1435.000000	64.589309 
1434.000000	64.582991 
1433.000000	64.576148 
1432.000000	64.569306 
1431.000000	64.562726 
1430.000000	64.556407 
1429.000000	64.550471 
1428.000000	64.544963 
1427.000000	64.540314 
1426.000000	64.536714 
1425.000000	64.534139 
1424.000000	64.532113 
1423.000000	64.529633 
1422.000000	64.525318 
1421.000000	64.517760 
1420.000000	64.505767 
1419.000000	64.488935 
1418.000000	64.467811 
1417.000000	64.444041 
1416.000000	64.420032 
1415.000000	64.398431 
1414.000000	64.381766 
1413.000000	64.372110 
1412.000000	64.370608 
1411.000000	64.377427 
1410.000000	64.391946 
1409.000000	64.412593 
1408.000000	64.437389 
1407.000000	64.463925 
1406.000000	64.489626 
1405.000000	64.511823 
1404.000000	64.528131 
1403.000000	64.536762 
1402.000000	64.536571 
1401.000000	64.527416 
1400.000000	64.510035 
1399.000000	64.486050 
1398.000000	64.458012 
1397.000000	64.428567 
1396.000000	64.400482 
1395.000000	64.375853 
1394.000000	64.356184 
1393.000000	64.342331 
1392.000000	64.334535 
1391.000000	64.332556 
1390.000000	64.335870 
1389.000000	64.343881 
1388.000000	64.355778 
1387.000000	64.370703 
1386.000000	64.387536 
1385.000000	64.404797 
1384.000000	64.420723 
1383.000000	64.433622 
1382.000000	64.441800 
1381.000000	64.443802 
1380.000000	64.438819 
1379.000000	64.426922 
1378.000000	64.409089 
1377.000000	64.387154 
1376.000000	64.363670 
1375.000000	64.341521 
1374.000000	64.323592 
1373.000000	64.312386 
1372.000000	64.309549 
1371.000000	64.315557 
1370.000000	64.329600 
1369.000000	64.349460 
1368.000000	64.371967 
1367.000000	64.393401 
1366.000000	64.410352 
1365.000000	64.420127 
1364.000000	64.421463 
1363.000000	64.414787 
1362.000000	64.401936 
1361.000000	64.385604 
1360.000000	64.368987 
1359.000000	64.354896 
1358.000000	64.345479 
1357.000000	64.341545 
1356.000000	64.342761 
1355.000000	64.348006 
1354.000000	64.355564 
1353.000000	64.363932 
1352.000000	64.371871 
1351.000000	64.378881 
1350.000000	64.385199 
1349.000000	64.391541 
1348.000000	64.398694 
1347.000000	64.406991 
1346.000000	64.416241 
1345.000000	64.425444 
1344.000000	64.433050 
1343.000000	64.437198 
1342.000000	64.436268 
1341.000000	64.429378 
1340.000000	64.416790 
1339.000000	64.400172 
1338.000000	64.382195 
1337.000000	64.366102 
1336.000000	64.355015 
1335.000000	64.351296 
1334.000000	64.356017 
1333.000000	64.368700 
1332.000000	64.387297 
1331.000000	64.408755 
1330.000000	64.429759 
1329.000000	64.447188 
1328.000000	64.458823 
1327.000000	64.463520 
1326.000000	64.461255 
1325.000000	64.452838 
1324.000000	64.439678 
1323.000000	64.423036 
1322.000000	64.403963 
1321.000000	64.383339 
1320.000000	64.361763 
1319.000000	64.340066 
1318.000000	64.319181 
1317.000000	64.300394 
1316.000000	64.284944 
1315.000000	64.273834 
1314.000000	64.267206 
1313.000000	64.264488 
1312.000000	64.264369 
1311.000000	64.265108 
1310.000000	64.264965 
1309.000000	64.262676 
1308.000000	64.257717 
1307.000000	64.250493 
1306.000000	64.241957 
1305.000000	64.233446 
1304.000000	64.226174 
1303.000000	64.220929 
1302.000000	64.217853 
1301.000000	64.216613 
1300.000000	64.216685 
1299.000000	64.217734 
1298.000000	64.219594 
1297.000000	64.222574 
1296.000000	64.227294 
1295.000000	64.234328 
1294.000000	64.243912 
1293.000000	64.255952 
1292.000000	64.269733 
1291.000000	64.284157 
1290.000000	64.298057 
1289.000000	64.310169 
1288.000000	64.319539 
1287.000000	64.325642 
1286.000000	64.328455 
1285.000000	64.328193 
1284.000000	64.325284 
1283.000000	64.320254 
1282.000000	64.313745 
1281.000000	64.306426 
1280.000000	64.298772 
1279.000000	64.291381 
1278.000000	64.284586 
1277.000000	64.278721 
1276.000000	64.273762 
1275.000000	64.269304 
1274.000000	64.264869 
1273.000000	64.259982 
1272.000000	64.254212 
1271.000000	64.247465 
1270.000000	64.240145 
1269.000000	64.232850 
1268.000000	64.226460 
1267.000000	64.221620 
1266.000000	64.218878 
1265.000000	64.218235 
1264.000000	64.219498 
1263.000000	64.221954 
1262.000000	64.225149 
1261.000000	64.228916 
1260.000000	64.233446 
1259.000000	64.239311 
1258.000000	64.247202 
1257.000000	64.257669 
1256.000000	64.270806 
1255.000000	64.285731 
1254.000000	64.301037 
1253.000000	64.314746 
1252.000000	64.324784 
1251.000000	64.329409 
1250.000000	64.327549 
1249.000000	64.319229 
1248.000000	64.305520 
1247.000000	64.288592 
1246.000000	64.271044 
1245.000000	64.255571 
1244.000000	64.244604 
1243.000000	64.239597 
1242.000000	64.240932 
1241.000000	64.247846 
1240.000000	64.258432 
1239.000000	64.270162 
1238.000000	64.280200 
1237.000000	64.286065 
1236.000000	64.285969 
1235.000000	64.279413 
1234.000000	64.267134 
1233.000000	64.250993 
1232.000000	64.233565 
1231.000000	64.217400 
1230.000000	64.204478 
1229.000000	64.195799 
1228.000000	64.191246 
1227.000000	64.189815 
1226.000000	64.189982 
1225.000000	64.190363 
1224.000000	64.190316 
1223.000000	64.190053 
1222.000000	64.190673 
1221.000000	64.193630 
1220.000000	64.200401 
1219.000000	64.211511 
1218.000000	64.226412 
1217.000000	64.243435 
1216.000000	64.259934 
1215.000000	64.273142 
1214.000000	64.280509 
1213.000000	64.280748 
1212.000000	64.273929 
1211.000000	64.261507 
1210.000000	64.246249 
1209.000000	64.231204 
1208.000000	64.219355 
1207.000000	64.213061 
1206.000000	64.213681 
1205.000000	64.221191 
1204.000000	64.234685 
1203.000000	64.252448 
1202.000000	64.272475 
1201.000000	64.292716 
1200.000000	64.311242 
1199.000000	64.326596 
1198.000000	64.337730 
1197.000000	64.344334 
1196.000000	64.346671 
1195.000000	64.345645 
1194.000000	64.342761 
1193.000000	64.339542 
1192.000000	64.337563 
1191.000000	64.337515 
1190.000000	64.339542 
1189.000000	64.342355 
1188.000000	64.343929 
1187.000000	64.341425 
1186.000000	64.332199 
1185.000000	64.314150 
1184.000000	64.286684 
1183.000000	64.250707 
1182.000000	64.208698 
1181.000000	64.164280 
1180.000000	64.121651 
1179.000000	64.084887 
1178.000000	64.057040 
1177.000000	64.039540 
1176.000000	64.032244 
1175.000000	64.033555 
1174.000000	64.040994 
1173.000000	64.051675 
1172.000000	64.063048 
1171.000000	64.073204 
1170.000000	64.081358 
1169.000000	64.087533 
1168.000000	64.092636 
1167.000000	64.097738 
1166.000000	64.104151 
1165.000000	64.112997 
1164.000000	64.124870 
1163.000000	64.140033 
1162.000000	64.157867 
1161.000000	64.177227 
1160.000000	64.196062 
1159.000000	64.212131 
1158.000000	64.223027 
1157.000000	64.226865 
1156.000000	64.222764 
1155.000000	64.210915 
1154.000000	64.192986 
1153.000000	64.171528 
1152.000000	64.149832 
1151.000000	64.131307 
1150.000000	64.118862 
1149.000000	64.114356 
1148.000000	64.118671 
1147.000000	64.131450 
1146.000000	64.151096 
1145.000000	64.175105 
1144.000000	64.200830 
1143.000000	64.225530 
1142.000000	64.247012 
1141.000000	64.263749 
1140.000000	64.274978 
1139.000000	64.280629 
1138.000000	64.281225 
1137.000000	64.277648 
1136.000000	64.270877 
1135.000000	64.261698 
1134.000000	64.250731 
1133.000000	64.238524 
1132.000000	64.225482 
1131.000000	64.211940 
1130.000000	64.198803 
1129.000000	64.187240 
1128.000000	64.178466 
1127.000000	64.173436 
1126.000000	64.172697 
1125.000000	64.175987 
1124.000000	64.182353 
1123.000000	64.190554 
1122.000000	64.199304 
1121.000000	64.207863 
1120.000000	64.216303 
1119.000000	64.225244 
1118.000000	64.235782 
1117.000000	64.248895 
1116.000000	64.265036 
1115.000000	64.283871 
1114.000000	64.304041 
1113.000000	64.323616 
1112.000000	64.340329 
1111.000000	64.352250 
1110.000000	64.357805 
1109.000000	64.356446 
1108.000000	64.348030 
1107.000000	64.333367 
1106.000000	64.313411 
1105.000000	64.289212 
1104.000000	64.262008 
1103.000000	64.233517 
1102.000000	64.205884 
1101.000000	64.181756 
1100.000000	64.163970 
1099.000000	64.155554 
1098.000000	64.158582 
1097.000000	64.173626 
1096.000000	64.199185 
1095.000000	64.231729 
1094.000000	64.266157 
1093.000000	64.296722 
1092.000000	64.318418 
1091.000000	64.328217 
1090.000000	64.325737 
1089.000000	64.313507 
1088.000000	64.296174 
1087.000000	64.279389 
1086.000000	64.268374 
1085.000000	64.266347 
1084.000000	64.274215 
1083.000000	64.289760 
1082.000000	64.309096 
1081.000000	64.326786 
1080.000000	64.338088 
1079.000000	64.339160 
1078.000000	64.328408 
1077.000000	64.306116 
1076.000000	64.274287 
1075.000000	64.235877 
1074.000000	64.194178 
1073.000000	64.152550 
1072.000000	64.114022 
1071.000000	64.081287 
1070.000000	64.056658 
1069.000000	64.041852 
1068.000000	64.037799 
1067.000000	64.044356 
1066.000000	64.060401 
1065.000000	64.083743 
1064.000000	64.111566 
1063.000000	64.140701 
1062.000000	64.168071 
1061.000000	64.191150 
1060.000000	64.208269 
1059.000000	64.218592 
1058.000000	64.222145 
1057.000000	64.219665 
1056.000000	64.212512 
1055.000000	64.202547 
1054.000000	64.191579 
1053.000000	64.181709 
1052.000000	64.174413 
1051.000000	64.170861 
1050.000000	64.171147 
1049.000000	64.174556 
1048.000000	64.179372 
1047.000000	64.183259 
1046.000000	64.183902 
1045.000000	64.179515 
1044.000000	64.169692 
1043.000000	64.155483 
1042.000000	64.139270 
1041.000000	64.123892 
1040.000000	64.112186 
1039.000000	64.106321 
1038.000000	64.107155 
1037.000000	64.114308 
1036.000000	64.126253 
1035.000000	64.140844 
1034.000000	64.155912 
1033.000000	64.169621 
1032.000000	64.180731 
1031.000000	64.188671 
1030.000000	64.193344 
1029.000000	64.194560 
1028.000000	64.192128 
1027.000000	64.185571 
1026.000000	64.174175 
1025.000000	64.157462 
1024.000000	64.135599 
1023.000000	64.109873 
1022.000000	64.082765 
1021.000000	64.057755 
1020.000000	64.038777 
1019.000000	64.029407 
1018.000000	64.032030 
1017.000000	64.047145 
1016.000000	64.073061 
1015.000000	64.106154 
1014.000000	64.141416 
1013.000000	64.173603 
1012.000000	64.198327 
1011.000000	64.212822 
1010.000000	64.216732 
1009.000000	64.211916 
1008.000000	64.201974 
1007.000000	64.191365 
1006.000000	64.184451 
1005.000000	64.184594 
1004.000000	64.193558 
1003.000000	64.211535 
1002.000000	64.237117 
1001.000000	64.268064 
1000.000000	64.301300 
999.000000	 64.333891 
998.000000	 64.362931 
997.000000	 64.386105 
996.000000	 64.401698 
995.000000	 64.408612 
994.000000	 64.406585 
993.000000	 64.396238 
992.000000	 64.379096 
991.000000	 64.357542 
990.000000	 64.334440 
989.000000	 64.312791 
988.000000	 64.295029 
987.000000	 64.282608 
986.000000	 64.275479 
985.000000	 64.272403 
984.000000	 64.271116 
983.000000	 64.269208 
982.000000	 64.264512 
981.000000	 64.255905 
980.000000	 64.243507 
979.000000	 64.228916 
978.000000	 64.214420 
977.000000	 64.202713 
976.000000	 64.196085 
975.000000	 64.196109 
974.000000	 64.203286 
973.000000	 64.216923 
972.000000	 64.235544 
971.000000	 64.257001 
970.000000	 64.279103 
969.000000	 64.299631 
968.000000	 64.316773 
967.000000	 64.329004 
966.000000	 64.335060 
965.000000	 64.333939 
964.000000	 64.325189 
963.000000	 64.308810 
962.000000	 64.285588 
961.000000	 64.256954 
960.000000	 64.225053 
959.000000	 64.192724 
958.000000	 64.163041 
957.000000	 64.139103 
956.000000	 64.123487 
955.000000	 64.117670 
954.000000	 64.121985 
953.000000	 64.135313 
952.000000	 64.155268 
951.000000	 64.178609 
950.000000	 64.201903 
949.000000	 64.222145 
948.000000	 64.237356 
947.000000	 64.247035 
946.000000	 64.251971 
945.000000	 64.253830 
944.000000	 64.254689 
943.000000	 64.256548 
942.000000	 64.260554 
941.000000	 64.266657 
940.000000	 64.273643 
939.000000	 64.279675 
938.000000	 64.282536 
937.000000	 64.280748 
936.000000	 64.273476 
935.000000	 64.261102 
934.000000	 64.244771 
933.000000	 64.226126 
932.000000	 64.206814 
931.000000	 64.188051 
930.000000	 64.170551 
929.000000	 64.154219 
928.000000	 64.138722 
927.000000	 64.123535 
926.000000	 64.108204 
925.000000	 64.092469 
924.000000	 64.076304 
923.000000	 64.060306 
922.000000	 64.045310 
921.000000	 64.032840 
920.000000	 64.024448 
919.000000	 64.021706 
918.000000	 64.026069 
917.000000	 64.038324 
916.000000	 64.058375 
915.000000	 64.084839 
914.000000	 64.114975 
913.000000	 64.145159 
912.000000	 64.171266 
911.000000	 64.189600 
910.000000	 64.197373 
909.000000	 64.193654 
908.000000	 64.179563 
907.000000	 64.158153 
906.000000	 64.133834 
905.000000	 64.111328 
904.000000	 64.094948 
903.000000	 64.087677 
902.000000	 64.090514 
901.000000	 64.102816 
900.000000	 64.122033 
899.000000	 64.144396 
898.000000	 64.165616 
897.000000	 64.181637 
896.000000	 64.189386 
895.000000	 64.187073 
894.000000	 64.174628 
893.000000	 64.153456 
892.000000	 64.126515 
891.000000	 64.097595 
890.000000	 64.071011 
889.000000	 64.050936 
888.000000	 64.040660 
887.000000	 64.042162 
886.000000	 64.055728 
885.000000	 64.079785 
884.000000	 64.111185 
883.000000	 64.145708 
882.000000	 64.178562 
881.000000	 64.205288 
880.000000	 64.222574 
879.000000	 64.228630 
878.000000	 64.223670 
877.000000	 64.209580 
876.000000	 64.189743 
875.000000	 64.168167 
874.000000	 64.148998 
873.000000	 64.135622 
872.000000	 64.130330 
871.000000	 64.133667 
870.000000	 64.144825 
869.000000	 64.161634 
868.000000	 64.181232 
867.000000	 64.200758 
866.000000	 64.217376 
865.000000	 64.229059 
864.000000	 64.234828 
863.000000	 64.234972 
862.000000	 64.230442 
861.000000	 64.222884 
860.000000	 64.214062 
859.000000	 64.205646 
858.000000	 64.199018 
857.000000	 64.195036 
856.000000	 64.194059 
855.000000	 64.195966 
854.000000	 64.200639 
853.000000	 64.207768 
852.000000	 64.217257 
851.000000	 64.229035 
850.000000	 64.242911 
849.000000	 64.258384 
848.000000	 64.274406 
847.000000	 64.289355 
846.000000	 64.301013 
845.000000	 64.306998 
844.000000	 64.305019 
843.000000	 64.293408 
842.000000	 64.271402 
841.000000	 64.239168 
840.000000	 64.198064 
839.000000	 64.150333 
838.000000	 64.098906 
837.000000	 64.047145 
836.000000	 63.998532 
835.000000	 63.955998 
834.000000	 63.921952 
833.000000	 63.897919 
832.000000	 63.884425 
831.000000	 63.880777 
830.000000	 63.885712 
829.000000	 63.897109 
828.000000	 63.913011 
827.000000	 63.931393 
826.000000	 63.951182 
825.000000	 63.971877 
824.000000	 63.993692 
823.000000	 64.017009 
822.000000	 64.041876 
821.000000	 64.067625 
820.000000	 64.092516 
819.000000	 64.114069 
818.000000	 64.129638 
817.000000	 64.136743 
816.000000	 64.134335 
815.000000	 64.122605 
814.000000	 64.103102 
813.000000	 64.078450 
812.000000	 64.051747 
811.000000	 64.025950 
810.000000	 64.003109 
809.000000	 63.984489 
808.000000	 63.970494 
807.000000	 63.961100 
806.000000	 63.956093 
805.000000	 63.955330 
804.000000	 63.959121 
803.000000	 63.967776 
802.000000	 63.981485 
801.000000	 63.999867 
800.000000	 64.021730 
799.000000	 64.045190 
798.000000	 64.067840 
797.000000	 64.087247 
796.000000	 64.101433 
795.000000	 64.109373 
794.000000	 64.111113 
793.000000	 64.107799 
792.000000	 64.101338 
791.000000	 64.093947 
790.000000	 64.087820 
789.000000	 64.084815 
788.000000	 64.085888 
787.000000	 64.091467 
786.000000	 64.101076 
785.000000	 64.114093 
784.000000	 64.129161 
783.000000	 64.144515 
782.000000	 64.158010 
781.000000	 64.167642 
780.000000	 64.171457 
779.000000	 64.167737 
778.000000	 64.155554 
777.000000	 64.135169 
776.000000	 64.107823 
775.000000	 64.075779 
774.000000	 64.041900 
773.000000	 64.009308 
772.000000	 63.980865 
771.000000	 63.958764 
770.000000	 63.944149 
769.000000	 63.937115 
768.000000	 63.937044 
767.000000	 63.942885 
766.000000	 63.953280 
765.000000	 63.966870 
764.000000	 63.982605 
763.000000	 64.000105 
762.000000	 64.018869 
761.000000	 64.038896 
760.000000	 64.060330 
759.000000	 64.083600 
758.000000	 64.109110 
757.000000	 64.137387 
756.000000	 64.168977 
755.000000	 64.203858 
754.000000	 64.241385 
753.000000	 64.280247 
752.000000	 64.318680 
751.000000	 64.354395 
750.000000	 64.384818 
749.000000	 64.407491 
748.000000	 64.420795 
747.000000	 64.423942 
746.000000	 64.417386 
745.000000	 64.402484 
744.000000	 64.381456 
743.000000	 64.356684 
742.000000	 64.330697 
741.000000	 64.305043 
740.000000	 64.280509 
739.000000	 64.257168 
738.000000	 64.235067 
737.000000	 64.214348 
736.000000	 64.195775 
735.000000	 64.180898 
734.000000	 64.171481 
733.000000	 64.169239 
732.000000	 64.174628 
731.000000	 64.186453 
730.000000	 64.201521 
729.000000	 64.214920 
728.000000	 64.221024 
727.000000	 64.214563 
726.000000	 64.191913 
725.000000	 64.152526 
724.000000	 64.099001 
723.000000	 64.036774 
722.000000	 63.973021 
721.000000	 63.914966 
720.000000	 63.868856 
719.000000	 63.838386 
718.000000	 63.824748 
717.000000	 63.826727 
716.000000	 63.841462 
715.000000	 63.865470 
714.000000	 63.895463 
713.000000	 63.929057 
712.000000	 63.964247 
711.000000	 63.999629 
710.000000	 64.033889 
709.000000	 64.065837 
708.000000	 64.093923 
707.000000	 64.116692 
706.000000	 64.133191 
705.000000	 64.143085 
704.000000	 64.147305 
703.000000	 64.147233 
702.000000	 64.144396 
701.000000	 64.139986 
700.000000	 64.134716 
699.000000	 64.128851 
698.000000	 64.122605 
697.000000	 64.116716 
696.000000	 64.112782 
695.000000	 64.113092 
694.000000	 64.120364 
693.000000	 64.136981 
692.000000	 64.164209 
691.000000	 64.201307 
690.000000	 64.245104 
689.000000	 64.290547 
688.000000	 64.331150 
687.000000	 64.359927 
686.000000	 64.370703 
685.000000	 64.359235 
684.000000	 64.324188 
683.000000	 64.267754 
682.000000	 64.195656 
681.000000	 64.115929 
680.000000	 64.037895 
679.000000	 63.971066 
678.000000	 63.923430 
677.000000	 63.899922 
676.000000	 63.901925 
675.000000	 63.927292 
674.000000	 63.970756 
673.000000	 64.024710 
672.000000	 64.081287 
671.000000	 64.133381 
670.000000	 64.176321 
669.000000	 64.207625 
668.000000	 64.227700 
667.000000	 64.238834 
666.000000	 64.244151 
665.000000	 64.246511 
664.000000	 64.247798 
663.000000	 64.248418 
662.000000	 64.247584 
661.000000	 64.243745 
660.000000	 64.235353 
659.000000	 64.221596 
658.000000	 64.202666 
657.000000	 64.179563 
656.000000	 64.153933 
655.000000	 64.127469 
654.000000	 64.101290 
653.000000	 64.076113 
652.000000	 64.052033 
651.000000	 64.029026 
650.000000	 64.007568 
649.000000	 63.988494 
648.000000	 63.972902 
647.000000	 63.961839 
646.000000	 63.956141 
645.000000	 63.955688 
644.000000	 63.959145 
643.000000	 63.963961 
642.000000	 63.966894 
641.000000	 63.964915 
640.000000	 63.956117 
639.000000	 63.940000 
638.000000	 63.917374 
637.000000	 63.890337 
636.000000	 63.861894 
635.000000	 63.834762 
634.000000	 63.810873 
633.000000	 63.791298 
632.000000	 63.776040 
631.000000	 63.764643 
630.000000	 63.756489 
629.000000	 63.751029 
628.000000	 63.748455 
627.000000	 63.749146 
626.000000	 63.754200 
625.000000	 63.764357 
624.000000	 63.780689 
623.000000	 63.803768 
622.000000	 63.833856 
621.000000	 63.870382 
620.000000	 63.911986 
619.000000	 63.956952 
618.000000	 64.002275 
617.000000	 64.044046 
616.000000	 64.077591 
615.000000	 64.098286 
614.000000	 64.102220 
613.000000	 64.087176 
612.000000	 64.053249 
611.000000	 64.003181 
610.000000	 63.941884 
609.000000	 63.875699 
608.000000	 63.811326 
607.000000	 63.754630 
606.000000	 63.709378 
605.000000	 63.677215 
604.000000	 63.657426 
603.000000	 63.647937 
602.000000	 63.645839 
601.000000	 63.648891 
600.000000	 63.655352 
599.000000	 63.665342 
598.000000	 63.679909 
597.000000	 63.701462 
596.000000	 63.732123 
595.000000	 63.773488 
594.000000	 63.825058 
593.000000	 63.884472 
592.000000	 63.947725 
591.000000	 64.009308 
590.000000	 64.063644 
589.000000	 64.105439 
588.000000	 64.131045 
587.000000	 64.138555 
586.000000	 64.128327 
585.000000	 64.102816 
584.000000	 64.066267 
583.000000	 64.024734 
582.000000	 63.985276 
581.000000	 63.954734 
580.000000	 63.938593 
579.000000	 63.939023 
578.000000	 63.954401 
577.000000	 63.979220 
576.000000	 64.005565 
575.000000	 64.024114 
574.000000	 64.027547 
573.000000	 64.012169 
572.000000	 63.980221 
571.000000	 63.939332 
570.000000	 63.901424 
569.000000	 63.879632 
568.000000	 63.885021 
567.000000	 63.923430 
566.000000	 63.993883 
565.000000	 64.088416 
564.000000	 64.194107 
563.000000	 64.296913 
562.000000	 64.384031 
561.000000	 64.447212 
560.000000	 64.482808 
559.000000	 64.491891 
558.000000	 64.478111 
557.000000	 64.445519 
556.000000	 64.398336 
555.000000	 64.340376 
554.000000	 64.275455 
553.000000	 64.207983 
552.000000	 64.143371 
551.000000	 64.087891 
550.000000	 64.048624 
549.000000	 64.031791 
548.000000	 64.039921 
547.000000	 64.071345 
546.000000	 64.120507 
545.000000	 64.179110 
544.000000	 64.236736 
543.000000	 64.283657 
542.000000	 64.312863 
541.000000	 64.321327 
540.000000	 64.310550 
539.000000	 64.285492 
538.000000	 64.252424 
537.000000	 64.217662 
536.000000	 64.186596 
535.000000	 64.161372 
534.000000	 64.141988 
533.000000	 64.124703 
532.000000	 64.104533 
531.000000	 64.074563 
530.000000	 64.028072 
529.000000	 63.960790 
528.000000	 63.873147 
527.000000	 63.770818 
526.000000	 63.664937 
525.000000	 63.572645 
524.000000	 63.514757 
523.000000	 63.512730 
522.000000	 63.584256 
521.000000	 63.740420 
520.000000	 63.980674 
519.000000	 64.291977 
518.000000	 64.647507 
517.000000	 65.010523 
516.000000	 65.338945 
515.000000	 65.592741 
514.000000	 65.741086 
513.000000	 65.768408 
512.000000	 65.677189 
511.000000	 65.488553 
510.000000	 65.235972 
509.000000	 64.960646 
508.000000	 64.699935 
507.000000	 64.484500 
506.000000	 64.327883 
505.000000	 64.227414 
504.000000	 64.166784 
503.000000	 64.124488 
502.000000	 64.079022 
501.000000	 64.016175 
500.000000	 63.932299 
499.000000	 63.834595 
498.000000	 63.737225 
497.000000	 63.656044 
496.000000	 63.601136 
495.000000	 63.573718 
494.000000	 63.565874 
493.000000	 63.563346 
492.000000	 63.550925 
491.000000	 63.517141 
490.000000	 63.459277 
489.000000	 63.383436 
488.000000	 63.301181 
487.000000	 63.227128 
486.000000	 63.173103 
485.000000	 63.147187 
484.000000	 63.146781 
483.000000	 63.167643 
482.000000	 63.204526 
481.000000	 63.258671 
480.000000	 63.338804 
479.000000	 63.459753 
478.000000	 63.637137 
477.000000	 63.880252 
476.000000	 64.186739 
475.000000	 64.536046 
474.000000	 64.890813 
473.000000	 65.202236 
472.000000	 65.420699 
471.000000	 65.507364 
470.000000	 65.444564 
469.000000	 65.242075 
468.000000	 64.935302 
467.000000	 64.580154 
466.000000	 64.237737 
465.000000	 63.963675 
464.000000	 63.791394 
463.000000	 63.725256 
462.000000	 63.740301 
461.000000	 63.792705 
460.000000	 63.833260 
459.000000	 63.819146 
458.000000	 63.730907 
457.000000	 63.575077 
456.000000	 63.386082 
455.000000	 63.213324 
454.000000	 63.109207 
453.000000	 63.110351 
452.000000	 63.229131 
451.000000	 63.450312 
450.000000	 63.731002 
449.000000	 64.011073 
448.000000	 64.230489 
447.000000	 64.345836 
446.000000	 64.335680 
445.000000	 64.204835 
444.000000	 63.977670 
443.000000	 63.691353 
442.000000	 63.385367 
441.000000	 63.095712 
440.000000	 62.847757 
439.000000	 62.658762 
438.000000	 62.544107 
437.000000	 62.519001 
436.000000	 62.597513 
435.000000	 62.791776 
434.000000	 63.106322 
433.000000	 63.534069 
432.000000	 64.054226 
431.000000	 64.627957 
430.000000	 65.203213 
429.000000	 65.715456 
428.000000	 66.104626 
427.000000	 66.312551 
426.000000	 66.298818 
425.000000	 66.038274 
424.000000	 65.530514 
423.000000	 64.797163 
422.000000	 63.883137 
421.000000	 62.854480 
420.000000	 61.794352 
419.000000	 60.797286 
418.000000	 59.960007 
417.000000	 59.381389 
416.000000	 59.148478 
415.000000	 59.320092 
414.000000	 59.912633 
413.000000	 60.887575 
412.000000	 62.151432 
411.000000	 63.568234 
410.000000	 64.977049 
409.000000	 66.209840 
408.000000	 67.120599 
407.000000	 67.621970 
406.000000	 67.681837 
405.000000	 67.317914 
404.000000	 66.590809 
403.000000	 65.590047 
402.000000	 64.421057 
401.000000	 63.197255 
400.000000	 62.024688 
399.000000	 61.011195 
398.000000	 60.231208 
397.000000	 59.727931 
396.000000	 59.494590 
395.000000	 59.483814 
394.000000	 59.606862 
393.000000	 59.746575 
392.000000	 59.803557 
391.000000	 59.732890 
390.000000	 59.459447 
389.000000	 58.918547 
388.000000	 58.163785 
387.000000	 57.315921 
386.000000	 56.761312 
385.000000	 56.982922 
384.000000	 57.761549 
383.000000	 58.683562 
382.000000	 59.525704 
381.000000	 60.232305 
380.000000	 61.887621 
379.000000	 65.364408 
378.000000	 70.545768 
377.000000	 76.585459 
376.000000	 80.383372 
375.000000	 79.703712 
374.000000	 74.828052 
373.000000	 67.858386 
372.000000	 64.509081 
371.000000	 68.301749 
370.000000	 78.138613 

