PE IR       SPECTRUM    SPECTRUM    ASCII       PEDS        1.60        
  -1
BZ6BA1~1.ASC
17/04/07
14:16:31.00
17/04/07
14:16:31.00
tln
$BZ1503107-1_t0013$<tbV0>[10.4,-10.4,8.0,0.0,27,1,0]
370.000000
64









2002,4.07    
MIRTGS : RIGHTBACK : INTERNAL 2
MIR : ON : INTERNAL 2
OPTKBR

0.200000
8
8.000000
FILLER
RATIO
SPECTRUM
UNLOCKED 256

DOUBLE
64
COMBINED
1
0
0


1.000000
RATIO


1
0
TRUE
51149
0
LEFT NOT FITTED RIGHT NOT FITTED 0
NONE
NONE
15600
12.000000
4.427000
51148
TRUE
1 0 8 72 0 0 0 0 

15798.010000






#HDR
-1
-1
#GR
CM-1
%T
0.00002384185791015625
0.0
5000.000000
-1.000000
4631
8
76.609730
46.344876
#DATA
5000.000000	64.152169 
4999.000000	64.060258 
4998.000000	63.941383 
4997.000000	63.787674 
4996.000000	63.601040 
4995.000000	63.392257 
4994.000000	63.183951 
4993.000000	63.001418 
4992.000000	62.875270 
4991.000000	62.830519 
4990.000000	62.888956 
4989.000000	63.060998 
4988.000000	63.349199 
4987.000000	63.745880 
4986.000000	64.232850 
4985.000000	64.781498 
4984.000000	65.354180 
4983.000000	65.907001 
4982.000000	66.392731 
4981.000000	66.766309 
4980.000000	66.991305 
4979.000000	67.045164 
4978.000000	66.926145 
4977.000000	66.652536 
4976.000000	66.263198 
4975.000000	65.808129 
4974.000000	65.344095 
4973.000000	64.921641 
4972.000000	64.580059 
4971.000000	64.340424 
4970.000000	64.206600 
4969.000000	64.168286 
4968.000000	64.206051 
4967.000000	64.299249 
4966.000000	64.429378 
4965.000000	64.584302 
4964.000000	64.756155 
4963.000000	64.939045 
4962.000000	65.123724 
4961.000000	65.295624 
4960.000000	65.433454 
4959.000000	65.513372 
4958.000000	65.514039 
4957.000000	65.423750 
4956.000000	65.245246 
4955.000000	64.998173 
4954.000000	64.715957 
4953.000000	64.440202 
4952.000000	64.210629 
4951.000000	64.055132 
4950.000000	63.982915 
4949.000000	63.984704 
4948.000000	64.035153 
4947.000000	64.099431 
4946.000000	64.143967 
4945.000000	64.144635 
4944.000000	64.093875 
4943.000000	64.000463 
4942.000000	63.886952 
4941.000000	63.778781 
4940.000000	63.699293 
4939.000000	63.661718 
4938.000000	63.666582 
4937.000000	63.701391 
4936.000000	63.747000 
4935.000000	63.784003 
4934.000000	63.800644 
4933.000000	63.796782 
4932.000000	63.785004 
4931.000000	63.786196 
4930.000000	63.824486 
4929.000000	63.918805 
4928.000000	64.076995 
4927.000000	64.291453 
4926.000000	64.539480 
4925.000000	64.786267 
4924.000000	64.994072 
4923.000000	65.129017 
4922.000000	65.167593 
4921.000000	65.101909 
4920.000000	64.941859 
4919.000000	64.712691 
4918.000000	64.448547 
4917.000000	64.186286 
4916.000000	63.959670 
4915.000000	63.792896 
4914.000000	63.699293 
4913.000000	63.679122 
4912.000000	63.722753 
4911.000000	63.813471 
4910.000000	63.931727 
4909.000000	64.059710 
4908.000000	64.182496 
4907.000000	64.292097 
4906.000000	64.385485 
4905.000000	64.465165 
4904.000000	64.535474 
4903.000000	64.602065 
4902.000000	64.669251 
4901.000000	64.739465 
4900.000000	64.812278 
4899.000000	64.885449 
4898.000000	64.955258 
4897.000000	65.018415 
4896.000000	65.072345 
4895.000000	65.116143 
4894.000000	65.150022 
4893.000000	65.174794 
4892.000000	65.191268 
4891.000000	65.200734 
4890.000000	65.203809 
4889.000000	65.201139 
4888.000000	65.192604 
4887.000000	65.178704 
4886.000000	65.159416 
4885.000000	65.136194 
4884.000000	65.109586 
4883.000000	65.079379 
4882.000000	65.044426 
4881.000000	65.003418 
4880.000000	64.955353 
4879.000000	64.900398 
4878.000000	64.840793 
4877.000000	64.780855 
4876.000000	64.727425 
4875.000000	64.688420 
4874.000000	64.671039 
4873.000000	64.680027 
4872.000000	64.716553 
4871.000000	64.777588 
4870.000000	64.855957 
4869.000000	64.941406 
4868.000000	65.023064 
4867.000000	65.090990 
4866.000000	65.137815 
4865.000000	65.159463 
4864.000000	65.155625 
4863.000000	65.128874 
4862.000000	65.083193 
4861.000000	65.023136 
4860.000000	64.953088 
4859.000000	64.877057 
4858.000000	64.799261 
4857.000000	64.724493 
4856.000000	64.658164 
4855.000000	64.606928 
4854.000000	64.577627 
4853.000000	64.576864 
4852.000000	64.608979 
4851.000000	64.674782 
4850.000000	64.770436 
4849.000000	64.887356 
4848.000000	65.013241 
4847.000000	65.134263 
4846.000000	65.237474 
4845.000000	65.312957 
4844.000000	65.355420 
4843.000000	65.365242 
4842.000000	65.347051 
4841.000000	65.309000 
4840.000000	65.259528 
4839.000000	65.205669 
4838.000000	65.151596 
4837.000000	65.098810 
4836.000000	65.047264 
4835.000000	64.997339 
4834.000000	64.950895 
4833.000000	64.912390 
4832.000000	64.888024 
4831.000000	64.885330 
4830.000000	64.908933 
4829.000000	64.958381 
4828.000000	65.026855 
4827.000000	65.101194 
4826.000000	65.165209 
4825.000000	65.203166 
4824.000000	65.204977 
4823.000000	65.169072 
4822.000000	65.104174 
4821.000000	65.027403 
4820.000000	64.959955 
4819.000000	64.920949 
4818.000000	64.921474 
4817.000000	64.960789 
4816.000000	65.025472 
4815.000000	65.093255 
4814.000000	65.139031 
4813.000000	65.143299 
4812.000000	65.096759 
4811.000000	65.005993 
4810.000000	64.891552 
4809.000000	64.784526 
4808.000000	64.717388 
4807.000000	64.716172 
4806.000000	64.793419 
4805.000000	64.944148 
4804.000000	65.147495 
4803.000000	65.370392 
4802.000000	65.576720 
4801.000000	65.734076 
4800.000000	65.821218 
4799.000000	65.831899 
4798.000000	65.774798 
4797.000000	65.670013 
4796.000000	65.542554 
4795.000000	65.417313 
4794.000000	65.313243 
4793.000000	65.241932 
4792.000000	65.206336 
4791.000000	65.202546 
4790.000000	65.221476 
4789.000000	65.252947 
4788.000000	65.287256 
4787.000000	65.315222 
4786.000000	65.329885 
4785.000000	65.324854 
4784.000000	65.296959 
4783.000000	65.245819 
4782.000000	65.175127 
4781.000000	65.092754 
4780.000000	65.008401 
4779.000000	64.932942 
4778.000000	64.873909 
4777.000000	64.835047 
4776.000000	64.812827 
4775.000000	64.797496 
4774.000000	64.775228 
4773.000000	64.731502 
4772.000000	64.656710 
4771.000000	64.549040 
4770.000000	64.417338 
4769.000000	64.278912 
4768.000000	64.158964 
4767.000000	64.084386 
4766.000000	64.077854 
4765.000000	64.151406 
4764.000000	64.302349 
4763.000000	64.512777 
4762.000000	64.752864 
4761.000000	64.986896 
4760.000000	65.180134 
4759.000000	65.306520 
4758.000000	65.353178 
4757.000000	65.323042 
4756.000000	65.232634 
4755.000000	65.107870 
4754.000000	64.977216 
4753.000000	64.865732 
4752.000000	64.791393 
4751.000000	64.761352 
4750.000000	64.774107 
4749.000000	64.819431 
4748.000000	64.884042 
4747.000000	64.953064 
4746.000000	65.014696 
4745.000000	65.060210 
4744.000000	65.084481 
4743.000000	65.085744 
4742.000000	65.064430 
4741.000000	65.023684 
4740.000000	64.968323 
4739.000000	64.905405 
4738.000000	64.843010 
4737.000000	64.789557 
4736.000000	64.751911 
4735.000000	64.735007 
4734.000000	64.739847 
4733.000000	64.763617 
4732.000000	64.798998 
4731.000000	64.836120 
4730.000000	64.863491 
4729.000000	64.870929 
4728.000000	64.850735 
4727.000000	64.798402 
4726.000000	64.714288 
4725.000000	64.603519 
4724.000000	64.475703 
4723.000000	64.343500 
4722.000000	64.220643 
4721.000000	64.119315 
4720.000000	64.048409 
4719.000000	64.012718 
4718.000000	64.010882 
4717.000000	64.035892 
4716.000000	64.076113 
4715.000000	64.117622 
4714.000000	64.147686 
4713.000000	64.157533 
4712.000000	64.144563 
4711.000000	64.112806 
4710.000000	64.072155 
4709.000000	64.035749 
4708.000000	64.016842 
4707.000000	64.025235 
4706.000000	64.064621 
4705.000000	64.131402 
4704.000000	64.216089 
4703.000000	64.305090 
4702.000000	64.383935 
4701.000000	64.441132 
4700.000000	64.470434 
4699.000000	64.472889 
4698.000000	64.455485 
4697.000000	64.430022 
4696.000000	64.409518 
4695.000000	64.405035 
4694.000000	64.422798 
4693.000000	64.462828 
4692.000000	64.519906 
4691.000000	64.584445 
4690.000000	64.645743 
4689.000000	64.694380 
4688.000000	64.724922 
4687.000000	64.736652 
4686.000000	64.733481 
4685.000000	64.721989 
4684.000000	64.709758 
4683.000000	64.703512 
4682.000000	64.707398 
4681.000000	64.722824 
4680.000000	64.748239 
4679.000000	64.779877 
4678.000000	64.813280 
4677.000000	64.844775 
4676.000000	64.872384 
4675.000000	64.896106 
4674.000000	64.917826 
4673.000000	64.939951 
4672.000000	64.964842 
4671.000000	64.994311 
4670.000000	65.028285 
4669.000000	65.064477 
4668.000000	65.098857 
4667.000000	65.127253 
4666.000000	65.145063 
4665.000000	65.149164 
4664.000000	65.137362 
4663.000000	65.109395 
4662.000000	65.066075 
4661.000000	65.009450 
4660.000000	64.942693 
4659.000000	64.869904 
4658.000000	64.796113 
4657.000000	64.727234 
4656.000000	64.670133 
4655.000000	64.631986 
4654.000000	64.619469 
4653.000000	64.637017 
4652.000000	64.685630 
4651.000000	64.761424 
4650.000000	64.855575 
4649.000000	64.954781 
4648.000000	65.043401 
4647.000000	65.105986 
4646.000000	65.130043 
4645.000000	65.108704 
4644.000000	65.042161 
4643.000000	64.937567 
4642.000000	64.808082 
4641.000000	64.669561 
4640.000000	64.537930 
4639.000000	64.425635 
4638.000000	64.340257 
4637.000000	64.283013 
4636.000000	64.249682 
4635.000000	64.232730 
4634.000000	64.224123 
4633.000000	64.217758 
4632.000000	64.211273 
4631.000000	64.206552 
4630.000000	64.208459 
4629.000000	64.222764 
4628.000000	64.253592 
4627.000000	64.301371 
4626.000000	64.362049 
4625.000000	64.427399 
4624.000000	64.486980 
4623.000000	64.530754 
4622.000000	64.551758 
4621.000000	64.547395 
4620.000000	64.520597 
4619.000000	64.478683 
4618.000000	64.432001 
4617.000000	64.391112 
4616.000000	64.365077 
4615.000000	64.358949 
4614.000000	64.373874 
4613.000000	64.407300 
4612.000000	64.454436 
4611.000000	64.509606 
4610.000000	64.567971 
4609.000000	64.626097 
4608.000000	64.682602 
4607.000000	64.737796 
4606.000000	64.792037 
4605.000000	64.844679 
4604.000000	64.893794 
4603.000000	64.935898 
4602.000000	64.967131 
4601.000000	64.984130 
4600.000000	64.985108 
4599.000000	64.970564 
4598.000000	64.944100 
4597.000000	64.911627 
4596.000000	64.880156 
4595.000000	64.856505 
4594.000000	64.846801 
4593.000000	64.854288 
4592.000000	64.879369 
4591.000000	64.918208 
4590.000000	64.964199 
4589.000000	65.008211 
4588.000000	65.040588 
4587.000000	65.053319 
4586.000000	65.041637 
4585.000000	65.005683 
4584.000000	64.950251 
4583.000000	64.884424 
4582.000000	64.819478 
4581.000000	64.766216 
4580.000000	64.732503 
4579.000000	64.721250 
4578.000000	64.729857 
4577.000000	64.750647 
4576.000000	64.772558 
4575.000000	64.784121 
4574.000000	64.775991 
4573.000000	64.742922 
4572.000000	64.684700 
4571.000000	64.605236 
4570.000000	64.512014 
4569.000000	64.413428 
4568.000000	64.318013 
4567.000000	64.233040 
4566.000000	64.163947 
4565.000000	64.114642 
4564.000000	64.086675 
4563.000000	64.079618 
4562.000000	64.090967 
4561.000000	64.115834 
4560.000000	64.148211 
4559.000000	64.181041 
4558.000000	64.208054 
4557.000000	64.223933 
4556.000000	64.226222 
4555.000000	64.215183 
4554.000000	64.194035 
4553.000000	64.167928 
4552.000000	64.143466 
4551.000000	64.127016 
4550.000000	64.123773 
4549.000000	64.136409 
4548.000000	64.164447 
4547.000000	64.204287 
4546.000000	64.250636 
4545.000000	64.298033 
4544.000000	64.342379 
4543.000000	64.381599 
4542.000000	64.416646 
4541.000000	64.449787 
4540.000000	64.482355 
4539.000000	64.514231 
4538.000000	64.543342 
4537.000000	64.566111 
4536.000000	64.578294 
4535.000000	64.576554 
4534.000000	64.561343 
4533.000000	64.534926 
4532.000000	64.501786 
4531.000000	64.466190 
4530.000000	64.431834 
4529.000000	64.399695 
4528.000000	64.368104 
4527.000000	64.333653 
4526.000000	64.293169 
4525.000000	64.244508 
4524.000000	64.187741 
4523.000000	64.126753 
4522.000000	64.068841 
4521.000000	64.021205 
4520.000000	63.990259 
4519.000000	63.979291 
4518.000000	63.989615 
4517.000000	64.020514 
4516.000000	64.070916 
4515.000000	64.141130 
4514.000000	64.231967 
4513.000000	64.340901 
4512.000000	64.463949 
4511.000000	64.594197 
4510.000000	64.724135 
4509.000000	64.846968 
4508.000000	64.957308 
4507.000000	65.051984 
4506.000000	65.129685 
4505.000000	65.191268 
4504.000000	65.238428 
4503.000000	65.270757 
4502.000000	65.291905 
4501.000000	65.309786 
4500.000000	65.337944 
4499.000000	65.393328 
4498.000000	65.493988 
4497.000000	65.654301 
4496.000000	65.876960 
4495.000000	66.150760 
4494.000000	66.449952 
4493.000000	66.741561 
4492.000000	66.990065 
4491.000000	67.171025 
4490.000000	67.279934 
4489.000000	67.336010 
4488.000000	67.380809 
4487.000000	67.463397 
4486.000000	67.631363 
4485.000000	67.906665 
4484.000000	68.282151 
4483.000000	68.710064 
4482.000000	69.116401 
4481.000000	69.411039 
4480.000000	69.513416 
4479.000000	69.370985 
4478.000000	68.979048 
4477.000000	68.377757 
4476.000000	67.645287 
4475.000000	66.877532 
4474.000000	66.167116 
4473.000000	65.581488 
4472.000000	65.151762 
4471.000000	64.867448 
4470.000000	64.686632 
4469.000000	64.551091 
4468.000000	64.406585 
4467.000000	64.222931 
4466.000000	64.001750 
4465.000000	63.766002 
4464.000000	63.553285 
4463.000000	63.393950 
4462.000000	63.306188 
4461.000000	63.284969 
4460.000000	63.309788 
4459.000000	63.355278 
4458.000000	63.395690 
4457.000000	63.424015 
4456.000000	63.435888 
4455.000000	63.429427 
4454.000000	63.393616 
4453.000000	63.301086 
4452.000000	63.119745 
4451.000000	62.813138 
4450.000000	62.371945 
4449.000000	61.820077 
4448.000000	61.228561 
4447.000000	60.706257 
4446.000000	60.370159 
4445.000000	60.317873 
4444.000000	60.574436 
4443.000000	61.079049 
4442.000000	61.685490 
4441.000000	62.200999 
4440.000000	62.439417 
4439.000000	62.281179 
4438.000000	61.717867 
4437.000000	60.862851 
4436.000000	59.921693 
4435.000000	59.141325 
4434.000000	58.735942 
4433.000000	58.835339 
4432.000000	59.447860 
4431.000000	60.464763 
4430.000000	61.696767 
4429.000000	62.924027 
4428.000000	63.958597 
4427.000000	64.682984 
4426.000000	65.072727 
4425.000000	65.186643 
4424.000000	65.128684 
4423.000000	65.016603 
4422.000000	64.934945 
4421.000000	64.926552 
4420.000000	64.987134 
4419.000000	65.082979 
4418.000000	65.178179 
4417.000000	65.240883 
4416.000000	65.260529 
4415.000000	65.241670 
4414.000000	65.202522 
4413.000000	65.162062 
4412.000000	65.134549 
4411.000000	65.125751 
4410.000000	65.132379 
4409.000000	65.148353 
4408.000000	65.165805 
4407.000000	65.180087 
4406.000000	65.189528 
4405.000000	65.195727 
4404.000000	65.201878 
4403.000000	65.209245 
4402.000000	65.218329 
4401.000000	65.226769 
4400.000000	65.232849 
4399.000000	65.237069 
4398.000000	65.241813 
4397.000000	65.254783 
4396.000000	65.280270 
4395.000000	65.314912 
4394.000000	65.351772 
4393.000000	65.382051 
4392.000000	65.397191 
4391.000000	65.391612 
4390.000000	65.363836 
4389.000000	65.317082 
4388.000000	65.258359 
4387.000000	65.196824 
4386.000000	65.142536 
4385.000000	65.103769 
4384.000000	65.085506 
4383.000000	65.087914 
4382.000000	65.106987 
4381.000000	65.135169 
4380.000000	65.163493 
4379.000000	65.183615 
4378.000000	65.189552 
4377.000000	65.179133 
4376.000000	65.153431 
4375.000000	65.117049 
4374.000000	65.076398 
4373.000000	65.038323 
4372.000000	65.008592 
4371.000000	64.990472 
4370.000000	64.984297 
4369.000000	64.987134 
4368.000000	64.994287 
4367.000000	64.999771 
4366.000000	64.998054 
4365.000000	64.985322 
4364.000000	64.960169 
4363.000000	64.923930 
4362.000000	64.880108 
4361.000000	64.833664 
4360.000000	64.789605 
4359.000000	64.752173 
4358.000000	64.723658 
4357.000000	64.704251 
4356.000000	64.692068 
4355.000000	64.683747 
4354.000000	64.675331 
4353.000000	64.663267 
4352.000000	64.645528 
4351.000000	64.621877 
4350.000000	64.594435 
4349.000000	64.566326 
4348.000000	64.541625 
4347.000000	64.523983 
4346.000000	64.516186 
4345.000000	64.519143 
4344.000000	64.532279 
4343.000000	64.553451 
4342.000000	64.580059 
4341.000000	64.609479 
4340.000000	64.639735 
4339.000000	64.669299 
4338.000000	64.697813 
4337.000000	64.725446 
4336.000000	64.752697 
4335.000000	64.779758 
4334.000000	64.806556 
4333.000000	64.832472 
4332.000000	64.856123 
4331.000000	64.875268 
4330.000000	64.887666 
4329.000000	64.891052 
4328.000000	64.883470 
4327.000000	64.863777 
4326.000000	64.832186 
4325.000000	64.790391 
4324.000000	64.741587 
4323.000000	64.689970 
4322.000000	64.640283 
4321.000000	64.597201 
4320.000000	64.564561 
4319.000000	64.544844 
4318.000000	64.538645 
4317.000000	64.544916 
4316.000000	64.561057 
4315.000000	64.584159 
4314.000000	64.611029 
4313.000000	64.639925 
4312.000000	64.670133 
4311.000000	64.702415 
4310.000000	64.737915 
4309.000000	64.777731 
4308.000000	64.821863 
4307.000000	64.868974 
4306.000000	64.916038 
4305.000000	64.959216 
4304.000000	64.994645 
4303.000000	65.019512 
4302.000000	65.032458 
4301.000000	65.033864 
4300.000000	65.025091 
4299.000000	65.008282 
4298.000000	64.985275 
4297.000000	64.957427 
4296.000000	64.925336 
4295.000000	64.889192 
4294.000000	64.849352 
4293.000000	64.807295 
4292.000000	64.765596 
4291.000000	64.727663 
4290.000000	64.697337 
4289.000000	64.677882 
4288.000000	64.671206 
4287.000000	64.677000 
4286.000000	64.693140 
4285.000000	64.716029 
4284.000000	64.741754 
4283.000000	64.766955 
4282.000000	64.789700 
4281.000000	64.809489 
4280.000000	64.827179 
4279.000000	64.844083 
4278.000000	64.861464 
4277.000000	64.879655 
4276.000000	64.898061 
4275.000000	64.914846 
4274.000000	64.928007 
4273.000000	64.935183 
4272.000000	64.935207 
4271.000000	64.927053 
4270.000000	64.910674 
4269.000000	64.885711 
4268.000000	64.852309 
4267.000000	64.810109 
4266.000000	64.758658 
4265.000000	64.698195 
4264.000000	64.630079 
4263.000000	64.557480 
4262.000000	64.485335 
4261.000000	64.420342 
4260.000000	64.369463 
4259.000000	64.339280 
4258.000000	64.334225 
4257.000000	64.355707 
4256.000000	64.401316 
4255.000000	64.465689 
4254.000000	64.541220 
4253.000000	64.619421 
4252.000000	64.692258 
4251.000000	64.753603 
4250.000000	64.799904 
4249.000000	64.830183 
4248.000000	64.846110 
4247.000000	64.851379 
4246.000000	64.850831 
4245.000000	64.849567 
4244.000000	64.851641 
4243.000000	64.859867 
4242.000000	64.874815 
4241.000000	64.895629 
4240.000000	64.919710 
4239.000000	64.943981 
4238.000000	64.965105 
4237.000000	64.980792 
4236.000000	64.989590 
4235.000000	64.991188 
4234.000000	64.985871 
4233.000000	64.974737 
4232.000000	64.958572 
4231.000000	64.937686 
4230.000000	64.912128 
4229.000000	64.882135 
4228.000000	64.848637 
4227.000000	64.813566 
4226.000000	64.779853 
4225.000000	64.750933 
4224.000000	64.730143 
4223.000000	64.719486 
4222.000000	64.718723 
4221.000000	64.725327 
4220.000000	64.735293 
4219.000000	64.744091 
4218.000000	64.747405 
4217.000000	64.742708 
4216.000000	64.729976 
4215.000000	64.711380 
4214.000000	64.690303 
4213.000000	64.670705 
4212.000000	64.655566 
4211.000000	64.646792 
4210.000000	64.644360 
4209.000000	64.647364 
4208.000000	64.654469 
4207.000000	64.664840 
4206.000000	64.678692 
4205.000000	64.696645 
4204.000000	64.718985 
4203.000000	64.745116 
4202.000000	64.773130 
4201.000000	64.799380 
4200.000000	64.819025 
4199.000000	64.827656 
4198.000000	64.822673 
4197.000000	64.804029 
4196.000000	64.774441 
4195.000000	64.739418 
4194.000000	64.705181 
4193.000000	64.676976 
4192.000000	64.657020 
4191.000000	64.644241 
4190.000000	64.634251 
4189.000000	64.620566 
4188.000000	64.596748 
4187.000000	64.558339 
4186.000000	64.504671 
4185.000000	64.439082 
4184.000000	64.369249 
4183.000000	64.304256 
4182.000000	64.254689 
4181.000000	64.229226 
4180.000000	64.234399 
4179.000000	64.272570 
4178.000000	64.342546 
4177.000000	64.439821 
4176.000000	64.557218 
4175.000000	64.685940 
4174.000000	64.816308 
4173.000000	64.938616 
4172.000000	65.044236 
4171.000000	65.126585 
4170.000000	65.182137 
4169.000000	65.210509 
4168.000000	65.215325 
4167.000000	65.202569 
4166.000000	65.179848 
4165.000000	65.153765 
4164.000000	65.129899 
4163.000000	65.110707 
4162.000000	65.096330 
4161.000000	65.084195 
4160.000000	65.071439 
4159.000000	65.054821 
4158.000000	65.032482 
4157.000000	65.004110 
4156.000000	64.970660 
4155.000000	64.934468 
4154.000000	64.897942 
4153.000000	64.863967 
4152.000000	64.834451 
4151.000000	64.811515 
4150.000000	64.796805 
4149.000000	64.792227 
4148.000000	64.799523 
4147.000000	64.820241 
4146.000000	64.854907 
4145.000000	64.902639 
4144.000000	64.960527 
4143.000000	65.024614 
4142.000000	65.089869 
4141.000000	65.151309 
4140.000000	65.204310 
4139.000000	65.245652 
4138.000000	65.273284 
4137.000000	65.286469 
4136.000000	65.285062 
4135.000000	65.269541 
4134.000000	65.240359 
4133.000000	65.198683 
4132.000000	65.146017 
4131.000000	65.085148 
4130.000000	65.019679 
4129.000000	64.954614 
4128.000000	64.895296 
4127.000000	64.846968 
4126.000000	64.813518 
4125.000000	64.796614 
4124.000000	64.795923 
4123.000000	64.809036 
4122.000000	64.832544 
4121.000000	64.862728 
4120.000000	64.896678 
4119.000000	64.932870 
4118.000000	64.970970 
4117.000000	65.011620 
4116.000000	65.056085 
4115.000000	65.105175 
4114.000000	65.158510 
4113.000000	65.213871 
4112.000000	65.267753 
4111.000000	65.315699 
4110.000000	65.353298 
4109.000000	65.377211 
4108.000000	65.386533 
4107.000000	65.382337 
4106.000000	65.368270 
4105.000000	65.348553 
4104.000000	65.327286 
4103.000000	65.306878 
4102.000000	65.288043 
4101.000000	65.269470 
4100.000000	65.249013 
4099.000000	65.224647 
4098.000000	65.195846 
4097.000000	65.163707 
4096.000000	65.131068 
4095.000000	65.101575 
4094.000000	65.078759 
4093.000000	65.064501 
4092.000000	65.058374 
4091.000000	65.057778 
4090.000000	65.058660 
4089.000000	65.056777 
4088.000000	65.049076 
4087.000000	65.034604 
4086.000000	65.014958 
4085.000000	64.993524 
4084.000000	64.974665 
4083.000000	64.962148 
4082.000000	64.958000 
4081.000000	64.962553 
4080.000000	64.973855 
4079.000000	64.988517 
4078.000000	65.002036 
4077.000000	65.010428 
4076.000000	65.010285 
4075.000000	64.999699 
4074.000000	64.978384 
4073.000000	64.947485 
4072.000000	64.909982 
4071.000000	64.869809 
4070.000000	64.831829 
4069.000000	64.801001 
4068.000000	64.782142 
4067.000000	64.778900 
4066.000000	64.793634 
4065.000000	64.826893 
4064.000000	64.877319 
4063.000000	64.941692 
4062.000000	65.015459 
4061.000000	65.093135 
4060.000000	65.169382 
4059.000000	65.239167 
4058.000000	65.298414 
4057.000000	65.343785 
4056.000000	65.373349 
4055.000000	65.386033 
4054.000000	65.381908 
4053.000000	65.361833 
4052.000000	65.328288 
4051.000000	65.284419 
4050.000000	65.234661 
4049.000000	65.183687 
4048.000000	65.136551 
4047.000000	65.097069 
4046.000000	65.068054 
4045.000000	65.050077 
4044.000000	65.041780 
4043.000000	65.040135 
4042.000000	65.041351 
4041.000000	65.041851 
4040.000000	65.039086 
4039.000000	65.032148 
4038.000000	65.021848 
4037.000000	65.010452 
4036.000000	65.000963 
4035.000000	64.996170 
4034.000000	64.997959 
4033.000000	65.006804 
4032.000000	65.021705 
4031.000000	65.040922 
4030.000000	65.061974 
4029.000000	65.082454 
4028.000000	65.100145 
4027.000000	65.113806 
4026.000000	65.122652 
4025.000000	65.126013 
4024.000000	65.123414 
4023.000000	65.114402 
4022.000000	65.098619 
4021.000000	65.076160 
4020.000000	65.047430 
4019.000000	65.013480 
4018.000000	64.976358 
4017.000000	64.938950 
4016.000000	64.904808 
4015.000000	64.877343 
4014.000000	64.859557 
4013.000000	64.853668 
4012.000000	64.860558 
4011.000000	64.879560 
4010.000000	64.908576 
4009.000000	64.944434 
4008.000000	64.983439 
4007.000000	65.021920 
4006.000000	65.056824 
4005.000000	65.085673 
4004.000000	65.107083 
4003.000000	65.120387 
4002.000000	65.125608 
4001.000000	65.122842 
4000.000000	65.112185 
3999.000000	65.093588 
3998.000000	65.067195 
3997.000000	65.033674 
3996.000000	64.994502 
3995.000000	64.952230 
3994.000000	64.910531 
3993.000000	64.873814 
3992.000000	64.846467 
3991.000000	64.832282 
3990.000000	64.833259 
3989.000000	64.849352 
3988.000000	64.878416 
3987.000000	64.916372 
3986.000000	64.957928 
3985.000000	64.997482 
3984.000000	65.030241 
3983.000000	65.052509 
3982.000000	65.062451 
3981.000000	65.059971 
3980.000000	65.046620 
3979.000000	65.025067 
3978.000000	64.998579 
3977.000000	64.970707 
3976.000000	64.944863 
3975.000000	64.924263 
3974.000000	64.911627 
3973.000000	64.909052 
3972.000000	64.917516 
3971.000000	64.937400 
3970.000000	64.967155 
3969.000000	65.003943 
3968.000000	65.043449 
3967.000000	65.080523 
3966.000000	65.110015 
3965.000000	65.127372 
3964.000000	65.129852 
3963.000000	65.116882 
3962.000000	65.090298 
3961.000000	65.053868 
3960.000000	65.012407 
3959.000000	64.970922 
3958.000000	64.933371 
3957.000000	64.902186 
3956.000000	64.877653 
3955.000000	64.858388 
3954.000000	64.842271 
3953.000000	64.827680 
3952.000000	64.813733 
3951.000000	64.801478 
3950.000000	64.793276 
3949.000000	64.792919 
3948.000000	64.804077 
3947.000000	64.829492 
3946.000000	64.869856 
3945.000000	64.923286 
3944.000000	64.985322 
3943.000000	65.049576 
3942.000000	65.108680 
3941.000000	65.155625 
3940.000000	65.184974 
3939.000000	65.194034 
3938.000000	65.183258 
3937.000000	65.155959 
3936.000000	65.117621 
3935.000000	65.074419 
3934.000000	65.032219 
3933.000000	64.995145 
3932.000000	64.965319 
3931.000000	64.942383 
3930.000000	64.924120 
3929.000000	64.907670 
3928.000000	64.890813 
3927.000000	64.872455 
3926.000000	64.853525 
3925.000000	64.836525 
3924.000000	64.825105 
3923.000000	64.822840 
3922.000000	64.832401 
3921.000000	64.854049 
3920.000000	64.885735 
3919.000000	64.923334 
3918.000000	64.961147 
3917.000000	64.993548 
3916.000000	65.015649 
3915.000000	65.024423 
3914.000000	65.018796 
3913.000000	64.999771 
3912.000000	64.970064 
3911.000000	64.933538 
3910.000000	64.894700 
3909.000000	64.857721 
3908.000000	64.826655 
3907.000000	64.805126 
3906.000000	64.796209 
3905.000000	64.802455 
3904.000000	64.825177 
3903.000000	64.863991 
3902.000000	64.916372 
3901.000000	64.977502 
3900.000000	65.040111 
3899.000000	65.095543 
3898.000000	65.134978 
3897.000000	65.151453 
3896.000000	65.141153 
3895.000000	65.104913 
3894.000000	65.048265 
3893.000000	64.981031 
3892.000000	64.915466 
3891.000000	64.863562 
3890.000000	64.835071 
3889.000000	64.834570 
3888.000000	64.860916 
3887.000000	64.907217 
3886.000000	64.962863 
3885.000000	65.015983 
3884.000000	65.056705 
3883.000000	65.079355 
3882.000000	65.083122 
3881.000000	65.072226 
3880.000000	65.053582 
3879.000000	65.035033 
3878.000000	65.022540 
3877.000000	65.019059 
3876.000000	65.023946 
3875.000000	65.034127 
3874.000000	65.045380 
3873.000000	65.054106 
3872.000000	65.058469 
3871.000000	65.058636 
3870.000000	65.056586 
3869.000000	65.054821 
3868.000000	65.055489 
3867.000000	65.058946 
3866.000000	65.064501 
3865.000000	65.070438 
3864.000000	65.075612 
3863.000000	65.080022 
3862.000000	65.085005 
3861.000000	65.093159 
3860.000000	65.106940 
3859.000000	65.127897 
3858.000000	65.155386 
3857.000000	65.186285 
3856.000000	65.215277 
3855.000000	65.236091 
3854.000000	65.243363 
3853.000000	65.234422 
3852.000000	65.209841 
3851.000000	65.173721 
3850.000000	65.132617 
3849.000000	65.094208 
3848.000000	65.065217 
3847.000000	65.050029 
3846.000000	65.049815 
3845.000000	65.062618 
3844.000000	65.084385 
3843.000000	65.110039 
3842.000000	65.134978 
3841.000000	65.155911 
3840.000000	65.171098 
3839.000000	65.180587 
3838.000000	65.185594 
3837.000000	65.187811 
3836.000000	65.188646 
3835.000000	65.188503 
3834.000000	65.186715 
3833.000000	65.181612 
3832.000000	65.171241 
3831.000000	65.153956 
3830.000000	65.129590 
3829.000000	65.099382 
3828.000000	65.065956 
3827.000000	65.033078 
3826.000000	65.004849 
3825.000000	64.984917 
3824.000000	64.975500 
3823.000000	64.977526 
3822.000000	64.990282 
3821.000000	65.011906 
3820.000000	65.039587 
3819.000000	65.069913 
3818.000000	65.099573 
3817.000000	65.125584 
3816.000000	65.145659 
3815.000000	65.158247 
3814.000000	65.162920 
3813.000000	65.160155 
3812.000000	65.151643 
3811.000000	65.140175 
3810.000000	65.128755 
3809.000000	65.120673 
3808.000000	65.117883 
3807.000000	65.120887 
3806.000000	65.127944 
3805.000000	65.135884 
3804.000000	65.140318 
3803.000000	65.136957 
3802.000000	65.122604 
3801.000000	65.096306 
3800.000000	65.059423 
3799.000000	65.015268 
3798.000000	64.968490 
3797.000000	64.924049 
3796.000000	64.886474 
3795.000000	64.858770 
3794.000000	64.842391 
3793.000000	64.837098 
3792.000000	64.841175 
3791.000000	64.852046 
3790.000000	64.866614 
3789.000000	64.881801 
3788.000000	64.894938 
3787.000000	64.904308 
3786.000000	64.908742 
3785.000000	64.908528 
3784.000000	64.904594 
3783.000000	64.899158 
3782.000000	64.894771 
3781.000000	64.894008 
3780.000000	64.898753 
3779.000000	64.910125 
3778.000000	64.927983 
3777.000000	64.951610 
3776.000000	64.979481 
3775.000000	65.009903 
3774.000000	65.041589 
3773.000000	65.073323 
3772.000000	65.104031 
3771.000000	65.132451 
3770.000000	65.156865 
3769.000000	65.175199 
3768.000000	65.185165 
3767.000000	65.185070 
3766.000000	65.174317 
3765.000000	65.153789 
3764.000000	65.126132 
3763.000000	65.095567 
3762.000000	65.067148 
3761.000000	65.045714 
3760.000000	65.035080 
3759.000000	65.036869 
3758.000000	65.050721 
3757.000000	65.074253 
3756.000000	65.104103 
3755.000000	65.136551 
3754.000000	65.168571 
3753.000000	65.198445 
3752.000000	65.225696 
3751.000000	65.250873 
3750.000000	65.274548 
3749.000000	65.296840 
3748.000000	65.316963 
3747.000000	65.333199 
3746.000000	65.343499 
3745.000000	65.346193 
3744.000000	65.340542 
3743.000000	65.327310 
3742.000000	65.308451 
3741.000000	65.286684 
3740.000000	65.264821 
3739.000000	65.244746 
3738.000000	65.227150 
3737.000000	65.211582 
3736.000000	65.196633 
3735.000000	65.180945 
3734.000000	65.163516 
3733.000000	65.144228 
3732.000000	65.123987 
3731.000000	65.104651 
3730.000000	65.087985 
3729.000000	65.075778 
3728.000000	65.068650 
3727.000000	65.066528 
3726.000000	65.068578 
3725.000000	65.073609 
3724.000000	65.080523 
3723.000000	65.088629 
3722.000000	65.097713 
3721.000000	65.108132 
3720.000000	65.120029 
3719.000000	65.133357 
3718.000000	65.147614 
3717.000000	65.161800 
3716.000000	65.174627 
3715.000000	65.184950 
3714.000000	65.192151 
3713.000000	65.196394 
3712.000000	65.198707 
3711.000000	65.200638 
3710.000000	65.203976 
3709.000000	65.210199 
3708.000000	65.219879 
3707.000000	65.232229 
3706.000000	65.245270 
3705.000000	65.256214 
3704.000000	65.262222 
3703.000000	65.261030 
3702.000000	65.251755 
3701.000000	65.235042 
3700.000000	65.213298 
3699.000000	65.190029 
3698.000000	65.169310 
3697.000000	65.154647 
3696.000000	65.148758 
3695.000000	65.153121 
3694.000000	65.167570 
3693.000000	65.190625 
3692.000000	65.219497 
3691.000000	65.250730 
3690.000000	65.280580 
3689.000000	65.305566 
3688.000000	65.323138 
3687.000000	65.332055 
3686.000000	65.332508 
3685.000000	65.326070 
3684.000000	65.315532 
3683.000000	65.304279 
3682.000000	65.295767 
3681.000000	65.292716 
3680.000000	65.296936 
3679.000000	65.308547 
3678.000000	65.326452 
3677.000000	65.348052 
3676.000000	65.370178 
3675.000000	65.389132 
3674.000000	65.401506 
3673.000000	65.404295 
3672.000000	65.395569 
3671.000000	65.374636 
3670.000000	65.341830 
3669.000000	65.299272 
3668.000000	65.250325 
3667.000000	65.199518 
3666.000000	65.151858 
3665.000000	65.111899 
3664.000000	65.083169 
3663.000000	65.067386 
3662.000000	65.064239 
3661.000000	65.071725 
3660.000000	65.086674 
3659.000000	65.105748 
3658.000000	65.125966 
3657.000000	65.145730 
3656.000000	65.164852 
3655.000000	65.184235 
3654.000000	65.205001 
3653.000000	65.227794 
3652.000000	65.252161 
3651.000000	65.276217 
3650.000000	65.296959 
3649.000000	65.311264 
3648.000000	65.316343 
3647.000000	65.311050 
3646.000000	65.295624 
3645.000000	65.272021 
3644.000000	65.242934 
3643.000000	65.211510 
3642.000000	65.180516 
3641.000000	65.152001 
3640.000000	65.127229 
3639.000000	65.107035 
3638.000000	65.091919 
3637.000000	65.082335 
3636.000000	65.078783 
3635.000000	65.081787 
3634.000000	65.091276 
3633.000000	65.106415 
3632.000000	65.125441 
3631.000000	65.145683 
3630.000000	65.164303 
3629.000000	65.178561 
3628.000000	65.186405 
3627.000000	65.186762 
3626.000000	65.179634 
3625.000000	65.166115 
3624.000000	65.147805 
3623.000000	65.126681 
3622.000000	65.104889 
3621.000000	65.084648 
3620.000000	65.068221 
3619.000000	65.057921 
3618.000000	65.055799 
3617.000000	65.063548 
3616.000000	65.082025 
3615.000000	65.110659 
3614.000000	65.147352 
3613.000000	65.188574 
3612.000000	65.229868 
3611.000000	65.266680 
3610.000000	65.295076 
3609.000000	65.312552 
3608.000000	65.318536 
3607.000000	65.313911 
3606.000000	65.300679 
3605.000000	65.281105 
3604.000000	65.257167 
3603.000000	65.230536 
3602.000000	65.202283 
3601.000000	65.173506 
3600.000000	65.145492 
3599.000000	65.120077 
3598.000000	65.099573 
3597.000000	65.086245 
3596.000000	65.081787 
3595.000000	65.086722 
3594.000000	65.100145 
3593.000000	65.119481 
3592.000000	65.141177 
3591.000000	65.161395 
3590.000000	65.177035 
3589.000000	65.186429 
3588.000000	65.189695 
3587.000000	65.188407 
3586.000000	65.185070 
3585.000000	65.182328 
3584.000000	65.181970 
3583.000000	65.184545 
3582.000000	65.189123 
3581.000000	65.193700 
3580.000000	65.195655 
3579.000000	65.192651 
3578.000000	65.183138 
3577.000000	65.166902 
3576.000000	65.145111 
3575.000000	65.120029 
3574.000000	65.094661 
3573.000000	65.071773 
3572.000000	65.053367 
3571.000000	65.040278 
3570.000000	65.032219 
3569.000000	65.027999 
3568.000000	65.025806 
3567.000000	65.024089 
3566.000000	65.021562 
3565.000000	65.018081 
3564.000000	65.014123 
3563.000000	65.011048 
3562.000000	65.010118 
3561.000000	65.012407 
3560.000000	65.018415 
3559.000000	65.027928 
3558.000000	65.039849 
3557.000000	65.052723 
3556.000000	65.065026 
3555.000000	65.075683 
3554.000000	65.084218 
3553.000000	65.090942 
3552.000000	65.096807 
3551.000000	65.103125 
3550.000000	65.111112 
3549.000000	65.121388 
3548.000000	65.133762 
3547.000000	65.147233 
3546.000000	65.160107 
3545.000000	65.170359 
3544.000000	65.175986 
3543.000000	65.175795 
3542.000000	65.168976 
3541.000000	65.155553 
3540.000000	65.135860 
3539.000000	65.110945 
3538.000000	65.082144 
3537.000000	65.050840 
3536.000000	65.018630 
3535.000000	64.987516 
3534.000000	64.959502 
3533.000000	64.936542 
3532.000000	64.920377 
3531.000000	64.912056 
3530.000000	64.912247 
3529.000000	64.920926 
3528.000000	64.937257 
3527.000000	64.959549 
3526.000000	64.985561 
3525.000000	65.012907 
3524.000000	65.038919 
3523.000000	65.061020 
3522.000000	65.077185 
3521.000000	65.086293 
3520.000000	65.087985 
3519.000000	65.082907 
3518.000000	65.072369 
3517.000000	65.058541 
3516.000000	65.043830 
3515.000000	65.031075 
3514.000000	65.023159 
3513.000000	65.022850 
3512.000000	65.032386 
3511.000000	65.053129 
3510.000000	65.085244 
3509.000000	65.127134 
3508.000000	65.176081 
3507.000000	65.227603 
3506.000000	65.276408 
3505.000000	65.316629 
3504.000000	65.343403 
3503.000000	65.352725 
3502.000000	65.342664 
3501.000000	65.313363 
3500.000000	65.267062 
3499.000000	65.207576 
3498.000000	65.139722 
3497.000000	65.068626 
3496.000000	64.999151 
3495.000000	64.935374 
3494.000000	64.880657 
3493.000000	64.837074 
3492.000000	64.805626 
3491.000000	64.786267 
3490.000000	64.778089 
3489.000000	64.779043 
3488.000000	64.786887 
3487.000000	64.798784 
3486.000000	64.812850 
3485.000000	64.827251 
3484.000000	64.841508 
3483.000000	64.855885 
3482.000000	64.871597 
3481.000000	64.889955 
3480.000000	64.911985 
3479.000000	64.937806 
3478.000000	64.966106 
3477.000000	64.994430 
3476.000000	65.019226 
3475.000000	65.036797 
3474.000000	65.043997 
3473.000000	65.039181 
3472.000000	65.022373 
3471.000000	64.995503 
3470.000000	64.962053 
3469.000000	64.926576 
3468.000000	64.893484 
3467.000000	64.866471 
3466.000000	64.848113 
3465.000000	64.839601 
3464.000000	64.840769 
3463.000000	64.850258 
3462.000000	64.866375 
3461.000000	64.887404 
3460.000000	64.911580 
3459.000000	64.937591 
3458.000000	64.964008 
3457.000000	64.989638 
3456.000000	65.013003 
3455.000000	65.032672 
3454.000000	65.047073 
3453.000000	65.055370 
3452.000000	65.057778 
3451.000000	65.055561 
3450.000000	65.051126 
3449.000000	65.047645 
3448.000000	65.048432 
3447.000000	65.056109 
3446.000000	65.072083 
3445.000000	65.096163 
3444.000000	65.126490 
3443.000000	65.159773 
3442.000000	65.192174 
3441.000000	65.219640 
3440.000000	65.238952 
3439.000000	65.248084 
3438.000000	65.246677 
3437.000000	65.235686 
3436.000000	65.217304 
3435.000000	65.194749 
3434.000000	65.171289 
3433.000000	65.150070 
3432.000000	65.133047 
3431.000000	65.121197 
3430.000000	65.113782 
3429.000000	65.109133 
3428.000000	65.104770 
3427.000000	65.097665 
3426.000000	65.085744 
3425.000000	65.068149 
3424.000000	65.045952 
3423.000000	65.021800 
3422.000000	64.999699 
3421.000000	64.984059 
3420.000000	64.978528 
3419.000000	64.985060 
3418.000000	65.003085 
3417.000000	65.029764 
3416.000000	65.060353 
3415.000000	65.089368 
3414.000000	65.111660 
3413.000000	65.123724 
3412.000000	65.124464 
3411.000000	65.115404 
3410.000000	65.100216 
3409.000000	65.083694 
3408.000000	65.070533 
3407.000000	65.063858 
3406.000000	65.064477 
3405.000000	65.070581 
3404.000000	65.078544 
3403.000000	65.083599 
3402.000000	65.081596 
3401.000000	65.069842 
3400.000000	65.048170 
3399.000000	65.018868 
3398.000000	64.986276 
3397.000000	64.955568 
3396.000000	64.931321 
3395.000000	64.916515 
3394.000000	64.912080 
3393.000000	64.916706 
3392.000000	64.927530 
3391.000000	64.941310 
3390.000000	64.955282 
3389.000000	64.968061 
3388.000000	64.979958 
3387.000000	64.992427 
3386.000000	65.007185 
3385.000000	65.025544 
3384.000000	65.047574 
3383.000000	65.071916 
3382.000000	65.095949 
3381.000000	65.116524 
3380.000000	65.130376 
3379.000000	65.135383 
3378.000000	65.130424 
3377.000000	65.116167 
3376.000000	65.094208 
3375.000000	65.066766 
3374.000000	65.036010 
3373.000000	65.003895 
3372.000000	64.971661 
3371.000000	64.940023 
3370.000000	64.909243 
3369.000000	64.879727 
3368.000000	64.852166 
3367.000000	64.827537 
3366.000000	64.807462 
3365.000000	64.793682 
3364.000000	64.787960 
3363.000000	64.791440 
3362.000000	64.804697 
3361.000000	64.827084 
3360.000000	64.856767 
3359.000000	64.890789 
3358.000000	64.925408 
3357.000000	64.956426 
3356.000000	64.979982 
3355.000000	64.993405 
3354.000000	64.995527 
3353.000000	64.986944 
3352.000000	64.969897 
3351.000000	64.948081 
3350.000000	64.925861 
3349.000000	64.907407 
3348.000000	64.895963 
3347.000000	64.893317 
3346.000000	64.899659 
3345.000000	64.913630 
3344.000000	64.932680 
3343.000000	64.953875 
3342.000000	64.974594 
3341.000000	64.992904 
3340.000000	65.007686 
3339.000000	65.018868 
3338.000000	65.027093 
3337.000000	65.033650 
3336.000000	65.039825 
3335.000000	65.046620 
3334.000000	65.054607 
3333.000000	65.063476 
3332.000000	65.072298 
3331.000000	65.079545 
3330.000000	65.083718 
3329.000000	65.083575 
3328.000000	65.078711 
3327.000000	65.069460 
3326.000000	65.057325 
3325.000000	65.044522 
3324.000000	65.033507 
3323.000000	65.026450 
3322.000000	65.024852 
3321.000000	65.029191 
3320.000000	65.038943 
3319.000000	65.052723 
3318.000000	65.068554 
3317.000000	65.084362 
3316.000000	65.098333 
3315.000000	65.109300 
3314.000000	65.116691 
3313.000000	65.120267 
3312.000000	65.120244 
3311.000000	65.116858 
3310.000000	65.110611 
3309.000000	65.102100 
3308.000000	65.092062 
3307.000000	65.081429 
3306.000000	65.071249 
3305.000000	65.062642 
3304.000000	65.056538 
3303.000000	65.053272 
3302.000000	65.052795 
3301.000000	65.054202 
3300.000000	65.056037 
3299.000000	65.056610 
3298.000000	65.054392 
3297.000000	65.048575 
3296.000000	65.038871 
3295.000000	65.026021 
3294.000000	65.011358 
3293.000000	64.996886 
3292.000000	64.984726 
3291.000000	64.977002 
3290.000000	64.975452 
3289.000000	64.981317 
3288.000000	64.995098 
3287.000000	65.016222 
3286.000000	65.043258 
3285.000000	65.073633 
3284.000000	65.104055 
3283.000000	65.130996 
3282.000000	65.151286 
3281.000000	65.162634 
3280.000000	65.164065 
3279.000000	65.156269 
3278.000000	65.141367 
3277.000000	65.122556 
3276.000000	65.103173 
3275.000000	65.086054 
3274.000000	65.072917 
3273.000000	65.063977 
3272.000000	65.058302 
3271.000000	65.054345 
3270.000000	65.050601 
3269.000000	65.046072 
3268.000000	65.040874 
3267.000000	65.035915 
3266.000000	65.032839 
3265.000000	65.033245 
3264.000000	65.038633 
3263.000000	65.049505 
3262.000000	65.065336 
3261.000000	65.084791 
3260.000000	65.105533 
3259.000000	65.124917 
3258.000000	65.140080 
3257.000000	65.148663 
3256.000000	65.148925 
3255.000000	65.140199 
3254.000000	65.122914 
3253.000000	65.098571 
3252.000000	65.069842 
3251.000000	65.039920 
3250.000000	65.012097 
3249.000000	64.989089 
3248.000000	64.972019 
3247.000000	64.960575 
3246.000000	64.952683 
3245.000000	64.945578 
3244.000000	64.936256 
3243.000000	64.922857 
3242.000000	64.905142 
3241.000000	64.884853 
3240.000000	64.865064 
3239.000000	64.849424 
3238.000000	64.840912 
3237.000000	64.841246 
3236.000000	64.849996 
3235.000000	64.865040 
3234.000000	64.882850 
3233.000000	64.899754 
3232.000000	64.912891 
3231.000000	64.920949 
3230.000000	64.924478 
3229.000000	64.925599 
3228.000000	64.927220 
3227.000000	64.932131 
3226.000000	64.942121 
3225.000000	64.957690 
3224.000000	64.977955 
3223.000000	65.001249 
3222.000000	65.025186 
3221.000000	65.047669 
3220.000000	65.066933 
3219.000000	65.082049 
3218.000000	65.092802 
3217.000000	65.099501 
3216.000000	65.102696 
3215.000000	65.103197 
3214.000000	65.101575 
3213.000000	65.098237 
3212.000000	65.093421 
3211.000000	65.087437 
3210.000000	65.080690 
3209.000000	65.074086 
3208.000000	65.068697 
3207.000000	65.066027 
3206.000000	65.067458 
3205.000000	65.074110 
3204.000000	65.086293 
3203.000000	65.103650 
3202.000000	65.124702 
3201.000000	65.147233 
3200.000000	65.168452 
3199.000000	65.185427 
3198.000000	65.195822 
3197.000000	65.198040 
3196.000000	65.191674 
3195.000000	65.177416 
3194.000000	65.156817 
3193.000000	65.132117 
3192.000000	65.105676 
3191.000000	65.079903 
3190.000000	65.056943 
3189.000000	65.038561 
3188.000000	65.026164 
3187.000000	65.020513 
3186.000000	65.021896 
3185.000000	65.030097 
3184.000000	65.044188 
3183.000000	65.062713 
3182.000000	65.083813 
3181.000000	65.105700 
3180.000000	65.126538 
3179.000000	65.145254 
3178.000000	65.161395 
3177.000000	65.175199 
3176.000000	65.187168 
3175.000000	65.197896 
3174.000000	65.207648 
3173.000000	65.216088 
3172.000000	65.222215 
3171.000000	65.224909 
3170.000000	65.223431 
3169.000000	65.217709 
3168.000000	65.208768 
3167.000000	65.198516 
3166.000000	65.189456 
3165.000000	65.184092 
3164.000000	65.183997 
3163.000000	65.189337 
3162.000000	65.198636 
3161.000000	65.209174 
3160.000000	65.217709 
3159.000000	65.221285 
3158.000000	65.218210 
3157.000000	65.208601 
3156.000000	65.194177 
3155.000000	65.177917 
3154.000000	65.163183 
3153.000000	65.152716 
3152.000000	65.147781 
3151.000000	65.147876 
3150.000000	65.150737 
3149.000000	65.153121 
3148.000000	65.151548 
3147.000000	65.143370 
3146.000000	65.127182 
3145.000000	65.103363 
3144.000000	65.073847 
3143.000000	65.041947 
3142.000000	65.011215 
3141.000000	64.985370 
3140.000000	64.967513 
3139.000000	64.959788 
3138.000000	64.963340 
3137.000000	64.978098 
3136.000000	65.002751 
3135.000000	65.034818 
3134.000000	65.070819 
3133.000000	65.106892 
3132.000000	65.139102 
3131.000000	65.164184 
3130.000000	65.179896 
3129.000000	65.185809 
3128.000000	65.182805 
3127.000000	65.173268 
3126.000000	65.160417 
3125.000000	65.147399 
3124.000000	65.136885 
3123.000000	65.130233 
3122.000000	65.127539 
3121.000000	65.127325 
3120.000000	65.127396 
3119.000000	65.125322 
3118.000000	65.119314 
3117.000000	65.108776 
3116.000000	65.094876 
3115.000000	65.080022 
3114.000000	65.067458 
3113.000000	65.060472 
3112.000000	65.061426 
3111.000000	65.071344 
3110.000000	65.089273 
3109.000000	65.112781 
3108.000000	65.138363 
3107.000000	65.162277 
3106.000000	65.181374 
3105.000000	65.193772 
3104.000000	65.198945 
3103.000000	65.197825 
3102.000000	65.192270 
3101.000000	65.184688 
3100.000000	65.177202 
3099.000000	65.171051 
3098.000000	65.166687 
3097.000000	65.163731 
3096.000000	65.161252 
3095.000000	65.158128 
3094.000000	65.153479 
3093.000000	65.147042 
3092.000000	65.139031 
3091.000000	65.130162 
3090.000000	65.121340 
3089.000000	65.113353 
3088.000000	65.106606 
3087.000000	65.100884 
3086.000000	65.095424 
3085.000000	65.089178 
3084.000000	65.081048 
3083.000000	65.070581 
3082.000000	65.058159 
3081.000000	65.045309 
3080.000000	65.034246 
3079.000000	65.027570 
3078.000000	65.027427 
3077.000000	65.034651 
3076.000000	65.048503 
3075.000000	65.066409 
3074.000000	65.084600 
3073.000000	65.098667 
3072.000000	65.104651 
3071.000000	65.100002 
3070.000000	65.084099 
3069.000000	65.058565 
3068.000000	65.026831 
3067.000000	64.993476 
3066.000000	64.963388 
3065.000000	64.940547 
3064.000000	64.927530 
3063.000000	64.925265 
3062.000000	64.933013 
3061.000000	64.948868 
3060.000000	64.970207 
3059.000000	64.994287 
3058.000000	65.018606 
3057.000000	65.041208 
3056.000000	65.060758 
3055.000000	65.076661 
3054.000000	65.088748 
3053.000000	65.097332 
3052.000000	65.102672 
3051.000000	65.104937 
3050.000000	65.104079 
3049.000000	65.100240 
3048.000000	65.093493 
3047.000000	65.084457 
3046.000000	65.073871 
3045.000000	65.063214 
3044.000000	65.053582 
3043.000000	65.045976 
3042.000000	65.040516 
3041.000000	65.036678 
3040.000000	65.033221 
3039.000000	65.028548 
3038.000000	65.021371 
3037.000000	65.011143 
3036.000000	64.998173 
3035.000000	64.983677 
3034.000000	64.969491 
3033.000000	64.957499 
3032.000000	64.948892 
3031.000000	64.943885 
3030.000000	64.941406 
3029.000000	64.939570 
3028.000000	64.936590 
3027.000000	64.931392 
3026.000000	64.923834 
3025.000000	64.915156 
3024.000000	64.907455 
3023.000000	64.903211 
3022.000000	64.904236 
3021.000000	64.911389 
3020.000000	64.924240 
3019.000000	64.941358 
3018.000000	64.960622 
3017.000000	64.980053 
3016.000000	64.998245 
3015.000000	65.014815 
3014.000000	65.030455 
3013.000000	65.046453 
3012.000000	65.064072 
3011.000000	65.084028 
3010.000000	65.106034 
3009.000000	65.128636 
3008.000000	65.149378 
3007.000000	65.165328 
3006.000000	65.173935 
3005.000000	65.173506 
3004.000000	65.163564 
3003.000000	65.145063 
3002.000000	65.120220 
3001.000000	65.092015 
3000.000000	65.063810 
2999.000000	65.038490 
2998.000000	65.018153 
2997.000000	65.004134 
2996.000000	64.996647 
2995.000000	64.995098 
2994.000000	64.998292 
2993.000000	65.004825 
2992.000000	65.013289 
2991.000000	65.022444 
2990.000000	65.031266 
2989.000000	65.038919 
2988.000000	65.044641 
2987.000000	65.047788 
2986.000000	65.047907 
2985.000000	65.044951 
2984.000000	65.039205 
2983.000000	65.031170 
2982.000000	65.021824 
2981.000000	65.012311 
2980.000000	65.003752 
2979.000000	64.997172 
2978.000000	64.993309 
2977.000000	64.992380 
2976.000000	64.994025 
2975.000000	64.997005 
2974.000000	64.999532 
2973.000000	64.999294 
2972.000000	64.993977 
2971.000000	64.981842 
2970.000000	64.962029 
2969.000000	64.935207 
2968.000000	64.903688 
2967.000000	64.871144 
2966.000000	64.841890 
2965.000000	64.820051 
2964.000000	64.808869 
2963.000000	64.809679 
2962.000000	64.821648 
2961.000000	64.842057 
2960.000000	64.866709 
2959.000000	64.891147 
2958.000000	64.911437 
2957.000000	64.925169 
2956.000000	64.931607 
2955.000000	64.931488 
2954.000000	64.926648 
2953.000000	64.919161 
2952.000000	64.910840 
2951.000000	64.902830 
2950.000000	64.895820 
2949.000000	64.890217 
2948.000000	64.886474 
2947.000000	64.885401 
2946.000000	64.888215 
2945.000000	64.896178 
2944.000000	64.910340 
2943.000000	64.930748 
2942.000000	64.956426 
2941.000000	64.985179 
2940.000000	65.013790 
2939.000000	65.038681 
2938.000000	65.056610 
2937.000000	65.065598 
2936.000000	65.064978 
2935.000000	65.055584 
2934.000000	65.039515 
2933.000000	65.019631 
2932.000000	64.998888 
2931.000000	64.979791 
2930.000000	64.964032 
2929.000000	64.952349 
2928.000000	64.944672 
2927.000000	64.940237 
2926.000000	64.937996 
2925.000000	64.936709 
2924.000000	64.935231 
2923.000000	64.932847 
2922.000000	64.928865 
2921.000000	64.923071 
2920.000000	64.915537 
2919.000000	64.906907 
2918.000000	64.898061 
2917.000000	64.890480 
2916.000000	64.885807 
2915.000000	64.885759 
2914.000000	64.891648 
2913.000000	64.903998 
2912.000000	64.922595 
2911.000000	64.946079 
2910.000000	64.972233 
2909.000000	64.998149 
2908.000000	65.020799 
2907.000000	65.037488 
2906.000000	65.046453 
2905.000000	65.047001 
2904.000000	65.039730 
2903.000000	65.026283 
2902.000000	65.009140 
2901.000000	64.990639 
2900.000000	64.972662 
2899.000000	64.956474 
2898.000000	64.942598 
2897.000000	64.930939 
2896.000000	64.920949 
2895.000000	64.912104 
2894.000000	64.904022 
2893.000000	64.896559 
2892.000000	64.889526 
2891.000000	64.882493 
2890.000000	64.875149 
2889.000000	64.866805 
2888.000000	64.856982 
2887.000000	64.845275 
2886.000000	64.832019 
2885.000000	64.818120 
2884.000000	64.805173 
2883.000000	64.795064 
2882.000000	64.789843 
2881.000000	64.791154 
2880.000000	64.800024 
2879.000000	64.816355 
2878.000000	64.839315 
2877.000000	64.867520 
2876.000000	64.899253 
2875.000000	64.932727 
2874.000000	64.966583 
2873.000000	64.999771 
2872.000000	65.031504 
2871.000000	65.060973 
2870.000000	65.087199 
2869.000000	65.108871 
2868.000000	65.124702 
2867.000000	65.133666 
2866.000000	65.135288 
2865.000000	65.129876 
2864.000000	65.118956 
2863.000000	65.104794 
2862.000000	65.090203 
2861.000000	65.077376 
2860.000000	65.068054 
2859.000000	65.062355 
2858.000000	65.059232 
2857.000000	65.056300 
2856.000000	65.051031 
2855.000000	65.041279 
2854.000000	65.026211 
2853.000000	65.006566 
2852.000000	64.984560 
2851.000000	64.963364 
2850.000000	64.946198 
2849.000000	64.935398 
2848.000000	64.931774 
2847.000000	64.934396 
2846.000000	64.940905 
2845.000000	64.948058 
2844.000000	64.952754 
2843.000000	64.952826 
2842.000000	64.947533 
2841.000000	64.937615 
2840.000000	64.925074 
2839.000000	64.912462 
2838.000000	64.902329 
2837.000000	64.896392 
2836.000000	64.895272 
2835.000000	64.898681 
2834.000000	64.905405 
2833.000000	64.914011 
2832.000000	64.922809 
2831.000000	64.930486 
2830.000000	64.936113 
2829.000000	64.939141 
2828.000000	64.939498 
2827.000000	64.937281 
2826.000000	64.932942 
2825.000000	64.926958 
2824.000000	64.920020 
2823.000000	64.912796 
2822.000000	64.905977 
2821.000000	64.900326 
2820.000000	64.896512 
2819.000000	64.895153 
2818.000000	64.896678 
2817.000000	64.901590 
2816.000000	64.910101 
2815.000000	64.922356 
2814.000000	64.938068 
2813.000000	64.956951 
2812.000000	64.978218 
2811.000000	65.000867 
2810.000000	65.023469 
2809.000000	65.044355 
2808.000000	65.061879 
2807.000000	65.074467 
2806.000000	65.080952 
2805.000000	65.080571 
2804.000000	65.073394 
2803.000000	65.060043 
2802.000000	65.041804 
2801.000000	65.020275 
2800.000000	64.997386 
2799.000000	64.974856 
2798.000000	64.954257 
2797.000000	64.936685 
2796.000000	64.922928 
2795.000000	64.913415 
2794.000000	64.908409 
2793.000000	64.908027 
2792.000000	64.912271 
2791.000000	64.920973 
2790.000000	64.933991 
2789.000000	64.950823 
2788.000000	64.970827 
2787.000000	64.992928 
2786.000000	65.015435 
2785.000000	65.036439 
2784.000000	65.053629 
2783.000000	65.064692 
2782.000000	65.067672 
2781.000000	65.061354 
2780.000000	65.045547 
2779.000000	65.021252 
2778.000000	64.990448 
2777.000000	64.956068 
2776.000000	64.921402 
2775.000000	64.889574 
2774.000000	64.863324 
2773.000000	64.844608 
2772.000000	64.834403 
2771.000000	64.832878 
2770.000000	64.839458 
2769.000000	64.853048 
2768.000000	64.872145 
2767.000000	64.895200 
2766.000000	64.920425 
2765.000000	64.945960 
2764.000000	64.969944 
2763.000000	64.990615 
2762.000000	65.006303 
2761.000000	65.015697 
2760.000000	65.018105 
2759.000000	65.013480 
2758.000000	65.002822 
2757.000000	64.987802 
2756.000000	64.970707 
2755.000000	64.953899 
2754.000000	64.939641 
2753.000000	64.929413 
2752.000000	64.923858 
2751.000000	64.922738 
2750.000000	64.925193 
2749.000000	64.929938 
2748.000000	64.935564 
2747.000000	64.940953 
2746.000000	64.945244 
2745.000000	64.948081 
2744.000000	64.949440 
2743.000000	64.949893 
2742.000000	64.950394 
2741.000000	64.952039 
2740.000000	64.956092 
2739.000000	64.963746 
2738.000000	64.975857 
2737.000000	64.992809 
2736.000000	65.014195 
2735.000000	65.039038 
2734.000000	65.065622 
2733.000000	65.091848 
2732.000000	65.115475 
2731.000000	65.134596 
2730.000000	65.147638 
2729.000000	65.153980 
2728.000000	65.153336 
2727.000000	65.146064 
2726.000000	65.132713 
2725.000000	65.114235 
2724.000000	65.091824 
2723.000000	65.066838 
2722.000000	65.040922 
2721.000000	65.015983 
2720.000000	64.993619 
2719.000000	64.974904 
2718.000000	64.960002 
2717.000000	64.948201 
2716.000000	64.938116 
2715.000000	64.928007 
2714.000000	64.916348 
2713.000000	64.902353 
2712.000000	64.886569 
2711.000000	64.870953 
2710.000000	64.858365 
2709.000000	64.851975 
2708.000000	64.854383 
2707.000000	64.866900 
2706.000000	64.888739 
2705.000000	64.917373 
2704.000000	64.948868 
2703.000000	64.978742 
2702.000000	65.002608 
2701.000000	65.017437 
2700.000000	65.021777 
2699.000000	65.016126 
2698.000000	65.002346 
2697.000000	64.983725 
2696.000000	64.964008 
2695.000000	64.946770 
2694.000000	64.935278 
2693.000000	64.931225 
2692.000000	64.934921 
2691.000000	64.945077 
2690.000000	64.959478 
2689.000000	64.974975 
2688.000000	64.988422 
2687.000000	64.997196 
2686.000000	64.999914 
2685.000000	64.996767 
2684.000000	64.989495 
2683.000000	64.980959 
2682.000000	64.974284 
2681.000000	64.972233 
2680.000000	64.976310 
2679.000000	64.986348 
2678.000000	65.000486 
2677.000000	65.015721 
2676.000000	65.028452 
2675.000000	65.035629 
2674.000000	65.035343 
2673.000000	65.027356 
2672.000000	65.013098 
2671.000000	64.995098 
2670.000000	64.976811 
2669.000000	64.961624 
2668.000000	64.952445 
2667.000000	64.951062 
2666.000000	64.957976 
2665.000000	64.972472 
2664.000000	64.992833 
2663.000000	65.016651 
2662.000000	65.040874 
2661.000000	65.062546 
2660.000000	65.078711 
2659.000000	65.087103 
2658.000000	65.086507 
2657.000000	65.076851 
2656.000000	65.059399 
2655.000000	65.036344 
2654.000000	65.010643 
2653.000000	64.985322 
2652.000000	64.962983 
2651.000000	64.945340 
2650.000000	64.932870 
2649.000000	64.925241 
2648.000000	64.921307 
2647.000000	64.919877 
2646.000000	64.920020 
2645.000000	64.921522 
2644.000000	64.924621 
2643.000000	64.930057 
2642.000000	64.938473 
2641.000000	64.950108 
2640.000000	64.964413 
2639.000000	64.980268 
2638.000000	64.995956 
2637.000000	65.009760 
2636.000000	65.020298 
2635.000000	65.026926 
2634.000000	65.029668 
2633.000000	65.029263 
2632.000000	65.026736 
2631.000000	65.023183 
2630.000000	65.019464 
2629.000000	65.016078 
2628.000000	65.012884 
2627.000000	65.009236 
2626.000000	65.004038 
2625.000000	64.996266 
2624.000000	64.985060 
2623.000000	64.969801 
2622.000000	64.950466 
2621.000000	64.927506 
2620.000000	64.902281 
2619.000000	64.876675 
2618.000000	64.853024 
2617.000000	64.833712 
2616.000000	64.820909 
2615.000000	64.816284 
2614.000000	64.820504 
2613.000000	64.832854 
2612.000000	64.851522 
2611.000000	64.873838 
2610.000000	64.896702 
2609.000000	64.916992 
2608.000000	64.932370 
2607.000000	64.941573 
2606.000000	64.944696 
2605.000000	64.943075 
2604.000000	64.939117 
2603.000000	64.935803 
2602.000000	64.936113 
2601.000000	64.942407 
2600.000000	64.955973 
2599.000000	64.976716 
2598.000000	65.003275 
2597.000000	65.033125 
2596.000000	65.063095 
2595.000000	65.089774 
2594.000000	65.110301 
2593.000000	65.122556 
2592.000000	65.125489 
2591.000000	65.119218 
2590.000000	65.104961 
2589.000000	65.084600 
2588.000000	65.060281 
2587.000000	65.034055 
2586.000000	65.007829 
2585.000000	64.983105 
2584.000000	64.960932 
2583.000000	64.942097 
2582.000000	64.927244 
2581.000000	64.916801 
2580.000000	64.911103 
2579.000000	64.910101 
2578.000000	64.913487 
2577.000000	64.920544 
2576.000000	64.930415 
2575.000000	64.941906 
2574.000000	64.953947 
2573.000000	64.965534 
2572.000000	64.975953 
2571.000000	64.984822 
2570.000000	64.992141 
2569.000000	64.998006 
2568.000000	65.002560 
2567.000000	65.006017 
2566.000000	65.008306 
2565.000000	65.009450 
2564.000000	65.009331 
2563.000000	65.007901 
2562.000000	65.005540 
2561.000000	65.002942 
2560.000000	65.001034 
2559.000000	65.000820 
2558.000000	65.003228 
2557.000000	65.008616 
2556.000000	65.016722 
2555.000000	65.026593 
2554.000000	65.036845 
2553.000000	65.045857 
2552.000000	65.052199 
2551.000000	65.055012 
2550.000000	65.054035 
2549.000000	65.049767 
2548.000000	65.043234 
2547.000000	65.035629 
2546.000000	65.028166 
2545.000000	65.021920 
2544.000000	65.017390 
2543.000000	65.014672 
2542.000000	65.013599 
2541.000000	65.013909 
2540.000000	65.015220 
2539.000000	65.017342 
2538.000000	65.020394 
2537.000000	65.024685 
2536.000000	65.030479 
2535.000000	65.037584 
2534.000000	65.045523 
2533.000000	65.053081 
2532.000000	65.058565 
2531.000000	65.060138 
2530.000000	65.056300 
2529.000000	65.046358 
2528.000000	65.030503 
2527.000000	65.010118 
2526.000000	64.987301 
2525.000000	64.964795 
2524.000000	64.945316 
2523.000000	64.931058 
2522.000000	64.923429 
2521.000000	64.922761 
2520.000000	64.928412 
2519.000000	64.938545 
2518.000000	64.950776 
2517.000000	64.962410 
2516.000000	64.970946 
2515.000000	64.974498 
2514.000000	64.971804 
2513.000000	64.962768 
2512.000000	64.948010 
2511.000000	64.928865 
2510.000000	64.906883 
2509.000000	64.883852 
2508.000000	64.861273 
2507.000000	64.840292 
2506.000000	64.821672 
2505.000000	64.805817 
2504.000000	64.792966 
2503.000000	64.783287 
2502.000000	64.776945 
2501.000000	64.774036 
2500.000000	64.774799 
2499.000000	64.779329 
2498.000000	64.787578 
2497.000000	64.799404 
2496.000000	64.814662 
2495.000000	64.833211 
2494.000000	64.854979 
2493.000000	64.879775 
2492.000000	64.907264 
2491.000000	64.936447 
2490.000000	64.966154 
2489.000000	64.994716 
2488.000000	65.020298 
2487.000000	65.041160 
2486.000000	65.056157 
2485.000000	65.064835 
2484.000000	65.067720 
2483.000000	65.065836 
2482.000000	65.060973 
2481.000000	65.054583 
2480.000000	65.048122 
2479.000000	65.042209 
2478.000000	65.037035 
2477.000000	65.032124 
2476.000000	65.026855 
2475.000000	65.020465 
2474.000000	65.012598 
2473.000000	65.003037 
2472.000000	64.991903 
2471.000000	64.979243 
2470.000000	64.965128 
2469.000000	64.949560 
2468.000000	64.932751 
2467.000000	64.915132 
2466.000000	64.897561 
2465.000000	64.881348 
2464.000000	64.868354 
2463.000000	64.860343 
2462.000000	64.858675 
2461.000000	64.863967 
2460.000000	64.875841 
2459.000000	64.892458 
2458.000000	64.911270 
2457.000000	64.929175 
2456.000000	64.943385 
2455.000000	64.951848 
2454.000000	64.953780 
2453.000000	64.949679 
2452.000000	64.941096 
2451.000000	64.930152 
2450.000000	64.918732 
2449.000000	64.908218 
2448.000000	64.899110 
2447.000000	64.891076 
2446.000000	64.883351 
2445.000000	64.875149 
2444.000000	64.866065 
2443.000000	64.856600 
2442.000000	64.847850 
2441.000000	64.841318 
2440.000000	64.838337 
2439.000000	64.839625 
2438.000000	64.844822 
2437.000000	64.852666 
2436.000000	64.860939 
2435.000000	64.867639 
2434.000000	64.871191 
2433.000000	64.871263 
2432.000000	64.868998 
2431.000000	64.866518 
2430.000000	64.866495 
2429.000000	64.871287 
2428.000000	64.882326 
2427.000000	64.899349 
2426.000000	64.920496 
2425.000000	64.942455 
2424.000000	64.961409 
2423.000000	64.973807 
2422.000000	64.977216 
2421.000000	64.970779 
2420.000000	64.955568 
2419.000000	64.934015 
2418.000000	64.909267 
2417.000000	64.884710 
2416.000000	64.863038 
2415.000000	64.845991 
2414.000000	64.834070 
2413.000000	64.826798 
2412.000000	64.822959 
2411.000000	64.821147 
2410.000000	64.820194 
2409.000000	64.819216 
2408.000000	64.818072 
2407.000000	64.817023 
2406.000000	64.816784 
2405.000000	64.818024 
2404.000000	64.821457 
2403.000000	64.827466 
2402.000000	64.836192 
2401.000000	64.847326 
2400.000000	64.860296 
2399.000000	64.874410 
2398.000000	64.888858 
2397.000000	64.902997 
2396.000000	64.916348 
2395.000000	64.928555 
2394.000000	64.939451 
2393.000000	64.948892 
2392.000000	64.956665 
2391.000000	64.962506 
2390.000000	64.965963 
2389.000000	64.966511 
2388.000000	64.963722 
2387.000000	64.957594 
2386.000000	64.948606 
2385.000000	64.937853 
2384.000000	64.926934 
2383.000000	64.917707 
2382.000000	64.911866 
2381.000000	64.910769 
2380.000000	64.914679 
2379.000000	64.923095 
2378.000000	64.934611 
2377.000000	64.947414 
2376.000000	64.959597 
2375.000000	64.969897 
2374.000000	64.977693 
2373.000000	64.983272 
2372.000000	64.987683 
2371.000000	64.992260 
2370.000000	64.998078 
2369.000000	65.005683 
2368.000000	65.014958 
2367.000000	65.025043 
2366.000000	65.034484 
2365.000000	65.041565 
2364.000000	65.044856 
2363.000000	65.043210 
2362.000000	65.036249 
2361.000000	65.024280 
2360.000000	65.008211 
2359.000000	64.989542 
2358.000000	64.970016 
2357.000000	64.951586 
2356.000000	64.936161 
2355.000000	64.925384 
2354.000000	64.920330 
2353.000000	64.921402 
2352.000000	64.927887 
2351.000000	64.938306 
2350.000000	64.950561 
2349.000000	64.962077 
2348.000000	64.970517 
2347.000000	64.973926 
2346.000000	64.971280 
2345.000000	64.962530 
2344.000000	64.948487 
2343.000000	64.930629 
2342.000000	64.910817 
2341.000000	64.891004 
2340.000000	64.872670 
2339.000000	64.857029 
2338.000000	64.844822 
2337.000000	64.836239 
2336.000000	64.831233 
2335.000000	64.829325 
2334.000000	64.829921 
2333.000000	64.832401 
2332.000000	64.835906 
2331.000000	64.839792 
2330.000000	64.843535 
2329.000000	64.847016 
2328.000000	64.850282 
2327.000000	64.853572 
2326.000000	64.857196 
2325.000000	64.861154 
2324.000000	64.865088 
2323.000000	64.868617 
2322.000000	64.871120 
2321.000000	64.872264 
2320.000000	64.871978 
2319.000000	64.870572 
2318.000000	64.868831 
2317.000000	64.867806 
2316.000000	64.868402 
2315.000000	64.871168 
2314.000000	64.876246 
2313.000000	64.883136 
2312.000000	64.890933 
2311.000000	64.898395 
2310.000000	64.904356 
2309.000000	64.907908 
2308.000000	64.908695 
2307.000000	64.906787 
2306.000000	64.902687 
2305.000000	64.897036 
2304.000000	64.890551 
2303.000000	64.884042 
2302.000000	64.878201 
2301.000000	64.873671 
2300.000000	64.870882 
2299.000000	64.870166 
2298.000000	64.871382 
2297.000000	64.874148 
2296.000000	64.877605 
2295.000000	64.880752 
2294.000000	64.882230 
2293.000000	64.880824 
2292.000000	64.875769 
2291.000000	64.866638 
2290.000000	64.853882 
2289.000000	64.838576 
2288.000000	64.822411 
2287.000000	64.807367 
2286.000000	64.795255 
2285.000000	64.787721 
2284.000000	64.785647 
2283.000000	64.789104 
2282.000000	64.797234 
2281.000000	64.808607 
2280.000000	64.821267 
2279.000000	64.833259 
2278.000000	64.842748 
2277.000000	64.848542 
2276.000000	64.850211 
2275.000000	64.848232 
2274.000000	64.843869 
2273.000000	64.838814 
2272.000000	64.834833 
2271.000000	64.833498 
2270.000000	64.835739 
2269.000000	64.841914 
2268.000000	64.851665 
2267.000000	64.864015 
2266.000000	64.877748 
2265.000000	64.891600 
2264.000000	64.904475 
2263.000000	64.915633 
2262.000000	64.924716 
2261.000000	64.931654 
2260.000000	64.936709 
2259.000000	64.940047 
2258.000000	64.941930 
2257.000000	64.942431 
2256.000000	64.941549 
2255.000000	64.939236 
2254.000000	64.935445 
2253.000000	64.930129 
2252.000000	64.923357 
2251.000000	64.915275 
2250.000000	64.906382 
2249.000000	64.897203 
2248.000000	64.888525 
2247.000000	64.880990 
2246.000000	64.875173 
2245.000000	64.871430 
2244.000000	64.869713 
2243.000000	64.869523 
2242.000000	64.870095 
2241.000000	64.870476 
2240.000000	64.869880 
2239.000000	64.867782 
2238.000000	64.864087 
2237.000000	64.859223 
2236.000000	64.853906 
2235.000000	64.848995 
2234.000000	64.845180 
2233.000000	64.842700 
2232.000000	64.841365 
2231.000000	64.840483 
2230.000000	64.839124 
2229.000000	64.836359 
2228.000000	64.831781 
2227.000000	64.825654 
2226.000000	64.819097 
2225.000000	64.813828 
2224.000000	64.811849 
2223.000000	64.814782 
2222.000000	64.823508 
2221.000000	64.837527 
2220.000000	64.855265 
2219.000000	64.874076 
2218.000000	64.891052 
2217.000000	64.903616 
2216.000000	64.910173 
2215.000000	64.910411 
2214.000000	64.905428 
2213.000000	64.897298 
2212.000000	64.888548 
2211.000000	64.881348 
2210.000000	64.876985 
2209.000000	64.875578 
2208.000000	64.876341 
2207.000000	64.877772 
2206.000000	64.878249 
2205.000000	64.876699 
2204.000000	64.872908 
2203.000000	64.867520 
2202.000000	64.861679 
2201.000000	64.856672 
2200.000000	64.853549 
2199.000000	64.852762 
2198.000000	64.854145 
2197.000000	64.856958 
2196.000000	64.860248 
2195.000000	64.863228 
2194.000000	64.865326 
2193.000000	64.866399 
2192.000000	64.866566 
2191.000000	64.866280 
2190.000000	64.865851 
2189.000000	64.865398 
2188.000000	64.864611 
2187.000000	64.863228 
2186.000000	64.860892 
2185.000000	64.857268 
2184.000000	64.852213 
2183.000000	64.846301 
2182.000000	64.840269 
2181.000000	64.835119 
2180.000000	64.831948 
2179.000000	64.831662 
2178.000000	64.834904 
2177.000000	64.841938 
2176.000000	64.852571 
2175.000000	64.866042 
2174.000000	64.881443 
2173.000000	64.897465 
2172.000000	64.913010 
2171.000000	64.926791 
2170.000000	64.937686 
2169.000000	64.944601 
2168.000000	64.946484 
2167.000000	64.941954 
2166.000000	64.930009 
2165.000000	64.909863 
2164.000000	64.881634 
2163.000000	64.846110 
2162.000000	64.805364 
2161.000000	64.762282 
2160.000000	64.720058 
2159.000000	64.681911 
2158.000000	64.650392 
2157.000000	64.627194 
2156.000000	64.612650 
2155.000000	64.606213 
2154.000000	64.606523 
2153.000000	64.612078 
2152.000000	64.621639 
2151.000000	64.634299 
2150.000000	64.649486 
2149.000000	64.666843 
2148.000000	64.685726 
2147.000000	64.705038 
2146.000000	64.723110 
2145.000000	64.738011 
2144.000000	64.748072 
2143.000000	64.752221 
2142.000000	64.750242 
2141.000000	64.743137 
2140.000000	64.732670 
2139.000000	64.721131 
2138.000000	64.711046 
2137.000000	64.704656 
2136.000000	64.703631 
2135.000000	64.708995 
2134.000000	64.720964 
2133.000000	64.738774 
2132.000000	64.761281 
2131.000000	64.786839 
2130.000000	64.813733 
2129.000000	64.840006 
2128.000000	64.863991 
2127.000000	64.884328 
2126.000000	64.899921 
2125.000000	64.909887 
2124.000000	64.913511 
2123.000000	64.910435 
2122.000000	64.900493 
2121.000000	64.883780 
2120.000000	64.860749 
2119.000000	64.832520 
2118.000000	64.801025 
2117.000000	64.768934 
2116.000000	64.739418 
2115.000000	64.715528 
2114.000000	64.699792 
2113.000000	64.693570 
2112.000000	64.696598 
2111.000000	64.707112 
2110.000000	64.722180 
2109.000000	64.738488 
2108.000000	64.752817 
2107.000000	64.763045 
2106.000000	64.768242 
2105.000000	64.769005 
2104.000000	64.766740 
2103.000000	64.763450 
2102.000000	64.760971 
2101.000000	64.760637 
2100.000000	64.762902 
2099.000000	64.767313 
2098.000000	64.773201 
2097.000000	64.779472 
2096.000000	64.785313 
2095.000000	64.790034 
2094.000000	64.793395 
2093.000000	64.795374 
2092.000000	64.795947 
2091.000000	64.795088 
2090.000000	64.792871 
2089.000000	64.789557 
2088.000000	64.785742 
2087.000000	64.782357 
2086.000000	64.780426 
2085.000000	64.781165 
2084.000000	64.785313 
2083.000000	64.792799 
2082.000000	64.802551 
2081.000000	64.812564 
2080.000000	64.820551 
2079.000000	64.824414 
2078.000000	64.822578 
2077.000000	64.814877 
2076.000000	64.802289 
2075.000000	64.786696 
2074.000000	64.770340 
2073.000000	64.755296 
2072.000000	64.742946 
2071.000000	64.733815 
2070.000000	64.727687 
2069.000000	64.723849 
2068.000000	64.721632 
2067.000000	64.720654 
2066.000000	64.720940 
2065.000000	64.722943 
2064.000000	64.727258 
2063.000000	64.734458 
2062.000000	64.744448 
2061.000000	64.756822 
2060.000000	64.770436 
2059.000000	64.784002 
2058.000000	64.796209 
2057.000000	64.806365 
2056.000000	64.814257 
2055.000000	64.820408 
2054.000000	64.825963 
2053.000000	64.832210 
2052.000000	64.840269 
2051.000000	64.850711 
2050.000000	64.863538 
2049.000000	64.878034 
2048.000000	64.893054 
2047.000000	64.906930 
2046.000000	64.918041 
2045.000000	64.924931 
2044.000000	64.926505 
2043.000000	64.922213 
2042.000000	64.912152 
2041.000000	64.897155 
2040.000000	64.878654 
2039.000000	64.858579 
2038.000000	64.839148 
2037.000000	64.822506 
2036.000000	64.810347 
2035.000000	64.803624 
2034.000000	64.802241 
2033.000000	64.805412 
2032.000000	64.811778 
2031.000000	64.819550 
2030.000000	64.827346 
2029.000000	64.834189 
2028.000000	64.840030 
2027.000000	64.845275 
2026.000000	64.850544 
2025.000000	64.856457 
2024.000000	64.862966 
2023.000000	64.869379 
2022.000000	64.874386 
2021.000000	64.876604 
2020.000000	64.874863 
2019.000000	64.868855 
2018.000000	64.859247 
2017.000000	64.847636 
2016.000000	64.836120 
2015.000000	64.826798 
2014.000000	64.821243 
2013.000000	64.820289 
2012.000000	64.823627 
2011.000000	64.829993 
2010.000000	64.837598 
2009.000000	64.844489 
2008.000000	64.849090 
2007.000000	64.850521 
2006.000000	64.848613 
2005.000000	64.843869 
2004.000000	64.837026 
2003.000000	64.829158 
2002.000000	64.821004 
2001.000000	64.813137 
2000.000000	64.805865 
1999.000000	64.799165 
1998.000000	64.793109 
1997.000000	64.787864 
1996.000000	64.783668 
1995.000000	64.781022 
1994.000000	64.780545 
1993.000000	64.782905 
1992.000000	64.788484 
1991.000000	64.796948 
1990.000000	64.807486 
1989.000000	64.818453 
1988.000000	64.827799 
1987.000000	64.833688 
1986.000000	64.834809 
1985.000000	64.830875 
1984.000000	64.822649 
1983.000000	64.811944 
1982.000000	64.801049 
1981.000000	64.792346 
1980.000000	64.787626 
1979.000000	64.787840 
1978.000000	64.792776 
1977.000000	64.801216 
1976.000000	64.811301 
1975.000000	64.821028 
1974.000000	64.828634 
1973.000000	64.833092 
1972.000000	64.833927 
1971.000000	64.831471 
1970.000000	64.826393 
1969.000000	64.819669 
1968.000000	64.812111 
1967.000000	64.804458 
1966.000000	64.797115 
1965.000000	64.790272 
1964.000000	64.783954 
1963.000000	64.778065 
1962.000000	64.772534 
1961.000000	64.767265 
1960.000000	64.762377 
1959.000000	64.758133 
1958.000000	64.754939 
1957.000000	64.753246 
1956.000000	64.753246 
1955.000000	64.754915 
1954.000000	64.757800 
1953.000000	64.761090 
1952.000000	64.763903 
1951.000000	64.765286 
1950.000000	64.764785 
1949.000000	64.762139 
1948.000000	64.757704 
1947.000000	64.751958 
1946.000000	64.745712 
1945.000000	64.739584 
1944.000000	64.733958 
1943.000000	64.728736 
1942.000000	64.723658 
1941.000000	64.718198 
1940.000000	64.711856 
1939.000000	64.704513 
1938.000000	64.696335 
1937.000000	64.688038 
1936.000000	64.680385 
1935.000000	64.674234 
1934.000000	64.670181 
1933.000000	64.668464 
1932.000000	64.668750 
1931.000000	64.670515 
1930.000000	64.672875 
1929.000000	64.674925 
1928.000000	64.676189 
1927.000000	64.676523 
1926.000000	64.676356 
1925.000000	64.676594 
1924.000000	64.678430 
1923.000000	64.683198 
1922.000000	64.691972 
1921.000000	64.705419 
1920.000000	64.723443 
1919.000000	64.745211 
1918.000000	64.769029 
1917.000000	64.792680 
1916.000000	64.813876 
1915.000000	64.830279 
1914.000000	64.840221 
1913.000000	64.842891 
1912.000000	64.838480 
1911.000000	64.828372 
1910.000000	64.814591 
1909.000000	64.799642 
1908.000000	64.785933 
1907.000000	64.775514 
1906.000000	64.769601 
1905.000000	64.768409 
1904.000000	64.771413 
1903.000000	64.777565 
1902.000000	64.785552 
1901.000000	64.794111 
1900.000000	64.802408 
1899.000000	64.810061 
1898.000000	64.816856 
1897.000000	64.822602 
1896.000000	64.827013 
1895.000000	64.829206 
1894.000000	64.828157 
1893.000000	64.822649 
1892.000000	64.811563 
1891.000000	64.794325 
1890.000000	64.771342 
1889.000000	64.743995 
1888.000000	64.714455 
1887.000000	64.685559 
1886.000000	64.660310 
1885.000000	64.641404 
1884.000000	64.630460 
1883.000000	64.628171 
1882.000000	64.634013 
1881.000000	64.646720 
1880.000000	64.664435 
1879.000000	64.685249 
1878.000000	64.707446 
1877.000000	64.729785 
1876.000000	64.751625 
1875.000000	64.772748 
1874.000000	64.793133 
1873.000000	64.812874 
1872.000000	64.831542 
1871.000000	64.848518 
1870.000000	64.862728 
1869.000000	64.872884 
1868.000000	64.877772 
1867.000000	64.876842 
1866.000000	64.870023 
1865.000000	64.858174 
1864.000000	64.842534 
1863.000000	64.824986 
1862.000000	64.807057 
1861.000000	64.790081 
1860.000000	64.774847 
1859.000000	64.761638 
1858.000000	64.750480 
1857.000000	64.741230 
1856.000000	64.734077 
1855.000000	64.729380 
1854.000000	64.727854 
1853.000000	64.730262 
1852.000000	64.737129 
1851.000000	64.748311 
1850.000000	64.763069 
1849.000000	64.779782 
1848.000000	64.796566 
1847.000000	64.811491 
1846.000000	64.822936 
1845.000000	64.829921 
1844.000000	64.832329 
1843.000000	64.830684 
1842.000000	64.825892 
1841.000000	64.818763 
1840.000000	64.809942 
1839.000000	64.799737 
1838.000000	64.788103 
1837.000000	64.774823 
1836.000000	64.759874 
1835.000000	64.743614 
1834.000000	64.726972 
1833.000000	64.711308 
1832.000000	64.698243 
1831.000000	64.689421 
1830.000000	64.686036 
1829.000000	64.688682 
1828.000000	64.697146 
1827.000000	64.710593 
1826.000000	64.727616 
1825.000000	64.746665 
1824.000000	64.766240 
1823.000000	64.785099 
1822.000000	64.802265 
1821.000000	64.817023 
1820.000000	64.828824 
1819.000000	64.837217 
1818.000000	64.841723 
1817.000000	64.842081 
1816.000000	64.838290 
1815.000000	64.830660 
1814.000000	64.819955 
1813.000000	64.807486 
1812.000000	64.794802 
1811.000000	64.783501 
1810.000000	64.774918 
1809.000000	64.769792 
1808.000000	64.768314 
1807.000000	64.770078 
1806.000000	64.774298 
1805.000000	64.779901 
1804.000000	64.786028 
1803.000000	64.792180 
1802.000000	64.798116 
1801.000000	64.803576 
1800.000000	64.808201 
1799.000000	64.811515 
1798.000000	64.812874 
1797.000000	64.811587 
1796.000000	64.807200 
1795.000000	64.799666 
1794.000000	64.789485 
1793.000000	64.777803 
1792.000000	64.765834 
1791.000000	64.754605 
1790.000000	64.744925 
1789.000000	64.736890 
1788.000000	64.729809 
1787.000000	64.722752 
1786.000000	64.714741 
1785.000000	64.705419 
1784.000000	64.695167 
1783.000000	64.685487 
1782.000000	64.678430 
1781.000000	64.676666 
1780.000000	64.682340 
1779.000000	64.696955 
1778.000000	64.720821 
1777.000000	64.752984 
1776.000000	64.790964 
1775.000000	64.831495 
1774.000000	64.870858 
1773.000000	64.905595 
1772.000000	64.932823 
1771.000000	64.950871 
1770.000000	64.959478 
1769.000000	64.959502 
1768.000000	64.952611 
1767.000000	64.940714 
1766.000000	64.925456 
1765.000000	64.907789 
1764.000000	64.888048 
1763.000000	64.865970 
1762.000000	64.841365 
1761.000000	64.814209 
1760.000000	64.785361 
1759.000000	64.756536 
1758.000000	64.730191 
1757.000000	64.708995 
1756.000000	64.694929 
1755.000000	64.688920 
1754.000000	64.690113 
1753.000000	64.696073 
1752.000000	64.703392 
1751.000000	64.708137 
1750.000000	64.707112 
1749.000000	64.698481 
1748.000000	64.682364 
1747.000000	64.660453 
1746.000000	64.635658 
1745.000000	64.611244 
1744.000000	64.590191 
1743.000000	64.574575 
1742.000000	64.564990 
1741.000000	64.560747 
1740.000000	64.560174 
1739.000000	64.561223 
1738.000000	64.561796 
1737.000000	64.560079 
1736.000000	64.554786 
1735.000000	64.545226 
1734.000000	64.531064 
1733.000000	64.512562 
1732.000000	64.490199 
1731.000000	64.465141 
1730.000000	64.439058 
1729.000000	64.414453 
1728.000000	64.394140 
1727.000000	64.381289 
1726.000000	64.378666 
1725.000000	64.388370 
1724.000000	64.411187 
1723.000000	64.446568 
1722.000000	64.492249 
1721.000000	64.544606 
1720.000000	64.599037 
1719.000000	64.650678 
1718.000000	64.695096 
1717.000000	64.728879 
1716.000000	64.750027 
1715.000000	64.758157 
1714.000000	64.754414 
1713.000000	64.740943 
1712.000000	64.720463 
1711.000000	64.695954 
1710.000000	64.670467 
1709.000000	64.646840 
1708.000000	64.627528 
1707.000000	64.614725 
1706.000000	64.609861 
1705.000000	64.613819 
1704.000000	64.626240 
1703.000000	64.645624 
1702.000000	64.669156 
1701.000000	64.693045 
1700.000000	64.713168 
1699.000000	64.725732 
1698.000000	64.728283 
1697.000000	64.720177 
1696.000000	64.703154 
1695.000000	64.680624 
1694.000000	64.657306 
1693.000000	64.637947 
1692.000000	64.626288 
1691.000000	64.624190 
1690.000000	64.631319 
1689.000000	64.645624 
1688.000000	64.663767 
1687.000000	64.682078 
1686.000000	64.697432 
1685.000000	64.707827 
1684.000000	64.712667 
1683.000000	64.712595 
1682.000000	64.708876 
1681.000000	64.703011 
1680.000000	64.696240 
1679.000000	64.688992 
1678.000000	64.681053 
1677.000000	64.671540 
1676.000000	64.659786 
1675.000000	64.645290 
1674.000000	64.628410 
1673.000000	64.610195 
1672.000000	64.592218 
1671.000000	64.576458 
1670.000000	64.564752 
1669.000000	64.558362 
1668.000000	64.557647 
1667.000000	64.562201 
1666.000000	64.570975 
1665.000000	64.582896 
1664.000000	64.596891 
1663.000000	64.612627 
1662.000000	64.630556 
1661.000000	64.651632 
1660.000000	64.676928 
1659.000000	64.706897 
1658.000000	64.740681 
1657.000000	64.776086 
1656.000000	64.809751 
1655.000000	64.838027 
1654.000000	64.857435 
1653.000000	64.865875 
1652.000000	64.862632 
1651.000000	64.848947 
1650.000000	64.827203 
1649.000000	64.800667 
1648.000000	64.772319 
1647.000000	64.744734 
1646.000000	64.719128 
1645.000000	64.695978 
1644.000000	64.674997 
1643.000000	64.655780 
1642.000000	64.638113 
1641.000000	64.622259 
1640.000000	64.609074 
1639.000000	64.599490 
1638.000000	64.594483 
1637.000000	64.594531 
1636.000000	64.599847 
1635.000000	64.610075 
1634.000000	64.624547 
1633.000000	64.642047 
1632.000000	64.661216 
1631.000000	64.680433 
1630.000000	64.697623 
1629.000000	64.710617 
1628.000000	64.717650 
1627.000000	64.717459 
1626.000000	64.709806 
1625.000000	64.695286 
1624.000000	64.675712 
1623.000000	64.653468 
1622.000000	64.631080 
1621.000000	64.610719 
1620.000000	64.593720 
1619.000000	64.580464 
1618.000000	64.570426 
1617.000000	64.562654 
1616.000000	64.555931 
1615.000000	64.549541 
1614.000000	64.543628 
1613.000000	64.538931 
1612.000000	64.536356 
1611.000000	64.536905 
1610.000000	64.540958 
1609.000000	64.548087 
1608.000000	64.556956 
1607.000000	64.565658 
1606.000000	64.572167 
1605.000000	64.574813 
1604.000000	64.572691 
1603.000000	64.565730 
1602.000000	64.554977 
1601.000000	64.542126 
1600.000000	64.529228 
1599.000000	64.518165 
1598.000000	64.510035 
1597.000000	64.505100 
1596.000000	64.502644 
1595.000000	64.501285 
1594.000000	64.499497 
1593.000000	64.495849 
1592.000000	64.489793 
1591.000000	64.481711 
1590.000000	64.473223 
1589.000000	64.466166 
1588.000000	64.462876 
1587.000000	64.465212 
1586.000000	64.474487 
1585.000000	64.491105 
1584.000000	64.514303 
1583.000000	64.542627 
1582.000000	64.573621 
1581.000000	64.604640 
1580.000000	64.632868 
1579.000000	64.655780 
1578.000000	64.671754 
1577.000000	64.680123 
1576.000000	64.681243 
1575.000000	64.676380 
1574.000000	64.667010 
1573.000000	64.654779 
1572.000000	64.641022 
1571.000000	64.626789 
1570.000000	64.613199 
1569.000000	64.601349 
1568.000000	64.592552 
1567.000000	64.588141 
1566.000000	64.589500 
1565.000000	64.597344 
1564.000000	64.611458 
1563.000000	64.630556 
1562.000000	64.652442 
1561.000000	64.674377 
1560.000000	64.693403 
1559.000000	64.707040 
1558.000000	64.713931 
1557.000000	64.713835 
1556.000000	64.707612 
1555.000000	64.696788 
1554.000000	64.683055 
1553.000000	64.667987 
1552.000000	64.652681 
1551.000000	64.638090 
1550.000000	64.624977 
1549.000000	64.614272 
1548.000000	64.607000 
1547.000000	64.604258 
1546.000000	64.606523 
1545.000000	64.613533 
1544.000000	64.624071 
1543.000000	64.635896 
1542.000000	64.646124 
1541.000000	64.651989 
1540.000000	64.651250 
1539.000000	64.642763 
1538.000000	64.626836 
1537.000000	64.605021 
1536.000000	64.579868 
1535.000000	64.554095 
1534.000000	64.530277 
1533.000000	64.510154 
1532.000000	64.494895 
1531.000000	64.485096 
1530.000000	64.481115 
1529.000000	64.483141 
1528.000000	64.491391 
1527.000000	64.506053 
1526.000000	64.526915 
1525.000000	64.553141 
1524.000000	64.583230 
1523.000000	64.615178 
1522.000000	64.646697 
1521.000000	64.675426 
1520.000000	64.699316 
1519.000000	64.716696 
1518.000000	64.726734 
1517.000000	64.729356 
1516.000000	64.725089 
1515.000000	64.715003 
1514.000000	64.700722 
1513.000000	64.684033 
1512.000000	64.666962 
1511.000000	64.651274 
1510.000000	64.638710 
1509.000000	64.630317 
1508.000000	64.626693 
1507.000000	64.627528 
1506.000000	64.631819 
1505.000000	64.638042 
1504.000000	64.644312 
1503.000000	64.648962 
1502.000000	64.650654 
1501.000000	64.648723 
1500.000000	64.643120 
1499.000000	64.634466 
1498.000000	64.623737 
1497.000000	64.612293 
1496.000000	64.601588 
1495.000000	64.592909 
1494.000000	64.587068 
1493.000000	64.584326 
1492.000000	64.584469 
1491.000000	64.586782 
1490.000000	64.590096 
1489.000000	64.593076 
1488.000000	64.594483 
1487.000000	64.593315 
1486.000000	64.588975 
1485.000000	64.581632 
1484.000000	64.572000 
1483.000000	64.561080 
1482.000000	64.550161 
1481.000000	64.540481 
1480.000000	64.533114 
1479.000000	64.528703 
1478.000000	64.527416 
1477.000000	64.529109 
1476.000000	64.533281 
1475.000000	64.539217 
1474.000000	64.545965 
1473.000000	64.552330 
1472.000000	64.557147 
1471.000000	64.559221 
1470.000000	64.557623 
1469.000000	64.551949 
1468.000000	64.542555 
1467.000000	64.530825 
1466.000000	64.518976 
1465.000000	64.509725 
1464.000000	64.505839 
1463.000000	64.509153 
1462.000000	64.520001 
1461.000000	64.536762 
1460.000000	64.556121 
1459.000000	64.573574 
1458.000000	64.584827 
1457.000000	64.586496 
1456.000000	64.577388 
1455.000000	64.558553 
1454.000000	64.533090 
1453.000000	64.505505 
1452.000000	64.480495 
1451.000000	64.461898 
1450.000000	64.451837 
1449.000000	64.450621 
1448.000000	64.456796 
1447.000000	64.468359 
1446.000000	64.483284 
1445.000000	64.500117 
1444.000000	64.518380 
1443.000000	64.538145 
1442.000000	64.559888 
1441.000000	64.583444 
1440.000000	64.607834 
1439.000000	64.631462 
1438.000000	64.652180 
1437.000000	64.668035 
1436.000000	64.677524 
1435.000000	64.680171 
1434.000000	64.676070 
1433.000000	64.666366 
1432.000000	64.652466 
1431.000000	64.636182 
1430.000000	64.619088 
1429.000000	64.602851 
1428.000000	64.588570 
1427.000000	64.577245 
1426.000000	64.569497 
1425.000000	64.565587 
1424.000000	64.565324 
1423.000000	64.568018 
1422.000000	64.572358 
1421.000000	64.576745 
1420.000000	64.579129 
1419.000000	64.577436 
1418.000000	64.570069 
1417.000000	64.556074 
1416.000000	64.535427 
1415.000000	64.509296 
1414.000000	64.479660 
1413.000000	64.449214 
1412.000000	64.421248 
1411.000000	64.398765 
1410.000000	64.384365 
1409.000000	64.379405 
1408.000000	64.383840 
1407.000000	64.396119 
1406.000000	64.413237 
1405.000000	64.431405 
1404.000000	64.447021 
1403.000000	64.457273 
1402.000000	64.460659 
1401.000000	64.457297 
1400.000000	64.448571 
1399.000000	64.436793 
1398.000000	64.424610 
1397.000000	64.414215 
1396.000000	64.406824 
1395.000000	64.402580 
1394.000000	64.400815 
1393.000000	64.400219 
1392.000000	64.399361 
1391.000000	64.397263 
1390.000000	64.393568 
1389.000000	64.388632 
1388.000000	64.383530 
1387.000000	64.379501 
1386.000000	64.377665 
1385.000000	64.378571 
1384.000000	64.382004 
1383.000000	64.387130 
1382.000000	64.392566 
1381.000000	64.396643 
1380.000000	64.398074 
1379.000000	64.396047 
1378.000000	64.390993 
1377.000000	64.383840 
1376.000000	64.376664 
1375.000000	64.371585 
1374.000000	64.370942 
1373.000000	64.376378 
1372.000000	64.388656 
1371.000000	64.407300 
1370.000000	64.430665 
1369.000000	64.456200 
1368.000000	64.480829 
1367.000000	64.501595 
1366.000000	64.516162 
1365.000000	64.523339 
1364.000000	64.523339 
1363.000000	64.517426 
1362.000000	64.507937 
1361.000000	64.497470 
1360.000000	64.488554 
1359.000000	64.482760 
1358.000000	64.480566 
1357.000000	64.481282 
1356.000000	64.483451 
1355.000000	64.485192 
1354.000000	64.484882 
1353.000000	64.481520 
1352.000000	64.475154 
1351.000000	64.466881 
1350.000000	64.458394 
1349.000000	64.451670 
1348.000000	64.448332 
1347.000000	64.449071 
1346.000000	64.453649 
1345.000000	64.460873 
1344.000000	64.468908 
1343.000000	64.475464 
1342.000000	64.478588 
1341.000000	64.476728 
1340.000000	64.469075 
1339.000000	64.455604 
1338.000000	64.436912 
1337.000000	64.414095 
1336.000000	64.388418 
1335.000000	64.361739 
1334.000000	64.335989 
1333.000000	64.313411 
1332.000000	64.296150 
1331.000000	64.285993 
1330.000000	64.284062 
1329.000000	64.290452 
1328.000000	64.304280 
1327.000000	64.323377 
1326.000000	64.344835 
1325.000000	64.365243 
1324.000000	64.381504 
1323.000000	64.390945 
1322.000000	64.392113 
1321.000000	64.384770 
1320.000000	64.370036 
1319.000000	64.349985 
1318.000000	64.327383 
1317.000000	64.305353 
1316.000000	64.286422 
1315.000000	64.272403 
1314.000000	64.264011 
1313.000000	64.260983 
1312.000000	64.262151 
1311.000000	64.266037 
1310.000000	64.271140 
1309.000000	64.276313 
1308.000000	64.281201 
1307.000000	64.286255 
1306.000000	64.292526 
1305.000000	64.301204 
1304.000000	64.313197 
1303.000000	64.328765 
1302.000000	64.347314 
1301.000000	64.367270 
1300.000000	64.386487 
1299.000000	64.402723 
1298.000000	64.414238 
1297.000000	64.420175 
1296.000000	64.421105 
1295.000000	64.418530 
1294.000000	64.414906 
1293.000000	64.412593 
1292.000000	64.413714 
1291.000000	64.418983 
1290.000000	64.428091 
1289.000000	64.439320 
1288.000000	64.450240 
1287.000000	64.458250 
1286.000000	64.461278 
1285.000000	64.458012 
1284.000000	64.448237 
1283.000000	64.432597 
1282.000000	64.412617 
1281.000000	64.390158 
1280.000000	64.367055 
1279.000000	64.344906 
1278.000000	64.324808 
1277.000000	64.307594 
1276.000000	64.293766 
1275.000000	64.283466 
1274.000000	64.276576 
1273.000000	64.272761 
1272.000000	64.271688 
1271.000000	64.272761 
1270.000000	64.275479 
1269.000000	64.279413 
1268.000000	64.284420 
1267.000000	64.290308 
1266.000000	64.297056 
1265.000000	64.304351 
1264.000000	64.311718 
1263.000000	64.318346 
1262.000000	64.323449 
1261.000000	64.326214 
1260.000000	64.326310 
1259.000000	64.323973 
1258.000000	64.319992 
1257.000000	64.315438 
1256.000000	64.311408 
1255.000000	64.308667 
1254.000000	64.307379 
1253.000000	64.306998 
1252.000000	64.306306 
1251.000000	64.303827 
1250.000000	64.298319 
1249.000000	64.289045 
1248.000000	64.276242 
1247.000000	64.261078 
1246.000000	64.245438 
1245.000000	64.231681 
1244.000000	64.221644 
1243.000000	64.216804 
1242.000000	64.217853 
1241.000000	64.224529 
1240.000000	64.235687 
1239.000000	64.249777 
1238.000000	64.265036 
1237.000000	64.280009 
1236.000000	64.293503 
1235.000000	64.304924 
1234.000000	64.314341 
1233.000000	64.322400 
1232.000000	64.329838 
1231.000000	64.337682 
1230.000000	64.346575 
1229.000000	64.356923 
1228.000000	64.368486 
1227.000000	64.380550 
1226.000000	64.391803 
1225.000000	64.400792 
1224.000000	64.406323 
1223.000000	64.407515 
1222.000000	64.403986 
1221.000000	64.396286 
1220.000000	64.385271 
1219.000000	64.372110 
1218.000000	64.357566 
1217.000000	64.341926 
1216.000000	64.325070 
1215.000000	64.306592 
1214.000000	64.286112 
1213.000000	64.263653 
1212.000000	64.239931 
1211.000000	64.216279 
1210.000000	64.194536 
1209.000000	64.176487 
1208.000000	64.163684 
1207.000000	64.157032 
1206.000000	64.156532 
1205.000000	64.161205 
1204.000000	64.169549 
1203.000000	64.179897 
1202.000000	64.190840 
1201.000000	64.201450 
1200.000000	64.211654 
1199.000000	64.221835 
1198.000000	64.232826 
1197.000000	64.245247 
1196.000000	64.259409 
1195.000000	64.274811 
1194.000000	64.290308 
1193.000000	64.304208 
1192.000000	64.314603 
1191.000000	64.319729 
1190.000000	64.318680 
1189.000000	64.311051 
1188.000000	64.297461 
1187.000000	64.279055 
1186.000000	64.257550 
1185.000000	64.234757 
1184.000000	64.212179 
1183.000000	64.190936 
1182.000000	64.171767 
1181.000000	64.154839 
1180.000000	64.140248 
1179.000000	64.128041 
1178.000000	64.118361 
1177.000000	64.111685 
1176.000000	64.108610 
1175.000000	64.109754 
1174.000000	64.115548 
1173.000000	64.125895 
1172.000000	64.140033 
1171.000000	64.156651 
1170.000000	64.173817 
1169.000000	64.189338 
1168.000000	64.201021 
1167.000000	64.207243 
1166.000000	64.207243 
1165.000000	64.201307 
1164.000000	64.190793 
1163.000000	64.177775 
1162.000000	64.164590 
1161.000000	64.153122 
1160.000000	64.144325 
1159.000000	64.138126 
1158.000000	64.133429 
1157.000000	64.128661 
1156.000000	64.122009 
1155.000000	64.112305 
1154.000000	64.099097 
1153.000000	64.082598 
1152.000000	64.063787 
1151.000000	64.044165 
1150.000000	64.025425 
1149.000000	64.009165 
1148.000000	63.996958 
1147.000000	63.989925 
1146.000000	63.988733 
1145.000000	63.993501 
1144.000000	64.003753 
1143.000000	64.018583 
1142.000000	64.036655 
1141.000000	64.056587 
1140.000000	64.076781 
1139.000000	64.096117 
1138.000000	64.113926 
1137.000000	64.129996 
1136.000000	64.144563 
1135.000000	64.157867 
1134.000000	64.169907 
1133.000000	64.179992 
1132.000000	64.187312 
1131.000000	64.190745 
1130.000000	64.189219 
1129.000000	64.182281 
1128.000000	64.170646 
1127.000000	64.156007 
1126.000000	64.140748 
1125.000000	64.127612 
1124.000000	64.119195 
1123.000000	64.117383 
1122.000000	64.123034 
1121.000000	64.135885 
1120.000000	64.154529 
1119.000000	64.176726 
1118.000000	64.199638 
1117.000000	64.220237 
1116.000000	64.235687 
1115.000000	64.243555 
1114.000000	64.242291 
1113.000000	64.231228 
1112.000000	64.211177 
1111.000000	64.184212 
1110.000000	64.153814 
1109.000000	64.124155 
1108.000000	64.099836 
1107.000000	64.085435 
1106.000000	64.084577 
1105.000000	64.099097 
1104.000000	64.128851 
1103.000000	64.171552 
1102.000000	64.223265 
1101.000000	64.278960 
1100.000000	64.333581 
1099.000000	64.383125 
1098.000000	64.424920 
1097.000000	64.457726 
1096.000000	64.481544 
1095.000000	64.496874 
1094.000000	64.504384 
1093.000000	64.504528 
1092.000000	64.497923 
1091.000000	64.485549 
1090.000000	64.469265 
1089.000000	64.451646 
1088.000000	64.435815 
1087.000000	64.424490 
1086.000000	64.419436 
1085.000000	64.420628 
1084.000000	64.425921 
1083.000000	64.431595 
1082.000000	64.433026 
1081.000000	64.426159 
1080.000000	64.408826 
1079.000000	64.381217 
1078.000000	64.346265 
1077.000000	64.308691 
1076.000000	64.273762 
1075.000000	64.245772 
1074.000000	64.226794 
1073.000000	64.216351 
1072.000000	64.211750 
1071.000000	64.208936 
1070.000000	64.203834 
1069.000000	64.193320 
1068.000000	64.176154 
1067.000000	64.153146 
1066.000000	64.126729 
1065.000000	64.100360 
1064.000000	64.077830 
1063.000000	64.062261 
1062.000000	64.055657 
1061.000000	64.058852 
1060.000000	64.071464 
1059.000000	64.092063 
1058.000000	64.118599 
1057.000000	64.148664 
1056.000000	64.179825 
1055.000000	64.209365 
1054.000000	64.234924 
1053.000000	64.254140 
1052.000000	64.265203 
1051.000000	64.267206 
1050.000000	64.260149 
1049.000000	64.244818 
1048.000000	64.223194 
1047.000000	64.198112 
1046.000000	64.173007 
1045.000000	64.151310 
1044.000000	64.136266 
1043.000000	64.130496 
1042.000000	64.135360 
1041.000000	64.150786 
1040.000000	64.175271 
1039.000000	64.205956 
1038.000000	64.239239 
1037.000000	64.271044 
1036.000000	64.297485 
1035.000000	64.315223 
1034.000000	64.321756 
1033.000000	64.315676 
1032.000000	64.296913 
1031.000000	64.266991 
1030.000000	64.228796 
1029.000000	64.186525 
1028.000000	64.145135 
1027.000000	64.109730 
1026.000000	64.084959 
1025.000000	64.074087 
1024.000000	64.078378 
1023.000000	64.096951 
1022.000000	64.126896 
1021.000000	64.163780 
1020.000000	64.202475 
1019.000000	64.238214 
1018.000000	64.267349 
1017.000000	64.287877 
1016.000000	64.299631 
1015.000000	64.303517 
1014.000000	64.301085 
1013.000000	64.293956 
1012.000000	64.283561 
1011.000000	64.271163 
1010.000000	64.257836 
1009.000000	64.245033 
1008.000000	64.234137 
1007.000000	64.226698 
1006.000000	64.223623 
1005.000000	64.224982 
1004.000000	64.229798 
1003.000000	64.236044 
1002.000000	64.241313 
1001.000000	64.243173 
1000.000000	64.239954 
999.000000	 64.231157 
998.000000	 64.217734 
997.000000	 64.201712 
996.000000	 64.185905 
995.000000	 64.173102 
994.000000	 64.165425 
993.000000	 64.163851 
992.000000	 64.168381 
991.000000	 64.178395 
990.000000	 64.192819 
989.000000	 64.210367 
988.000000	 64.230132 
987.000000	 64.251613 
986.000000	 64.274311 
985.000000	 64.297747 
984.000000	 64.321088 
983.000000	 64.343261 
982.000000	 64.363169 
981.000000	 64.379668 
980.000000	 64.391732 
979.000000	 64.398360 
978.000000	 64.399242 
977.000000	 64.394617 
976.000000	 64.385104 
975.000000	 64.371585 
974.000000	 64.355325 
973.000000	 64.337658 
972.000000	 64.319896 
971.000000	 64.302849 
970.000000	 64.287114 
969.000000	 64.272522 
968.000000	 64.258503 
967.000000	 64.243912 
966.000000	 64.227437 
965.000000	 64.207839 
964.000000	 64.184427 
963.000000	 64.157533 
962.000000	 64.128255 
961.000000	 64.098834 
960.000000	 64.072299 
959.000000	 64.052033 
958.000000	 64.041233 
957.000000	 64.042735 
956.000000	 64.058470 
955.000000	 64.088940 
954.000000	 64.133191 
953.000000	 64.188694 
952.000000	 64.251494 
951.000000	 64.316463 
950.000000	 64.377999 
949.000000	 64.430618 
948.000000	 64.469742 
947.000000	 64.492535 
946.000000	 64.498329 
945.000000	 64.488577 
944.000000	 64.466571 
943.000000	 64.437270 
942.000000	 64.405751 
941.000000	 64.376759 
940.000000	 64.353442 
939.000000	 64.337420 
938.000000	 64.328408 
937.000000	 64.324998 
936.000000	 64.325046 
935.000000	 64.326620 
934.000000	 64.328336 
933.000000	 64.329767 
932.000000	 64.331221 
931.000000	 64.333319 
930.000000	 64.336562 
929.000000	 64.340829 
928.000000	 64.345431 
927.000000	 64.349222 
926.000000	 64.351034 
925.000000	 64.350342 
924.000000	 64.347386 
923.000000	 64.343380 
922.000000	 64.340615 
921.000000	 64.341759 
920.000000	 64.348721 
919.000000	 64.362025 
918.000000	 64.381027 
917.000000	 64.403080 
916.000000	 64.424347 
915.000000	 64.440250 
914.000000	 64.446735 
913.000000	 64.440846 
912.000000	 64.421701 
911.000000	 64.390349 
910.000000	 64.349532 
909.000000	 64.303541 
908.000000	 64.257287 
907.000000	 64.215469 
906.000000	 64.181685 
905.000000	 64.158344 
904.000000	 64.146351 
903.000000	 64.145088 
902.000000	 64.152526 
901.000000	 64.165616 
900.000000	 64.180636 
899.000000	 64.193534 
898.000000	 64.200758 
897.000000	 64.199209 
896.000000	 64.187121 
895.000000	 64.164423 
894.000000	 64.132523 
893.000000	 64.094352 
892.000000	 64.053583 
891.000000	 64.014410 
890.000000	 63.980340 
889.000000	 63.953757 
888.000000	 63.935828 
887.000000	 63.926267 
886.000000	 63.924288 
885.000000	 63.928675 
884.000000	 63.939166 
883.000000	 63.956212 
882.000000	 63.981270 
881.000000	 64.016103 
880.000000	 64.061665 
879.000000	 64.116954 
878.000000	 64.178848 
877.000000	 64.242100 
876.000000	 64.300036 
875.000000	 64.345717 
874.000000	 64.373826 
873.000000	 64.381742 
872.000000	 64.369940 
871.000000	 64.341735 
870.000000	 64.302706 
869.000000	 64.259052 
868.000000	 64.216732 
867.000000	 64.179801 
866.000000	 64.150238 
865.000000	 64.127659 
864.000000	 64.110398 
863.000000	 64.095854 
862.000000	 64.081597 
861.000000	 64.066362 
860.000000	 64.049959 
859.000000	 64.033985 
858.000000	 64.020490 
857.000000	 64.012360 
856.000000	 64.011883 
855.000000	 64.020609 
854.000000	 64.038658 
853.000000	 64.064836 
852.000000	 64.096736 
851.000000	 64.131164 
850.000000	 64.164662 
849.000000	 64.194655 
848.000000	 64.219880 
847.000000	 64.240455 
846.000000	 64.257526 
845.000000	 64.272809 
844.000000	 64.287638 
843.000000	 64.302515 
842.000000	 64.316129 
841.000000	 64.326071 
840.000000	 64.328765 
839.000000	 64.321255 
838.000000	 64.301156 
837.000000	 64.267802 
836.000000	 64.222621 
835.000000	 64.169168 
834.000000	 64.112830 
833.000000	 64.059686 
832.000000	 64.015674 
831.000000	 63.985538 
830.000000	 63.971757 
829.000000	 63.974404 
828.000000	 63.990974 
827.000000	 64.017176 
826.000000	 64.047718 
825.000000	 64.077258 
824.000000	 64.101338 
823.000000	 64.117121 
822.000000	 64.123487 
821.000000	 64.121079 
820.000000	 64.111733 
819.000000	 64.098000 
818.000000	 64.082789 
817.000000	 64.068722 
816.000000	 64.057922 
815.000000	 64.051747 
814.000000	 64.050936 
813.000000	 64.055156 
812.000000	 64.063477 
811.000000	 64.073991 
810.000000	 64.084219 
809.000000	 64.091610 
808.000000	 64.093637 
807.000000	 64.089012 
806.000000	 64.077687 
805.000000	 64.061760 
804.000000	 64.044761 
803.000000	 64.031434 
802.000000	 64.026379 
801.000000	 64.033126 
800.000000	 64.053297 
799.000000	 64.086103 
798.000000	 64.128541 
797.000000	 64.176034 
796.000000	 64.223551 
795.000000	 64.266705 
794.000000	 64.302635 
793.000000	 64.330434 
792.000000	 64.350891 
791.000000	 64.365935 
790.000000	 64.377403 
789.000000	 64.386844 
788.000000	 64.393973 
787.000000	 64.397358 
786.000000	 64.394068 
785.000000	 64.381456 
784.000000	 64.357352 
783.000000	 64.321494 
782.000000	 64.275336 
781.000000	 64.222478 
780.000000	 64.167809 
779.000000	 64.117097 
778.000000	 64.075231 
777.000000	 64.045310 
776.000000	 64.027953 
775.000000	 64.021205 
774.000000	 64.020919 
773.000000	 64.021849 
772.000000	 64.019036 
771.000000	 64.009332 
770.000000	 63.992071 
769.000000	 63.969206 
768.000000	 63.945007 
767.000000	 63.925004 
766.000000	 63.914370 
765.000000	 63.916707 
764.000000	 63.933539 
763.000000	 63.964128 
762.000000	 64.005470 
761.000000	 64.053010 
760.000000	 64.101862 
759.000000	 64.147043 
758.000000	 64.184522 
757.000000	 64.210987 
756.000000	 64.224004 
755.000000	 64.221620 
754.000000	 64.202857 
753.000000	 64.167642 
752.000000	 64.117169 
751.000000	 64.054465 
750.000000	 63.984298 
749.000000	 63.912796 
748.000000	 63.846731 
747.000000	 63.792371 
746.000000	 63.754701 
745.000000	 63.736534 
744.000000	 63.737940 
743.000000	 63.756489 
742.000000	 63.787698 
741.000000	 63.825821 
740.000000	 63.865208 
739.000000	 63.900732 
738.000000	 63.929033 
737.000000	 63.948798 
736.000000	 63.960862 
735.000000	 63.967728 
734.000000	 63.972425 
733.000000	 63.977837 
732.000000	 63.985514 
731.000000	 63.995814 
730.000000	 64.007091 
729.000000	 64.016890 
728.000000	 64.022088 
727.000000	 64.020061 
726.000000	 64.009189 
725.000000	 63.989520 
724.000000	 63.962650 
723.000000	 63.931560 
722.000000	 63.899683 
721.000000	 63.870310 
720.000000	 63.845825 
719.000000	 63.827586 
718.000000	 63.815593 
717.000000	 63.808917 
716.000000	 63.805985 
715.000000	 63.805198 
714.000000	 63.804960 
713.000000	 63.804030 
712.000000	 63.801670 
711.000000	 63.797760 
710.000000	 63.792681 
709.000000	 63.787317 
708.000000	 63.782978 
707.000000	 63.780808 
706.000000	 63.781690 
705.000000	 63.785624 
704.000000	 63.791894 
703.000000	 63.799142 
702.000000	 63.805532 
701.000000	 63.809514 
700.000000	 63.810086 
699.000000	 63.807368 
698.000000	 63.802647 
697.000000	 63.797807 
696.000000	 63.795161 
695.000000	 63.796377 
694.000000	 63.802051 
693.000000	 63.811373 
692.000000	 63.822340 
691.000000	 63.832068 
690.000000	 63.837623 
689.000000	 63.836908 
688.000000	 63.829565 
687.000000	 63.817191 
686.000000	 63.803243 
685.000000	 63.792037 
684.000000	 63.787937 
683.000000	 63.794469 
682.000000	 63.813638 
681.000000	 63.845324 
680.000000	 63.887548 
679.000000	 63.936972 
678.000000	 63.989472 
677.000000	 64.041376 
676.000000	 64.089322 
675.000000	 64.130425 
674.000000	 64.162421 
673.000000	 64.183807 
672.000000	 64.193916 
671.000000	 64.192771 
670.000000	 64.181709 
669.000000	 64.163613 
668.000000	 64.142322 
667.000000	 64.122581 
666.000000	 64.108681 
665.000000	 64.104008 
664.000000	 64.109253 
663.000000	 64.122295 
662.000000	 64.138078 
661.000000	 64.149570 
660.000000	 64.149141 
659.000000	 64.130616 
658.000000	 64.090752 
657.000000	 64.030766 
656.000000	 63.956451 
655.000000	 63.877725 
654.000000	 63.806080 
653.000000	 63.753128 
652.000000	 63.728094 
651.000000	 63.736486 
650.000000	 63.778400 
649.000000	 63.849163 
648.000000	 63.940262 
647.000000	 64.041280 
646.000000	 64.141583 
645.000000	 64.232563 
644.000000	 64.308524 
643.000000	 64.367270 
642.000000	 64.409375 
641.000000	 64.437270 
640.000000	 64.453744 
639.000000	 64.461064 
638.000000	 64.460635 
637.000000	 64.452767 
636.000000	 64.437603 
635.000000	 64.415836 
634.000000	 64.389491 
633.000000	 64.361500 
632.000000	 64.334893 
631.000000	 64.312124 
630.000000	 64.293789 
629.000000	 64.278173 
628.000000	 64.261364 
627.000000	 64.237856 
626.000000	 64.202642 
625.000000	 64.152479 
624.000000	 64.088106 
623.000000	 64.014530 
622.000000	 63.940882 
621.000000	 63.878083 
620.000000	 63.836908 
619.000000	 63.825082 
618.000000	 63.845324 
617.000000	 63.894224 
616.000000	 63.963079 
615.000000	 64.039158 
614.000000	 64.109444 
613.000000	 64.163541 
612.000000	 64.195942 
611.000000	 64.206719 
610.000000	 64.201092 
609.000000	 64.187383 
608.000000	 64.173913 
607.000000	 64.166402 
606.000000	 64.166045 
605.000000	 64.169216 
604.000000	 64.168596 
603.000000	 64.155769 
602.000000	 64.124441 
601.000000	 64.072918 
600.000000	 64.004921 
599.000000	 63.929700 
598.000000	 63.859796 
597.000000	 63.808512 
596.000000	 63.786149 
595.000000	 63.797736 
594.000000	 63.841319 
593.000000	 63.908696 
592.000000	 63.987493 
591.000000	 64.064121 
590.000000	 64.127087 
589.000000	 64.169359 
588.000000	 64.188766 
587.000000	 64.188766 
586.000000	 64.176464 
585.000000	 64.160156 
584.000000	 64.146256 
583.000000	 64.138698 
582.000000	 64.138150 
581.000000	 64.141583 
580.000000	 64.143681 
579.000000	 64.137482 
578.000000	 64.115977 
577.000000	 64.074110 
576.000000	 64.009737 
575.000000	 63.922095 
574.000000	 63.813591 
573.000000	 63.689494 
572.000000	 63.558673 
571.000000	 63.433051 
570.000000	 63.325929 
569.000000	 63.250279 
568.000000	 63.215017 
567.000000	 63.223409 
566.000000	 63.270473 
565.000000	 63.343644 
564.000000	 63.423943 
563.000000	 63.489818 
562.000000	 63.520956 
561.000000	 63.502979 
560.000000	 63.429403 
559.000000	 63.302445 
558.000000	 63.132524 
557.000000	 62.935543 
556.000000	 62.731099 
555.000000	 62.539052 
554.000000	 62.378859 
553.000000	 62.267541 
552.000000	 62.220788 
551.000000	 62.250447 
550.000000	 62.363958 
549.000000	 62.560296 
548.000000	 62.826848 
547.000000	 63.138437 
546.000000	 63.459229 
545.000000	 63.748121 
544.000000	 63.963985 
543.000000	 64.075684 
542.000000	 64.069151 
541.000000	 63.950729 
540.000000	 63.745617 
539.000000	 63.492751 
538.000000	 63.237237 
537.000000	 63.020467 
536.000000	 62.873077 
535.000000	 62.809705 
534.000000	 62.829518 
533.000000	 62.917923 
532.000000	 63.053560 
531.000000	 63.212251 
530.000000	 63.373279 
529.000000	 63.519477 
528.000000	 63.638210 
527.000000	 63.721036 
526.000000	 63.763165 
525.000000	 63.764905 
524.000000	 63.732194 
523.000000	 63.678669 
522.000000	 63.624167 
521.000000	 63.593649 
520.000000	 63.611125 
519.000000	 63.695216 
518.000000	 63.852310 
517.000000	 64.075756 
516.000000	 64.343833 
515.000000	 64.623284 
514.000000	 64.875173 
513.000000	 65.064263 
512.000000	 65.165138 
511.000000	 65.166592 
510.000000	 65.074872 
509.000000	 64.911365 
508.000000	 64.708757 
507.000000	 64.503812 
506.000000	 64.330983 
505.000000	 64.216089 
504.000000	 64.173603 
503.000000	 64.207077 
502.000000	 64.307951 
501.000000	 64.459323 
500.000000	 64.637327 
499.000000	 64.815545 
498.000000	 64.968967 
497.000000	 65.077424 
496.000000	 65.126347 
495.000000	 65.108752 
494.000000	 65.025663 
493.000000	 64.885473 
492.000000	 64.703464 
491.000000	 64.498424 
490.000000	 64.291405 
489.000000	 64.100170 
488.000000	 63.939142 
487.000000	 63.814997 
486.000000	 63.726949 
485.000000	 63.668370 
484.000000	 63.626885 
483.000000	 63.592147 
482.000000	 63.558721 
481.000000	 63.528847 
480.000000	 63.509511 
479.000000	 63.511919 
478.000000	 63.546538 
477.000000	 63.617515 
476.000000	 63.718771 
475.000000	 63.833904 
474.000000	 63.938927 
473.000000	 64.008069 
472.000000	 64.020442 
471.000000	 63.966178 
470.000000	 63.850140 
469.000000	 63.691282 
468.000000	 63.519430 
467.000000	 63.368868 
466.000000	 63.270163 
465.000000	 63.244342 
464.000000	 63.296961 
463.000000	 63.417005 
462.000000	 63.578987 
461.000000	 63.751769 
460.000000	 63.902878 
459.000000	 64.005494 
458.000000	 64.042496 
457.000000	 64.010477 
456.000000	 63.915634 
455.000000	 63.769626 
454.000000	 63.585925 
453.000000	 63.376736 
452.000000	 63.151240 
451.000000	 62.917542 
450.000000	 62.682008 
449.000000	 62.452006 
448.000000	 62.235593 
447.000000	 62.042570 
446.000000	 61.881518 
445.000000	 61.759305 
444.000000	 61.679887 
443.000000	 61.644840 
442.000000	 61.654376 
441.000000	 61.709094 
440.000000	 61.807179 
439.000000	 61.947226 
438.000000	 62.127709 
437.000000	 62.347984 
436.000000	 62.604069 
435.000000	 62.890100 
434.000000	 63.196682 
433.000000	 63.511633 
432.000000	 63.821887 
431.000000	 64.112138 
430.000000	 64.368271 
429.000000	 64.574289 
428.000000	 64.719104 
427.000000	 64.790534 
426.000000	 64.777755 
425.000000	 64.674019 
424.000000	 64.484357 
423.000000	 64.219284 
422.000000	 63.895225 
421.000000	 63.537049 
420.000000	 63.178467 
419.000000	 62.854456 
418.000000	 62.597775 
417.000000	 62.448072 
416.000000	 62.446427 
415.000000	 62.625598 
414.000000	 63.001894 
413.000000	 63.568711 
412.000000	 64.291286 
411.000000	 65.110111 
410.000000	 65.946102 
409.000000	 66.704869 
408.000000	 67.296862 
407.000000	 67.665481 
406.000000	 67.785191 
405.000000	 67.665624 
404.000000	 67.338061 
403.000000	 66.864609 
402.000000	 66.295433 
401.000000	 65.666604 
400.000000	 64.980077 
399.000000	 64.218783 
398.000000	 63.348054 
397.000000	 62.355422 
396.000000	 61.226582 
395.000000	 59.956526 
394.000000	 58.559799 
393.000000	 57.078695 
392.000000	 55.552721 
391.000000	 54.014801 
390.000000	 52.494812 
389.000000	 51.033520 
388.000000	 49.646234 
387.000000	 48.377466 
386.000000	 47.294044 
385.000000	 46.517014 
384.000000	 46.344876 
383.000000	 47.068810 
382.000000	 48.888874 
381.000000	 51.829791 
380.000000	 55.175018 
379.000000	 58.171534 
378.000000	 60.523843 
377.000000	 62.252259 
376.000000	 64.271831 
375.000000	 67.249655 
374.000000	 71.072983 
373.000000	 74.903440 
372.000000	 76.609730 
371.000000	 74.668884 
370.000000	 68.838691 

