PE IR       SPECTRUM    SPECTRUM    ASCII       PEDS        1.60        
  -1
BZCBFB~1.ASC
17/04/07
21:51:18.00
17/04/07
21:51:18.00
tln
$BZ1503107-1_t0105$<tbV0>[0.0,10.4,8.0,0.0,27,1,0]
370.000000
64









2002,4.07    
MIRTGS : RIGHTBACK : INTERNAL 2
MIR : ON : INTERNAL 2
OPTKBR

0.200000
8
8.000000
FILLER
RATIO
SPECTRUM
UNLOCKED 256

DOUBLE
64
COMBINED
1
0
0


1.000000
RATIO


1
0
TRUE
51149
0
LEFT NOT FITTED RIGHT NOT FITTED 0
NONE
NONE
15600
12.000000
4.427000
51148
TRUE
1 0 8 72 0 0 0 0 

15798.010000






#HDR
-1
-1
#GR
CM-1
%T
0.00002384185791015625
0.0
5000.000000
-1.000000
4631
8
81.586050
55.794024
#DATA
5000.000000	66.203188 
4999.000000	66.542816 
4998.000000	66.818118 
4997.000000	67.006039 
4996.000000	67.090463 
4995.000000	67.066979 
4994.000000	66.936063 
4993.000000	66.705751 
4992.000000	66.384935 
4991.000000	65.986371 
4990.000000	65.524125 
4989.000000	65.020370 
4988.000000	64.496636 
4987.000000	63.975596 
4986.000000	63.476872 
4985.000000	63.017678 
4984.000000	62.607407 
4983.000000	62.248849 
4982.000000	61.941790 
4981.000000	61.687183 
4980.000000	61.489081 
4979.000000	61.357355 
4978.000000	61.303091 
4977.000000	61.337590 
4976.000000	61.466002 
4975.000000	61.686301 
4974.000000	61.979246 
4973.000000	62.317538 
4972.000000	62.668156 
4971.000000	63.002300 
4970.000000	63.297510 
4969.000000	63.544583 
4968.000000	63.747477 
4967.000000	63.919520 
4966.000000	64.076042 
4965.000000	64.230370 
4964.000000	64.389276 
4963.000000	64.552354 
4962.000000	64.713978 
4961.000000	64.867401 
4960.000000	65.008664 
4959.000000	65.142273 
4958.000000	65.282344 
4957.000000	65.447163 
4956.000000	65.653133 
4955.000000	65.910911 
4954.000000	66.218709 
4953.000000	66.557598 
4952.000000	66.891717 
4951.000000	67.177653 
4950.000000	67.370557 
4949.000000	67.435050 
4948.000000	67.351651 
4947.000000	67.123699 
4946.000000	66.775298 
4945.000000	66.348338 
4944.000000	65.892195 
4943.000000	65.456104 
4942.000000	65.078020 
4941.000000	64.783120 
4940.000000	64.577651 
4939.000000	64.453029 
4938.000000	64.389300 
4937.000000	64.362549 
4936.000000	64.351391 
4935.000000	64.338231 
4934.000000	64.318609 
4933.000000	64.298605 
4932.000000	64.293122 
4931.000000	64.317631 
4930.000000	64.385271 
4929.000000	64.500641 
4928.000000	64.656829 
4927.000000	64.835619 
4926.000000	65.013337 
4925.000000	65.165185 
4924.000000	65.271043 
4923.000000	65.318536 
4922.000000	65.304422 
4921.000000	65.234899 
4920.000000	65.120911 
4919.000000	64.978766 
4918.000000	64.826679 
4917.000000	64.684247 
4916.000000	64.571499 
4915.000000	64.505171 
4914.000000	64.498233 
4913.000000	64.554834 
4912.000000	64.672803 
4911.000000	64.837169 
4910.000000	65.021491 
4909.000000	65.191984 
4908.000000	65.313744 
4907.000000	65.358686 
4906.000000	65.311360 
4905.000000	65.174245 
4904.000000	64.967346 
4903.000000	64.723277 
4902.000000	64.479804 
4901.000000	64.270853 
4900.000000	64.119625 
4899.000000	64.035153 
4898.000000	64.012312 
4897.000000	64.035964 
4896.000000	64.086246 
4895.000000	64.143610 
4894.000000	64.194607 
4893.000000	64.231157 
4892.000000	64.254093 
4891.000000	64.268445 
4890.000000	64.283537 
4889.000000	64.307618 
4888.000000	64.346671 
4887.000000	64.401793 
4886.000000	64.469289 
4885.000000	64.543080 
4884.000000	64.614248 
4883.000000	64.674377 
4882.000000	64.715981 
4881.000000	64.734435 
4880.000000	64.728760 
4879.000000	64.701843 
4878.000000	64.659738 
4877.000000	64.610290 
4876.000000	64.562392 
4875.000000	64.524078 
4874.000000	64.501190 
4873.000000	64.496779 
4872.000000	64.510583 
4871.000000	64.539957 
4870.000000	64.580750 
4869.000000	64.628958 
4868.000000	64.680457 
4867.000000	64.732718 
4866.000000	64.784598 
4865.000000	64.836907 
4864.000000	64.891314 
4863.000000	64.949369 
4862.000000	65.011930 
4861.000000	65.077161 
4860.000000	65.141510 
4859.000000	65.198349 
4858.000000	65.240144 
4857.000000	65.258717 
4856.000000	65.247845 
4855.000000	65.204453 
4854.000000	65.130233 
4853.000000	65.031766 
4852.000000	64.919972 
4851.000000	64.808011 
4850.000000	64.709019 
4849.000000	64.632606 
4848.000000	64.583206 
4847.000000	64.559054 
4846.000000	64.553284 
4845.000000	64.555001 
4844.000000	64.552974 
4843.000000	64.538264 
4842.000000	64.507341 
4841.000000	64.462566 
4840.000000	64.412379 
4839.000000	64.367866 
4838.000000	64.340686 
4837.000000	64.339089 
4836.000000	64.366436 
4835.000000	64.419603 
4834.000000	64.490246 
4833.000000	64.567232 
4832.000000	64.639329 
4831.000000	64.697742 
4830.000000	64.737892 
4829.000000	64.759349 
4828.000000	64.765954 
4827.000000	64.763236 
4826.000000	64.758324 
4825.000000	64.757776 
4824.000000	64.767384 
4823.000000	64.791440 
4822.000000	64.832544 
4821.000000	64.891242 
4820.000000	64.966273 
4819.000000	65.054178 
4818.000000	65.148735 
4817.000000	65.241527 
4816.000000	65.323090 
4815.000000	65.384554 
4814.000000	65.419268 
4813.000000	65.424418 
4812.000000	65.402317 
4811.000000	65.359568 
4810.000000	65.306091 
4809.000000	65.252637 
4808.000000	65.209007 
4807.000000	65.181756 
4806.000000	65.173816 
4805.000000	65.183949 
4804.000000	65.208196 
4803.000000	65.240716 
4802.000000	65.275859 
4801.000000	65.308880 
4800.000000	65.335917 
4799.000000	65.355062 
4798.000000	65.366196 
4797.000000	65.369963 
4796.000000	65.367102 
4795.000000	65.358161 
4794.000000	65.343499 
4793.000000	65.323638 
4792.000000	65.299558 
4791.000000	65.273094 
4790.000000	65.247130 
4789.000000	65.225005 
4788.000000	65.210247 
4787.000000	65.206193 
4786.000000	65.215063 
4785.000000	65.236949 
4784.000000	65.269804 
4783.000000	65.310144 
4782.000000	65.352869 
4781.000000	65.392756 
4780.000000	65.424442 
4779.000000	65.443539 
4778.000000	65.446615 
4777.000000	65.432143 
4776.000000	65.399646 
4775.000000	65.349769 
4774.000000	65.284347 
4773.000000	65.206432 
4772.000000	65.120720 
4771.000000	65.033435 
4770.000000	64.952540 
4769.000000	64.886450 
4768.000000	64.843273 
4767.000000	64.828872 
4766.000000	64.845561 
4765.000000	64.890909 
4764.000000	64.957547 
4763.000000	65.033984 
4762.000000	65.106296 
4761.000000	65.161108 
4760.000000	65.188097 
4759.000000	65.182924 
4758.000000	65.147256 
4757.000000	65.089225 
4756.000000	65.021347 
4755.000000	64.957952 
4754.000000	64.911985 
4753.000000	64.891862 
4752.000000	64.900112 
4751.000000	64.932656 
4750.000000	64.980721 
4749.000000	65.032792 
4748.000000	65.077924 
4747.000000	65.108370 
4746.000000	65.120935 
4745.000000	65.117859 
4744.000000	65.105271 
4743.000000	65.091562 
4742.000000	65.084767 
4741.000000	65.090489 
4740.000000	65.109968 
4739.000000	65.140414 
4738.000000	65.175557 
4737.000000	65.206742 
4736.000000	65.224742 
4735.000000	65.222120 
4734.000000	65.194678 
4733.000000	65.142130 
4732.000000	65.068650 
4731.000000	64.981460 
4730.000000	64.890480 
4729.000000	64.806413 
4728.000000	64.739179 
4727.000000	64.696502 
4726.000000	64.682173 
4725.000000	64.696168 
4724.000000	64.734268 
4723.000000	64.788985 
4722.000000	64.850997 
4721.000000	64.910459 
4720.000000	64.959502 
4719.000000	64.992594 
4718.000000	65.008068 
4717.000000	65.007352 
4716.000000	64.994835 
4715.000000	64.976429 
4714.000000	64.958429 
4713.000000	64.946103 
4712.000000	64.943003 
4711.000000	64.950442 
4710.000000	64.967203 
4709.000000	64.990162 
4708.000000	65.015053 
4707.000000	65.037655 
4706.000000	65.054988 
4705.000000	65.065622 
4704.000000	65.070033 
4703.000000	65.069746 
4702.000000	65.066409 
4701.000000	65.060901 
4700.000000	65.053391 
4699.000000	65.042805 
4698.000000	65.027189 
4697.000000	65.005040 
4696.000000	64.976310 
4695.000000	64.943146 
4694.000000	64.909696 
4693.000000	64.881849 
4692.000000	64.865851 
4691.000000	64.867448 
4690.000000	64.890336 
4689.000000	64.935088 
4688.000000	64.998579 
4687.000000	65.074658 
4686.000000	65.155148 
4685.000000	65.230965 
4684.000000	65.293550 
4683.000000	65.335965 
4682.000000	65.354299 
4681.000000	65.347623 
4680.000000	65.318894 
4679.000000	65.274477 
4678.000000	65.223336 
4677.000000	65.175938 
4676.000000	65.141868 
4675.000000	65.128803 
4674.000000	65.140175 
4673.000000	65.175151 
4672.000000	65.228247 
4671.000000	65.291213 
4670.000000	65.354371 
4669.000000	65.408802 
4668.000000	65.447950 
4667.000000	65.468478 
4666.000000	65.470552 
4665.000000	65.457177 
4664.000000	65.432739 
4663.000000	65.401649 
4662.000000	65.367507 
4661.000000	65.332674 
4660.000000	65.298271 
4659.000000	65.264773 
4658.000000	65.232443 
4657.000000	65.201807 
4656.000000	65.173912 
4655.000000	65.150094 
4654.000000	65.130829 
4653.000000	65.115857 
4652.000000	65.104389 
4651.000000	65.095233 
4650.000000	65.086793 
4649.000000	65.077662 
4648.000000	65.067100 
4647.000000	65.055227 
4646.000000	65.042448 
4645.000000	65.029811 
4644.000000	65.018343 
4643.000000	65.009593 
4642.000000	65.004539 
4641.000000	65.004825 
4640.000000	65.012454 
4639.000000	65.029573 
4638.000000	65.057635 
4637.000000	65.097093 
4636.000000	65.146851 
4635.000000	65.203547 
4634.000000	65.261697 
4633.000000	65.314435 
4632.000000	65.354585 
4631.000000	65.376281 
4630.000000	65.376186 
4629.000000	65.354251 
4628.000000	65.313315 
4627.000000	65.259051 
4626.000000	65.198087 
4625.000000	65.136861 
4624.000000	65.079784 
4623.000000	65.029621 
4622.000000	64.986562 
4621.000000	64.949560 
4620.000000	64.916396 
4619.000000	64.885377 
4618.000000	64.855146 
4617.000000	64.824628 
4616.000000	64.792919 
4615.000000	64.758849 
4614.000000	64.721441 
4613.000000	64.679455 
4612.000000	64.632821 
4611.000000	64.582324 
4610.000000	64.530634 
4609.000000	64.481806 
4608.000000	64.440631 
4607.000000	64.411449 
4606.000000	64.396882 
4605.000000	64.397096 
4604.000000	64.409565 
4603.000000	64.429593 
4602.000000	64.451479 
4601.000000	64.470195 
4600.000000	64.482712 
4599.000000	64.488863 
4598.000000	64.490914 
4597.000000	64.492940 
4596.000000	64.499354 
4595.000000	64.513731 
4594.000000	64.537715 
4593.000000	64.570665 
4592.000000	64.610290 
4591.000000	64.652943 
4590.000000	64.695143 
4589.000000	64.733624 
4588.000000	64.766573 
4587.000000	64.793133 
4586.000000	64.813041 
4585.000000	64.826273 
4584.000000	64.832663 
4583.000000	64.831972 
4582.000000	64.823961 
4581.000000	64.809322 
4580.000000	64.789962 
4579.000000	64.769506 
4578.000000	64.752793 
4577.000000	64.745616 
4576.000000	64.753246 
4575.000000	64.779281 
4574.000000	64.824342 
4573.000000	64.886140 
4572.000000	64.959025 
4571.000000	65.034842 
4570.000000	65.103864 
4569.000000	65.156722 
4568.000000	65.185737 
4567.000000	65.186619 
4566.000000	65.158820 
4565.000000	65.105724 
4564.000000	65.033650 
4563.000000	64.950752 
4562.000000	64.865565 
4561.000000	64.785933 
4560.000000	64.717864 
4559.000000	64.665770 
4558.000000	64.631342 
4557.000000	64.614224 
4556.000000	64.611601 
4555.000000	64.619112 
4554.000000	64.631557 
4553.000000	64.643502 
4552.000000	64.651513 
4551.000000	64.654636 
4550.000000	64.655041 
4549.000000	64.657211 
4548.000000	64.667224 
4547.000000	64.690446 
4546.000000	64.729905 
4545.000000	64.784693 
4544.000000	64.850139 
4543.000000	64.918327 
4542.000000	64.980173 
4541.000000	65.027093 
4540.000000	65.053629 
4539.000000	65.058183 
4538.000000	65.043640 
4537.000000	65.015864 
4536.000000	64.981579 
4535.000000	64.946770 
4534.000000	64.915418 
4533.000000	64.888477 
4532.000000	64.864611 
4531.000000	64.841198 
4530.000000	64.816403 
4529.000000	64.789605 
4528.000000	64.762330 
4527.000000	64.737176 
4526.000000	64.717149 
4525.000000	64.704227 
4524.000000	64.698767 
4523.000000	64.698386 
4522.000000	64.698386 
4521.000000	64.693474 
4520.000000	64.679121 
4519.000000	64.652633 
4518.000000	64.614319 
4517.000000	64.567804 
4516.000000	64.520001 
4515.000000	64.478611 
4514.000000	64.451837 
4513.000000	64.446353 
4512.000000	64.466595 
4511.000000	64.513659 
4510.000000	64.585065 
4509.000000	64.675307 
4508.000000	64.775967 
4507.000000	64.877390 
4506.000000	64.969062 
4505.000000	65.041542 
4504.000000	65.086793 
4503.000000	65.099811 
4502.000000	65.078282 
4501.000000	65.023207 
4500.000000	64.938449 
4499.000000	64.830827 
4498.000000	64.708137 
4497.000000	64.578366 
4496.000000	64.449048 
4495.000000	64.326667 
4494.000000	64.215850 
4493.000000	64.119482 
4492.000000	64.039421 
4491.000000	63.976979 
4490.000000	63.931059 
4489.000000	63.900542 
4488.000000	63.882780 
4487.000000	63.876867 
4486.000000	63.883185 
4485.000000	63.903903 
4484.000000	63.942861 
4483.000000	64.002203 
4482.000000	64.077997 
4481.000000	64.162015 
4480.000000	64.243674 
4479.000000	64.310812 
4478.000000	64.348387 
4477.000000	64.349174 
4476.000000	64.321303 
4475.000000	64.276337 
4474.000000	64.223456 
4473.000000	64.172697 
4472.000000	64.131665 
4471.000000	64.108657 
4470.000000	64.113450 
4469.000000	64.147996 
4468.000000	64.207553 
4467.000000	64.291667 
4466.000000	64.402627 
4465.000000	64.543461 
4464.000000	64.713716 
4463.000000	64.906001 
4462.000000	65.107488 
4461.000000	65.284585 
4460.000000	65.407109 
4459.000000	65.467762 
4458.000000	65.482091 
4457.000000	65.488314 
4456.000000	65.539836 
4455.000000	65.661811 
4454.000000	65.892028 
4453.000000	66.234374 
4452.000000	66.735792 
4451.000000	67.491030 
4450.000000	68.617177 
4449.000000	70.255184 
4448.000000	72.426915 
4447.000000	75.003290 
4446.000000	77.664518 
4445.000000	79.945373 
4444.000000	81.373262 
4443.000000	81.586050 
4442.000000	80.467367 
4441.000000	78.178691 
4440.000000	75.094532 
4439.000000	71.703219 
4438.000000	68.457984 
4437.000000	65.678286 
4436.000000	63.507747 
4435.000000	61.905956 
4434.000000	60.736346 
4433.000000	59.813070 
4432.000000	58.976960 
4431.000000	58.152604 
4430.000000	57.326745 
4429.000000	56.590795 
4428.000000	56.064963 
4427.000000	55.897474 
4426.000000	56.175279 
4425.000000	56.928300 
4424.000000	58.094024 
4423.000000	59.543132 
4422.000000	61.098551 
4421.000000	62.580633 
4420.000000	63.845610 
4419.000000	64.801526 
4418.000000	65.416765 
4417.000000	65.713000 
4416.000000	65.747451 
4415.000000	65.593075 
4414.000000	65.318608 
4413.000000	64.988303 
4412.000000	64.651036 
4411.000000	64.348387 
4410.000000	64.108705 
4409.000000	63.948702 
4408.000000	63.872408 
4407.000000	63.883399 
4406.000000	63.978767 
4405.000000	64.136171 
4404.000000	64.328360 
4403.000000	64.531946 
4402.000000	64.728713 
4401.000000	64.902472 
4400.000000	65.045022 
4399.000000	65.153598 
4398.000000	65.230607 
4397.000000	65.280413 
4396.000000	65.307974 
4395.000000	65.317988 
4394.000000	65.312719 
4393.000000	65.294027 
4392.000000	65.260839 
4391.000000	65.210556 
4390.000000	65.144205 
4389.000000	65.068769 
4388.000000	64.990401 
4387.000000	64.914131 
4386.000000	64.845728 
4385.000000	64.790463 
4384.000000	64.751172 
4383.000000	64.728999 
4382.000000	64.722895 
4381.000000	64.731097 
4380.000000	64.752626 
4379.000000	64.787006 
4378.000000	64.832592 
4377.000000	64.887046 
4376.000000	64.946508 
4375.000000	65.005755 
4374.000000	65.058970 
4373.000000	65.100049 
4372.000000	65.123796 
4371.000000	65.126919 
4370.000000	65.109801 
4369.000000	65.074944 
4368.000000	65.026640 
4367.000000	64.970016 
4366.000000	64.910554 
4365.000000	64.852619 
4364.000000	64.799261 
4363.000000	64.752745 
4362.000000	64.714884 
4361.000000	64.687585 
4360.000000	64.673209 
4359.000000	64.674162 
4358.000000	64.692616 
4357.000000	64.729523 
4356.000000	64.784717 
4355.000000	64.855885 
4354.000000	64.938879 
4353.000000	65.028762 
4352.000000	65.119314 
4351.000000	65.203809 
4350.000000	65.275144 
4349.000000	65.327382 
4348.000000	65.355873 
4347.000000	65.358686 
4346.000000	65.336132 
4345.000000	65.291666 
4344.000000	65.230321 
4343.000000	65.158939 
4342.000000	65.083813 
4341.000000	65.010619 
4340.000000	64.943003 
4339.000000	64.883089 
4338.000000	64.831089 
4337.000000	64.786267 
4336.000000	64.747262 
4335.000000	64.713001 
4334.000000	64.682841 
4333.000000	64.657092 
4332.000000	64.636540 
4331.000000	64.622759 
4330.000000	64.617466 
4329.000000	64.622569 
4328.000000	64.639759 
4327.000000	64.670300 
4326.000000	64.714646 
4325.000000	64.771771 
4324.000000	64.838790 
4323.000000	64.910650 
4322.000000	64.980435 
4321.000000	65.040230 
4320.000000	65.082216 
4319.000000	65.100288 
4318.000000	65.091371 
4317.000000	65.056300 
4316.000000	65.000200 
4315.000000	64.931058 
4314.000000	64.858770 
4313.000000	64.792156 
4312.000000	64.737534 
4311.000000	64.697480 
4310.000000	64.671039 
4309.000000	64.654397 
4308.000000	64.642596 
4307.000000	64.631652 
4306.000000	64.619922 
4305.000000	64.608335 
4304.000000	64.600276 
4303.000000	64.599728 
4302.000000	64.610481 
4301.000000	64.634537 
4300.000000	64.672017 
4299.000000	64.720511 
4298.000000	64.775919 
4297.000000	64.834046 
4296.000000	64.890766 
4295.000000	64.943385 
4294.000000	64.989876 
4293.000000	65.029382 
4292.000000	65.061092 
4291.000000	65.083956 
4290.000000	65.096497 
4289.000000	65.097141 
4288.000000	65.084815 
4287.000000	65.060162 
4286.000000	65.025043 
4285.000000	64.982891 
4284.000000	64.938449 
4283.000000	64.897155 
4282.000000	64.863705 
4281.000000	64.840841 
4280.000000	64.829397 
4279.000000	64.827799 
4278.000000	64.832115 
4277.000000	64.836907 
4276.000000	64.836263 
4275.000000	64.825177 
4274.000000	64.800333 
4273.000000	64.761185 
4272.000000	64.709520 
4271.000000	64.649581 
4270.000000	64.587306 
4269.000000	64.529252 
4268.000000	64.481043 
4267.000000	64.447140 
4266.000000	64.429879 
4265.000000	64.429974 
4264.000000	64.445662 
4263.000000	64.474797 
4262.000000	64.514780 
4261.000000	64.563751 
4260.000000	64.619970 
4259.000000	64.682555 
4258.000000	64.750528 
4257.000000	64.822387 
4256.000000	64.895582 
4255.000000	64.966464 
4254.000000	65.030765 
4253.000000	65.084147 
4252.000000	65.123105 
4251.000000	65.145611 
4250.000000	65.151453 
4249.000000	65.142893 
4248.000000	65.123629 
4247.000000	65.098071 
4246.000000	65.070390 
4245.000000	65.044093 
4244.000000	65.021276 
4243.000000	65.002751 
4242.000000	64.988064 
4241.000000	64.976692 
4240.000000	64.967799 
4239.000000	64.960813 
4238.000000	64.955472 
4237.000000	64.952039 
4236.000000	64.950728 
4235.000000	64.951348 
4234.000000	64.952898 
4233.000000	64.953708 
4232.000000	64.951372 
4231.000000	64.943218 
4230.000000	64.926528 
4229.000000	64.899182 
4228.000000	64.860320 
4227.000000	64.810991 
4226.000000	64.753913 
4225.000000	64.693570 
4224.000000	64.635944 
4223.000000	64.587855 
4222.000000	64.555668 
4221.000000	64.544391 
4220.000000	64.556312 
4219.000000	64.590883 
4218.000000	64.644098 
4217.000000	64.709973 
4216.000000	64.781308 
4215.000000	64.851522 
4214.000000	64.915299 
4213.000000	64.969706 
4212.000000	65.013527 
4211.000000	65.047311 
4210.000000	65.072417 
4209.000000	65.090107 
4208.000000	65.101170 
4207.000000	65.105581 
4206.000000	65.103292 
4205.000000	65.093779 
4204.000000	65.077185 
4203.000000	65.054225 
4202.000000	65.026974 
4201.000000	64.998197 
4200.000000	64.971375 
4199.000000	64.950156 
4198.000000	64.937949 
4197.000000	64.937949 
4196.000000	64.952397 
4195.000000	64.982390 
4194.000000	65.027165 
4193.000000	65.083646 
4192.000000	65.146470 
4191.000000	65.208435 
4190.000000	65.261530 
4189.000000	65.298414 
4188.000000	65.314030 
4187.000000	65.306663 
4186.000000	65.278291 
4185.000000	65.234470 
4184.000000	65.182876 
4183.000000	65.131878 
4182.000000	65.089106 
4181.000000	65.060377 
4180.000000	65.048766 
4179.000000	65.054512 
4178.000000	65.075325 
4177.000000	65.107440 
4176.000000	65.145993 
4175.000000	65.185856 
4174.000000	65.222311 
4173.000000	65.251255 
4172.000000	65.269446 
4171.000000	65.274620 
4170.000000	65.265917 
4169.000000	65.243840 
4168.000000	65.210604 
4167.000000	65.169644 
4166.000000	65.125250 
4165.000000	65.081715 
4164.000000	65.043115 
4163.000000	65.012478 
4162.000000	64.991641 
4161.000000	64.981150 
4160.000000	64.980411 
4159.000000	64.988183 
4158.000000	65.002942 
4157.000000	65.022969 
4156.000000	65.046191 
4155.000000	65.070557 
4154.000000	65.093922 
4153.000000	65.114021 
4152.000000	65.128469 
4151.000000	65.134978 
4150.000000	65.131735 
4149.000000	65.117740 
4148.000000	65.093231 
4147.000000	65.059471 
4146.000000	65.018916 
4145.000000	64.974713 
4144.000000	64.930677 
4143.000000	64.890980 
4142.000000	64.859962 
4141.000000	64.841580 
4140.000000	64.839076 
4139.000000	64.854598 
4138.000000	64.888596 
4137.000000	64.939737 
4136.000000	65.004372 
4135.000000	65.077137 
4134.000000	65.151166 
4133.000000	65.219259 
4132.000000	65.274047 
4131.000000	65.308976 
4130.000000	65.319299 
4129.000000	65.303182 
4128.000000	65.261816 
4127.000000	65.199542 
4126.000000	65.123271 
4125.000000	65.041851 
4124.000000	64.964127 
4123.000000	64.897990 
4122.000000	64.848947 
4121.000000	64.819431 
4120.000000	64.809250 
4119.000000	64.816236 
4118.000000	64.836859 
4117.000000	64.867210 
4116.000000	64.903688 
4115.000000	64.943361 
4114.000000	64.983534 
4113.000000	65.021681 
4112.000000	65.054965 
4111.000000	65.080332 
4110.000000	65.094828 
4109.000000	65.096783 
4108.000000	65.086078 
4107.000000	65.065073 
4106.000000	65.038442 
4105.000000	65.012645 
4104.000000	64.994645 
4103.000000	64.990234 
4102.000000	65.002894 
4101.000000	65.032410 
4100.000000	65.075421 
4099.000000	65.125441 
4098.000000	65.174603 
4097.000000	65.214562 
4096.000000	65.238356 
4095.000000	65.241646 
4094.000000	65.223550 
4093.000000	65.186452 
4092.000000	65.135335 
4091.000000	65.077137 
4090.000000	65.019679 
4089.000000	64.970231 
4088.000000	64.934349 
4087.000000	64.915275 
4086.000000	64.913320 
4085.000000	64.926314 
4084.000000	64.950203 
4083.000000	64.979481 
4082.000000	65.008711 
4081.000000	65.033602 
4080.000000	65.052008 
4079.000000	65.063428 
4078.000000	65.069222 
4077.000000	65.071725 
4076.000000	65.073370 
4075.000000	65.075802 
4074.000000	65.079903 
4073.000000	65.085649 
4072.000000	65.093088 
4071.000000	65.102529 
4070.000000	65.115118 
4069.000000	65.132689 
4068.000000	65.157222 
4067.000000	65.190005 
4066.000000	65.230751 
4065.000000	65.276837 
4064.000000	65.323400 
4063.000000	65.364003 
4062.000000	65.391850 
4061.000000	65.401458 
4060.000000	65.390229 
4059.000000	65.359139 
4058.000000	65.312695 
4057.000000	65.257835 
4056.000000	65.202474 
4055.000000	65.153646 
4054.000000	65.116477 
4053.000000	65.092897 
4052.000000	65.081739 
4051.000000	65.079498 
4050.000000	65.081834 
4049.000000	65.084743 
4048.000000	65.085315 
4047.000000	65.082931 
4046.000000	65.078663 
4045.000000	65.075302 
4044.000000	65.075492 
4043.000000	65.081667 
4042.000000	65.094780 
4041.000000	65.114641 
4040.000000	65.139627 
4039.000000	65.167665 
4038.000000	65.196943 
4037.000000	65.226221 
4036.000000	65.254855 
4035.000000	65.282773 
4034.000000	65.309691 
4033.000000	65.334725 
4032.000000	65.355753 
4031.000000	65.369582 
4030.000000	65.372252 
4029.000000	65.360236 
4028.000000	65.331101 
4027.000000	65.284895 
4026.000000	65.224432 
4025.000000	65.155220 
4024.000000	65.084600 
4023.000000	65.020370 
4022.000000	64.969515 
4021.000000	64.936637 
4020.000000	64.923501 
4019.000000	64.928913 
4018.000000	64.949226 
4017.000000	64.978885 
4016.000000	65.012001 
4015.000000	65.043258 
4014.000000	65.068745 
4013.000000	65.086030 
4012.000000	65.094780 
4011.000000	65.096235 
4010.000000	65.092897 
4009.000000	65.087604 
4008.000000	65.083575 
4007.000000	65.083265 
4006.000000	65.088462 
4005.000000	65.099382 
4004.000000	65.114974 
4003.000000	65.132784 
4002.000000	65.149617 
4001.000000	65.162014 
4000.000000	65.166974 
3999.000000	65.162301 
3998.000000	65.147376 
3997.000000	65.122747 
3996.000000	65.089917 
3995.000000	65.050959 
3994.000000	65.008258 
3993.000000	64.964151 
3992.000000	64.920663 
3991.000000	64.879775 
3990.000000	64.843678 
3989.000000	64.814329 
3988.000000	64.793348 
3987.000000	64.781665 
3986.000000	64.779162 
3985.000000	64.784193 
3984.000000	64.793801 
3983.000000	64.803886 
3982.000000	64.810228 
3981.000000	64.809918 
3980.000000	64.802217 
3979.000000	64.788651 
3978.000000	64.773011 
3977.000000	64.760708 
3976.000000	64.757418 
3975.000000	64.767408 
3974.000000	64.792442 
3973.000000	64.831185 
3972.000000	64.879441 
3971.000000	64.931416 
3970.000000	64.980602 
3969.000000	65.021300 
3968.000000	65.049552 
3967.000000	65.063953 
3966.000000	65.065646 
3965.000000	65.056943 
3964.000000	65.041637 
3963.000000	65.023827 
3962.000000	65.007591 
3961.000000	64.996433 
3960.000000	64.993119 
3959.000000	64.999723 
3958.000000	65.016555 
3957.000000	65.042161 
3956.000000	65.072512 
3955.000000	65.101480 
3954.000000	65.121388 
3953.000000	65.124678 
3952.000000	65.105056 
3951.000000	65.059852 
3950.000000	64.990997 
3949.000000	64.905738 
3948.000000	64.815163 
3947.000000	64.732718 
3946.000000	64.671468 
3945.000000	64.641523 
3944.000000	64.647746 
3943.000000	64.689469 
3942.000000	64.760589 
3941.000000	64.851617 
3940.000000	64.951252 
3939.000000	65.049195 
3938.000000	65.137624 
3937.000000	65.211939 
3936.000000	65.270400 
3935.000000	65.313220 
3934.000000	65.341377 
3933.000000	65.355587 
3932.000000	65.355944 
3931.000000	65.341925 
3930.000000	65.312981 
3929.000000	65.269684 
3928.000000	65.214419 
3927.000000	65.151095 
3926.000000	65.084671 
3925.000000	65.020346 
3924.000000	64.962720 
3923.000000	64.914846 
3922.000000	64.878201 
3921.000000	64.852046 
3920.000000	64.834785 
3919.000000	64.823675 
3918.000000	64.816713 
3917.000000	64.812231 
3916.000000	64.810109 
3915.000000	64.810729 
3914.000000	64.815497 
3913.000000	64.825510 
3912.000000	64.841628 
3911.000000	64.863514 
3910.000000	64.889597 
3909.000000	64.916920 
3908.000000	64.942288 
3907.000000	64.963054 
3906.000000	64.977598 
3905.000000	64.985370 
3904.000000	64.987826 
3903.000000	64.987850 
3902.000000	64.989113 
3901.000000	64.994835 
3900.000000	65.006852 
3899.000000	65.024781 
3898.000000	65.046215 
3897.000000	65.067076 
3896.000000	65.082430 
3895.000000	65.087866 
3894.000000	65.081000 
3893.000000	65.062141 
3892.000000	65.033984 
3891.000000	65.001320 
3890.000000	64.970088 
3889.000000	64.946055 
3888.000000	64.933562 
3887.000000	64.934515 
3886.000000	64.948248 
3885.000000	64.971446 
3884.000000	64.999175 
3883.000000	65.025210 
3882.000000	65.043807 
3881.000000	65.050292 
3880.000000	65.041899 
3879.000000	65.018153 
3878.000000	64.980697 
3877.000000	64.933133 
3876.000000	64.880323 
3875.000000	64.827728 
3874.000000	64.780592 
3873.000000	64.743280 
3872.000000	64.718818 
3871.000000	64.708757 
3870.000000	64.713144 
3869.000000	64.730978 
3868.000000	64.760375 
3867.000000	64.798736 
3866.000000	64.843297 
3865.000000	64.890933 
3864.000000	64.938640 
3863.000000	64.983224 
3862.000000	65.021800 
3861.000000	65.051913 
3860.000000	65.071964 
3859.000000	65.081381 
3858.000000	65.080642 
3857.000000	65.071296 
3856.000000	65.055370 
3855.000000	65.035533 
3854.000000	65.014243 
3853.000000	64.993596 
3852.000000	64.975070 
3851.000000	64.959478 
3850.000000	64.947605 
3849.000000	64.940071 
3848.000000	64.937663 
3847.000000	64.940738 
3846.000000	64.949321 
3845.000000	64.962601 
3844.000000	64.978671 
3843.000000	64.994859 
3842.000000	65.007925 
3841.000000	65.014839 
3840.000000	65.013504 
3839.000000	65.003347 
3838.000000	64.985561 
3837.000000	64.962601 
3836.000000	64.937615 
3835.000000	64.913821 
3834.000000	64.894032 
3833.000000	64.879846 
3832.000000	64.871573 
3831.000000	64.868378 
3830.000000	64.868998 
3829.000000	64.871835 
3828.000000	64.875721 
3827.000000	64.879679 
3826.000000	64.882802 
3825.000000	64.884209 
3824.000000	64.882969 
3823.000000	64.877915 
3822.000000	64.867782 
3821.000000	64.851975 
3820.000000	64.830613 
3819.000000	64.805173 
3818.000000	64.778065 
3817.000000	64.752697 
3816.000000	64.732408 
3815.000000	64.719891 
3814.000000	64.716291 
3813.000000	64.720916 
3812.000000	64.731121 
3811.000000	64.742779 
3810.000000	64.751243 
3809.000000	64.752268 
3808.000000	64.743280 
3807.000000	64.723634 
3806.000000	64.695358 
3805.000000	64.662456 
3804.000000	64.630818 
3803.000000	64.606547 
3802.000000	64.595484 
3801.000000	64.601898 
3800.000000	64.627718 
3799.000000	64.672088 
3798.000000	64.731335 
3797.000000	64.799761 
3796.000000	64.870095 
3795.000000	64.935088 
3794.000000	64.988374 
3793.000000	65.025591 
3792.000000	65.045046 
3791.000000	65.047764 
3790.000000	65.037584 
3789.000000	65.019989 
3788.000000	65.001034 
3787.000000	64.985966 
3786.000000	64.978885 
3785.000000	64.981269 
3784.000000	64.992475 
3783.000000	65.009617 
3782.000000	65.028738 
3781.000000	65.045857 
3780.000000	65.057682 
3779.000000	65.062546 
3778.000000	65.060329 
3777.000000	65.052676 
3776.000000	65.042400 
3775.000000	65.032672 
3774.000000	65.026092 
3773.000000	65.024042 
3772.000000	65.026497 
3771.000000	65.031981 
3770.000000	65.038180 
3769.000000	65.042567 
3768.000000	65.043354 
3767.000000	65.039801 
3766.000000	65.032625 
3765.000000	65.023756 
3764.000000	65.016102 
3763.000000	65.012526 
3762.000000	65.015101 
3761.000000	65.025162 
3760.000000	65.042424 
3759.000000	65.065526 
3758.000000	65.091586 
3757.000000	65.117096 
3756.000000	65.138316 
3755.000000	65.151977 
3754.000000	65.155887 
3753.000000	65.149116 
3752.000000	65.132427 
3751.000000	65.108084 
3750.000000	65.079212 
3749.000000	65.049242 
3748.000000	65.021228 
3747.000000	64.997434 
3746.000000	64.978957 
3745.000000	64.965748 
3744.000000	64.957070 
3743.000000	64.952015 
3742.000000	64.949989 
3741.000000	64.950942 
3740.000000	64.955425 
3739.000000	64.964199 
3738.000000	64.977574 
3737.000000	64.995217 
3736.000000	65.015625 
3735.000000	65.036225 
3734.000000	65.053892 
3733.000000	65.065550 
3732.000000	65.069222 
3731.000000	65.064287 
3730.000000	65.051746 
3729.000000	65.034103 
3728.000000	65.014553 
3727.000000	64.996623 
3726.000000	64.983606 
3725.000000	64.977860 
3724.000000	64.980649 
3723.000000	64.992189 
3722.000000	65.011739 
3721.000000	65.037941 
3720.000000	65.069103 
3719.000000	65.102982 
3718.000000	65.136933 
3717.000000	65.168356 
3716.000000	65.194630 
3715.000000	65.213632 
3714.000000	65.223979 
3713.000000	65.225577 
3712.000000	65.219593 
3711.000000	65.208554 
3710.000000	65.195751 
3709.000000	65.184617 
3708.000000	65.177822 
3707.000000	65.176939 
3706.000000	65.181922 
3705.000000	65.191340 
3704.000000	65.202593 
3703.000000	65.212678 
3702.000000	65.218973 
3701.000000	65.219783 
3700.000000	65.214729 
3699.000000	65.204620 
3698.000000	65.191507 
3697.000000	65.177679 
3696.000000	65.165805 
3695.000000	65.157866 
3694.000000	65.155196 
3693.000000	65.158367 
3692.000000	65.167093 
3691.000000	65.180397 
3690.000000	65.196704 
3689.000000	65.213966 
3688.000000	65.229845 
3687.000000	65.241980 
3686.000000	65.248060 
3685.000000	65.246033 
3684.000000	65.234446 
3683.000000	65.212917 
3682.000000	65.182113 
3681.000000	65.143942 
3680.000000	65.101528 
3679.000000	65.058827 
3678.000000	65.020227 
3677.000000	64.989662 
3676.000000	64.970040 
3675.000000	64.962744 
3674.000000	64.967346 
3673.000000	64.981651 
3672.000000	65.002346 
3671.000000	65.025329 
3670.000000	65.046548 
3669.000000	65.062713 
3668.000000	65.071558 
3667.000000	65.072441 
3666.000000	65.066051 
3665.000000	65.054345 
3664.000000	65.039777 
3663.000000	65.025043 
3662.000000	65.012454 
3661.000000	65.003299 
3660.000000	64.997816 
3659.000000	64.995121 
3658.000000	64.993715 
3657.000000	64.991974 
3656.000000	64.988660 
3655.000000	64.983367 
3654.000000	64.976501 
3653.000000	64.969420 
3652.000000	64.963817 
3651.000000	64.961147 
3650.000000	64.962506 
3649.000000	64.967751 
3648.000000	64.976143 
3647.000000	64.986395 
3646.000000	64.997339 
3645.000000	65.008425 
3644.000000	65.020036 
3643.000000	65.033364 
3642.000000	65.049958 
3641.000000	65.071129 
3640.000000	65.097260 
3639.000000	65.127229 
3638.000000	65.158700 
3637.000000	65.188455 
3636.000000	65.213251 
3635.000000	65.230512 
3634.000000	65.238881 
3633.000000	65.238332 
3632.000000	65.230035 
3631.000000	65.215849 
3630.000000	65.197563 
3629.000000	65.176129 
3628.000000	65.152025 
3627.000000	65.125131 
3626.000000	65.095329 
3625.000000	65.063023 
3624.000000	65.029668 
3623.000000	64.997696 
3622.000000	64.969944 
3621.000000	64.949178 
3620.000000	64.936876 
3619.000000	64.933347 
3618.000000	64.937162 
3617.000000	64.945816 
3616.000000	64.956021 
3615.000000	64.964962 
3614.000000	64.970779 
3613.000000	64.973044 
3612.000000	64.972567 
3611.000000	64.971137 
3610.000000	64.970850 
3609.000000	64.973306 
3608.000000	64.979076 
3607.000000	64.987730 
3606.000000	64.998054 
3605.000000	65.008449 
3604.000000	65.017580 
3603.000000	65.025067 
3602.000000	65.031623 
3601.000000	65.038919 
3600.000000	65.049076 
3599.000000	65.064144 
3598.000000	65.085077 
3597.000000	65.111780 
3596.000000	65.142512 
3595.000000	65.174055 
3594.000000	65.202093 
3593.000000	65.222668 
3592.000000	65.232706 
3591.000000	65.231037 
3590.000000	65.218496 
3589.000000	65.198087 
3588.000000	65.173935 
3587.000000	65.150523 
3586.000000	65.131330 
3585.000000	65.118408 
3584.000000	65.111851 
3583.000000	65.110301 
3582.000000	65.111112 
3581.000000	65.111422 
3580.000000	65.108752 
3579.000000	65.101599 
3578.000000	65.089511 
3577.000000	65.073227 
3576.000000	65.054416 
3575.000000	65.035486 
3574.000000	65.018987 
3573.000000	65.007376 
3572.000000	65.002918 
3571.000000	65.007019 
3570.000000	65.020322 
3569.000000	65.042233 
3568.000000	65.070700 
3567.000000	65.102410 
3566.000000	65.133023 
3565.000000	65.158271 
3564.000000	65.174460 
3563.000000	65.179276 
3562.000000	65.172338 
3561.000000	65.154814 
3560.000000	65.128970 
3559.000000	65.097665 
3558.000000	65.063714 
3557.000000	65.029382 
3556.000000	64.996218 
3555.000000	64.965105 
3554.000000	64.936709 
3553.000000	64.911103 
3552.000000	64.888238 
3551.000000	64.867687 
3550.000000	64.849114 
3549.000000	64.832234 
3548.000000	64.817285 
3547.000000	64.804649 
3546.000000	64.795398 
3545.000000	64.791011 
3544.000000	64.793157 
3543.000000	64.802861 
3542.000000	64.820313 
3541.000000	64.844274 
3540.000000	64.872336 
3539.000000	64.900708 
3538.000000	64.925932 
3537.000000	64.945292 
3536.000000	64.957904 
3535.000000	64.964985 
3534.000000	64.969515 
3533.000000	64.975452 
3532.000000	64.986348 
3531.000000	65.004229 
3530.000000	65.028905 
3529.000000	65.057897 
3528.000000	65.087008 
3527.000000	65.111684 
3526.000000	65.127778 
3525.000000	65.132713 
3524.000000	65.126180 
3523.000000	65.109968 
3522.000000	65.086841 
3521.000000	65.059804 
3520.000000	65.031313 
3519.000000	65.002703 
3518.000000	64.974093 
3517.000000	64.944958 
3516.000000	64.914822 
3515.000000	64.884018 
3514.000000	64.854025 
3513.000000	64.827823 
3512.000000	64.808464 
3511.000000	64.799213 
3510.000000	64.802122 
3509.000000	64.817929 
3508.000000	64.845204 
3507.000000	64.880681 
3506.000000	64.919781 
3505.000000	64.957404 
3504.000000	64.988803 
3503.000000	65.010714 
3502.000000	65.021729 
3501.000000	65.022683 
3500.000000	65.015959 
3499.000000	65.005350 
3498.000000	64.994955 
3497.000000	64.988636 
3496.000000	64.989066 
3495.000000	64.997792 
3494.000000	65.014839 
3493.000000	65.038943 
3492.000000	65.067410 
3491.000000	65.096640 
3490.000000	65.122556 
3489.000000	65.141010 
3488.000000	65.148854 
3487.000000	65.144085 
3486.000000	65.126800 
3485.000000	65.099334 
3484.000000	65.066027 
3483.000000	65.032601 
3482.000000	65.005087 
3481.000000	64.988994 
3480.000000	64.987564 
3479.000000	65.001463 
3478.000000	65.028333 
3477.000000	65.063476 
3476.000000	65.100741 
3475.000000	65.134096 
3474.000000	65.158581 
3473.000000	65.171289 
3472.000000	65.171742 
3471.000000	65.161538 
3470.000000	65.143489 
3469.000000	65.120768 
3468.000000	65.096211 
3467.000000	65.071702 
3466.000000	65.048313 
3465.000000	65.026473 
3464.000000	65.006351 
3463.000000	64.988183 
3462.000000	64.972591 
3461.000000	64.960432 
3460.000000	64.952635 
3459.000000	64.949893 
3458.000000	64.952015 
3457.000000	64.958024 
3456.000000	64.966225 
3455.000000	64.974522 
3454.000000	64.980840 
3453.000000	64.983868 
3452.000000	64.983248 
3451.000000	64.979934 
3450.000000	64.975619 
3449.000000	64.972472 
3448.000000	64.972424 
3447.000000	64.976692 
3446.000000	64.985275 
3445.000000	64.997172 
3444.000000	65.010547 
3443.000000	65.023255 
3442.000000	65.033411 
3441.000000	65.039849 
3440.000000	65.042352 
3439.000000	65.041589 
3438.000000	65.038824 
3437.000000	65.035486 
3436.000000	65.032601 
3435.000000	65.030837 
3434.000000	65.030288 
3433.000000	65.030908 
3432.000000	65.032219 
3431.000000	65.034127 
3430.000000	65.036177 
3429.000000	65.037941 
3428.000000	65.038585 
3427.000000	65.036940 
3426.000000	65.031671 
3425.000000	65.021491 
3424.000000	65.005731 
3423.000000	64.984631 
3422.000000	64.959526 
3421.000000	64.932990 
3420.000000	64.908146 
3419.000000	64.888381 
3418.000000	64.876461 
3417.000000	64.874029 
3416.000000	64.881300 
3415.000000	64.896988 
3414.000000	64.918541 
3413.000000	64.942693 
3412.000000	64.966058 
3411.000000	64.985513 
3410.000000	64.998650 
3409.000000	65.004062 
3408.000000	65.001273 
3407.000000	64.990687 
3406.000000	64.973616 
3405.000000	64.952063 
3404.000000	64.928579 
3403.000000	64.905738 
3402.000000	64.885735 
3401.000000	64.870166 
3400.000000	64.859795 
3399.000000	64.854454 
3398.000000	64.853310 
3397.000000	64.855098 
3396.000000	64.858531 
3395.000000	64.862632 
3394.000000	64.866900 
3393.000000	64.871335 
3392.000000	64.876317 
3391.000000	64.882397 
3390.000000	64.889979 
3389.000000	64.899253 
3388.000000	64.909887 
3387.000000	64.920973 
3386.000000	64.931249 
3385.000000	64.939308 
3384.000000	64.943933 
3383.000000	64.944362 
3382.000000	64.940309 
3381.000000	64.931893 
3380.000000	64.919900 
3379.000000	64.905738 
3378.000000	64.891195 
3377.000000	64.877915 
3376.000000	64.867472 
3375.000000	64.861035 
3374.000000	64.859127 
3373.000000	64.861798 
3372.000000	64.868521 
3371.000000	64.878535 
3370.000000	64.890789 
3369.000000	64.904212 
3368.000000	64.917707 
3367.000000	64.930129 
3366.000000	64.940381 
3365.000000	64.947557 
3364.000000	64.951324 
3363.000000	64.951968 
3362.000000	64.950656 
3361.000000	64.949059 
3360.000000	64.949202 
3359.000000	64.952731 
3358.000000	64.960527 
3357.000000	64.971947 
3356.000000	64.984726 
3355.000000	64.995193 
3354.000000	64.999008 
3353.000000	64.992237 
3352.000000	64.972591 
3351.000000	64.940118 
3350.000000	64.897704 
3349.000000	64.850234 
3348.000000	64.803767 
3347.000000	64.764165 
3346.000000	64.735746 
3345.000000	64.720702 
3344.000000	64.718723 
3343.000000	64.727377 
3342.000000	64.743280 
3341.000000	64.762854 
3340.000000	64.783287 
3339.000000	64.802861 
3338.000000	64.820694 
3337.000000	64.836716 
3336.000000	64.850974 
3335.000000	64.863109 
3334.000000	64.872169 
3333.000000	64.877057 
3332.000000	64.876651 
3331.000000	64.870834 
3330.000000	64.860486 
3329.000000	64.847326 
3328.000000	64.833927 
3327.000000	64.822959 
3326.000000	64.816761 
3325.000000	64.816761 
3324.000000	64.823222 
3323.000000	64.835453 
3322.000000	64.852142 
3321.000000	64.871764 
3320.000000	64.892935 
3319.000000	64.914655 
3318.000000	64.936017 
3317.000000	64.956212 
3316.000000	64.974188 
3315.000000	64.988732 
3314.000000	64.998197 
3313.000000	65.001296 
3312.000000	64.997005 
3311.000000	64.985179 
3310.000000	64.966750 
3309.000000	64.943695 
3308.000000	64.918875 
3307.000000	64.895558 
3306.000000	64.877343 
3305.000000	64.867520 
3304.000000	64.868783 
3303.000000	64.882636 
3302.000000	64.909577 
3301.000000	64.948511 
3300.000000	64.996814 
3299.000000	65.050411 
3298.000000	65.104150 
3297.000000	65.152335 
3296.000000	65.189647 
3295.000000	65.211820 
3294.000000	65.216612 
3293.000000	65.203738 
3292.000000	65.175557 
3291.000000	65.135645 
3290.000000	65.088558 
3289.000000	65.038490 
3288.000000	64.988994 
3287.000000	64.942336 
3286.000000	64.899802 
3285.000000	64.862155 
3284.000000	64.829945 
3283.000000	64.804100 
3282.000000	64.785814 
3281.000000	64.776349 
3280.000000	64.776396 
3279.000000	64.785528 
3278.000000	64.802002 
3277.000000	64.822626 
3276.000000	64.843535 
3275.000000	64.861154 
3274.000000	64.872837 
3273.000000	64.877772 
3272.000000	64.876985 
3271.000000	64.872741 
3270.000000	64.867949 
3269.000000	64.865064 
3268.000000	64.865756 
3267.000000	64.870309 
3266.000000	64.877963 
3265.000000	64.887380 
3264.000000	64.897131 
3263.000000	64.906191 
3262.000000	64.914226 
3261.000000	64.921569 
3260.000000	64.928984 
3259.000000	64.937162 
3258.000000	64.946532 
3257.000000	64.956974 
3256.000000	64.967846 
3255.000000	64.978098 
3254.000000	64.986610 
3253.000000	64.992427 
3252.000000	64.994740 
3251.000000	64.993166 
3250.000000	64.987540 
3249.000000	64.978027 
3248.000000	64.965438 
3247.000000	64.951014 
3246.000000	64.936470 
3245.000000	64.923954 
3244.000000	64.915585 
3243.000000	64.913249 
3242.000000	64.917874 
3241.000000	64.929652 
3240.000000	64.947867 
3239.000000	64.971065 
3238.000000	64.997124 
3237.000000	65.023589 
3236.000000	65.047979 
3235.000000	65.067863 
3234.000000	65.081310 
3233.000000	65.086746 
3232.000000	65.083289 
3231.000000	65.070676 
3230.000000	65.049529 
3229.000000	65.020990 
3228.000000	64.986848 
3227.000000	64.949154 
3226.000000	64.910316 
3225.000000	64.872455 
3224.000000	64.837408 
3223.000000	64.806461 
3222.000000	64.780473 
3221.000000	64.759945 
3220.000000	64.745020 
3219.000000	64.735770 
3218.000000	64.731955 
3217.000000	64.732861 
3216.000000	64.737510 
3215.000000	64.744091 
3214.000000	64.750957 
3213.000000	64.756226 
3212.000000	64.758825 
3211.000000	64.758253 
3210.000000	64.755439 
3209.000000	64.751982 
3208.000000	64.750432 
3207.000000	64.753198 
3206.000000	64.762401 
3205.000000	64.779090 
3204.000000	64.803004 
3203.000000	64.832544 
3202.000000	64.864897 
3201.000000	64.896750 
3200.000000	64.924907 
3199.000000	64.946937 
3198.000000	64.961457 
3197.000000	64.968323 
3196.000000	64.968514 
3195.000000	64.963936 
3194.000000	64.956784 
3193.000000	64.949154 
3192.000000	64.942646 
3191.000000	64.937996 
3190.000000	64.935088 
3189.000000	64.933085 
3188.000000	64.930844 
3187.000000	64.927387 
3186.000000	64.922404 
3185.000000	64.916300 
3184.000000	64.910221 
3183.000000	64.905571 
3182.000000	64.903569 
3181.000000	64.904808 
3180.000000	64.909076 
3179.000000	64.915418 
3178.000000	64.922475 
3177.000000	64.929127 
3176.000000	64.934730 
3175.000000	64.939355 
3174.000000	64.943671 
3173.000000	64.948511 
3172.000000	64.954209 
3171.000000	64.960169 
3170.000000	64.964628 
3169.000000	64.964771 
3168.000000	64.957451 
3167.000000	64.940166 
3166.000000	64.911723 
3165.000000	64.872908 
3164.000000	64.826440 
3163.000000	64.776468 
3162.000000	64.727544 
3161.000000	64.683866 
3160.000000	64.648222 
3159.000000	64.621949 
3158.000000	64.604806 
3157.000000	64.595484 
3156.000000	64.592266 
3155.000000	64.593386 
3154.000000	64.597654 
3153.000000	64.604425 
3152.000000	64.613652 
3151.000000	64.625501 
3150.000000	64.640116 
3149.000000	64.657258 
3148.000000	64.676642 
3147.000000	64.697742 
3146.000000	64.720129 
3145.000000	64.743590 
3144.000000	64.768099 
3143.000000	64.793634 
3142.000000	64.819884 
3141.000000	64.845824 
3140.000000	64.869785 
3139.000000	64.889407 
3138.000000	64.901971 
3137.000000	64.905023 
3136.000000	64.896988 
3135.000000	64.877629 
3134.000000	64.848804 
3133.000000	64.813971 
3132.000000	64.777755 
3131.000000	64.745235 
3130.000000	64.721345 
3129.000000	64.709687 
3128.000000	64.711642 
3127.000000	64.726352 
3126.000000	64.751148 
3125.000000	64.781880 
3124.000000	64.813923 
3123.000000	64.842963 
3122.000000	64.865803 
3121.000000	64.880681 
3120.000000	64.887285 
3119.000000	64.886379 
3118.000000	64.879274 
3117.000000	64.867329 
3116.000000	64.851427 
3115.000000	64.831900 
3114.000000	64.808607 
3113.000000	64.781546 
3112.000000	64.751291 
3111.000000	64.719271 
3110.000000	64.688086 
3109.000000	64.661192 
3108.000000	64.642643 
3107.000000	64.635992 
3106.000000	64.643740 
3105.000000	64.666438 
3104.000000	64.702725 
3103.000000	64.748883 
3102.000000	64.800095 
3101.000000	64.850902 
3100.000000	64.896535 
3099.000000	64.933371 
3098.000000	64.959955 
3097.000000	64.976596 
3096.000000	64.985227 
3095.000000	64.988589 
3094.000000	64.989471 
3093.000000	64.990019 
3092.000000	64.991211 
3091.000000	64.992761 
3090.000000	64.993333 
3089.000000	64.990901 
3088.000000	64.983606 
3087.000000	64.970374 
3086.000000	64.951229 
3085.000000	64.927315 
3084.000000	64.901089 
3083.000000	64.875578 
3082.000000	64.853644 
3081.000000	64.837741 
3080.000000	64.829230 
3079.000000	64.828109 
3078.000000	64.832854 
3077.000000	64.840936 
3076.000000	64.849352 
3075.000000	64.855384 
3074.000000	64.857077 
3073.000000	64.853715 
3072.000000	64.845776 
3071.000000	64.834904 
3070.000000	64.823436 
3069.000000	64.813780 
3068.000000	64.807701 
3067.000000	64.806461 
3066.000000	64.810705 
3065.000000	64.820313 
3064.000000	64.834690 
3063.000000	64.853048 
3062.000000	64.874315 
3061.000000	64.897441 
3060.000000	64.921283 
3059.000000	64.944624 
3058.000000	64.966368 
3057.000000	64.985418 
3056.000000	65.001058 
3055.000000	65.012979 
3054.000000	65.021300 
3053.000000	65.026760 
3052.000000	65.030145 
3051.000000	65.032315 
3050.000000	65.033721 
3049.000000	65.034627 
3048.000000	65.034461 
3047.000000	65.032267 
3046.000000	65.026879 
3045.000000	65.017342 
3044.000000	65.003108 
3043.000000	64.984393 
3042.000000	64.961981 
3041.000000	64.937424 
3040.000000	64.912819 
3039.000000	64.890408 
3038.000000	64.872360 
3037.000000	64.860367 
3036.000000	64.855360 
3035.000000	64.857411 
3034.000000	64.865589 
3033.000000	64.878058 
3032.000000	64.892458 
3031.000000	64.906191 
3030.000000	64.916443 
3029.000000	64.921140 
3028.000000	64.918971 
3027.000000	64.909982 
3026.000000	64.895129 
3025.000000	64.876604 
3024.000000	64.857506 
3023.000000	64.841318 
3022.000000	64.831209 
3021.000000	64.829373 
3020.000000	64.836740 
3019.000000	64.852428 
3018.000000	64.874148 
3017.000000	64.898467 
3016.000000	64.921450 
3015.000000	64.939522 
3014.000000	64.950084 
3013.000000	64.951992 
3012.000000	64.945602 
3011.000000	64.932608 
3010.000000	64.915633 
3009.000000	64.897394 
3008.000000	64.880132 
3007.000000	64.865255 
3006.000000	64.853262 
3005.000000	64.843821 
3004.000000	64.836001 
3003.000000	64.828681 
3002.000000	64.821076 
3001.000000	64.812374 
3000.000000	64.802432 
2999.000000	64.791035 
2998.000000	64.778351 
2997.000000	64.764761 
2996.000000	64.750790 
2995.000000	64.736986 
2994.000000	64.723944 
2993.000000	64.712238 
2992.000000	64.702415 
2991.000000	64.694857 
2990.000000	64.689660 
2989.000000	64.686679 
2988.000000	64.685797 
2987.000000	64.686632 
2986.000000	64.688873 
2985.000000	64.692449 
2984.000000	64.697241 
2983.000000	64.703130 
2982.000000	64.709877 
2981.000000	64.717006 
2980.000000	64.723968 
2979.000000	64.730238 
2978.000000	64.735364 
2977.000000	64.739155 
2976.000000	64.742136 
2975.000000	64.744925 
2974.000000	64.748334 
2973.000000	64.752650 
2972.000000	64.757704 
2971.000000	64.762401 
2970.000000	64.765095 
2969.000000	64.763712 
2968.000000	64.756560 
2967.000000	64.742565 
2966.000000	64.721775 
2965.000000	64.695310 
2964.000000	64.665460 
2963.000000	64.634752 
2962.000000	64.605617 
2961.000000	64.579796 
2960.000000	64.558219 
2959.000000	64.541053 
2958.000000	64.528059 
2957.000000	64.519095 
2956.000000	64.514446 
2955.000000	64.515089 
2954.000000	64.522624 
2953.000000	64.538455 
2952.000000	64.563345 
2951.000000	64.597058 
2950.000000	64.637756 
2949.000000	64.682054 
2948.000000	64.725375 
2947.000000	64.762735 
2946.000000	64.789509 
2945.000000	64.802479 
2944.000000	64.800262 
2943.000000	64.783930 
2942.000000	64.756560 
2941.000000	64.722895 
2940.000000	64.688348 
2939.000000	64.658188 
2938.000000	64.636445 
2937.000000	64.625668 
2936.000000	64.626336 
2935.000000	64.637184 
2934.000000	64.655399 
2933.000000	64.677548 
2932.000000	64.699959 
2931.000000	64.719533 
2930.000000	64.734005 
2929.000000	64.742422 
2928.000000	64.744830 
2927.000000	64.742398 
2926.000000	64.736795 
2925.000000	64.729905 
2924.000000	64.723658 
2923.000000	64.719438 
2922.000000	64.718055 
2921.000000	64.719367 
2920.000000	64.722824 
2919.000000	64.727282 
2918.000000	64.731264 
2917.000000	64.733576 
2916.000000	64.733529 
2915.000000	64.731264 
2914.000000	64.727520 
2913.000000	64.723539 
2912.000000	64.720749 
2911.000000	64.720439 
2910.000000	64.723300 
2909.000000	64.729070 
2908.000000	64.736580 
2907.000000	64.743852 
2906.000000	64.748787 
2905.000000	64.749217 
2904.000000	64.743566 
2903.000000	64.731240 
2902.000000	64.712572 
2901.000000	64.688992 
2900.000000	64.662718 
2899.000000	64.636182 
2898.000000	64.611697 
2897.000000	64.591169 
2896.000000	64.575672 
2895.000000	64.565587 
2894.000000	64.560532 
2893.000000	64.559602 
2892.000000	64.561653 
2891.000000	64.565515 
2890.000000	64.570593 
2889.000000	64.576435 
2888.000000	64.583086 
2887.000000	64.590620 
2886.000000	64.599037 
2885.000000	64.608120 
2884.000000	64.617133 
2883.000000	64.624857 
2882.000000	64.630055 
2881.000000	64.631700 
2880.000000	64.629316 
2879.000000	64.623141 
2878.000000	64.614224 
2877.000000	64.604067 
2876.000000	64.594435 
2875.000000	64.586901 
2874.000000	64.582419 
2873.000000	64.581251 
2872.000000	64.582991 
2871.000000	64.586973 
2870.000000	64.592337 
2869.000000	64.598512 
2868.000000	64.605545 
2867.000000	64.614033 
2866.000000	64.624762 
2865.000000	64.638447 
2864.000000	64.655351 
2863.000000	64.674854 
2862.000000	64.695572 
2861.000000	64.715027 
2860.000000	64.730596 
2859.000000	64.739632 
2858.000000	64.740300 
2857.000000	64.731764 
2856.000000	64.714717 
2855.000000	64.691090 
2854.000000	64.663767 
2853.000000	64.636182 
2852.000000	64.611601 
2851.000000	64.592552 
2850.000000	64.580655 
2849.000000	64.576315 
2848.000000	64.578819 
2847.000000	64.586734 
2846.000000	64.598369 
2845.000000	64.611935 
2844.000000	64.625930 
2843.000000	64.639210 
2842.000000	64.651060 
2841.000000	64.661049 
2840.000000	64.669060 
2839.000000	64.675307 
2838.000000	64.680123 
2837.000000	64.683961 
2836.000000	64.687371 
2835.000000	64.690876 
2834.000000	64.695048 
2833.000000	64.700198 
2832.000000	64.706349 
2831.000000	64.713382 
2830.000000	64.720821 
2829.000000	64.728045 
2828.000000	64.734554 
2827.000000	64.739990 
2826.000000	64.744186 
2825.000000	64.747262 
2824.000000	64.749455 
2823.000000	64.751100 
2822.000000	64.752435 
2821.000000	64.753770 
2820.000000	64.755344 
2819.000000	64.757323 
2818.000000	64.759850 
2817.000000	64.762949 
2816.000000	64.766430 
2815.000000	64.769816 
2814.000000	64.772367 
2813.000000	64.773297 
2812.000000	64.771914 
2811.000000	64.768099 
2810.000000	64.762210 
2809.000000	64.755296 
2808.000000	64.748835 
2807.000000	64.744281 
2806.000000	64.742755 
2805.000000	64.744496 
2804.000000	64.748764 
2803.000000	64.753985 
2802.000000	64.757966 
2801.000000	64.758658 
2800.000000	64.754652 
2799.000000	64.745831 
2798.000000	64.733099 
2797.000000	64.718341 
2796.000000	64.703750 
2795.000000	64.691233 
2794.000000	64.682006 
2793.000000	64.676284 
2792.000000	64.673399 
2791.000000	64.672303 
2790.000000	64.671921 
2789.000000	64.671564 
2788.000000	64.671087 
2787.000000	64.670825 
2786.000000	64.671492 
2785.000000	64.673686 
2784.000000	64.677619 
2783.000000	64.682912 
2782.000000	64.688730 
2781.000000	64.693784 
2780.000000	64.696669 
2779.000000	64.696478 
2778.000000	64.692687 
2777.000000	64.685487 
2776.000000	64.675736 
2775.000000	64.664554 
2774.000000	64.653444 
2773.000000	64.643812 
2772.000000	64.636945 
2771.000000	64.633774 
2770.000000	64.635086 
2769.000000	64.641165 
2768.000000	64.651918 
2767.000000	64.666771 
2766.000000	64.684557 
2765.000000	64.703750 
2764.000000	64.722514 
2763.000000	64.738917 
2762.000000	64.751291 
2761.000000	64.758419 
2760.000000	64.760041 
2759.000000	64.756703 
2758.000000	64.749765 
2757.000000	64.741039 
2756.000000	64.732408 
2755.000000	64.725446 
2754.000000	64.720940 
2753.000000	64.718842 
2752.000000	64.718461 
2751.000000	64.718651 
2750.000000	64.718294 
2749.000000	64.716577 
2748.000000	64.713311 
2747.000000	64.708781 
2746.000000	64.703726 
2745.000000	64.698934 
2744.000000	64.695000 
2743.000000	64.692091 
2742.000000	64.689874 
2741.000000	64.687824 
2740.000000	64.685344 
2739.000000	64.682197 
2738.000000	64.678788 
2737.000000	64.675903 
2736.000000	64.674782 
2735.000000	64.676809 
2734.000000	64.683151 
2733.000000	64.694166 
2732.000000	64.709544 
2731.000000	64.728331 
2730.000000	64.749026 
2729.000000	64.769840 
2728.000000	64.788746 
2727.000000	64.804100 
2726.000000	64.814376 
2725.000000	64.818572 
2724.000000	64.816260 
2723.000000	64.807796 
2722.000000	64.794206 
2721.000000	64.777469 
2720.000000	64.759850 
2719.000000	64.743924 
2718.000000	64.731884 
2717.000000	64.725375 
2716.000000	64.724802 
2715.000000	64.729285 
2714.000000	64.736962 
2713.000000	64.745283 
2712.000000	64.751386 
2711.000000	64.752840 
2710.000000	64.748144 
2709.000000	64.736914 
2708.000000	64.719891 
2707.000000	64.698696 
2706.000000	64.675354 
2705.000000	64.651894 
2704.000000	64.630007 
2703.000000	64.610695 
2702.000000	64.594388 
2701.000000	64.580917 
2700.000000	64.569592 
2699.000000	64.559721 
2698.000000	64.550471 
2697.000000	64.541387 
2696.000000	64.532351 
2695.000000	64.523696 
2694.000000	64.516019 
2693.000000	64.510345 
2692.000000	64.507842 
2691.000000	64.509654 
2690.000000	64.516425 
2689.000000	64.528322 
2688.000000	64.544510 
2687.000000	64.563584 
2686.000000	64.583659 
2685.000000	64.602804 
2684.000000	64.619493 
2683.000000	64.633011 
2682.000000	64.643502 
2681.000000	64.651870 
2680.000000	64.659214 
2679.000000	64.666676 
2678.000000	64.674997 
2677.000000	64.684009 
2676.000000	64.692997 
2675.000000	64.700865 
2674.000000	64.706301 
2673.000000	64.708471 
2672.000000	64.706802 
2671.000000	64.701676 
2670.000000	64.693784 
2669.000000	64.684200 
2668.000000	64.673972 
2667.000000	64.663815 
2666.000000	64.654350 
2665.000000	64.646100 
2664.000000	64.639425 
2663.000000	64.634847 
2662.000000	64.632940 
2661.000000	64.634156 
2660.000000	64.638710 
2659.000000	64.646482 
2658.000000	64.657235 
2657.000000	64.670491 
2656.000000	64.685702 
2655.000000	64.702081 
2654.000000	64.718842 
2653.000000	64.735031 
2652.000000	64.749503 
2651.000000	64.760828 
2650.000000	64.767980 
2649.000000	64.769864 
2648.000000	64.766216 
2647.000000	64.757180 
2646.000000	64.743709 
2645.000000	64.727115 
2644.000000	64.709091 
2643.000000	64.691305 
2642.000000	64.674997 
2641.000000	64.660954 
2640.000000	64.649558 
2639.000000	64.640808 
2638.000000	64.634728 
2637.000000	64.631414 
2636.000000	64.631152 
2635.000000	64.634156 
2634.000000	64.640545 
2633.000000	64.649915 
2632.000000	64.661049 
2631.000000	64.672327 
2630.000000	64.681839 
2629.000000	64.687728 
2628.000000	64.688515 
2627.000000	64.683675 
2626.000000	64.673542 
2625.000000	64.659261 
2624.000000	64.642715 
2623.000000	64.625930 
2622.000000	64.610743 
2621.000000	64.598560 
2620.000000	64.590096 
2619.000000	64.585232 
2618.000000	64.583325 
2617.000000	64.583492 
2616.000000	64.584732 
2615.000000	64.586114 
2614.000000	64.587068 
2613.000000	64.587354 
2612.000000	64.586949 
2611.000000	64.585900 
2610.000000	64.584207 
2609.000000	64.581680 
2608.000000	64.578032 
2607.000000	64.572834 
2606.000000	64.565753 
2605.000000	64.556694 
2604.000000	64.546060 
2603.000000	64.534831 
2602.000000	64.524269 
2601.000000	64.515924 
2600.000000	64.511108 
2599.000000	64.510655 
2598.000000	64.514517 
2597.000000	64.521861 
2596.000000	64.531302 
2595.000000	64.541339 
2594.000000	64.550495 
2593.000000	64.558076 
2592.000000	64.564085 
2591.000000	64.569425 
2590.000000	64.575505 
2589.000000	64.583992 
2588.000000	64.596128 
2587.000000	64.612364 
2586.000000	64.632248 
2585.000000	64.654397 
2584.000000	64.676690 
2583.000000	64.696764 
2582.000000	64.712643 
2581.000000	64.722990 
2580.000000	64.727282 
2579.000000	64.726042 
2578.000000	64.720439 
2577.000000	64.711856 
2576.000000	64.701557 
2575.000000	64.690518 
2574.000000	64.679002 
2573.000000	64.666628 
2572.000000	64.652657 
2571.000000	64.636373 
2570.000000	64.617443 
2569.000000	64.595937 
2568.000000	64.572834 
2567.000000	64.549708 
2566.000000	64.528393 
2565.000000	64.510869 
2564.000000	64.498901 
2563.000000	64.493274 
2562.000000	64.494228 
2561.000000	64.501142 
2560.000000	64.512848 
2559.000000	64.527750 
2558.000000	64.544129 
2557.000000	64.560389 
2556.000000	64.575457 
2555.000000	64.588379 
2554.000000	64.598751 
2553.000000	64.606523 
2552.000000	64.611887 
2551.000000	64.615201 
2550.000000	64.617109 
2549.000000	64.618206 
2548.000000	64.619159 
2547.000000	64.620566 
2546.000000	64.622831 
2545.000000	64.626240 
2544.000000	64.630794 
2543.000000	64.636158 
2542.000000	64.641642 
2541.000000	64.646291 
2540.000000	64.649200 
2539.000000	64.649367 
2538.000000	64.645981 
2537.000000	64.638757 
2536.000000	64.627766 
2535.000000	64.613699 
2534.000000	64.597630 
2533.000000	64.580988 
2532.000000	64.565443 
2531.000000	64.552474 
2530.000000	64.543366 
2529.000000	64.538836 
2528.000000	64.539146 
2527.000000	64.543724 
2526.000000	64.551591 
2525.000000	64.561223 
2524.000000	64.570832 
2523.000000	64.578890 
2522.000000	64.584493 
2521.000000	64.587211 
2520.000000	64.587593 
2519.000000	64.586710 
2518.000000	64.586138 
2517.000000	64.587426 
2516.000000	64.591813 
2515.000000	64.599895 
2514.000000	64.611482 
2513.000000	64.625453 
2512.000000	64.639854 
2511.000000	64.652419 
2510.000000	64.660811 
2509.000000	64.663171 
2508.000000	64.658641 
2507.000000	64.647531 
2506.000000	64.631557 
2505.000000	64.613342 
2504.000000	64.595866 
2503.000000	64.581751 
2502.000000	64.572548 
2501.000000	64.568662 
2500.000000	64.568901 
2499.000000	64.571022 
2498.000000	64.572262 
2497.000000	64.570116 
2496.000000	64.563083 
2495.000000	64.550948 
2494.000000	64.534878 
2493.000000	64.516997 
2492.000000	64.499545 
2491.000000	64.484429 
2490.000000	64.472723 
2489.000000	64.464402 
2488.000000	64.458322 
2487.000000	64.452934 
2486.000000	64.446759 
2485.000000	64.438962 
2484.000000	64.429521 
2483.000000	64.419341 
2482.000000	64.409732 
2481.000000	64.402580 
2480.000000	64.399504 
2479.000000	64.401721 
2478.000000	64.409518 
2477.000000	64.422488 
2476.000000	64.439320 
2475.000000	64.458227 
2474.000000	64.477181 
2473.000000	64.494252 
2472.000000	64.507985 
2471.000000	64.517474 
2470.000000	64.522695 
2469.000000	64.524340 
2468.000000	64.523530 
2467.000000	64.521813 
2466.000000	64.520812 
2465.000000	64.522027 
2464.000000	64.526462 
2463.000000	64.534544 
2462.000000	64.546060 
2461.000000	64.560222 
2460.000000	64.575791 
2459.000000	64.591383 
2458.000000	64.605617 
2457.000000	64.617466 
2456.000000	64.626216 
2455.000000	64.631533 
2454.000000	64.633560 
2453.000000	64.632868 
2452.000000	64.630246 
2451.000000	64.626574 
2450.000000	64.622735 
2449.000000	64.619517 
2448.000000	64.617466 
2447.000000	64.616894 
2446.000000	64.617943 
2445.000000	64.620518 
2444.000000	64.624094 
2443.000000	64.627933 
2442.000000	64.630937 
2441.000000	64.631915 
2440.000000	64.629721 
2439.000000	64.623427 
2438.000000	64.613008 
2437.000000	64.599251 
2436.000000	64.583873 
2435.000000	64.569258 
2434.000000	64.557862 
2433.000000	64.551830 
2432.000000	64.552330 
2431.000000	64.559125 
2430.000000	64.570665 
2429.000000	64.584302 
2428.000000	64.596867 
2427.000000	64.605307 
2426.000000	64.607453 
2425.000000	64.602112 
2424.000000	64.589667 
2423.000000	64.571428 
2422.000000	64.549636 
2421.000000	64.526772 
2420.000000	64.505100 
2419.000000	64.486384 
2418.000000	64.471912 
2417.000000	64.462399 
2416.000000	64.458107 
2415.000000	64.458847 
2414.000000	64.464068 
2413.000000	64.472746 
2412.000000	64.483523 
2411.000000	64.494633 
2410.000000	64.504289 
2409.000000	64.510679 
2408.000000	64.512562 
2407.000000	64.509558 
2406.000000	64.502215 
2405.000000	64.492058 
2404.000000	64.481496 
2403.000000	64.473128 
2402.000000	64.469432 
2401.000000	64.472270 
2400.000000	64.482045 
2399.000000	64.497852 
2398.000000	64.517283 
2397.000000	64.537096 
2396.000000	64.553618 
2395.000000	64.563536 
2394.000000	64.564585 
2393.000000	64.556002 
2392.000000	64.538574 
2391.000000	64.514684 
2390.000000	64.487886 
2389.000000	64.462161 
2388.000000	64.441418 
2387.000000	64.428615 
2386.000000	64.425492 
2385.000000	64.432120 
2384.000000	64.446902 
2383.000000	64.466834 
2382.000000	64.487957 
2381.000000	64.506244 
2380.000000	64.518141 
2379.000000	64.521765 
2378.000000	64.516448 
2377.000000	64.503622 
2376.000000	64.486193 
2375.000000	64.468169 
2374.000000	64.453482 
2373.000000	64.445400 
2372.000000	64.445877 
2371.000000	64.455080 
2370.000000	64.471530 
2369.000000	64.492440 
2368.000000	64.514756 
2367.000000	64.535522 
2366.000000	64.552545 
2365.000000	64.564752 
2364.000000	64.572143 
2363.000000	64.575552 
2362.000000	64.575958 
2361.000000	64.574289 
2360.000000	64.571022 
2359.000000	64.566230 
2358.000000	64.559674 
2357.000000	64.551067 
2356.000000	64.540171 
2355.000000	64.527273 
2354.000000	64.513111 
2353.000000	64.498567 
2352.000000	64.484596 
2351.000000	64.471936 
2350.000000	64.460873 
2349.000000	64.451456 
2348.000000	64.443278 
2347.000000	64.435935 
2346.000000	64.428830 
2345.000000	64.421510 
2344.000000	64.413642 
2343.000000	64.405059 
2342.000000	64.395952 
2341.000000	64.386534 
2340.000000	64.377284 
2339.000000	64.368796 
2338.000000	64.361667 
2337.000000	64.356422 
2336.000000	64.353466 
2335.000000	64.352941 
2334.000000	64.354753 
2333.000000	64.358854 
2332.000000	64.365005 
2331.000000	64.373183 
2330.000000	64.383482 
2329.000000	64.396309 
2328.000000	64.411997 
2327.000000	64.430522 
2326.000000	64.451432 
2325.000000	64.473319 
2324.000000	64.494323 
2323.000000	64.512014 
2322.000000	64.524221 
2321.000000	64.529228 
2320.000000	64.526653 
2319.000000	64.517378 
2318.000000	64.503598 
2317.000000	64.488172 
2316.000000	64.474296 
2315.000000	64.464545 
2314.000000	64.460468 
2313.000000	64.462256 
2312.000000	64.468765 
2311.000000	64.478015 
2310.000000	64.487695 
2309.000000	64.495658 
2308.000000	64.500427 
2307.000000	64.501166 
2306.000000	64.497876 
2305.000000	64.491009 
2304.000000	64.481306 
2303.000000	64.469623 
2302.000000	64.456796 
2301.000000	64.443826 
2300.000000	64.431691 
2299.000000	64.421558 
2298.000000	64.414501 
2297.000000	64.411401 
2296.000000	64.412713 
2295.000000	64.418268 
2294.000000	64.427185 
2293.000000	64.438009 
2292.000000	64.449024 
2291.000000	64.458489 
2290.000000	64.465045 
2289.000000	64.467978 
2288.000000	64.467072 
2287.000000	64.462566 
2286.000000	64.454936 
2285.000000	64.444684 
2284.000000	64.432311 
2283.000000	64.418315 
2282.000000	64.403295 
2281.000000	64.388108 
2280.000000	64.373922 
2279.000000	64.362001 
2278.000000	64.353561 
2277.000000	64.349484 
2276.000000	64.350104 
2275.000000	64.354920 
2274.000000	64.362788 
2273.000000	64.372014 
2272.000000	64.380860 
2271.000000	64.388084 
2270.000000	64.392948 
2269.000000	64.395499 
2268.000000	64.396452 
2267.000000	64.396691 
2266.000000	64.397358 
2265.000000	64.399123 
2264.000000	64.402246 
2263.000000	64.406394 
2262.000000	64.410996 
2261.000000	64.415192 
2260.000000	64.418268 
2259.000000	64.419651 
2258.000000	64.419269 
2257.000000	64.417433 
2256.000000	64.414858 
2255.000000	64.412546 
2254.000000	64.411473 
2253.000000	64.412307 
2252.000000	64.415240 
2251.000000	64.419770 
2250.000000	64.424800 
2249.000000	64.428782 
2248.000000	64.430069 
2247.000000	64.427137 
2246.000000	64.419364 
2245.000000	64.406919 
2244.000000	64.391016 
2243.000000	64.373612 
2242.000000	64.357233 
2241.000000	64.344167 
2240.000000	64.336204 
2239.000000	64.334106 
2238.000000	64.337515 
2237.000000	64.345240 
2236.000000	64.355707 
2235.000000	64.367246 
2234.000000	64.378666 
2233.000000	64.389276 
2232.000000	64.398980 
2231.000000	64.408040 
2230.000000	64.416766 
2229.000000	64.425134 
2228.000000	64.432668 
2227.000000	64.438509 
2226.000000	64.441657 
2225.000000	64.441251 
2224.000000	64.437031 
2223.000000	64.429330 
2222.000000	64.419078 
2221.000000	64.407682 
2220.000000	64.396548 
2219.000000	64.386868 
2218.000000	64.379072 
2217.000000	64.373040 
2216.000000	64.367961 
2215.000000	64.362955 
2214.000000	64.357018 
2213.000000	64.349532 
2212.000000	64.340353 
2211.000000	64.329767 
2210.000000	64.318251 
2209.000000	64.306378 
2208.000000	64.294695 
2207.000000	64.283704 
2206.000000	64.273762 
2205.000000	64.265394 
2204.000000	64.259052 
2203.000000	64.255213 
2202.000000	64.254331 
2201.000000	64.256429 
2200.000000	64.260911 
2199.000000	64.266586 
2198.000000	64.271879 
2197.000000	64.274907 
2196.000000	64.274144 
2195.000000	64.268803 
2194.000000	64.259147 
2193.000000	64.246630 
2192.000000	64.233493 
2191.000000	64.222168 
2190.000000	64.214730 
2189.000000	64.212322 
2188.000000	64.215230 
2187.000000	64.222526 
2186.000000	64.232611 
2185.000000	64.243769 
2184.000000	64.254641 
2183.000000	64.264345 
2182.000000	64.272665 
2181.000000	64.279913 
2180.000000	64.286565 
2179.000000	64.293122 
2178.000000	64.299750 
2177.000000	64.306163 
2176.000000	64.311838 
2175.000000	64.315938 
2174.000000	64.317750 
2173.000000	64.316868 
2172.000000	64.313149 
2171.000000	64.306807 
2170.000000	64.298367 
2169.000000	64.288592 
2168.000000	64.278316 
2167.000000	64.268565 
2166.000000	64.260244 
2165.000000	64.254236 
2164.000000	64.251112 
2163.000000	64.251279 
2162.000000	64.254689 
2161.000000	64.260911 
2160.000000	64.269256 
2159.000000	64.278841 
2158.000000	64.288520 
2157.000000	64.297127 
2156.000000	64.303541 
2155.000000	64.306569 
2154.000000	64.305281 
2153.000000	64.299368 
2152.000000	64.289093 
2151.000000	64.275574 
2150.000000	64.260530 
2149.000000	64.246129 
2148.000000	64.234590 
2147.000000	64.227771 
2146.000000	64.226794 
2145.000000	64.231896 
2144.000000	64.242291 
2143.000000	64.256286 
2142.000000	64.271569 
2141.000000	64.285778 
2140.000000	64.297032 
2139.000000	64.304113 
2138.000000	64.306497 
2137.000000	64.304733 
2136.000000	64.300036 
2135.000000	64.293837 
2134.000000	64.287686 
2133.000000	64.282846 
2132.000000	64.279985 
2131.000000	64.279365 
2130.000000	64.280581 
2129.000000	64.282894 
2128.000000	64.285278 
2127.000000	64.286899 
2126.000000	64.287495 
2125.000000	64.287328 
2124.000000	64.287304 
2123.000000	64.288592 
2122.000000	64.292311 
2121.000000	64.298772 
2120.000000	64.307498 
2119.000000	64.316916 
2118.000000	64.324736 
2117.000000	64.328360 
2116.000000	64.325499 
2115.000000	64.315080 
2114.000000	64.297318 
2113.000000	64.273905 
2112.000000	64.247512 
2111.000000	64.221405 
2110.000000	64.198541 
2109.000000	64.181089 
2108.000000	64.169955 
2107.000000	64.164876 
2106.000000	64.164781 
2105.000000	64.168405 
2104.000000	64.174485 
2103.000000	64.182472 
2102.000000	64.192485 
2101.000000	64.205098 
2100.000000	64.220643 
2099.000000	64.239144 
2098.000000	64.259862 
2097.000000	64.281129 
2096.000000	64.300823 
2095.000000	64.316487 
2094.000000	64.326095 
2093.000000	64.328503 
2092.000000	64.323878 
2091.000000	64.313483 
2090.000000	64.299488 
2089.000000	64.284443 
2088.000000	64.270806 
2087.000000	64.260220 
2086.000000	64.253282 
2085.000000	64.249634 
2084.000000	64.248204 
2083.000000	64.247488 
2082.000000	64.246129 
2081.000000	64.243054 
2080.000000	64.237618 
2079.000000	64.229655 
2078.000000	64.219069 
2077.000000	64.205670 
2076.000000	64.189386 
2075.000000	64.170122 
2074.000000	64.148235 
2073.000000	64.124464 
2072.000000	64.100384 
2071.000000	64.078378 
2070.000000	64.061498 
2069.000000	64.052629 
2068.000000	64.054059 
2067.000000	64.066958 
2066.000000	64.090752 
2065.000000	64.123177 
2064.000000	64.160585 
2063.000000	64.198708 
2062.000000	64.233279 
2061.000000	64.260840 
2060.000000	64.279365 
2059.000000	64.288449 
2058.000000	64.289212 
2057.000000	64.283776 
2056.000000	64.274597 
2055.000000	64.263916 
2054.000000	64.253497 
2053.000000	64.244079 
2052.000000	64.235591 
2051.000000	64.227008 
2050.000000	64.217400 
2049.000000	64.205789 
2048.000000	64.191508 
2047.000000	64.174723 
2046.000000	64.156079 
2045.000000	64.137005 
2044.000000	64.119172 
2043.000000	64.104437 
2042.000000	64.094471 
2041.000000	64.090347 
2040.000000	64.092445 
2039.000000	64.100241 
2038.000000	64.112448 
2037.000000	64.127087 
2036.000000	64.141964 
2035.000000	64.154767 
2034.000000	64.163661 
2033.000000	64.167451 
2032.000000	64.166069 
2031.000000	64.160060 
2030.000000	64.150738 
2029.000000	64.139842 
2028.000000	64.129018 
2027.000000	64.119768 
2026.000000	64.113116 
2025.000000	64.109492 
2024.000000	64.108896 
2023.000000	64.110970 
2022.000000	64.115166 
2021.000000	64.120721 
2020.000000	64.126873 
2019.000000	64.132928 
2018.000000	64.138412 
2017.000000	64.142918 
2016.000000	64.146208 
2015.000000	64.148330 
2014.000000	64.149260 
2013.000000	64.149045 
2012.000000	64.147782 
2011.000000	64.145398 
2010.000000	64.141654 
2009.000000	64.136481 
2008.000000	64.129757 
2007.000000	64.121627 
2006.000000	64.112591 
2005.000000	64.103555 
2004.000000	64.095664 
2003.000000	64.090156 
2002.000000	64.088153 
2001.000000	64.090466 
2000.000000	64.097213 
1999.000000	64.107990 
1998.000000	64.121842 
1997.000000	64.137673 
1996.000000	64.154171 
1995.000000	64.170145 
1994.000000	64.184594 
1993.000000	64.196658 
1992.000000	64.205694 
1991.000000	64.211249 
1990.000000	64.212989 
1989.000000	64.210748 
1988.000000	64.204645 
1987.000000	64.195132 
1986.000000	64.183068 
1985.000000	64.169573 
1984.000000	64.156031 
1983.000000	64.143776 
1982.000000	64.133882 
1981.000000	64.127039 
1980.000000	64.123296 
1979.000000	64.122223 
1978.000000	64.123034 
1977.000000	64.124584 
1976.000000	64.125847 
1975.000000	64.126014 
1974.000000	64.124608 
1973.000000	64.121627 
1972.000000	64.117312 
1971.000000	64.111948 
1970.000000	64.106106 
1969.000000	64.100193 
1968.000000	64.094543 
1967.000000	64.089465 
1966.000000	64.085173 
1965.000000	64.081907 
1964.000000	64.080023 
1963.000000	64.080166 
1962.000000	64.082884 
1961.000000	64.088582 
1960.000000	64.097332 
1959.000000	64.108681 
1958.000000	64.121508 
1957.000000	64.134144 
1956.000000	64.144635 
1955.000000	64.150953 
1954.000000	64.151597 
1953.000000	64.145731 
1952.000000	64.133358 
1951.000000	64.115452 
1950.000000	64.093708 
1949.000000	64.070487 
1948.000000	64.048337 
1947.000000	64.029741 
1946.000000	64.016652 
1945.000000	64.010167 
1944.000000	64.010286 
1943.000000	64.015769 
1942.000000	64.024543 
1941.000000	64.034032 
1940.000000	64.041399 
1939.000000	64.044380 
1938.000000	64.041566 
1937.000000	64.032721 
1936.000000	64.018726 
1935.000000	64.001488 
1934.000000	63.983345 
1933.000000	63.966631 
1932.000000	63.953113 
1931.000000	63.943624 
1930.000000	63.938212 
1929.000000	63.936281 
1928.000000	63.936829 
1927.000000	63.938879 
1926.000000	63.941645 
1925.000000	63.944530 
1924.000000	63.947367 
1923.000000	63.949918 
1922.000000	63.952231 
1921.000000	63.954472 
1920.000000	63.957166 
1919.000000	63.961148 
1918.000000	63.967370 
1917.000000	63.976764 
1916.000000	63.989901 
1915.000000	64.006853 
1914.000000	64.026808 
1913.000000	64.048266 
1912.000000	64.069032 
1911.000000	64.086794 
1910.000000	64.099526 
1909.000000	64.105987 
1908.000000	64.105916 
1907.000000	64.100265 
1906.000000	64.090871 
1905.000000	64.079952 
1904.000000	64.069747 
1903.000000	64.061951 
1902.000000	64.057207 
1901.000000	64.055180 
1900.000000	64.054822 
1899.000000	64.054727 
1898.000000	64.053511 
1897.000000	64.050316 
1896.000000	64.045023 
1895.000000	64.038300 
1894.000000	64.031243 
1893.000000	64.025020 
1892.000000	64.020538 
1891.000000	64.018130 
1890.000000	64.017391 
1889.000000	64.017391 
1888.000000	64.017009 
1887.000000	64.015126 
1886.000000	64.011073 
1885.000000	64.004850 
1884.000000	63.997054 
1883.000000	63.988876 
1882.000000	63.981842 
1881.000000	63.977336 
1880.000000	63.976263 
1879.000000	63.978862 
1878.000000	63.984656 
1877.000000	63.992452 
1876.000000	64.000749 
1875.000000	64.007973 
1874.000000	64.012813 
1873.000000	64.014673 
1872.000000	64.013791 
1871.000000	64.011120 
1870.000000	64.008188 
1869.000000	64.006614 
1868.000000	64.008021 
1867.000000	64.013338 
1866.000000	64.022636 
1865.000000	64.035272 
1864.000000	64.049839 
1863.000000	64.064598 
1862.000000	64.077711 
1861.000000	64.087772 
1860.000000	64.093828 
1859.000000	64.095520 
1858.000000	64.092993 
1857.000000	64.086699 
1856.000000	64.077234 
1855.000000	64.065194 
1854.000000	64.050912 
1853.000000	64.034771 
1852.000000	64.017057 
1851.000000	63.998293 
1850.000000	63.979244 
1849.000000	63.960790 
1848.000000	63.944244 
1847.000000	63.930892 
1846.000000	63.921904 
1845.000000	63.917899 
1844.000000	63.918995 
1843.000000	63.924670 
1842.000000	63.933706 
1841.000000	63.944673 
1840.000000	63.955926 
1839.000000	63.966107 
1838.000000	63.974261 
1837.000000	63.979840 
1836.000000	63.982748 
1835.000000	63.983321 
1834.000000	63.981986 
1833.000000	63.979268 
1832.000000	63.975644 
1831.000000	63.971662 
1830.000000	63.967657 
1829.000000	63.963913 
1828.000000	63.960695 
1827.000000	63.958120 
1826.000000	63.956212 
1825.000000	63.954687 
1824.000000	63.953161 
1823.000000	63.951253 
1822.000000	63.948607 
1821.000000	63.944888 
1820.000000	63.940215 
1819.000000	63.934922 
1818.000000	63.929724 
1817.000000	63.925313 
1816.000000	63.922262 
1815.000000	63.920879 
1814.000000	63.921213 
1813.000000	63.922905 
1812.000000	63.925433 
1811.000000	63.928031 
1810.000000	63.930201 
1809.000000	63.931417 
1808.000000	63.931322 
1807.000000	63.929843 
1806.000000	63.926887 
1805.000000	63.922333 
1804.000000	63.916063 
1803.000000	63.908100 
1802.000000	63.898468 
1801.000000	63.887405 
1800.000000	63.875365 
1799.000000	63.863062 
1798.000000	63.851308 
1797.000000	63.840842 
1796.000000	63.832163 
1795.000000	63.825511 
1794.000000	63.820672 
1793.000000	63.817214 
1792.000000	63.814544 
1791.000000	63.812017 
1790.000000	63.809132 
1789.000000	63.805603 
1788.000000	63.801217 
1787.000000	63.796091 
1786.000000	63.790392 
1785.000000	63.784575 
1784.000000	63.778924 
1783.000000	63.774037 
1782.000000	63.770699 
1781.000000	63.769936 
1780.000000	63.772654 
1779.000000	63.779401 
1778.000000	63.790464 
1777.000000	63.805294 
1776.000000	63.822555 
1775.000000	63.840246 
1774.000000	63.856101 
1773.000000	63.867831 
1772.000000	63.873744 
1771.000000	63.872909 
1770.000000	63.865494 
1769.000000	63.852667 
1768.000000	63.836216 
1767.000000	63.818407 
1766.000000	63.801550 
1765.000000	63.787579 
1764.000000	63.777494 
1763.000000	63.771414 
1762.000000	63.768315 
1761.000000	63.766527 
1760.000000	63.763666 
1759.000000	63.757133 
1758.000000	63.744616 
1757.000000	63.724637 
1756.000000	63.696742 
1755.000000	63.661694 
1754.000000	63.621401 
1753.000000	63.578820 
1752.000000	63.537240 
1751.000000	63.499617 
1750.000000	63.468122 
1749.000000	63.443875 
1748.000000	63.426494 
1747.000000	63.414525 
1746.000000	63.405609 
1745.000000	63.397073 
1744.000000	63.386464 
1743.000000	63.372039 
1742.000000	63.353085 
1741.000000	63.329863 
1740.000000	63.303661 
1739.000000	63.276553 
1738.000000	63.251113 
1737.000000	63.230013 
1736.000000	63.215541 
1735.000000	63.209438 
1734.000000	63.212609 
1733.000000	63.225150 
1732.000000	63.245964 
1731.000000	63.273310 
1730.000000	63.304638 
1729.000000	63.337731 
1728.000000	63.370180 
1727.000000	63.400578 
1726.000000	63.428068 
1725.000000	63.452649 
1724.000000	63.474726 
1723.000000	63.494920 
1722.000000	63.513803 
1721.000000	63.531398 
1720.000000	63.547182 
1719.000000	63.560199 
1718.000000	63.569593 
1717.000000	63.574910 
1716.000000	63.576102 
1715.000000	63.573980 
1714.000000	63.570141 
1713.000000	63.566446 
1712.000000	63.564753 
1711.000000	63.566493 
1710.000000	63.572216 
1709.000000	63.581848 
1708.000000	63.594484 
1707.000000	63.609099 
1706.000000	63.624501 
1705.000000	63.639593 
1704.000000	63.653683 
1703.000000	63.666415 
1702.000000	63.677406 
1701.000000	63.686347 
1700.000000	63.692712 
1699.000000	63.695740 
1698.000000	63.694667 
1697.000000	63.689041 
1696.000000	63.678765 
1695.000000	63.664269 
1694.000000	63.646674 
1693.000000	63.627552 
1692.000000	63.608598 
1691.000000	63.591432 
1690.000000	63.577461 
1689.000000	63.567638 
1688.000000	63.562345 
1687.000000	63.561344 
1686.000000	63.563823 
1685.000000	63.568735 
1684.000000	63.574671 
1683.000000	63.580298 
1682.000000	63.584566 
1681.000000	63.587069 
1680.000000	63.587856 
1679.000000	63.587713 
1678.000000	63.587617 
1677.000000	63.588905 
1676.000000	63.592433 
1675.000000	63.598608 
1674.000000	63.607430 
1673.000000	63.618564 
1672.000000	63.631105 
1671.000000	63.644099 
1670.000000	63.656902 
1669.000000	63.669037 
1668.000000	63.680386 
1667.000000	63.690996 
1666.000000	63.700795 
1665.000000	63.709425 
1664.000000	63.716387 
1663.000000	63.720846 
1662.000000	63.721895 
1661.000000	63.719081 
1660.000000	63.712453 
1659.000000	63.702893 
1658.000000	63.692092 
1657.000000	63.682246 
1656.000000	63.675522 
1655.000000	63.673615 
1654.000000	63.677191 
1653.000000	63.685536 
1652.000000	63.696837 
1651.000000	63.708376 
1650.000000	63.717174 
1649.000000	63.720703 
1648.000000	63.717412 
1647.000000	63.707208 
1646.000000	63.691520 
1645.000000	63.672780 
1644.000000	63.654208 
1643.000000	63.638687 
1642.000000	63.628506 
1641.000000	63.624858 
1640.000000	63.627648 
1639.000000	63.635659 
1638.000000	63.646769 
1637.000000	63.658618 
1636.000000	63.668727 
1635.000000	63.675045 
1634.000000	63.676023 
1633.000000	63.670825 
1632.000000	63.659453 
1631.000000	63.642692 
1630.000000	63.622021 
1629.000000	63.599395 
1628.000000	63.577175 
1627.000000	63.557600 
1626.000000	63.542532 
1625.000000	63.533496 
1624.000000	63.530945 
1623.000000	63.534545 
1622.000000	63.543176 
1621.000000	63.555455 
1620.000000	63.569903 
1619.000000	63.585376 
1618.000000	63.601160 
1617.000000	63.616991 
1616.000000	63.632965 
1615.000000	63.649034 
1614.000000	63.664913 
1613.000000	63.679862 
1612.000000	63.692736 
1611.000000	63.702225 
1610.000000	63.707208 
1609.000000	63.706922 
1608.000000	63.701415 
1607.000000	63.691353 
1606.000000	63.678193 
1605.000000	63.663768 
1604.000000	63.649940 
1603.000000	63.638234 
1602.000000	63.629794 
1601.000000	63.625192 
1600.000000	63.624453 
1599.000000	63.627290 
1598.000000	63.633298 
1597.000000	63.641691 
1596.000000	63.651776 
1595.000000	63.662695 
1594.000000	63.673591 
1593.000000	63.683700 
1592.000000	63.692355 
1591.000000	63.698911 
1590.000000	63.702678 
1589.000000	63.703036 
1588.000000	63.699316 
1587.000000	63.690876 
1586.000000	63.677358 
1585.000000	63.659167 
1584.000000	63.637351 
1583.000000	63.613629 
1582.000000	63.590216 
1581.000000	63.569498 
1580.000000	63.553571 
1579.000000	63.543915 
1578.000000	63.541364 
1577.000000	63.545799 
1576.000000	63.556528 
1575.000000	63.572216 
1574.000000	63.591122 
1573.000000	63.611149 
1572.000000	63.630175 
1571.000000	63.646197 
1570.000000	63.657569 
1569.000000	63.663101 
1568.000000	63.662314 
1567.000000	63.655257 
1566.000000	63.642692 
1565.000000	63.625741 
1564.000000	63.605856 
1563.000000	63.584637 
1562.000000	63.563680 
1561.000000	63.544249 
1560.000000	63.527488 
1559.000000	63.513946 
1558.000000	63.503789 
1557.000000	63.496804 
1556.000000	63.492465 
1555.000000	63.490295 
1554.000000	63.490033 
1553.000000	63.491630 
1552.000000	63.495206 
1551.000000	63.501071 
1550.000000	63.509559 
1549.000000	63.520526 
1548.000000	63.533520 
1547.000000	63.547563 
1546.000000	63.561201 
1545.000000	63.572788 
1544.000000	63.580751 
1543.000000	63.583922 
1542.000000	63.581895 
1541.000000	63.574910 
1540.000000	63.564038 
1539.000000	63.551020 
1538.000000	63.537859 
1537.000000	63.526535 
1536.000000	63.518428 
1535.000000	63.514494 
1534.000000	63.514637 
1533.000000	63.518190 
1532.000000	63.523912 
1531.000000	63.530230 
1530.000000	63.535666 
1529.000000	63.539147 
1528.000000	63.540053 
1527.000000	63.538241 
1526.000000	63.534188 
1525.000000	63.528513 
1524.000000	63.522124 
1523.000000	63.515949 
1522.000000	63.510656 
1521.000000	63.506674 
1520.000000	63.504290 
1519.000000	63.503551 
1518.000000	63.504362 
1517.000000	63.506436 
1516.000000	63.509464 
1515.000000	63.512825 
1514.000000	63.515853 
1513.000000	63.517570 
1512.000000	63.517165 
1511.000000	63.513803 
1510.000000	63.506984 
1509.000000	63.496422 
1508.000000	63.482499 
1507.000000	63.466191 
1506.000000	63.448953 
1505.000000	63.432812 
1504.000000	63.419866 
1503.000000	63.412117 
1502.000000	63.411045 
1501.000000	63.417196 
1500.000000	63.429951 
1499.000000	63.447594 
1498.000000	63.467550 
1497.000000	63.486909 
1496.000000	63.502907 
1495.000000	63.513541 
1494.000000	63.517737 
1493.000000	63.515520 
1492.000000	63.507771 
1491.000000	63.495922 
1490.000000	63.481307 
1489.000000	63.465094 
1488.000000	63.447928 
1487.000000	63.429927 
1486.000000	63.410854 
1485.000000	63.390636 
1484.000000	63.369488 
1483.000000	63.348197 
1482.000000	63.328027 
1481.000000	63.310551 
1480.000000	63.297533 
1479.000000	63.290357 
1478.000000	63.289952 
1477.000000	63.296413 
1476.000000	63.309144 
1475.000000	63.326835 
1474.000000	63.347673 
1473.000000	63.369560 
1472.000000	63.390326 
1471.000000	63.408041 
1470.000000	63.421320 
1469.000000	63.429403 
1468.000000	63.432168 
1467.000000	63.429975 
1466.000000	63.423776 
1465.000000	63.414502 
1464.000000	63.403058 
1463.000000	63.390016 
1462.000000	63.375759 
1461.000000	63.360476 
1460.000000	63.344335 
1459.000000	63.327622 
1458.000000	63.310980 
1457.000000	63.295412 
1456.000000	63.282322 
1455.000000	63.273286 
1454.000000	63.269400 
1453.000000	63.271236 
1452.000000	63.278651 
1451.000000	63.290429 
1450.000000	63.304638 
1449.000000	63.318896 
1448.000000	63.330864 
1447.000000	63.338732 
1446.000000	63.341426 
1445.000000	63.338875 
1444.000000	63.331961 
1443.000000	63.322210 
1442.000000	63.311243 
1441.000000	63.300490 
1440.000000	63.290667 
1439.000000	63.281917 
1438.000000	63.273620 
1437.000000	63.264656 
1436.000000	63.254117 
1435.000000	63.241434 
1434.000000	63.226914 
1433.000000	63.211655 
1432.000000	63.197493 
1431.000000	63.186645 
1430.000000	63.181018 
1429.000000	63.181996 
1428.000000	63.190031 
1427.000000	63.204455 
1426.000000	63.223695 
1425.000000	63.245606 
1424.000000	63.267731 
1423.000000	63.287806 
1422.000000	63.304257 
1421.000000	63.316178 
1420.000000	63.323736 
1419.000000	63.327741 
1418.000000	63.329505 
1417.000000	63.330388 
1416.000000	63.331365 
1415.000000	63.332796 
1414.000000	63.334417 
1413.000000	63.335347 
1412.000000	63.334417 
1411.000000	63.330578 
1410.000000	63.323426 
1409.000000	63.313221 
1408.000000	63.301134 
1407.000000	63.288807 
1406.000000	63.278079 
1405.000000	63.270449 
1404.000000	63.266730 
1403.000000	63.266921 
1402.000000	63.270163 
1401.000000	63.275051 
1400.000000	63.280272 
1399.000000	63.284826 
1398.000000	63.288474 
1397.000000	63.291358 
1396.000000	63.294005 
1395.000000	63.296699 
1394.000000	63.299226 
1393.000000	63.301086 
1392.000000	63.301563 
1391.000000	63.299965 
1390.000000	63.296031 
1389.000000	63.290357 
1388.000000	63.284301 
1387.000000	63.279628 
1386.000000	63.278007 
1385.000000	63.280558 
1384.000000	63.286805 
1383.000000	63.295173 
1382.000000	63.302898 
1381.000000	63.306450 
1380.000000	63.302564 
1379.000000	63.289213 
1378.000000	63.266158 
1377.000000	63.235068 
1376.000000	63.199567 
1375.000000	63.164210 
1374.000000	63.133883 
1373.000000	63.112378 
1372.000000	63.101673 
1371.000000	63.101744 
1370.000000	63.110518 
1369.000000	63.124537 
1368.000000	63.139605 
1367.000000	63.151907 
1366.000000	63.158535 
1365.000000	63.158035 
1364.000000	63.150453 
1363.000000	63.137006 
1362.000000	63.119697 
1361.000000	63.100671 
1360.000000	63.081908 
1359.000000	63.065075 
1358.000000	63.051247 
1357.000000	63.041234 
1356.000000	63.035583 
1355.000000	63.034749 
1354.000000	63.038825 
1353.000000	63.047885 
1352.000000	63.061475 
1351.000000	63.079047 
1350.000000	63.099646 
1349.000000	63.122129 
1348.000000	63.145327 
1347.000000	63.167881 
1346.000000	63.188385 
1345.000000	63.205409 
1344.000000	63.217782 
1343.000000	63.224601 
1342.000000	63.225626 
1341.000000	63.221335 
1340.000000	63.213157 
1339.000000	63.203167 
1338.000000	63.193893 
1337.000000	63.187694 
1336.000000	63.186311 
1335.000000	63.190293 
1334.000000	63.198876 
1333.000000	63.210034 
1332.000000	63.220977 
1331.000000	63.228774 
1330.000000	63.231134 
1329.000000	63.226914 
1328.000000	63.216614 
1327.000000	63.201880 
1326.000000	63.185405 
1325.000000	63.170027 
1324.000000	63.158202 
1323.000000	63.151454 
1322.000000	63.150334 
1321.000000	63.154196 
1320.000000	63.161540 
1319.000000	63.170719 
1318.000000	63.180041 
1317.000000	63.188076 
1316.000000	63.193869 
1315.000000	63.197112 
1314.000000	63.197898 
1313.000000	63.196396 
1312.000000	63.193106 
1311.000000	63.188505 
1310.000000	63.183212 
1309.000000	63.177776 
1308.000000	63.172817 
1307.000000	63.168883 
1306.000000	63.166427 
1305.000000	63.165664 
1304.000000	63.166594 
1303.000000	63.168883 
1302.000000	63.171982 
1301.000000	63.175153 
1300.000000	63.177704 
1299.000000	63.178896 
1298.000000	63.178157 
1297.000000	63.175153 
1296.000000	63.169741 
1295.000000	63.162040 
1294.000000	63.152289 
1293.000000	63.140749 
1292.000000	63.127660 
1291.000000	63.113141 
1290.000000	63.097500 
1289.000000	63.080930 
1288.000000	63.063859 
1287.000000	63.046813 
1286.000000	63.030314 
1285.000000	63.015031 
1284.000000	63.001656 
1283.000000	62.990689 
1282.000000	62.982344 
1281.000000	62.976598 
1280.000000	62.973332 
1279.000000	62.972116 
1278.000000	62.972664 
1277.000000	62.974572 
1276.000000	62.977623 
1275.000000	62.981605 
1274.000000	62.986373 
1273.000000	62.991571 
1272.000000	62.997055 
1271.000000	63.002300 
1270.000000	63.006877 
1269.000000	63.010597 
1268.000000	63.013219 
1267.000000	63.014841 
1266.000000	63.015556 
1265.000000	63.015627 
1264.000000	63.014864 
1263.000000	63.013076 
1262.000000	63.009548 
1261.000000	63.003182 
1260.000000	62.992954 
1259.000000	62.978363 
1258.000000	62.959671 
1257.000000	62.938046 
1256.000000	62.915778 
1255.000000	62.895894 
1254.000000	62.881350 
1253.000000	62.874245 
1252.000000	62.875390 
1251.000000	62.884140 
1250.000000	62.898445 
1249.000000	62.915301 
1248.000000	62.931442 
1247.000000	62.943983 
1246.000000	62.950706 
1245.000000	62.950515 
1244.000000	62.943291 
1243.000000	62.929821 
1242.000000	62.911391 
1241.000000	62.890100 
1240.000000	62.867927 
1239.000000	62.847161 
1238.000000	62.830162 
1237.000000	62.819027 
1236.000000	62.815451 
1235.000000	62.820434 
1234.000000	62.833976 
1233.000000	62.855219 
1232.000000	62.882184 
1231.000000	62.912678 
1230.000000	62.944436 
1229.000000	62.975716 
1228.000000	63.005352 
1227.000000	63.032650 
1226.000000	63.057255 
1225.000000	63.078832 
1224.000000	63.096857 
1223.000000	63.110589 
1222.000000	63.119411 
1221.000000	63.123059 
1220.000000	63.121652 
1219.000000	63.116168 
1218.000000	63.107919 
1217.000000	63.098621 
1216.000000	63.089585 
1215.000000	63.081932 
1214.000000	63.075828 
1213.000000	63.070726 
1212.000000	63.065457 
1211.000000	63.058805 
1210.000000	63.049674 
1209.000000	63.037705 
1208.000000	63.023281 
1207.000000	63.007330 
1206.000000	62.991285 
1205.000000	62.976574 
1204.000000	62.964391 
1203.000000	62.955427 
1202.000000	62.949872 
1201.000000	62.947249 
1200.000000	62.946748 
1199.000000	62.947297 
1198.000000	62.947654 
1197.000000	62.946510 
1196.000000	62.942981 
1195.000000	62.936663 
1194.000000	62.927484 
1193.000000	62.915539 
1192.000000	62.901329 
1191.000000	62.885403 
1190.000000	62.868428 
1189.000000	62.850928 
1188.000000	62.833619 
1187.000000	62.817168 
1186.000000	62.802386 
1185.000000	62.789988 
1184.000000	62.780427 
1183.000000	62.773895 
1182.000000	62.770271 
1181.000000	62.769222 
1180.000000	62.770128 
1179.000000	62.772536 
1178.000000	62.776112 
1177.000000	62.780618 
1176.000000	62.785911 
1175.000000	62.791848 
1174.000000	62.798261 
1173.000000	62.804365 
1172.000000	62.808942 
1171.000000	62.810444 
1170.000000	62.807345 
1169.000000	62.798476 
1168.000000	62.783336 
1167.000000	62.762546 
1166.000000	62.737965 
1165.000000	62.712121 
1164.000000	62.688207 
1163.000000	62.668871 
1162.000000	62.656378 
1161.000000	62.651777 
1160.000000	62.654995 
1159.000000	62.664699 
1158.000000	62.679028 
1157.000000	62.695574 
1156.000000	62.712240 
1155.000000	62.727499 
1154.000000	62.740612 
1153.000000	62.751245 
1152.000000	62.759852 
1151.000000	62.766909 
1150.000000	62.773132 
1149.000000	62.779021 
1148.000000	62.784981 
1147.000000	62.791252 
1146.000000	62.798094 
1145.000000	62.805771 
1144.000000	62.814760 
1143.000000	62.825298 
1142.000000	62.837743 
1141.000000	62.852001 
1140.000000	62.867617 
1139.000000	62.883353 
1138.000000	62.897348 
1137.000000	62.907409 
1136.000000	62.911319 
1135.000000	62.907648 
1134.000000	62.896203 
1133.000000	62.878370 
1132.000000	62.857174 
1131.000000	62.836432 
1130.000000	62.819886 
1129.000000	62.810444 
1128.000000	62.809300 
1127.000000	62.816166 
1126.000000	62.829256 
1125.000000	62.845873 
1124.000000	62.863159 
1123.000000	62.878370 
1122.000000	62.889361 
1121.000000	62.894630 
1120.000000	62.893414 
1119.000000	62.886023 
1118.000000	62.873673 
1117.000000	62.858295 
1116.000000	62.842297 
1115.000000	62.828159 
1114.000000	62.817978 
1113.000000	62.813138 
1112.000000	62.813949 
1111.000000	62.820386 
1110.000000	62.831807 
1109.000000	62.847065 
1108.000000	62.864470 
1107.000000	62.882089 
1106.000000	62.897753 
1105.000000	62.909054 
1104.000000	62.914276 
1103.000000	62.912559 
1102.000000	62.904477 
1101.000000	62.892127 
1100.000000	62.878346 
1099.000000	62.866139 
1098.000000	62.857866 
1097.000000	62.854862 
1096.000000	62.856888 
1095.000000	62.862396 
1094.000000	62.869095 
1093.000000	62.874627 
1092.000000	62.877297 
1091.000000	62.876224 
1090.000000	62.871670 
1089.000000	62.864685 
1088.000000	62.856554 
1087.000000	62.848091 
1086.000000	62.839436 
1085.000000	62.829780 
1084.000000	62.817502 
1083.000000	62.800765 
1082.000000	62.778234 
1081.000000	62.749695 
1080.000000	62.716317 
1079.000000	62.680983 
1078.000000	62.647247 
1077.000000	62.619400 
1076.000000	62.600970 
1075.000000	62.594580 
1074.000000	62.600779 
1073.000000	62.618350 
1072.000000	62.644553 
1071.000000	62.675595 
1070.000000	62.707424 
1069.000000	62.736606 
1068.000000	62.760829 
1067.000000	62.779188 
1066.000000	62.792110 
1065.000000	62.801074 
1064.000000	62.807917 
1063.000000	62.814497 
1062.000000	62.822151 
1061.000000	62.831497 
1060.000000	62.842488 
1059.000000	62.854528 
1058.000000	62.866616 
1057.000000	62.877845 
1056.000000	62.887167 
1055.000000	62.893939 
1054.000000	62.897682 
1053.000000	62.897968 
1052.000000	62.894582 
1051.000000	62.887549 
1050.000000	62.877178 
1049.000000	62.864327 
1048.000000	62.850069 
1047.000000	62.836027 
1046.000000	62.823677 
1045.000000	62.814331 
1044.000000	62.808561 
1043.000000	62.806367 
1042.000000	62.806963 
1041.000000	62.809205 
1040.000000	62.811803 
1039.000000	62.813568 
1038.000000	62.813758 
1037.000000	62.812256 
1036.000000	62.809085 
1035.000000	62.804627 
1034.000000	62.799310 
1033.000000	62.793636 
1032.000000	62.787890 
1031.000000	62.782359 
1030.000000	62.777161 
1029.000000	62.772369 
1028.000000	62.768197 
1027.000000	62.764859 
1026.000000	62.762379 
1025.000000	62.760591 
1024.000000	62.759065 
1023.000000	62.757110 
1022.000000	62.753891 
1021.000000	62.748765 
1020.000000	62.741398 
1019.000000	62.732028 
1018.000000	62.721467 
1017.000000	62.711095 
1016.000000	62.702560 
1015.000000	62.697315 
1014.000000	62.696290 
1013.000000	62.699460 
1012.000000	62.705922 
1011.000000	62.713551 
1010.000000	62.719798 
1009.000000	62.722039 
1008.000000	62.718605 
1007.000000	62.709379 
1006.000000	62.696456 
1005.000000	62.683582 
1004.000000	62.675380 
1003.000000	62.676167 
1002.000000	62.689018 
1001.000000	62.714362 
1000.000000	62.749910 
999.000000	 62.791109 
998.000000	 62.832093 
997.000000	 62.866783 
996.000000	 62.890458 
995.000000	 62.900733 
994.000000	 62.897920 
993.000000	 62.884593 
992.000000	 62.864828 
991.000000	 62.843084 
990.000000	 62.823247 
989.000000	 62.807917 
988.000000	 62.798404 
987.000000	 62.794733 
986.000000	 62.796258 
985.000000	 62.802195 
984.000000	 62.811231 
983.000000	 62.822103 
982.000000	 62.832999 
981.000000	 62.841820 
980.000000	 62.846493 
979.000000	 62.845087 
978.000000	 62.836432 
977.000000	 62.820196 
976.000000	 62.796998 
975.000000	 62.768292 
974.000000	 62.735962 
973.000000	 62.701988 
972.000000	 62.668228 
971.000000	 62.636184 
970.000000	 62.606930 
969.000000	 62.581229 
968.000000	 62.559700 
967.000000	 62.543153 
966.000000	 62.532114 
965.000000	 62.527418 
964.000000	 62.529778 
963.000000	 62.539672 
962.000000	 62.556695 
961.000000	 62.579560 
960.000000	 62.606024 
959.000000	 62.633156 
958.000000	 62.657833 
957.000000	 62.677049 
956.000000	 62.688469 
955.000000	 62.690949 
954.000000	 62.684798 
953.000000	 62.671637 
952.000000	 62.654185 
951.000000	 62.635731 
950.000000	 62.619423 
949.000000	 62.607693 
948.000000	 62.601971 
947.000000	 62.602543 
946.000000	 62.608575 
945.000000	 62.618970 
944.000000	 62.632369 
943.000000	 62.647581 
942.000000	 62.663531 
941.000000	 62.679028 
940.000000	 62.692809 
939.000000	 62.703585 
938.000000	 62.710452 
937.000000	 62.712979 
936.000000	 62.711644 
935.000000	 62.707829 
934.000000	 62.703895 
933.000000	 62.702560 
932.000000	 62.706136 
931.000000	 62.715959 
930.000000	 62.732076 
929.000000	 62.753224 
928.000000	 62.777042 
927.000000	 62.800478 
926.000000	 62.820982 
925.000000	 62.836766 
924.000000	 62.847256 
923.000000	 62.852716 
922.000000	 62.853717 
921.000000	 62.850928 
920.000000	 62.844705 
919.000000	 62.835097 
918.000000	 62.822055 
917.000000	 62.805581 
916.000000	 62.786936 
915.000000	 62.767601 
914.000000	 62.749481 
913.000000	 62.733650 
912.000000	 62.720704 
911.000000	 62.709665 
910.000000	 62.698483 
909.000000	 62.684226 
908.000000	 62.663888 
907.000000	 62.635278 
906.000000	 62.597680 
905.000000	 62.552142 
904.000000	 62.501263 
903.000000	 62.448430 
902.000000	 62.397313 
901.000000	 62.350773 
900.000000	 62.310838 
899.000000	 62.278676 
898.000000	 62.255072 
897.000000	 62.240552 
896.000000	 62.236094 
895.000000	 62.242698 
894.000000	 62.261724 
893.000000	 62.293553 
892.000000	 62.338113 
891.000000	 62.394070 
890.000000	 62.459135 
889.000000	 62.529802 
888.000000	 62.602066 
887.000000	 62.671351 
886.000000	 62.733483 
885.000000	 62.784886 
884.000000	 62.823224 
883.000000	 62.847614 
882.000000	 62.858653 
881.000000	 62.858510 
880.000000	 62.850141 
879.000000	 62.836742 
878.000000	 62.821292 
877.000000	 62.806272 
876.000000	 62.792921 
875.000000	 62.781476 
874.000000	 62.771320 
873.000000	 62.761688 
872.000000	 62.752079 
871.000000	 62.742543 
870.000000	 62.734007 
869.000000	 62.727713 
868.000000	 62.725090 
867.000000	 62.726593 
866.000000	 62.731623 
865.000000	 62.738227 
864.000000	 62.743854 
863.000000	 62.745499 
862.000000	 62.740516 
861.000000	 62.727332 
860.000000	 62.706112 
859.000000	 62.678670 
858.000000	 62.647819 
857.000000	 62.617468 
856.000000	 62.591624 
855.000000	 62.573909 
854.000000	 62.566566 
853.000000	 62.570405 
852.000000	 62.584257 
851.000000	 62.605476 
850.000000	 62.630534 
849.000000	 62.655258 
848.000000	 62.675476 
847.000000	 62.687873 
846.000000	 62.690448 
845.000000	 62.682271 
844.000000	 62.663817 
843.000000	 62.636899 
842.000000	 62.603807 
841.000000	 62.567520 
840.000000	 62.530708 
839.000000	 62.495636 
838.000000	 62.463760 
837.000000	 62.436151 
836.000000	 62.412929 
835.000000	 62.393426 
834.000000	 62.376880 
833.000000	 62.362074 
832.000000	 62.348651 
831.000000	 62.336254 
830.000000	 62.326455 
829.000000	 62.321949 
828.000000	 62.326884 
827.000000	 62.345767 
826.000000	 62.382268 
825.000000	 62.437796 
824.000000	 62.510919 
823.000000	 62.597084 
822.000000	 62.689328 
821.000000	 62.779378 
820.000000	 62.859392 
819.000000	 62.923073 
818.000000	 62.966585 
817.000000	 62.988519 
816.000000	 62.990069 
815.000000	 62.973618 
814.000000	 62.942814 
813.000000	 62.900805 
812.000000	 62.850928 
811.000000	 62.795209 
810.000000	 62.735033 
809.000000	 62.671160 
808.000000	 62.604713 
807.000000	 62.537598 
806.000000	 62.472534 
805.000000	 62.413644 
804.000000	 62.365436 
803.000000	 62.332653 
802.000000	 62.318944 
801.000000	 62.326121 
800.000000	 62.353229 
799.000000	 62.396907 
798.000000	 62.451601 
797.000000	 62.510418 
796.000000	 62.566232 
795.000000	 62.613129 
794.000000	 62.647223 
793.000000	 62.666988 
792.000000	 62.672853 
791.000000	 62.666964 
790.000000	 62.652111 
789.000000	 62.630820 
788.000000	 62.605118 
787.000000	 62.576603 
786.000000	 62.546515 
785.000000	 62.516570 
784.000000	 62.488508 
783.000000	 62.464499 
782.000000	 62.446451 
781.000000	 62.436032 
780.000000	 62.433695 
779.000000	 62.438368 
778.000000	 62.447619 
777.000000	 62.458014 
776.000000	 62.465858 
775.000000	 62.467670 
774.000000	 62.461280 
773.000000	 62.446069 
772.000000	 62.423038 
771.000000	 62.394547 
770.000000	 62.363934 
769.000000	 62.334656 
768.000000	 62.309813 
767.000000	 62.291646 
766.000000	 62.281370 
765.000000	 62.279033 
764.000000	 62.283754 
763.000000	 62.293982 
762.000000	 62.307453 
761.000000	 62.321829 
760.000000	 62.334847 
759.000000	 62.345004 
758.000000	 62.351465 
757.000000	 62.354040 
756.000000	 62.353134 
755.000000	 62.349605 
754.000000	 62.344598 
753.000000	 62.339019 
752.000000	 62.333202 
751.000000	 62.326884 
750.000000	 62.319374 
749.000000	 62.309408 
748.000000	 62.295794 
747.000000	 62.277817 
746.000000	 62.255835 
745.000000	 62.231683 
744.000000	 62.208485 
743.000000	 62.190270 
742.000000	 62.181091 
741.000000	 62.183856 
740.000000	 62.199449 
739.000000	 62.226080 
738.000000	 62.259507 
737.000000	 62.293457 
736.000000	 62.321281 
735.000000	 62.337231 
734.000000	 62.337923 
733.000000	 62.323260 
732.000000	 62.296438 
731.000000	 62.263011 
730.000000	 62.229537 
729.000000	 62.202143 
728.000000	 62.184596 
727.000000	 62.177968 
726.000000	 62.180233 
725.000000	 62.187695 
724.000000	 62.195944 
723.000000	 62.201333 
722.000000	 62.202000 
721.000000	 62.198019 
720.000000	 62.191438 
719.000000	 62.185382 
718.000000	 62.183022 
717.000000	 62.186408 
716.000000	 62.195992 
715.000000	 62.210488 
714.000000	 62.227129 
713.000000	 62.242555 
712.000000	 62.253403 
711.000000	 62.257003 
710.000000	 62.252449 
709.000000	 62.240314 
708.000000	 62.222337 
707.000000	 62.200784 
706.000000	 62.177848 
705.000000	 62.154936 
704.000000	 62.132501 
703.000000	 62.110114 
702.000000	 62.086749 
701.000000	 62.061619 
700.000000	 62.034773 
699.000000	 62.007737 
698.000000	 61.982798 
697.000000	 61.963868 
696.000000	 61.954784 
695.000000	 61.959481 
694.000000	 61.980605 
693.000000	 62.018847 
692.000000	 62.072443 
691.000000	 62.136507 
690.000000	 62.203693 
689.000000	 62.264561 
688.000000	 62.309145 
687.000000	 62.328791 
686.000000	 62.318062 
685.000000	 62.275624 
684.000000	 62.204957 
683.000000	 62.113761 
682.000000	 62.013030 
681.000000	 61.914873 
680.000000	 61.831164 
679.000000	 61.772203 
678.000000	 61.744809 
677.000000	 61.752390 
676.000000	 61.793541 
675.000000	 61.862182 
674.000000	 61.948728 
673.000000	 62.041378 
672.000000	 62.128686 
671.000000	 62.200689 
670.000000	 62.251377 
669.000000	 62.278985 
668.000000	 62.285876 
667.000000	 62.277030 
666.000000	 62.258386 
665.000000	 62.235260 
664.000000	 62.210750 
663.000000	 62.185597 
662.000000	 62.158417 
661.000000	 62.126898 
660.000000	 62.088990 
659.000000	 62.044143 
658.000000	 61.993336 
657.000000	 61.939501 
656.000000	 61.886596 
655.000000	 61.839485 
654.000000	 61.801648 
653.000000	 61.776089 
652.000000	 61.764621 
651.000000	 61.768984 
650.000000	 61.790180 
649.000000	 61.829137 
648.000000	 61.886334 
647.000000	 61.961221 
646.000000	 62.050509 
645.000000	 62.148785 
644.000000	 62.249088 
643.000000	 62.342977 
642.000000	 62.421774 
641.000000	 62.478160 
640.000000	 62.507700 
639.000000	 62.509846 
638.000000	 62.488222 
637.000000	 62.449336 
636.000000	 62.401294 
635.000000	 62.352156 
634.000000	 62.308192 
633.000000	 62.272453 
632.000000	 62.244391 
631.000000	 62.220644 
630.000000	 62.196278 
629.000000	 62.167024 
628.000000	 62.130165 
627.000000	 62.086033 
626.000000	 62.036895 
625.000000	 61.986303 
624.000000	 61.936187 
623.000000	 61.886978 
622.000000	 61.835193 
621.000000	 61.773872 
620.000000	 61.695027 
619.000000	 61.591053 
618.000000	 61.459660 
617.000000	 61.304974 
616.000000	 61.140203 
615.000000	 60.984420 
614.000000	 60.861015 
613.000000	 60.791349 
612.000000	 60.790777 
611.000000	 60.863876 
610.000000	 61.002755 
609.000000	 61.187911 
608.000000	 61.390995 
607.000000	 61.580491 
606.000000	 61.727523 
605.000000	 61.811542 
604.000000	 61.824083 
603.000000	 61.770057 
602.000000	 61.665010 
601.000000	 61.531567 
600.000000	 61.395406 
599.000000	 61.279463 
598.000000	 61.201405 
597.000000	 61.168980 
596.000000	 61.182045 
595.000000	 61.231207 
594.000000	 61.300206 
593.000000	 61.371493 
592.000000	 61.428070 
591.000000	 61.461162 
590.000000	 61.470508 
589.000000	 61.466407 
588.000000	 61.466002 
587.000000	 61.487746 
586.000000	 61.545157 
585.000000	 61.641693 
584.000000	 61.768770 
583.000000	 61.907243 
582.000000	 62.032461 
581.000000	 62.122058 
580.000000	 62.162518 
579.000000	 62.154269 
578.000000	 62.111711 
577.000000	 62.058639 
576.000000	 62.021136 
575.000000	 62.020134 
574.000000	 62.064909 
573.000000	 62.149071 
572.000000	 62.253355 
571.000000	 62.352681 
570.000000	 62.423133 
569.000000	 62.451028 
568.000000	 62.434768 
567.000000	 62.385153 
566.000000	 62.321090 
565.000000	 62.262678 
564.000000	 62.225651 
563.000000	 62.216424 
562.000000	 62.231516 
561.000000	 62.259125 
560.000000	 62.284588 
559.000000	 62.296891 
558.000000	 62.290763 
557.000000	 62.269186 
556.000000	 62.240219 
555.000000	 62.213683 
554.000000	 62.196850 
553.000000	 62.190866 
552.000000	 62.189054 
551.000000	 62.178277 
550.000000	 62.143588 
549.000000	 62.072277 
548.000000	 61.958146 
547.000000	 61.804032 
546.000000	 61.620569 
545.000000	 61.425352 
544.000000	 61.238598 
543.000000	 61.079764 
542.000000	 60.963869 
541.000000	 60.898566 
540.000000	 60.884165 
539.000000	 60.912489 
538.000000	 60.969495 
537.000000	 61.036610 
536.000000	 61.094260 
535.000000	 61.124992 
534.000000	 61.114072 
533.000000	 61.055922 
532.000000	 60.953259 
531.000000	 60.820555 
530.000000	 60.679268 
529.000000	 60.558819 
528.000000	 60.490036 
527.000000	 60.499072 
526.000000	 60.600829 
525.000000	 60.793542 
524.000000	 61.057591 
523.000000	 61.358475 
522.000000	 61.653184 
521.000000	 61.897706 
520.000000	 62.057042 
519.000000	 62.113332 
518.000000	 62.069249 
517.000000	 61.945223 
516.000000	 61.774063 
515.000000	 61.593914 
514.000000	 61.437320 
513.000000	 61.326694 
512.000000	 61.267352 
511.000000	 61.253404 
510.000000	 61.265039 
509.000000	 61.278247 
508.000000	 61.267256 
507.000000	 61.213159 
506.000000	 61.104726 
505.000000	 60.939788 
504.000000	 60.725140 
503.000000	 60.473203 
502.000000	 60.202360 
501.000000	 59.933543 
500.000000	 59.689903 
499.000000	 59.493923 
498.000000	 59.367871 
497.000000	 59.330892 
496.000000	 59.395503 
495.000000	 59.564661 
494.000000	 59.828615 
493.000000	 60.165047 
492.000000	 60.539627 
491.000000	 60.911917 
490.000000	 61.240839 
489.000000	 61.492347 
488.000000	 61.644244 
487.000000	 61.690521 
486.000000	 61.640715 
485.000000	 61.518049 
484.000000	 61.354708 
483.000000	 61.184883 
482.000000	 61.039447 
481.000000	 60.940003 
480.000000	 60.899496 
479.000000	 60.917997 
478.000000	 60.987734 
477.000000	 61.091446 
476.000000	 61.208152 
475.000000	 61.313557 
474.000000	 61.384654 
473.000000	 61.402916 
472.000000	 61.357927 
471.000000	 61.250972 
470.000000	 61.095762 
469.000000	 60.918736 
468.000000	 60.753822 
467.000000	 60.634851 
466.000000	 60.588502 
465.000000	 60.627961 
464.000000	 60.750341 
463.000000	 60.939192 
462.000000	 61.167669 
461.000000	 61.403656 
460.000000	 61.617159 
459.000000	 61.788010 
458.000000	 61.905431 
457.000000	 61.967658 
456.000000	 61.978435 
455.000000	 61.942982 
454.000000	 61.865878 
453.000000	 61.751317 
452.000000	 61.601805 
451.000000	 61.420416 
450.000000	 61.214375 
449.000000	 60.998749 
448.000000	 60.791778 
447.000000	 60.613226 
446.000000	 60.479736 
445.000000	 60.401725 
444.000000	 60.384654 
443.000000	 60.427737 
442.000000	 60.525727 
441.000000	 60.668087 
440.000000	 60.838770 
439.000000	 61.015868 
438.000000	 61.173701 
437.000000	 61.284923 
436.000000	 61.322736 
435.000000	 61.267876 
434.000000	 61.111474 
433.000000	 60.861682 
432.000000	 60.541534 
431.000000	 60.192203 
430.000000	 59.859991 
429.000000	 59.599113 
428.000000	 59.464383 
427.000000	 59.498286 
426.000000	 59.720778 
425.000000	 60.123944 
424.000000	 60.673356 
423.000000	 61.307334 
422.000000	 61.948490 
421.000000	 62.512350 
420.000000	 62.921309 
419.000000	 63.125967 
418.000000	 63.115429 
417.000000	 62.913680 
416.000000	 62.574481 
415.000000	 62.176275 
414.000000	 61.803889 
413.000000	 61.534190 
412.000000	 61.418342 
411.000000	 61.472821 
410.000000	 61.676049 
409.000000	 61.986374 
408.000000	 62.341570 
407.000000	 62.682580 
406.000000	 62.948417 
405.000000	 63.086557 
404.000000	 63.051867 
403.000000	 62.811923 
402.000000	 62.349247 
401.000000	 61.665320 
400.000000	 60.785984 
399.000000	 59.753704 
398.000000	 58.646249 
397.000000	 57.565450 
396.000000	 56.641530 
395.000000	 56.005692 
394.000000	 55.794024 
393.000000	 56.115865 
392.000000	 57.038831 
391.000000	 58.559322 
390.000000	 60.580873 
389.000000	 62.911295 
388.000000	 65.259742 
387.000000	 67.287540 
386.000000	 68.680405 
385.000000	 69.217944 
384.000000	 68.808150 
383.000000	 67.527461 
382.000000	 65.615272 
381.000000	 63.427019 
380.000000	 61.364412 
379.000000	 59.779715 
378.000000	 58.944368 
377.000000	 58.937549 
376.000000	 59.682679 
375.000000	 60.903811 
374.000000	 62.191581 
373.000000	 63.108086 
372.000000	 63.278460 
371.000000	 62.524962 
370.000000	 60.886979 

