PE IR       SPECTRUM    SPECTRUM    ASCII       PEDS        1.60        
  -1
BZ3C70~1.ASC
17/04/07
22:14:24.00
17/04/07
22:14:24.00
tln
$BZ1503107-1_t0110$<tbV0>[-13.0,10.4,8.0,0.0,27,1,0]
370.000000
64









2002,4.07    
MIRTGS : RIGHTBACK : INTERNAL 2
MIR : ON : INTERNAL 2
OPTKBR

0.200000
8
8.000000
FILLER
RATIO
SPECTRUM
UNLOCKED 256

DOUBLE
64
COMBINED
1
0
0


1.000000
RATIO


1
0
TRUE
51149
0
LEFT NOT FITTED RIGHT NOT FITTED 0
NONE
NONE
15600
12.000000
4.427000
51148
TRUE
1 0 8 72 0 0 0 0 

15798.010000






#HDR
-1
-1
#GR
CM-1
%T
0.00002384185791015625
0.0
5000.000000
-1.000000
4631
8
91.131949
57.703900
#DATA
5000.000000	64.328980 
4999.000000	64.364981 
4998.000000	64.386129 
4997.000000	64.376282 
4996.000000	64.321374 
4995.000000	64.213347 
4994.000000	64.057588 
4993.000000	63.872885 
4992.000000	63.691306 
4991.000000	63.551402 
4990.000000	63.489651 
4989.000000	63.531064 
4988.000000	63.681912 
4987.000000	63.927483 
4986.000000	64.232397 
4985.000000	64.548444 
4984.000000	64.822030 
4983.000000	65.005564 
4982.000000	65.067505 
4981.000000	64.998340 
4980.000000	64.808940 
4979.000000	64.528322 
4978.000000	64.195799 
4977.000000	63.854646 
4976.000000	63.546061 
4975.000000	63.303160 
4974.000000	63.147950 
4973.000000	63.089847 
4972.000000	63.128757 
4971.000000	63.255167 
4970.000000	63.452577 
4969.000000	63.699889 
4968.000000	63.972020 
4967.000000	64.243698 
4966.000000	64.488863 
4965.000000	64.685964 
4964.000000	64.818120 
4963.000000	64.877295 
4962.000000	64.864063 
4961.000000	64.789295 
4960.000000	64.671826 
4959.000000	64.538288 
4958.000000	64.418458 
4957.000000	64.342522 
4956.000000	64.334988 
4955.000000	64.410662 
4954.000000	64.569592 
4953.000000	64.794492 
4952.000000	65.052032 
4951.000000	65.296077 
4950.000000	65.477919 
4949.000000	65.555906 
4948.000000	65.507149 
4947.000000	65.333008 
4946.000000	65.060758 
4945.000000	64.737248 
4944.000000	64.418721 
4943.000000	64.160037 
4942.000000	64.000129 
4941.000000	63.955092 
4940.000000	64.014697 
4939.000000	64.148545 
4938.000000	64.313745 
4937.000000	64.467620 
4936.000000	64.577555 
4935.000000	64.626812 
4934.000000	64.618539 
4933.000000	64.571452 
4932.000000	64.512228 
4931.000000	64.464950 
4930.000000	64.446282 
4929.000000	64.460396 
4928.000000	64.500665 
4927.000000	64.552497 
4926.000000	64.599633 
4925.000000	64.628672 
4924.000000	64.633584 
4923.000000	64.615654 
4922.000000	64.579796 
4921.000000	64.533448 
4920.000000	64.480471 
4919.000000	64.424014 
4918.000000	64.366126 
4917.000000	64.311051 
4916.000000	64.267015 
4915.000000	64.245223 
4914.000000	64.258956 
4913.000000	64.318299 
4912.000000	64.427924 
4911.000000	64.581418 
4910.000000	64.760470 
4909.000000	64.937424 
4908.000000	65.081048 
4907.000000	65.163159 
4906.000000	65.165710 
4905.000000	65.085029 
4904.000000	64.933133 
4903.000000	64.735436 
4902.000000	64.525246 
4901.000000	64.336609 
4900.000000	64.197063 
4899.000000	64.123773 
4898.000000	64.120507 
4897.000000	64.179968 
4896.000000	64.285588 
4895.000000	64.416027 
4894.000000	64.549875 
4893.000000	64.667415 
4892.000000	64.755988 
4891.000000	64.809679 
4890.000000	64.831018 
4889.000000	64.827466 
4888.000000	64.810156 
4887.000000	64.790177 
4886.000000	64.775919 
4885.000000	64.772391 
4884.000000	64.779520 
4883.000000	64.794492 
4882.000000	64.811873 
4881.000000	64.826488 
4880.000000	64.834427 
4879.000000	64.834642 
4878.000000	64.828324 
4877.000000	64.818382 
4876.000000	64.808559 
4875.000000	64.802074 
4874.000000	64.800691 
4873.000000	64.804291 
4872.000000	64.810776 
4871.000000	64.816427 
4870.000000	64.818072 
4869.000000	64.812874 
4868.000000	64.797949 
4867.000000	64.771294 
4866.000000	64.731931 
4865.000000	64.680743 
4864.000000	64.620018 
4863.000000	64.553952 
4862.000000	64.488101 
4861.000000	64.428472 
4860.000000	64.381122 
4859.000000	64.350056 
4858.000000	64.336299 
4857.000000	64.337611 
4856.000000	64.348649 
4855.000000	64.362764 
4854.000000	64.372944 
4853.000000	64.374709 
4852.000000	64.366865 
4851.000000	64.352631 
4850.000000	64.338374 
4849.000000	64.332318 
4848.000000	64.342117 
4847.000000	64.372706 
4846.000000	64.425039 
4845.000000	64.495801 
4844.000000	64.578390 
4843.000000	64.664959 
4842.000000	64.748263 
4841.000000	64.823889 
4840.000000	64.890575 
4839.000000	64.950203 
4838.000000	65.006184 
4837.000000	65.061593 
4836.000000	65.117287 
4835.000000	65.171694 
4834.000000	65.219902 
4833.000000	65.255713 
4832.000000	65.272426 
4831.000000	65.266227 
4830.000000	65.236258 
4829.000000	65.185761 
4828.000000	65.121412 
4827.000000	65.052199 
4826.000000	64.987874 
4825.000000	64.937019 
4824.000000	64.906048 
4823.000000	64.898204 
4822.000000	64.913082 
4821.000000	64.947223 
4820.000000	64.994716 
4819.000000	65.048336 
4818.000000	65.100073 
4817.000000	65.142488 
4816.000000	65.169405 
4815.000000	65.177226 
4814.000000	65.165162 
4813.000000	65.135765 
4812.000000	65.094208 
4811.000000	65.047454 
4810.000000	65.003490 
4809.000000	64.968991 
4808.000000	64.948558 
4807.000000	64.942979 
4806.000000	64.950346 
4805.000000	64.965629 
4804.000000	64.982056 
4803.000000	64.992737 
4802.000000	64.992213 
4801.000000	64.978098 
4800.000000	64.950847 
4799.000000	64.914917 
4798.000000	64.877247 
4797.000000	64.846444 
4796.000000	64.830803 
4795.000000	64.836907 
4794.000000	64.868235 
4793.000000	64.924693 
4792.000000	65.002417 
4791.000000	65.094542 
4790.000000	65.192294 
4789.000000	65.286612 
4788.000000	65.369486 
4787.000000	65.435242 
4786.000000	65.480875 
4785.000000	65.506100 
4784.000000	65.512108 
4783.000000	65.501642 
4782.000000	65.476918 
4781.000000	65.440535 
4780.000000	65.393996 
4779.000000	65.338611 
4778.000000	65.275621 
4777.000000	65.208077 
4776.000000	65.139889 
4775.000000	65.076017 
4774.000000	65.021634 
4773.000000	64.981341 
4772.000000	64.957666 
4771.000000	64.950275 
4770.000000	64.955878 
4769.000000	64.968729 
4768.000000	64.982438 
4767.000000	64.991593 
4766.000000	64.993071 
4765.000000	64.986467 
4764.000000	64.973950 
4763.000000	64.959263 
4762.000000	64.945793 
4761.000000	64.935827 
4760.000000	64.929437 
4759.000000	64.925050 
4758.000000	64.919710 
4757.000000	64.910817 
4756.000000	64.897799 
4755.000000	64.883065 
4754.000000	64.871144 
4753.000000	64.868617 
4752.000000	64.881944 
4751.000000	64.916062 
4750.000000	64.972329 
4749.000000	65.048146 
4748.000000	65.137171 
4747.000000	65.230202 
4746.000000	65.317511 
4745.000000	65.389728 
4744.000000	65.439367 
4743.000000	65.462207 
4742.000000	65.457797 
4741.000000	65.429282 
4740.000000	65.382385 
4739.000000	65.324997 
4738.000000	65.265536 
4737.000000	65.211701 
4736.000000	65.169143 
4735.000000	65.141034 
4734.000000	65.127658 
4733.000000	65.127229 
4732.000000	65.136432 
4731.000000	65.151333 
4730.000000	65.168070 
4729.000000	65.183329 
4728.000000	65.194749 
4727.000000	65.200448 
4726.000000	65.199422 
4725.000000	65.191078 
4724.000000	65.175461 
4723.000000	65.153098 
4722.000000	65.125489 
4721.000000	65.095019 
4720.000000	65.065264 
4719.000000	65.040755 
4718.000000	65.025925 
4717.000000	65.024280 
4716.000000	65.037584 
4715.000000	65.065217 
4714.000000	65.104341 
4713.000000	65.150570 
4712.000000	65.198206 
4711.000000	65.241384 
4710.000000	65.275001 
4709.000000	65.295648 
4708.000000	65.301799 
4707.000000	65.294289 
4706.000000	65.276050 
4705.000000	65.251207 
4704.000000	65.224957 
4703.000000	65.201711 
4702.000000	65.184235 
4701.000000	65.173268 
4700.000000	65.167093 
4699.000000	65.163469 
4698.000000	65.159773 
4697.000000	65.155553 
4696.000000	65.152001 
4695.000000	65.153431 
4694.000000	65.165710 
4693.000000	65.195226 
4692.000000	65.246272 
4691.000000	65.319681 
4690.000000	65.411829 
4689.000000	65.514326 
4688.000000	65.615248 
4687.000000	65.701484 
4686.000000	65.761232 
4685.000000	65.786576 
4684.000000	65.775060 
4683.000000	65.729832 
4682.000000	65.658783 
4681.000000	65.572881 
4680.000000	65.483665 
4679.000000	65.401792 
4678.000000	65.335011 
4677.000000	65.287852 
4676.000000	65.260934 
4675.000000	65.252184 
4674.000000	65.257358 
4673.000000	65.271520 
4672.000000	65.289831 
4671.000000	65.308380 
4670.000000	65.324234 
4669.000000	65.335106 
4668.000000	65.339255 
4667.000000	65.334868 
4666.000000	65.320181 
4665.000000	65.293431 
4664.000000	65.253734 
4663.000000	65.201640 
4662.000000	65.139961 
4661.000000	65.073704 
4660.000000	65.009808 
4659.000000	64.956164 
4658.000000	64.919805 
4657.000000	64.905238 
4656.000000	64.913487 
4655.000000	64.941716 
4654.000000	64.983224 
4653.000000	65.029454 
4652.000000	65.071916 
4651.000000	65.104413 
4650.000000	65.124177 
4649.000000	65.132236 
4648.000000	65.132093 
4647.000000	65.128374 
4646.000000	65.124893 
4645.000000	65.123057 
4644.000000	65.121555 
4643.000000	65.116715 
4642.000000	65.104031 
4641.000000	65.080332 
4640.000000	65.045690 
4639.000000	65.003824 
4638.000000	64.961647 
4637.000000	64.927434 
4636.000000	64.908576 
4635.000000	64.909124 
4634.000000	64.928293 
4633.000000	64.960837 
4632.000000	64.998459 
4631.000000	65.031957 
4630.000000	65.053677 
4629.000000	65.059208 
4628.000000	65.048170 
4627.000000	65.024113 
4626.000000	64.993119 
4625.000000	64.962196 
4624.000000	64.936876 
4623.000000	64.920544 
4622.000000	64.912629 
4621.000000	64.909982 
4620.000000	64.906692 
4619.000000	64.896798 
4618.000000	64.874625 
4617.000000	64.836883 
4616.000000	64.783024 
4615.000000	64.715600 
4614.000000	64.639592 
4613.000000	64.561414 
4612.000000	64.487409 
4611.000000	64.422750 
4610.000000	64.369940 
4609.000000	64.328503 
4608.000000	64.295554 
4607.000000	64.266729 
4606.000000	64.238142 
4605.000000	64.207720 
4604.000000	64.176034 
4603.000000	64.146089 
4602.000000	64.121866 
4601.000000	64.107036 
4600.000000	64.102840 
4599.000000	64.107942 
4598.000000	64.118218 
4597.000000	64.128541 
4596.000000	64.133977 
4595.000000	64.131784 
4594.000000	64.122104 
4593.000000	64.108395 
4592.000000	64.096331 
4591.000000	64.091968 
4590.000000	64.099597 
4589.000000	64.120602 
4588.000000	64.152598 
4587.000000	64.190363 
4586.000000	64.227437 
4585.000000	64.257621 
4584.000000	64.277076 
4583.000000	64.284229 
4582.000000	64.279770 
4581.000000	64.265966 
4580.000000	64.245915 
4579.000000	64.222407 
4578.000000	64.197492 
4577.000000	64.172577 
4576.000000	64.148449 
4575.000000	64.125847 
4574.000000	64.105319 
4573.000000	64.087295 
4572.000000	64.072108 
4571.000000	64.059758 
4570.000000	64.050197 
4569.000000	64.042854 
4568.000000	64.037084 
4567.000000	64.032387 
4566.000000	64.028286 
4565.000000	64.024305 
4564.000000	64.019703 
4563.000000	64.013314 
4562.000000	64.003658 
4561.000000	63.988924 
4560.000000	63.968300 
4559.000000	63.942337 
4558.000000	63.913655 
4557.000000	63.886904 
4556.000000	63.867259 
4555.000000	63.859224 
4554.000000	63.864803 
4553.000000	63.882851 
4552.000000	63.908624 
4551.000000	63.934683 
4550.000000	63.952612 
4549.000000	63.955163 
4548.000000	63.937497 
4547.000000	63.898468 
4546.000000	63.841199 
4545.000000	63.772177 
4544.000000	63.699913 
4543.000000	63.632917 
4542.000000	63.578176 
4541.000000	63.539743 
4540.000000	63.518261 
4539.000000	63.511180 
4538.000000	63.513946 
4537.000000	63.521337 
4536.000000	63.528323 
4535.000000	63.532161 
4534.000000	63.531780 
4533.000000	63.529157 
4532.000000	63.527607 
4531.000000	63.531804 
4530.000000	63.545656 
4529.000000	63.571643 
4528.000000	63.609981 
4527.000000	63.658404 
4526.000000	63.712644 
4525.000000	63.767886 
4524.000000	63.819909 
4523.000000	63.865923 
4522.000000	63.904976 
4521.000000	63.938522 
4520.000000	63.969278 
4519.000000	63.999915 
4518.000000	64.031600 
4517.000000	64.063453 
4516.000000	64.092469 
4515.000000	64.114141 
4514.000000	64.124059 
4513.000000	64.120006 
4512.000000	64.102411 
4511.000000	64.075922 
4510.000000	64.047288 
4509.000000	64.023709 
4508.000000	64.011049 
4507.000000	64.011883 
4506.000000	64.025211 
4505.000000	64.047312 
4504.000000	64.072275 
4503.000000	64.094328 
4502.000000	64.107847 
4501.000000	64.108824 
4500.000000	64.094305 
4499.000000	64.062833 
4498.000000	64.013338 
4497.000000	63.944983 
4496.000000	63.857436 
4495.000000	63.751339 
4494.000000	63.629221 
4493.000000	63.495898 
4492.000000	63.359022 
4491.000000	63.227939 
4490.000000	63.110995 
4489.000000	63.015127 
4488.000000	62.944006 
4487.000000	62.898874 
4486.000000	62.878465 
4485.000000	62.879705 
4484.000000	62.899374 
4483.000000	62.933063 
4482.000000	62.972807 
4481.000000	63.010668 
4480.000000	63.040232 
4479.000000	63.057398 
4478.000000	63.054537 
4477.000000	63.032793 
4476.000000	63.008713 
4475.000000	62.996721 
4474.000000	63.000130 
4473.000000	63.021016 
4472.000000	63.061165 
4471.000000	63.115167 
4470.000000	63.172578 
4469.000000	63.223028 
4468.000000	63.260006 
4467.000000	63.284492 
4466.000000	63.305807 
4465.000000	63.339972 
4464.000000	63.403892 
4463.000000	63.512301 
4462.000000	63.671660 
4461.000000	63.863873 
4460.000000	64.061164 
4459.000000	64.240765 
4458.000000	64.391279 
4457.000000	64.508628 
4456.000000	64.614057 
4455.000000	64.723110 
4454.000000	64.891886 
4453.000000	65.163826 
4452.000000	65.642213 
4451.000000	66.469001 
4450.000000	67.806077 
4449.000000	69.800519 
4448.000000	72.502207 
4447.000000	75.826072 
4446.000000	79.527449 
4445.000000	83.227872 
4444.000000	86.517739 
4443.000000	89.039778 
4442.000000	90.587139 
4441.000000	91.131949 
4440.000000	90.798497 
4439.000000	89.801549 
4438.000000	88.368844 
4437.000000	86.672401 
4436.000000	84.812140 
4435.000000	82.803559 
4434.000000	80.650615 
4433.000000	78.354597 
4432.000000	75.981783 
4431.000000	73.646783 
4430.000000	71.511435 
4429.000000	69.740438 
4428.000000	68.450093 
4427.000000	67.686390 
4426.000000	67.378830 
4425.000000	67.392134 
4424.000000	67.549324 
4423.000000	67.688822 
4422.000000	67.696619 
4421.000000	67.529058 
4420.000000	67.207264 
4419.000000	66.789698 
4418.000000	66.331577 
4417.000000	65.885519 
4416.000000	65.481662 
4415.000000	65.131354 
4414.000000	64.828705 
4413.000000	64.571166 
4412.000000	64.362454 
4411.000000	64.202713 
4410.000000	64.091587 
4409.000000	64.025759 
4408.000000	63.998913 
4407.000000	63.999938 
4406.000000	64.016199 
4405.000000	64.025592 
4404.000000	64.009523 
4403.000000	63.965058 
4402.000000	63.897943 
4401.000000	63.813662 
4400.000000	63.720726 
4399.000000	63.629889 
4398.000000	63.547801 
4397.000000	63.469791 
4396.000000	63.391590 
4395.000000	63.315296 
4394.000000	63.245177 
4393.000000	63.187503 
4392.000000	63.149762 
4391.000000	63.137817 
4390.000000	63.154911 
4389.000000	63.199687 
4388.000000	63.267540 
4387.000000	63.350987 
4386.000000	63.438963 
4385.000000	63.519644 
4384.000000	63.583970 
4383.000000	63.627457 
4382.000000	63.649654 
4381.000000	63.654589 
4380.000000	63.650059 
4379.000000	63.645243 
4378.000000	63.647413 
4377.000000	63.660883 
4376.000000	63.686442 
4375.000000	63.721489 
4374.000000	63.761949 
4373.000000	63.803148 
4372.000000	63.841938 
4371.000000	63.876652 
4370.000000	63.907170 
4369.000000	63.934803 
4368.000000	63.961267 
4367.000000	63.988375 
4366.000000	64.017057 
4365.000000	64.047908 
4364.000000	64.081168 
4363.000000	64.116263 
4362.000000	64.151906 
4361.000000	64.186072 
4360.000000	64.216423 
4359.000000	64.240598 
4358.000000	64.256453 
4357.000000	64.263010 
4356.000000	64.260292 
4355.000000	64.249825 
4354.000000	64.233684 
4353.000000	64.214420 
4352.000000	64.193558 
4351.000000	64.171743 
4350.000000	64.148020 
4349.000000	64.120244 
4348.000000	64.086294 
4347.000000	64.045023 
4346.000000	63.997316 
4345.000000	63.946175 
4344.000000	63.896918 
4343.000000	63.855838 
4342.000000	63.828706 
4341.000000	63.818812 
4340.000000	63.826465 
4339.000000	63.848710 
4338.000000	63.879919 
4337.000000	63.912892 
4336.000000	63.940787 
4335.000000	63.958597 
4334.000000	63.964176 
4333.000000	63.958930 
4332.000000	63.947391 
4331.000000	63.936281 
4330.000000	63.933014 
4329.000000	63.943862 
4328.000000	63.972711 
4327.000000	64.019823 
4326.000000	64.082407 
4325.000000	64.154410 
4324.000000	64.227962 
4323.000000	64.294457 
4322.000000	64.346528 
4321.000000	64.378619 
4320.000000	64.387679 
4319.000000	64.373564 
4318.000000	64.338946 
4317.000000	64.288592 
4316.000000	64.228653 
4315.000000	64.165520 
4314.000000	64.105558 
4313.000000	64.053726 
4312.000000	64.013433 
4311.000000	63.986229 
4310.000000	63.972115 
4309.000000	63.969922 
4308.000000	63.977932 
4307.000000	63.994264 
4306.000000	64.017319 
4305.000000	64.046120 
4304.000000	64.080405 
4303.000000	64.119887 
4302.000000	64.164400 
4301.000000	64.213275 
4300.000000	64.265799 
4299.000000	64.320349 
4298.000000	64.375138 
4297.000000	64.428400 
4296.000000	64.478325 
4295.000000	64.523601 
4294.000000	64.562916 
4293.000000	64.595699 
4292.000000	64.621281 
4291.000000	64.639377 
4290.000000	64.649558 
4289.000000	64.651679 
4288.000000	64.645624 
4287.000000	64.632105 
4286.000000	64.611697 
4285.000000	64.585137 
4284.000000	64.553546 
4283.000000	64.518642 
4282.000000	64.482188 
4281.000000	64.445900 
4280.000000	64.411902 
4279.000000	64.382529 
4278.000000	64.359951 
4277.000000	64.345765 
4276.000000	64.340591 
4275.000000	64.343810 
4274.000000	64.353251 
4273.000000	64.365768 
4272.000000	64.377021 
4271.000000	64.382791 
4270.000000	64.379858 
4269.000000	64.367127 
4268.000000	64.345288 
4267.000000	64.317512 
4266.000000	64.288496 
4265.000000	64.263987 
4264.000000	64.248800 
4263.000000	64.246773 
4262.000000	64.259457 
4261.000000	64.286661 
4260.000000	64.326119 
4259.000000	64.375066 
4258.000000	64.430594 
4257.000000	64.490628 
4256.000000	64.553785 
4255.000000	64.619255 
4254.000000	64.686179 
4253.000000	64.753222 
4252.000000	64.817929 
4251.000000	64.876747 
4250.000000	64.925265 
4249.000000	64.959621 
4248.000000	64.977097 
4247.000000	64.976835 
4246.000000	64.960098 
4245.000000	64.930868 
4244.000000	64.894437 
4243.000000	64.856672 
4242.000000	64.822745 
4241.000000	64.796590 
4240.000000	64.779925 
4239.000000	64.772891 
4238.000000	64.773821 
4237.000000	64.780521 
4236.000000	64.790153 
4235.000000	64.799976 
4234.000000	64.807796 
4233.000000	64.811873 
4232.000000	64.811372 
4231.000000	64.805984 
4230.000000	64.796304 
4229.000000	64.783287 
4228.000000	64.768457 
4227.000000	64.753699 
4226.000000	64.740777 
4225.000000	64.731216 
4224.000000	64.726328 
4223.000000	64.727139 
4222.000000	64.734315 
4221.000000	64.747881 
4220.000000	64.767718 
4219.000000	64.793229 
4218.000000	64.823174 
4217.000000	64.855813 
4216.000000	64.888906 
4215.000000	64.920091 
4214.000000	64.947056 
4213.000000	64.968132 
4212.000000	64.982295 
4211.000000	64.989852 
4210.000000	64.992475 
4209.000000	64.992427 
4208.000000	64.992308 
4207.000000	64.993858 
4206.000000	64.998149 
4205.000000	65.004801 
4204.000000	65.012598 
4203.000000	65.019655 
4202.000000	65.024137 
4201.000000	65.024948 
4200.000000	65.022206 
4199.000000	65.017104 
4198.000000	65.011596 
4197.000000	65.008187 
4196.000000	65.009021 
4195.000000	65.015196 
4194.000000	65.026330 
4193.000000	65.040707 
4192.000000	65.055751 
4191.000000	65.068268 
4190.000000	65.075707 
4189.000000	65.076851 
4188.000000	65.072464 
4187.000000	65.064668 
4186.000000	65.056824 
4185.000000	65.052461 
4184.000000	65.054273 
4183.000000	65.063524 
4182.000000	65.079641 
4181.000000	65.100574 
4180.000000	65.123009 
4179.000000	65.143561 
4178.000000	65.159201 
4177.000000	65.168333 
4176.000000	65.170478 
4175.000000	65.166258 
4174.000000	65.156602 
4173.000000	65.142369 
4172.000000	65.123963 
4171.000000	65.101242 
4170.000000	65.073919 
4169.000000	65.041851 
4168.000000	65.005517 
4167.000000	64.966344 
4166.000000	64.926505 
4165.000000	64.889049 
4164.000000	64.856767 
4163.000000	64.832568 
4162.000000	64.818787 
4161.000000	64.817547 
4160.000000	64.829969 
4159.000000	64.856386 
4158.000000	64.896106 
4157.000000	64.947199 
4156.000000	65.006089 
4155.000000	65.067815 
4154.000000	65.126061 
4153.000000	65.174293 
4152.000000	65.206599 
4151.000000	65.219259 
4150.000000	65.211272 
4149.000000	65.185308 
4148.000000	65.147161 
4147.000000	65.104556 
4146.000000	65.065670 
4145.000000	65.037298 
4144.000000	65.023517 
4143.000000	65.025115 
4142.000000	65.039706 
4141.000000	65.062570 
4140.000000	65.088033 
4139.000000	65.110874 
4138.000000	65.127372 
4137.000000	65.135812 
4136.000000	65.136647 
4135.000000	65.131449 
4134.000000	65.122795 
4133.000000	65.113043 
4132.000000	65.104055 
4131.000000	65.096664 
4130.000000	65.090942 
4129.000000	65.086603 
4128.000000	65.083503 
4127.000000	65.082073 
4126.000000	65.083456 
4125.000000	65.089154 
4124.000000	65.100908 
4123.000000	65.120077 
4122.000000	65.147137 
4121.000000	65.181183 
4120.000000	65.219998 
4119.000000	65.260219 
4118.000000	65.297651 
4117.000000	65.327739 
4116.000000	65.345978 
4115.000000	65.348839 
4114.000000	65.334248 
4113.000000	65.302491 
4112.000000	65.256452 
4111.000000	65.201449 
4110.000000	65.144920 
4109.000000	65.094780 
4108.000000	65.058183 
4107.000000	65.040016 
4106.000000	65.041756 
4105.000000	65.061497 
4104.000000	65.094447 
4103.000000	65.134286 
4102.000000	65.174555 
4101.000000	65.210270 
4100.000000	65.238499 
4099.000000	65.258884 
4098.000000	65.273022 
4097.000000	65.283703 
4096.000000	65.293622 
4095.000000	65.304446 
4094.000000	65.316319 
4093.000000	65.327906 
4092.000000	65.336728 
4091.000000	65.340089 
4090.000000	65.335845 
4089.000000	65.323233 
4088.000000	65.303039 
4087.000000	65.277314 
4086.000000	65.248870 
4085.000000	65.220832 
4084.000000	65.195941 
4083.000000	65.175938 
4082.000000	65.161609 
4081.000000	65.153074 
4080.000000	65.149807 
4079.000000	65.151309 
4078.000000	65.156888 
4077.000000	65.165781 
4076.000000	65.177226 
4075.000000	65.190267 
4074.000000	65.203881 
4073.000000	65.216612 
4072.000000	65.226912 
4071.000000	65.233445 
4070.000000	65.235042 
4069.000000	65.230894 
4068.000000	65.220665 
4067.000000	65.204453 
4066.000000	65.182781 
4065.000000	65.156698 
4064.000000	65.127706 
4063.000000	65.097880 
4062.000000	65.069532 
4061.000000	65.044879 
4060.000000	65.025925 
4059.000000	65.013694 
4058.000000	65.007805 
4057.000000	65.006375 
4056.000000	65.005946 
4055.000000	65.002870 
4054.000000	64.993596 
4053.000000	64.976668 
4052.000000	64.952468 
4051.000000	64.924287 
4050.000000	64.897203 
4049.000000	64.877533 
4048.000000	64.870929 
4047.000000	64.881324 
4046.000000	64.909839 
4045.000000	64.954519 
4044.000000	65.010428 
4043.000000	65.070939 
4042.000000	65.129184 
4041.000000	65.179371 
4040.000000	65.217828 
4039.000000	65.243744 
4038.000000	65.258932 
4037.000000	65.267181 
4036.000000	65.272927 
4035.000000	65.280199 
4034.000000	65.291166 
4033.000000	65.306329 
4032.000000	65.323710 
4031.000000	65.339565 
4030.000000	65.348863 
4029.000000	65.347003 
4028.000000	65.330648 
4027.000000	65.298509 
4026.000000	65.252089 
4025.000000	65.195345 
4024.000000	65.133881 
4023.000000	65.074014 
4022.000000	65.021562 
4021.000000	64.980936 
4020.000000	64.954113 
4019.000000	64.940810 
4018.000000	64.938449 
4017.000000	64.943122 
4016.000000	64.950108 
4015.000000	64.955019 
4014.000000	64.954423 
4013.000000	64.946246 
4012.000000	64.930438 
4011.000000	64.908719 
4010.000000	64.884114 
4009.000000	64.860343 
4008.000000	64.841461 
4007.000000	64.830923 
4006.000000	64.830946 
4005.000000	64.841794 
4004.000000	64.861488 
4003.000000	64.886403 
4002.000000	64.911532 
4001.000000	64.931941 
4000.000000	64.943623 
3999.000000	64.944553 
3998.000000	64.935255 
3997.000000	64.918613 
3996.000000	64.898967 
3995.000000	64.881038 
3994.000000	64.868879 
3993.000000	64.864706 
3992.000000	64.868426 
3991.000000	64.877772 
3990.000000	64.889478 
3989.000000	64.899635 
3988.000000	64.905071 
3987.000000	64.904046 
3986.000000	64.896583 
3985.000000	64.884042 
3984.000000	64.868569 
3983.000000	64.852523 
3982.000000	64.837884 
3981.000000	64.826059 
3980.000000	64.817643 
3979.000000	64.813089 
3978.000000	64.812779 
3977.000000	64.817190 
3976.000000	64.826822 
3975.000000	64.842081 
3974.000000	64.862990 
3973.000000	64.888763 
3972.000000	64.917635 
3971.000000	64.947366 
3970.000000	64.975190 
3969.000000	64.998364 
3968.000000	65.014314 
3967.000000	65.021586 
3966.000000	65.019178 
3965.000000	65.007019 
3964.000000	64.985489 
3963.000000	64.955902 
3962.000000	64.920306 
3961.000000	64.881563 
3960.000000	64.843320 
3959.000000	64.809751 
3958.000000	64.785075 
3957.000000	64.773130 
3956.000000	64.776039 
3955.000000	64.793729 
3954.000000	64.823651 
3953.000000	64.861440 
3952.000000	64.900970 
3951.000000	64.936184 
3950.000000	64.962172 
3949.000000	64.976692 
3948.000000	64.979910 
3947.000000	64.975094 
3946.000000	64.967346 
3945.000000	64.962863 
3944.000000	64.966797 
3943.000000	64.982676 
3942.000000	65.011644 
3941.000000	65.052318 
3940.000000	65.101695 
3939.000000	65.155434 
3938.000000	65.209102 
3937.000000	65.258479 
3936.000000	65.300297 
3935.000000	65.331864 
3934.000000	65.350890 
3933.000000	65.355515 
3932.000000	65.344548 
3931.000000	65.317535 
3930.000000	65.275216 
3929.000000	65.220117 
3928.000000	65.156388 
3927.000000	65.089583 
3926.000000	65.025281 
3925.000000	64.968538 
3924.000000	64.922308 
3923.000000	64.886975 
3922.000000	64.860463 
3921.000000	64.838457 
3920.000000	64.816188 
3919.000000	64.789652 
3918.000000	64.757394 
3917.000000	64.720344 
3916.000000	64.682722 
3915.000000	64.650273 
3914.000000	64.629602 
3913.000000	64.625668 
3912.000000	64.640951 
3911.000000	64.674448 
3910.000000	64.721798 
3909.000000	64.776301 
3908.000000	64.830160 
3907.000000	64.876294 
3906.000000	64.909291 
3905.000000	64.926338 
3904.000000	64.927268 
3903.000000	64.913988 
3902.000000	64.889645 
3901.000000	64.857959 
3900.000000	64.822244 
3899.000000	64.785361 
3898.000000	64.749979 
3897.000000	64.718437 
3896.000000	64.692664 
3895.000000	64.674258 
3894.000000	64.664578 
3893.000000	64.664220 
3892.000000	64.672565 
3891.000000	64.687919 
3890.000000	64.707422 
3889.000000	64.727926 
3888.000000	64.746212 
3887.000000	64.760208 
3886.000000	64.769196 
3885.000000	64.774274 
3884.000000	64.777350 
3883.000000	64.781308 
3882.000000	64.788913 
3881.000000	64.802050 
3880.000000	64.821243 
3879.000000	64.845395 
3878.000000	64.872097 
3877.000000	64.898204 
3876.000000	64.920806 
3875.000000	64.937615 
3874.000000	64.947700 
3873.000000	64.951825 
3872.000000	64.952182 
3871.000000	64.951920 
3870.000000	64.954066 
3869.000000	64.960527 
3868.000000	64.971327 
3867.000000	64.984631 
3866.000000	64.997196 
3865.000000	65.005278 
3864.000000	65.006065 
3863.000000	64.998173 
3862.000000	64.983224 
3861.000000	64.965486 
3860.000000	64.951324 
3859.000000	64.947462 
3858.000000	64.959454 
3857.000000	64.990162 
3856.000000	65.038704 
3855.000000	65.100455 
3854.000000	65.167832 
3853.000000	65.232276 
3852.000000	65.285778 
3851.000000	65.322756 
3850.000000	65.340971 
3849.000000	65.341687 
3848.000000	65.328812 
3847.000000	65.307593 
3846.000000	65.283799 
3845.000000	65.262055 
3844.000000	65.245366 
3843.000000	65.234279 
3842.000000	65.227770 
3841.000000	65.223050 
3840.000000	65.217018 
3839.000000	65.206360 
3838.000000	65.188431 
3837.000000	65.161657 
3836.000000	65.125489 
3835.000000	65.081143 
3834.000000	65.030932 
3833.000000	64.979004 
3832.000000	64.930152 
3831.000000	64.890003 
3830.000000	64.864039 
3829.000000	64.856505 
3828.000000	64.869689 
3827.000000	64.902997 
3826.000000	64.952778 
3825.000000	65.012216 
3824.000000	65.072417 
3823.000000	65.123534 
3822.000000	65.156841 
3821.000000	65.165901 
3820.000000	65.147876 
3819.000000	65.104436 
3818.000000	65.041446 
3817.000000	64.967870 
3816.000000	64.894056 
3815.000000	64.829635 
3814.000000	64.781761 
3813.000000	64.754414 
3812.000000	64.747643 
3811.000000	64.758372 
3810.000000	64.781451 
3809.000000	64.811134 
3808.000000	64.842367 
3807.000000	64.871335 
3806.000000	64.896297 
3805.000000	64.916563 
3804.000000	64.933037 
3803.000000	64.946722 
3802.000000	64.958691 
3801.000000	64.969515 
3800.000000	64.979171 
3799.000000	64.987134 
3798.000000	64.992594 
3797.000000	64.994955 
3796.000000	64.994072 
3795.000000	64.990329 
3794.000000	64.984560 
3793.000000	64.978051 
3792.000000	64.972400 
3791.000000	64.969301 
3790.000000	64.970064 
3789.000000	64.975500 
3788.000000	64.985895 
3787.000000	65.000820 
3786.000000	65.019392 
3785.000000	65.040469 
3784.000000	65.062713 
3783.000000	65.084695 
3782.000000	65.105462 
3781.000000	65.123867 
3780.000000	65.138816 
3779.000000	65.148973 
3778.000000	65.152859 
3777.000000	65.149116 
3776.000000	65.137195 
3775.000000	65.117096 
3774.000000	65.090084 
3773.000000	65.058207 
3772.000000	65.024209 
3771.000000	64.990878 
3770.000000	64.960646 
3769.000000	64.934992 
3768.000000	64.914345 
3767.000000	64.898157 
3766.000000	64.885282 
3765.000000	64.874339 
3764.000000	64.864277 
3763.000000	64.854574 
3762.000000	64.845514 
3761.000000	64.837908 
3760.000000	64.832925 
3759.000000	64.831423 
3758.000000	64.833807 
3757.000000	64.839625 
3756.000000	64.847540 
3755.000000	64.855575 
3754.000000	64.861655 
3753.000000	64.863777 
3752.000000	64.860725 
3751.000000	64.852166 
3750.000000	64.839076 
3749.000000	64.823412 
3748.000000	64.807868 
3747.000000	64.795303 
3746.000000	64.788436 
3745.000000	64.789080 
3744.000000	64.797973 
3743.000000	64.814567 
3742.000000	64.836978 
3741.000000	64.862537 
3740.000000	64.888072 
3739.000000	64.910745 
3738.000000	64.928245 
3737.000000	64.939355 
3736.000000	64.944124 
3735.000000	64.943957 
3734.000000	64.940857 
3733.000000	64.937162 
3732.000000	64.935255 
3731.000000	64.937162 
3730.000000	64.944076 
3729.000000	64.956402 
3728.000000	64.973855 
3727.000000	64.995455 
3726.000000	65.019989 
3725.000000	65.045833 
3724.000000	65.071249 
3723.000000	65.094351 
3722.000000	65.113568 
3721.000000	65.127491 
3720.000000	65.135121 
3719.000000	65.135931 
3718.000000	65.130043 
3717.000000	65.118265 
3716.000000	65.102171 
3715.000000	65.083765 
3714.000000	65.065217 
3713.000000	65.048789 
3712.000000	65.036630 
3711.000000	65.030550 
3710.000000	65.032243 
3709.000000	65.042924 
3708.000000	65.063190 
3707.000000	65.092945 
3706.000000	65.131115 
3705.000000	65.175318 
3704.000000	65.222096 
3703.000000	65.267109 
3702.000000	65.305471 
3701.000000	65.332460 
3700.000000	65.344262 
3699.000000	65.338540 
3698.000000	65.314793 
3697.000000	65.274786 
3696.000000	65.222477 
3695.000000	65.163612 
3694.000000	65.104460 
3693.000000	65.051245 
3692.000000	65.009093 
3691.000000	64.981651 
3690.000000	64.970302 
3689.000000	64.973998 
3688.000000	64.989852 
3687.000000	65.013694 
3686.000000	65.040946 
3685.000000	65.067553 
3684.000000	65.090870 
3683.000000	65.109944 
3682.000000	65.125417 
3681.000000	65.139055 
3680.000000	65.152573 
3679.000000	65.167307 
3678.000000	65.183210 
3677.000000	65.199208 
3676.000000	65.213513 
3675.000000	65.224075 
3674.000000	65.229797 
3673.000000	65.230202 
3672.000000	65.226173 
3671.000000	65.218901 
3670.000000	65.209841 
3669.000000	65.199542 
3668.000000	65.187478 
3667.000000	65.171933 
3666.000000	65.150856 
3665.000000	65.122485 
3664.000000	65.086269 
3663.000000	65.043663 
3662.000000	64.998292 
3661.000000	64.954972 
3660.000000	64.918828 
3659.000000	64.894032 
3658.000000	64.882874 
3657.000000	64.885711 
3656.000000	64.900994 
3655.000000	64.925503 
3654.000000	64.955496 
3653.000000	64.987397 
3652.000000	65.018510 
3651.000000	65.046691 
3650.000000	65.070962 
3649.000000	65.091085 
3648.000000	65.107679 
3647.000000	65.121579 
3646.000000	65.133857 
3645.000000	65.145468 
3644.000000	65.157294 
3643.000000	65.170192 
3642.000000	65.184473 
3641.000000	65.200161 
3640.000000	65.216493 
3639.000000	65.232539 
3638.000000	65.246868 
3637.000000	65.258145 
3636.000000	65.265130 
3635.000000	65.267086 
3634.000000	65.263485 
3633.000000	65.254044 
3632.000000	65.238714 
3631.000000	65.217924 
3630.000000	65.192317 
3629.000000	65.162682 
3628.000000	65.130448 
3627.000000	65.097141 
3626.000000	65.064048 
3625.000000	65.032076 
3624.000000	65.001606 
3623.000000	64.972972 
3622.000000	64.946508 
3621.000000	64.923357 
3620.000000	64.904785 
3619.000000	64.892816 
3618.000000	64.889717 
3617.000000	64.897203 
3616.000000	64.915728 
3615.000000	64.943790 
3614.000000	64.978003 
3613.000000	65.013337 
3612.000000	65.043830 
3611.000000	65.064406 
3610.000000	65.071868 
3609.000000	65.065932 
3608.000000	65.049171 
3607.000000	65.026569 
3606.000000	65.004253 
3605.000000	64.988279 
3604.000000	64.983201 
3603.000000	64.991450 
3602.000000	65.012645 
3601.000000	65.044689 
3600.000000	65.083694 
3599.000000	65.125179 
3598.000000	65.164422 
3597.000000	65.197372 
3596.000000	65.220904 
3595.000000	65.232825 
3594.000000	65.232324 
3593.000000	65.219759 
3592.000000	65.196752 
3591.000000	65.166401 
3590.000000	65.132141 
3589.000000	65.097904 
3588.000000	65.066719 
3587.000000	65.040540 
3586.000000	65.019583 
3585.000000	65.002465 
3584.000000	64.987301 
3583.000000	64.972472 
3582.000000	64.957618 
3581.000000	64.943814 
3580.000000	64.933991 
3579.000000	64.931774 
3578.000000	64.940381 
3577.000000	64.961481 
3576.000000	64.994525 
3575.000000	65.036320 
3574.000000	65.081954 
3573.000000	65.125656 
3572.000000	65.162229 
3571.000000	65.187883 
3570.000000	65.201258 
3569.000000	65.202903 
3568.000000	65.194964 
3567.000000	65.179896 
3566.000000	65.159845 
3565.000000	65.136003 
3564.000000	65.109109 
3563.000000	65.079426 
3562.000000	65.047907 
3561.000000	65.015745 
3560.000000	64.984893 
3559.000000	64.957523 
3558.000000	64.935564 
3557.000000	64.920473 
3556.000000	64.912533 
3555.000000	64.911270 
3554.000000	64.915299 
3553.000000	64.923167 
3552.000000	64.933466 
3551.000000	64.945292 
3550.000000	64.958333 
3549.000000	64.972591 
3548.000000	64.988231 
3547.000000	65.005087 
3546.000000	65.022540 
3545.000000	65.039587 
3544.000000	65.054917 
3543.000000	65.067338 
3542.000000	65.075969 
3541.000000	65.080857 
3540.000000	65.082621 
3539.000000	65.082383 
3538.000000	65.081429 
3537.000000	65.080952 
3536.000000	65.081524 
3535.000000	65.083312 
3534.000000	65.085482 
3533.000000	65.086555 
3532.000000	65.084671 
3531.000000	65.078163 
3530.000000	65.065765 
3529.000000	65.047168 
3528.000000	65.023064 
3527.000000	64.995121 
3526.000000	64.966130 
3525.000000	64.939236 
3524.000000	64.917683 
3523.000000	64.904046 
3522.000000	64.900040 
3521.000000	64.905929 
3520.000000	64.920663 
3519.000000	64.941954 
3518.000000	64.966821 
3517.000000	64.992380 
3516.000000	65.015983 
3515.000000	65.035891 
3514.000000	65.051317 
3513.000000	65.062308 
3512.000000	65.069580 
3511.000000	65.074086 
3510.000000	65.076828 
3509.000000	65.078330 
3508.000000	65.079021 
3507.000000	65.078687 
3506.000000	65.076923 
3505.000000	65.072917 
3504.000000	65.066075 
3503.000000	65.055727 
3502.000000	65.041446 
3501.000000	65.023064 
3500.000000	65.000867 
3499.000000	64.975571 
3498.000000	64.948511 
3497.000000	64.921426 
3496.000000	64.896249 
3495.000000	64.875173 
3494.000000	64.860248 
3493.000000	64.852929 
3492.000000	64.853930 
3491.000000	64.862847 
3490.000000	64.878535 
3489.000000	64.898896 
3488.000000	64.921784 
3487.000000	64.945173 
3486.000000	64.967846 
3485.000000	64.988994 
3484.000000	65.008473 
3483.000000	65.026473 
3482.000000	65.043473 
3481.000000	65.059423 
3480.000000	65.074229 
3479.000000	65.087580 
3478.000000	65.099215 
3477.000000	65.109276 
3476.000000	65.117812 
3475.000000	65.125250 
3474.000000	65.131545 
3473.000000	65.136551 
3472.000000	65.139150 
3471.000000	65.137529 
3470.000000	65.129756 
3469.000000	65.114450 
3468.000000	65.091347 
3467.000000	65.061521 
3466.000000	65.028023 
3465.000000	64.994835 
3464.000000	64.966177 
3463.000000	64.945363 
3462.000000	64.933824 
3461.000000	64.930939 
3460.000000	64.934420 
3459.000000	64.940690 
3458.000000	64.946103 
3457.000000	64.947676 
3456.000000	64.943909 
3455.000000	64.934682 
3454.000000	64.920973 
3453.000000	64.904499 
3452.000000	64.886784 
3451.000000	64.869284 
3450.000000	64.852762 
3449.000000	64.837932 
3448.000000	64.825654 
3447.000000	64.817380 
3446.000000	64.815092 
3445.000000	64.820861 
3444.000000	64.836525 
3443.000000	64.862799 
3442.000000	64.898705 
3441.000000	64.941692 
3440.000000	64.987444 
3439.000000	65.030980 
3438.000000	65.067076 
3437.000000	65.091323 
3436.000000	65.100717 
3435.000000	65.094113 
3434.000000	65.072536 
3433.000000	65.038776 
3432.000000	64.997124 
3431.000000	64.952659 
3430.000000	64.910793 
3429.000000	64.876270 
3428.000000	64.852666 
3427.000000	64.842200 
3426.000000	64.845418 
3425.000000	64.861249 
3424.000000	64.887261 
3423.000000	64.920067 
3422.000000	64.955854 
3421.000000	64.990949 
3420.000000	65.022325 
3419.000000	65.047883 
3418.000000	65.066599 
3417.000000	65.078234 
3416.000000	65.083408 
3415.000000	65.083098 
3414.000000	65.078401 
3413.000000	65.070080 
3412.000000	65.058803 
3411.000000	65.044784 
3410.000000	65.028023 
3409.000000	65.008306 
3408.000000	64.985442 
3407.000000	64.959430 
3406.000000	64.930915 
3405.000000	64.900898 
3404.000000	64.870905 
3403.000000	64.842772 
3402.000000	64.818286 
3401.000000	64.799070 
3400.000000	64.786195 
3399.000000	64.780020 
3398.000000	64.780139 
3397.000000	64.785552 
3396.000000	64.794564 
3395.000000	64.805555 
3394.000000	64.816856 
3393.000000	64.827442 
3392.000000	64.836621 
3391.000000	64.844846 
3390.000000	64.853382 
3389.000000	64.863991 
3388.000000	64.878535 
3387.000000	64.898562 
3386.000000	64.924740 
3385.000000	64.956498 
3384.000000	64.991879 
3383.000000	65.027618 
3382.000000	65.059661 
3381.000000	65.083980 
3380.000000	65.097355 
3379.000000	65.098142 
3378.000000	65.086531 
3377.000000	65.064859 
3376.000000	65.036725 
3375.000000	65.006303 
3374.000000	64.977312 
3373.000000	64.952540 
3372.000000	64.933156 
3371.000000	64.918708 
3370.000000	64.907550 
3369.000000	64.897799 
3368.000000	64.887857 
3367.000000	64.877080 
3366.000000	64.865970 
3365.000000	64.855885 
3364.000000	64.848875 
3363.000000	64.846754 
3362.000000	64.850735 
3361.000000	64.860796 
3360.000000	64.875936 
3359.000000	64.894056 
3358.000000	64.912629 
3357.000000	64.928913 
3356.000000	64.940428 
3355.000000	64.945268 
3354.000000	64.942288 
3353.000000	64.931511 
3352.000000	64.914011 
3351.000000	64.891958 
3350.000000	64.868307 
3349.000000	64.846467 
3348.000000	64.829754 
3347.000000	64.820575 
3346.000000	64.820289 
3345.000000	64.828705 
3344.000000	64.844179 
3343.000000	64.864015 
3342.000000	64.884877 
3341.000000	64.903736 
3340.000000	64.918136 
3339.000000	64.926886 
3338.000000	64.929986 
3337.000000	64.928531 
3336.000000	64.924168 
3335.000000	64.918732 
3334.000000	64.913845 
3333.000000	64.910364 
3332.000000	64.908456 
3331.000000	64.907884 
3330.000000	64.908266 
3329.000000	64.909315 
3328.000000	64.911150 
3327.000000	64.914321 
3326.000000	64.919662 
3325.000000	64.928269 
3324.000000	64.940834 
3323.000000	64.957499 
3322.000000	64.977264 
3321.000000	64.998435 
3320.000000	65.017986 
3319.000000	65.032815 
3318.000000	65.039491 
3317.000000	65.035271 
3316.000000	65.018606 
3315.000000	64.989757 
3314.000000	64.950752 
3313.000000	64.905261 
3312.000000	64.858436 
3311.000000	64.815855 
3310.000000	64.783024 
3309.000000	64.764523 
3308.000000	64.763164 
3307.000000	64.779472 
3306.000000	64.811754 
3305.000000	64.856171 
3304.000000	64.907383 
3303.000000	64.959383 
3302.000000	65.006113 
3301.000000	65.042805 
3300.000000	65.066146 
3299.000000	65.074801 
3298.000000	65.069413 
3297.000000	65.052342 
3296.000000	65.027093 
3295.000000	64.997553 
3294.000000	64.967560 
3293.000000	64.940214 
3292.000000	64.917993 
3291.000000	64.902210 
3290.000000	64.893364 
3289.000000	64.891052 
3288.000000	64.894390 
3287.000000	64.901852 
3286.000000	64.911365 
3285.000000	64.920592 
3284.000000	64.927196 
3283.000000	64.929294 
3282.000000	64.925622 
3281.000000	64.916181 
3280.000000	64.901995 
3279.000000	64.885067 
3278.000000	64.867901 
3277.000000	64.853000 
3276.000000	64.842247 
3275.000000	64.836788 
3274.000000	64.836740 
3273.000000	64.841294 
3272.000000	64.849162 
3271.000000	64.859318 
3270.000000	64.871120 
3269.000000	64.884424 
3268.000000	64.899587 
3267.000000	64.917302 
3266.000000	64.938426 
3265.000000	64.963126 
3264.000000	64.991259 
3263.000000	65.022230 
3262.000000	65.055036 
3261.000000	65.088582 
3260.000000	65.121722 
3259.000000	65.153527 
3258.000000	65.182876 
3257.000000	65.208625 
3256.000000	65.229511 
3255.000000	65.244197 
3254.000000	65.251517 
3253.000000	65.250730 
3252.000000	65.241885 
3251.000000	65.225911 
3250.000000	65.204668 
3249.000000	65.180754 
3248.000000	65.157055 
3247.000000	65.135765 
3246.000000	65.118479 
3245.000000	65.105414 
3244.000000	65.095782 
3243.000000	65.087747 
3242.000000	65.079188 
3241.000000	65.068030 
3240.000000	65.052962 
3239.000000	65.033316 
3238.000000	65.009260 
3237.000000	64.981627 
3236.000000	64.951658 
3235.000000	64.920783 
3234.000000	64.890170 
3233.000000	64.860677 
3232.000000	64.833092 
3231.000000	64.808011 
3230.000000	64.785933 
3229.000000	64.767479 
3228.000000	64.753389 
3227.000000	64.744400 
3226.000000	64.740920 
3225.000000	64.743208 
3224.000000	64.751219 
3223.000000	64.764237 
3222.000000	64.781069 
3221.000000	64.800167 
3220.000000	64.819693 
3219.000000	64.837718 
3218.000000	64.852547 
3217.000000	64.862871 
3216.000000	64.868044 
3215.000000	64.868259 
3214.000000	64.864611 
3213.000000	64.858484 
3212.000000	64.851903 
3211.000000	64.847064 
3210.000000	64.845871 
3209.000000	64.849877 
3208.000000	64.859724 
3207.000000	64.875531 
3206.000000	64.896512 
3205.000000	64.920997 
3204.000000	64.946818 
3203.000000	64.971637 
3202.000000	64.993023 
3201.000000	65.008902 
3200.000000	65.017819 
3199.000000	65.019202 
3198.000000	65.013289 
3197.000000	65.001058 
3196.000000	64.984130 
3195.000000	64.964175 
3194.000000	64.942884 
3193.000000	64.921569 
3192.000000	64.901089 
3191.000000	64.881849 
3190.000000	64.864230 
3189.000000	64.848446 
3188.000000	64.835000 
3187.000000	64.824557 
3186.000000	64.818215 
3185.000000	64.817261 
3184.000000	64.822363 
3183.000000	64.833950 
3182.000000	64.851737 
3181.000000	64.874720 
3180.000000	64.901232 
3179.000000	64.929223 
3178.000000	64.956593 
3177.000000	64.981627 
3176.000000	65.002965 
3175.000000	65.019822 
3174.000000	65.032052 
3173.000000	65.039753 
3172.000000	65.043163 
3171.000000	65.042519 
3170.000000	65.037870 
3169.000000	65.029287 
3168.000000	65.016889 
3167.000000	65.000915 
3166.000000	64.981865 
3165.000000	64.960813 
3164.000000	64.938879 
3163.000000	64.917445 
3162.000000	64.897513 
3161.000000	64.879727 
3160.000000	64.864134 
3159.000000	64.850187 
3158.000000	64.836955 
3157.000000	64.823365 
3156.000000	64.808678 
3155.000000	64.792704 
3154.000000	64.775991 
3153.000000	64.759564 
3152.000000	64.744925 
3151.000000	64.733409 
3150.000000	64.726018 
3149.000000	64.722943 
3148.000000	64.723539 
3147.000000	64.726734 
3146.000000	64.731311 
3145.000000	64.736104 
3144.000000	64.741015 
3143.000000	64.746665 
3142.000000	64.754462 
3141.000000	64.765977 
3140.000000	64.782285 
3139.000000	64.803314 
3138.000000	64.827656 
3137.000000	64.852547 
3136.000000	64.874386 
3135.000000	64.889717 
3134.000000	64.896082 
3133.000000	64.892649 
3132.000000	64.880323 
3131.000000	64.861679 
3130.000000	64.840555 
3129.000000	64.820814 
3128.000000	64.805412 
3127.000000	64.795875 
3126.000000	64.792466 
3125.000000	64.793825 
3124.000000	64.797735 
3123.000000	64.801907 
3122.000000	64.804625 
3121.000000	64.804983 
3120.000000	64.802837 
3119.000000	64.798736 
3118.000000	64.793610 
3117.000000	64.788293 
3116.000000	64.783334 
3115.000000	64.779114 
3114.000000	64.775466 
3113.000000	64.772248 
3112.000000	64.769268 
3111.000000	64.766335 
3110.000000	64.763355 
3109.000000	64.760231 
3108.000000	64.757061 
3107.000000	64.753508 
3106.000000	64.749717 
3105.000000	64.745879 
3104.000000	64.742827 
3103.000000	64.741492 
3102.000000	64.743256 
3101.000000	64.749717 
3100.000000	64.762258 
3099.000000	64.781808 
3098.000000	64.808368 
3097.000000	64.840865 
3096.000000	64.877223 
3095.000000	64.914774 
3094.000000	64.950275 
3093.000000	64.980411 
3092.000000	65.002322 
3091.000000	65.014171 
3090.000000	65.015006 
3089.000000	65.005064 
3088.000000	64.985775 
3087.000000	64.959430 
3086.000000	64.929199 
3085.000000	64.898157 
3084.000000	64.869403 
3083.000000	64.845252 
3082.000000	64.826679 
3081.000000	64.813399 
3080.000000	64.803814 
3079.000000	64.795708 
3078.000000	64.786529 
3077.000000	64.774465 
3076.000000	64.758586 
3075.000000	64.739418 
3074.000000	64.718604 
3073.000000	64.698886 
3072.000000	64.682984 
3071.000000	64.673447 
3070.000000	64.671993 
3069.000000	64.679431 
3068.000000	64.695358 
3067.000000	64.718818 
3066.000000	64.748382 
3065.000000	64.782142 
3064.000000	64.818096 
3063.000000	64.854192 
3062.000000	64.888334 
3061.000000	64.918327 
3060.000000	64.942169 
3059.000000	64.958763 
3058.000000	64.968037 
3057.000000	64.971399 
3056.000000	64.971137 
3055.000000	64.970350 
3054.000000	64.971613 
3053.000000	64.976906 
3052.000000	64.986538 
3051.000000	64.999103 
3050.000000	65.011644 
3049.000000	65.020895 
3048.000000	65.023636 
3047.000000	65.018033 
3046.000000	65.003967 
3045.000000	64.983415 
3044.000000	64.959597 
3043.000000	64.936232 
3042.000000	64.916396 
3041.000000	64.901924 
3040.000000	64.892578 
3039.000000	64.886617 
3038.000000	64.881062 
3037.000000	64.872765 
3036.000000	64.859485 
3035.000000	64.840555 
3034.000000	64.816999 
3033.000000	64.791417 
3032.000000	64.767456 
3031.000000	64.749050 
3030.000000	64.739084 
3029.000000	64.738893 
3028.000000	64.748048 
3027.000000	64.764571 
3026.000000	64.785289 
3025.000000	64.806699 
3024.000000	64.826035 
3023.000000	64.841675 
3022.000000	64.853525 
3021.000000	64.862608 
3020.000000	64.870762 
3019.000000	64.879679 
3018.000000	64.890193 
3017.000000	64.902019 
3016.000000	64.913487 
3015.000000	64.921927 
3014.000000	64.924502 
3013.000000	64.918684 
3012.000000	64.903235 
3011.000000	64.878559 
3010.000000	64.846897 
3009.000000	64.811682 
3008.000000	64.777112 
3007.000000	64.747071 
3006.000000	64.724683 
3005.000000	64.711618 
3004.000000	64.708113 
3003.000000	64.713120 
3002.000000	64.724659 
3001.000000	64.740395 
3000.000000	64.758086 
2999.000000	64.775753 
2998.000000	64.792132 
2997.000000	64.806270 
2996.000000	64.817619 
2995.000000	64.825415 
2994.000000	64.828896 
2993.000000	64.827299 
2992.000000	64.819741 
2991.000000	64.805674 
2990.000000	64.785385 
2989.000000	64.760231 
2988.000000	64.732718 
2987.000000	64.706110 
2986.000000	64.683914 
2985.000000	64.669227 
2984.000000	64.663910 
2983.000000	64.668202 
2982.000000	64.680790 
2981.000000	64.699149 
2980.000000	64.720010 
2979.000000	64.740133 
2978.000000	64.757013 
2977.000000	64.769339 
2976.000000	64.777064 
2975.000000	64.781117 
2974.000000	64.782905 
2973.000000	64.783573 
2972.000000	64.783740 
2971.000000	64.783287 
2970.000000	64.781475 
2969.000000	64.776921 
2968.000000	64.768433 
2967.000000	64.755177 
2966.000000	64.737057 
2965.000000	64.714837 
2964.000000	64.689993 
2963.000000	64.664697 
2962.000000	64.641404 
2961.000000	64.622449 
2960.000000	64.609622 
2959.000000	64.603734 
2958.000000	64.604306 
2957.000000	64.609551 
2956.000000	64.616966 
2955.000000	64.623475 
2954.000000	64.626550 
2953.000000	64.624619 
2952.000000	64.617514 
2951.000000	64.606571 
2950.000000	64.594316 
2949.000000	64.583730 
2948.000000	64.577388 
2947.000000	64.577054 
2946.000000	64.582824 
2945.000000	64.593362 
2944.000000	64.606142 
2943.000000	64.618468 
2942.000000	64.628148 
2941.000000	64.633965 
2940.000000	64.636039 
2939.000000	64.635467 
2938.000000	64.634084 
2937.000000	64.633536 
2936.000000	64.635038 
2935.000000	64.638924 
2934.000000	64.644718 
2933.000000	64.651346 
2932.000000	64.657378 
2931.000000	64.661455 
2930.000000	64.662575 
2929.000000	64.660525 
2928.000000	64.655756 
2927.000000	64.649224 
2926.000000	64.642310 
2925.000000	64.636397 
2924.000000	64.632534 
2923.000000	64.631056 
2922.000000	64.631772 
2921.000000	64.633727 
2920.000000	64.635443 
2919.000000	64.635443 
2918.000000	64.632391 
2917.000000	64.625692 
2916.000000	64.615201 
2915.000000	64.601731 
2914.000000	64.586544 
2913.000000	64.571547 
2912.000000	64.558768 
2911.000000	64.550089 
2910.000000	64.546632 
2909.000000	64.548850 
2908.000000	64.556455 
2907.000000	64.568495 
2906.000000	64.583492 
2905.000000	64.600062 
2904.000000	64.616942 
2903.000000	64.633393 
2902.000000	64.649057 
2901.000000	64.663553 
2900.000000	64.676618 
2899.000000	64.687538 
2898.000000	64.695549 
2897.000000	64.699673 
2896.000000	64.699411 
2895.000000	64.695024 
2894.000000	64.687657 
2893.000000	64.679193 
2892.000000	64.671802 
2891.000000	64.667677 
2890.000000	64.667916 
2889.000000	64.672708 
2888.000000	64.680480 
2887.000000	64.688634 
2886.000000	64.693808 
2885.000000	64.692735 
2884.000000	64.683055 
2883.000000	64.663767 
2882.000000	64.635634 
2881.000000	64.601206 
2880.000000	64.564299 
2879.000000	64.529061 
2878.000000	64.499497 
2877.000000	64.478754 
2876.000000	64.468574 
2875.000000	64.469194 
2874.000000	64.479660 
2873.000000	64.498043 
2872.000000	64.521861 
2871.000000	64.548468 
2870.000000	64.575505 
2869.000000	64.601278 
2868.000000	64.624524 
2867.000000	64.644598 
2866.000000	64.661335 
2865.000000	64.674997 
2864.000000	64.686083 
2863.000000	64.694905 
2862.000000	64.701867 
2861.000000	64.706492 
2860.000000	64.708399 
2859.000000	64.706230 
2858.000000	64.698410 
2857.000000	64.683222 
2856.000000	64.659738 
2855.000000	64.628005 
2854.000000	64.589643 
2853.000000	64.547944 
2852.000000	64.507436 
2851.000000	64.473104 
2850.000000	64.449286 
2849.000000	64.439034 
2848.000000	64.443230 
2847.000000	64.460301 
2846.000000	64.486622 
2845.000000	64.517474 
2844.000000	64.547944 
2843.000000	64.574122 
2842.000000	64.593791 
2841.000000	64.606499 
2840.000000	64.613509 
2839.000000	64.616942 
2838.000000	64.619278 
2837.000000	64.622330 
2836.000000	64.626979 
2835.000000	64.633440 
2834.000000	64.641213 
2833.000000	64.649891 
2832.000000	64.658856 
2831.000000	64.667987 
2830.000000	64.677262 
2829.000000	64.686703 
2828.000000	64.696192 
2827.000000	64.705395 
2826.000000	64.713716 
2825.000000	64.720749 
2824.000000	64.726281 
2823.000000	64.730453 
2822.000000	64.734101 
2821.000000	64.738440 
2820.000000	64.744639 
2819.000000	64.753460 
2818.000000	64.765095 
2817.000000	64.779019 
2816.000000	64.793944 
2815.000000	64.808106 
2814.000000	64.819812 
2813.000000	64.827561 
2812.000000	64.830708 
2811.000000	64.829087 
2810.000000	64.823198 
2809.000000	64.813637 
2808.000000	64.801239 
2807.000000	64.786577 
2806.000000	64.770102 
2805.000000	64.752197 
2804.000000	64.733386 
2803.000000	64.714384 
2802.000000	64.696264 
2801.000000	64.680385 
2800.000000	64.668130 
2799.000000	64.660716 
2798.000000	64.658737 
2797.000000	64.662218 
2796.000000	64.670395 
2795.000000	64.682149 
2794.000000	64.695978 
2793.000000	64.710545 
2792.000000	64.724683 
2791.000000	64.737606 
2790.000000	64.748764 
2789.000000	64.757919 
2788.000000	64.764761 
2787.000000	64.769077 
2786.000000	64.770507 
2785.000000	64.768791 
2784.000000	64.763784 
2783.000000	64.755773 
2782.000000	64.745426 
2781.000000	64.733886 
2780.000000	64.722323 
2779.000000	64.712047 
2778.000000	64.703822 
2777.000000	64.697909 
2776.000000	64.694142 
2775.000000	64.691996 
2774.000000	64.691305 
2773.000000	64.692306 
2772.000000	64.696073 
2771.000000	64.704132 
2770.000000	64.718055 
2769.000000	64.738726 
2768.000000	64.765763 
2767.000000	64.797210 
2766.000000	64.829587 
2765.000000	64.858651 
2764.000000	64.880037 
2763.000000	64.890480 
2762.000000	64.888572 
2761.000000	64.875149 
2760.000000	64.853191 
2759.000000	64.826917 
2758.000000	64.801073 
2757.000000	64.779758 
2756.000000	64.765548 
2755.000000	64.759254 
2754.000000	64.759826 
2753.000000	64.764928 
2752.000000	64.771819 
2751.000000	64.778017 
2750.000000	64.781832 
2749.000000	64.782667 
2748.000000	64.780902 
2747.000000	64.777588 
2746.000000	64.773893 
2745.000000	64.770889 
2744.000000	64.769148 
2743.000000	64.768600 
2742.000000	64.768767 
2741.000000	64.768791 
2740.000000	64.767789 
2739.000000	64.765214 
2738.000000	64.761018 
2737.000000	64.755487 
2736.000000	64.749336 
2735.000000	64.743638 
2734.000000	64.739561 
2733.000000	64.738202 
2732.000000	64.740443 
2731.000000	64.746999 
2730.000000	64.758086 
2729.000000	64.773631 
2728.000000	64.792752 
2727.000000	64.813899 
2726.000000	64.835071 
2725.000000	64.853930 
2724.000000	64.868307 
2723.000000	64.876604 
2722.000000	64.878058 
2721.000000	64.873075 
2720.000000	64.863181 
2719.000000	64.850783 
2718.000000	64.838385 
2717.000000	64.828324 
2716.000000	64.821815 
2715.000000	64.819025 
2714.000000	64.818644 
2713.000000	64.818596 
2712.000000	64.816546 
2711.000000	64.810633 
2710.000000	64.799785 
2709.000000	64.784216 
2708.000000	64.765238 
2707.000000	64.744997 
2706.000000	64.725899 
2705.000000	64.710307 
2704.000000	64.700031 
2703.000000	64.696335 
2702.000000	64.699721 
2701.000000	64.709711 
2700.000000	64.725089 
2699.000000	64.743828 
2698.000000	64.763307 
2697.000000	64.780807 
2696.000000	64.793944 
2695.000000	64.801049 
2694.000000	64.801359 
2693.000000	64.795255 
2692.000000	64.784216 
2691.000000	64.770317 
2690.000000	64.755845 
2689.000000	64.742517 
2688.000000	64.731264 
2687.000000	64.722013 
2686.000000	64.714002 
2685.000000	64.706087 
2684.000000	64.697360 
2683.000000	64.687609 
2682.000000	64.677619 
2681.000000	64.668536 
2680.000000	64.661931 
2679.000000	64.659023 
2678.000000	64.660429 
2677.000000	64.665842 
2676.000000	64.674091 
2675.000000	64.683556 
2674.000000	64.692378 
2673.000000	64.698863 
2672.000000	64.701581 
2671.000000	64.699888 
2670.000000	64.693737 
2669.000000	64.683604 
2668.000000	64.670300 
2667.000000	64.654803 
2666.000000	64.638257 
2665.000000	64.621806 
2664.000000	64.606714 
2663.000000	64.593982 
2662.000000	64.584636 
2661.000000	64.579582 
2660.000000	64.579415 
2659.000000	64.584541 
2658.000000	64.595103 
2657.000000	64.610958 
2656.000000	64.631557 
2655.000000	64.656019 
2654.000000	64.683079 
2653.000000	64.710998 
2652.000000	64.737677 
2651.000000	64.760947 
2650.000000	64.779019 
2649.000000	64.790678 
2648.000000	64.795565 
2647.000000	64.794373 
2646.000000	64.788341 
2645.000000	64.779257 
2644.000000	64.769029 
2643.000000	64.759111 
2642.000000	64.750719 
2641.000000	64.744186 
2640.000000	64.739418 
2639.000000	64.735889 
2638.000000	64.732956 
2637.000000	64.730095 
2636.000000	64.726996 
2635.000000	64.723515 
2634.000000	64.719963 
2633.000000	64.716577 
2632.000000	64.713716 
2631.000000	64.711499 
2630.000000	64.709830 
2629.000000	64.708542 
2628.000000	64.707159 
2627.000000	64.705085 
2626.000000	64.701604 
2625.000000	64.696049 
2624.000000	64.688086 
2623.000000	64.677739 
2622.000000	64.665460 
2621.000000	64.652180 
2620.000000	64.638972 
2619.000000	64.627075 
2618.000000	64.617323 
2617.000000	64.610075 
2616.000000	64.605021 
2615.000000	64.601302 
2614.000000	64.597630 
2613.000000	64.592647 
2612.000000	64.585375 
2611.000000	64.575314 
2610.000000	64.562749 
2609.000000	64.548635 
2608.000000	64.534497 
2607.000000	64.522099 
2606.000000	64.513039 
2605.000000	64.508438 
2604.000000	64.508819 
2603.000000	64.513874 
2602.000000	64.522719 
2601.000000	64.534115 
2600.000000	64.546608 
2599.000000	64.559102 
2598.000000	64.570760 
2597.000000	64.581131 
2596.000000	64.590024 
2595.000000	64.597439 
2594.000000	64.603471 
2593.000000	64.608192 
2592.000000	64.611721 
2591.000000	64.614248 
2590.000000	64.616131 
2589.000000	64.617800 
2588.000000	64.619827 
2587.000000	64.622616 
2586.000000	64.626717 
2585.000000	64.632320 
2584.000000	64.639353 
2583.000000	64.647412 
2582.000000	64.655876 
2581.000000	64.663982 
2580.000000	64.671087 
2579.000000	64.676570 
2578.000000	64.679932 
2577.000000	64.680767 
2576.000000	64.678835 
2575.000000	64.674019 
2574.000000	64.666271 
2573.000000	64.655828 
2572.000000	64.643049 
2571.000000	64.628720 
2570.000000	64.613819 
2569.000000	64.599680 
2568.000000	64.587521 
2567.000000	64.578342 
2566.000000	64.572763 
2565.000000	64.570832 
2564.000000	64.572167 
2563.000000	64.575791 
2562.000000	64.580750 
2561.000000	64.586043 
2560.000000	64.590835 
2559.000000	64.594721 
2558.000000	64.597320 
2557.000000	64.598441 
2556.000000	64.597725 
2555.000000	64.594650 
2554.000000	64.588499 
2553.000000	64.578604 
2552.000000	64.564514 
2551.000000	64.546322 
2550.000000	64.524936 
2549.000000	64.501929 
2548.000000	64.479565 
2547.000000	64.460253 
2546.000000	64.446282 
2545.000000	64.439320 
2544.000000	64.440083 
2543.000000	64.448451 
2542.000000	64.463090 
2541.000000	64.482164 
2540.000000	64.503479 
2539.000000	64.525103 
2538.000000	64.545512 
2537.000000	64.563751 
2536.000000	64.579582 
2535.000000	64.592957 
2534.000000	64.603948 
2533.000000	64.612579 
2532.000000	64.618587 
2531.000000	64.621615 
2530.000000	64.621162 
2529.000000	64.616918 
2528.000000	64.609193 
2527.000000	64.598584 
2526.000000	64.586067 
2525.000000	64.572739 
2524.000000	64.559864 
2523.000000	64.548516 
2522.000000	64.539456 
2521.000000	64.533066 
2520.000000	64.529561 
2519.000000	64.529013 
2518.000000	64.531230 
2517.000000	64.536070 
2516.000000	64.543175 
2515.000000	64.551973 
2514.000000	64.561653 
2513.000000	64.571118 
2512.000000	64.579081 
2511.000000	64.584302 
2510.000000	64.586043 
2509.000000	64.583802 
2508.000000	64.578008 
2507.000000	64.569807 
2506.000000	64.561128 
2505.000000	64.554166 
2504.000000	64.551138 
2503.000000	64.553880 
2502.000000	64.563393 
2501.000000	64.579606 
2500.000000	64.601254 
2499.000000	64.626121 
2498.000000	64.651203 
2497.000000	64.673519 
2496.000000	64.690256 
2495.000000	64.699602 
2494.000000	64.700937 
2493.000000	64.694786 
2492.000000	64.682602 
2491.000000	64.666390 
2490.000000	64.648365 
2489.000000	64.630603 
2488.000000	64.614677 
2487.000000	64.601445 
2486.000000	64.591264 
2485.000000	64.584183 
2484.000000	64.579963 
2483.000000	64.578342 
2482.000000	64.578962 
2481.000000	64.581298 
2480.000000	64.584994 
2479.000000	64.589500 
2478.000000	64.594125 
2477.000000	64.598298 
2476.000000	64.601612 
2475.000000	64.603829 
2474.000000	64.604997 
2473.000000	64.605450 
2472.000000	64.605689 
2471.000000	64.606237 
2470.000000	64.607286 
2469.000000	64.608979 
2468.000000	64.611291 
2467.000000	64.614057 
2466.000000	64.617156 
2465.000000	64.620780 
2464.000000	64.625406 
2463.000000	64.631700 
2462.000000	64.640164 
2461.000000	64.650893 
2460.000000	64.663267 
2459.000000	64.676165 
2458.000000	64.687776 
2457.000000	64.696049 
2456.000000	64.699077 
2455.000000	64.695715 
2454.000000	64.685440 
2453.000000	64.668917 
2452.000000	64.647388 
2451.000000	64.622855 
2450.000000	64.597344 
2449.000000	64.572715 
2448.000000	64.550423 
2447.000000	64.531397 
2446.000000	64.516067 
2445.000000	64.504694 
2444.000000	64.497113 
2443.000000	64.493131 
2442.000000	64.492440 
2441.000000	64.494705 
2440.000000	64.499473 
2439.000000	64.506220 
2438.000000	64.514517 
2437.000000	64.524340 
2436.000000	64.535737 
2435.000000	64.549040 
2434.000000	64.564418 
2433.000000	64.581799 
2432.000000	64.600634 
2431.000000	64.619684 
2430.000000	64.637255 
2429.000000	64.651274 
2428.000000	64.660024 
2427.000000	64.662432 
2426.000000	64.658546 
2425.000000	64.649438 
2424.000000	64.637231 
2423.000000	64.624142 
2422.000000	64.612388 
2421.000000	64.602971 
2420.000000	64.595985 
2419.000000	64.590334 
2418.000000	64.584231 
2417.000000	64.575934 
2416.000000	64.564371 
2415.000000	64.549589 
2414.000000	64.532804 
2413.000000	64.516091 
2412.000000	64.502167 
2411.000000	64.493346 
2410.000000	64.491271 
2409.000000	64.496278 
2408.000000	64.507508 
2407.000000	64.523458 
2406.000000	64.542078 
2405.000000	64.561438 
2404.000000	64.580154 
2403.000000	64.597320 
2402.000000	64.612722 
2401.000000	64.626264 
2400.000000	64.637732 
2399.000000	64.646792 
2398.000000	64.652729 
2397.000000	64.654779 
2396.000000	64.651942 
2395.000000	64.643669 
2394.000000	64.629912 
2393.000000	64.611458 
2392.000000	64.589810 
2391.000000	64.567089 
2390.000000	64.545750 
2389.000000	64.528417 
2388.000000	64.517259 
2387.000000	64.513635 
2386.000000	64.517927 
2385.000000	64.529466 
2384.000000	64.546322 
2383.000000	64.565801 
2382.000000	64.584636 
2381.000000	64.599704 
2380.000000	64.608478 
2379.000000	64.609646 
2378.000000	64.603233 
2377.000000	64.590549 
2376.000000	64.573884 
2375.000000	64.556026 
2374.000000	64.539527 
2373.000000	64.526414 
2372.000000	64.517736 
2371.000000	64.513516 
2370.000000	64.512896 
2369.000000	64.514517 
2368.000000	64.517021 
2367.000000	64.519333 
2366.000000	64.521050 
2365.000000	64.522504 
2364.000000	64.524435 
2363.000000	64.527821 
2362.000000	64.533519 
2361.000000	64.541864 
2360.000000	64.552426 
2359.000000	64.564132 
2358.000000	64.575219 
2357.000000	64.583563 
2356.000000	64.586997 
2355.000000	64.583873 
2354.000000	64.573311 
2353.000000	64.555454 
2352.000000	64.531445 
2351.000000	64.503145 
2350.000000	64.473152 
2349.000000	64.444088 
2348.000000	64.418506 
2347.000000	64.398145 
2346.000000	64.384078 
2345.000000	64.376378 
2344.000000	64.374589 
2343.000000	64.377737 
2342.000000	64.385056 
2341.000000	64.395737 
2340.000000	64.409470 
2339.000000	64.426159 
2338.000000	64.445614 
2337.000000	64.467334 
2336.000000	64.490199 
2335.000000	64.512491 
2334.000000	64.532160 
2333.000000	64.547204 
2332.000000	64.556360 
2331.000000	64.559197 
2330.000000	64.556503 
2329.000000	64.549922 
2328.000000	64.541625 
2327.000000	64.533710 
2326.000000	64.527726 
2325.000000	64.524149 
2324.000000	64.522480 
2323.000000	64.521336 
2322.000000	64.519214 
2321.000000	64.514851 
2320.000000	64.507818 
2319.000000	64.498662 
2318.000000	64.488720 
2317.000000	64.479970 
2316.000000	64.474081 
2315.000000	64.472317 
2314.000000	64.475011 
2313.000000	64.481496 
2312.000000	64.490270 
2311.000000	64.499449 
2310.000000	64.507222 
2309.000000	64.512324 
2308.000000	64.514088 
2307.000000	64.512848 
2306.000000	64.509630 
2305.000000	64.505815 
2304.000000	64.502763 
2303.000000	64.501380 
2302.000000	64.501857 
2301.000000	64.503717 
2300.000000	64.505887 
2299.000000	64.507222 
2298.000000	64.506459 
2297.000000	64.502906 
2296.000000	64.496326 
2295.000000	64.486908 
2294.000000	64.475297 
2293.000000	64.462208 
2292.000000	64.448356 
2291.000000	64.434051 
2290.000000	64.419412 
2289.000000	64.404392 
2288.000000	64.389109 
2287.000000	64.373898 
2286.000000	64.359354 
2285.000000	64.346480 
2284.000000	64.336347 
2283.000000	64.329886 
2282.000000	64.327740 
2281.000000	64.329934 
2280.000000	64.336204 
2279.000000	64.345765 
2278.000000	64.357686 
2277.000000	64.370822 
2276.000000	64.384102 
2275.000000	64.396357 
2274.000000	64.406418 
2273.000000	64.413332 
2272.000000	64.416265 
2271.000000	64.415073 
2270.000000	64.410138 
2269.000000	64.402627 
2268.000000	64.394211 
2267.000000	64.386963 
2266.000000	64.383077 
2265.000000	64.383983 
2264.000000	64.390277 
2263.000000	64.401292 
2262.000000	64.415144 
2261.000000	64.429235 
2260.000000	64.440584 
2259.000000	64.446735 
2258.000000	64.446377 
2257.000000	64.439606 
2256.000000	64.427971 
2255.000000	64.414119 
2254.000000	64.401078 
2253.000000	64.391589 
2252.000000	64.387392 
2251.000000	64.388728 
2250.000000	64.394354 
2249.000000	64.401817 
2248.000000	64.408135 
2247.000000	64.410471 
2246.000000	64.406967 
2245.000000	64.397192 
2244.000000	64.382600 
2243.000000	64.365792 
2242.000000	64.350080 
2241.000000	64.338636 
2240.000000	64.333629 
2239.000000	64.335727 
2238.000000	64.344048 
2237.000000	64.356541 
2236.000000	64.370417 
2235.000000	64.382886 
2234.000000	64.392042 
2233.000000	64.397215 
2232.000000	64.398956 
2231.000000	64.398717 
2230.000000	64.398264 
2229.000000	64.399147 
2228.000000	64.402103 
2227.000000	64.406871 
2226.000000	64.412140 
2225.000000	64.416146 
2224.000000	64.417099 
2223.000000	64.413785 
2222.000000	64.405846 
2221.000000	64.393854 
2220.000000	64.379405 
2219.000000	64.364695 
2218.000000	64.351987 
2217.000000	64.343118 
2216.000000	64.339327 
2215.000000	64.340829 
2214.000000	64.346742 
2213.000000	64.355134 
2212.000000	64.363622 
2211.000000	64.369583 
2210.000000	64.370751 
2209.000000	64.365577 
2208.000000	64.353513 
2207.000000	64.335107 
2206.000000	64.312148 
2205.000000	64.287161 
2204.000000	64.263033 
2203.000000	64.242434 
2202.000000	64.227318 
2201.000000	64.218711 
2200.000000	64.216542 
2199.000000	64.219760 
2198.000000	64.226794 
2197.000000	64.235734 
2196.000000	64.244937 
2195.000000	64.253211 
2194.000000	64.260053 
2193.000000	64.265680 
2192.000000	64.270782 
2191.000000	64.276456 
2190.000000	64.283943 
2189.000000	64.294242 
2188.000000	64.307570 
2187.000000	64.323616 
2186.000000	64.341020 
2185.000000	64.357924 
2184.000000	64.371895 
2183.000000	64.380669 
2182.000000	64.382576 
2181.000000	64.376926 
2180.000000	64.364624 
2179.000000	64.347958 
2178.000000	64.330434 
2177.000000	64.316010 
2176.000000	64.308261 
2175.000000	64.309501 
2174.000000	64.320111 
2173.000000	64.338564 
2172.000000	64.361476 
2171.000000	64.384365 
2170.000000	64.402604 
2169.000000	64.412522 
2168.000000	64.411973 
2167.000000	64.400768 
2166.000000	64.380598 
2165.000000	64.354372 
2164.000000	64.325785 
2163.000000	64.298248 
2162.000000	64.274501 
2161.000000	64.255952 
2160.000000	64.243102 
2159.000000	64.235186 
2158.000000	64.230966 
2157.000000	64.229035 
2156.000000	64.228153 
2155.000000	64.227676 
2154.000000	64.227247 
2153.000000	64.227151 
2152.000000	64.227914 
2151.000000	64.230322 
2150.000000	64.234995 
2149.000000	64.242243 
2148.000000	64.251852 
2147.000000	64.263105 
2146.000000	64.274883 
2145.000000	64.285683 
2144.000000	64.294099 
2143.000000	64.298963 
2142.000000	64.299702 
2141.000000	64.296436 
2140.000000	64.290118 
2139.000000	64.282226 
2138.000000	64.274454 
2137.000000	64.268445 
2136.000000	64.265322 
2135.000000	64.265608 
2134.000000	64.268875 
2133.000000	64.273905 
2132.000000	64.278984 
2131.000000	64.282464 
2130.000000	64.282965 
2129.000000	64.279627 
2128.000000	64.272618 
2127.000000	64.262747 
2126.000000	64.251875 
2125.000000	64.242196 
2124.000000	64.235997 
2123.000000	64.235043 
2122.000000	64.240217 
2121.000000	64.251351 
2120.000000	64.266896 
2119.000000	64.284396 
2118.000000	64.300918 
2117.000000	64.313673 
2116.000000	64.320540 
2115.000000	64.320635 
2114.000000	64.314413 
2113.000000	64.303708 
2112.000000	64.291095 
2111.000000	64.279532 
2110.000000	64.271664 
2109.000000	64.269423 
2108.000000	64.273548 
2107.000000	64.283537 
2106.000000	64.297986 
2105.000000	64.314579 
2104.000000	64.330911 
2103.000000	64.344668 
2102.000000	64.354109 
2101.000000	64.358258 
2100.000000	64.356899 
2099.000000	64.350461 
2098.000000	64.339971 
2097.000000	64.326643 
2096.000000	64.311766 
2095.000000	64.296555 
2094.000000	64.281892 
2093.000000	64.268326 
2092.000000	64.256381 
2091.000000	64.246249 
2090.000000	64.237999 
2089.000000	64.231634 
2088.000000	64.227223 
2087.000000	64.224815 
2086.000000	64.224553 
2085.000000	64.226412 
2084.000000	64.230275 
2083.000000	64.235782 
2082.000000	64.242529 
2081.000000	64.249777 
2080.000000	64.256572 
2079.000000	64.261984 
2078.000000	64.265179 
2077.000000	64.265465 
2076.000000	64.262366 
2075.000000	64.256048 
2074.000000	64.247059 
2073.000000	64.236211 
2072.000000	64.224839 
2071.000000	64.214515 
2070.000000	64.206957 
2069.000000	64.203667 
2068.000000	64.205670 
2067.000000	64.213299 
2066.000000	64.226174 
2065.000000	64.243149 
2064.000000	64.262533 
2063.000000	64.282274 
2062.000000	64.300465 
2061.000000	64.315509 
2060.000000	64.326381 
2059.000000	64.332771 
2058.000000	64.335060 
2057.000000	64.334082 
2056.000000	64.330983 
2055.000000	64.326667 
2054.000000	64.322066 
2053.000000	64.317345 
2052.000000	64.312458 
2051.000000	64.306592 
2050.000000	64.298868 
2049.000000	64.288210 
2048.000000	64.273810 
2047.000000	64.255309 
2046.000000	64.233040 
2045.000000	64.208221 
2044.000000	64.182782 
2043.000000	64.159178 
2042.000000	64.140009 
2041.000000	64.127564 
2040.000000	64.123153 
2039.000000	64.126896 
2038.000000	64.137625 
2037.000000	64.153027 
2036.000000	64.170217 
2035.000000	64.186120 
2034.000000	64.198279 
2033.000000	64.205288 
2032.000000	64.207053 
2031.000000	64.204502 
2030.000000	64.199233 
2029.000000	64.193201 
2028.000000	64.187955 
2027.000000	64.184331 
2026.000000	64.182448 
2025.000000	64.181828 
2024.000000	64.181756 
2023.000000	64.181876 
2022.000000	64.182114 
2021.000000	64.182949 
2020.000000	64.185214 
2019.000000	64.189624 
2018.000000	64.196538 
2017.000000	64.205718 
2016.000000	64.216160 
2015.000000	64.226293 
2014.000000	64.234399 
2013.000000	64.238977 
2012.000000	64.239263 
2011.000000	64.235401 
2010.000000	64.228248 
2009.000000	64.219236 
2008.000000	64.209938 
2007.000000	64.201641 
2006.000000	64.195084 
2005.000000	64.190411 
2004.000000	64.187169 
2003.000000	64.184713 
2002.000000	64.182543 
2001.000000	64.180612 
2000.000000	64.179110 
1999.000000	64.178729 
1998.000000	64.180278 
1997.000000	64.184188 
1996.000000	64.190506 
1995.000000	64.198470 
1994.000000	64.206671 
1993.000000	64.213299 
1992.000000	64.216637 
1991.000000	64.215326 
1990.000000	64.208841 
1989.000000	64.197707 
1988.000000	64.183330 
1987.000000	64.167666 
1986.000000	64.152812 
1985.000000	64.140629 
1984.000000	64.132332 
1983.000000	64.128446 
1982.000000	64.128923 
1981.000000	64.133167 
1980.000000	64.140152 
1979.000000	64.148855 
1978.000000	64.158296 
1977.000000	64.167332 
1976.000000	64.175033 
1975.000000	64.180374 
1974.000000	64.182591 
1973.000000	64.180946 
1972.000000	64.175224 
1971.000000	64.165687 
1970.000000	64.153289 
1969.000000	64.139366 
1968.000000	64.125680 
1967.000000	64.113950 
1966.000000	64.105796 
1965.000000	64.102149 
1964.000000	64.103507 
1963.000000	64.110040 
1962.000000	64.121532 
1961.000000	64.137434 
1960.000000	64.156961 
1959.000000	64.178895 
1958.000000	64.201641 
1957.000000	64.223217 
1956.000000	64.241623 
1955.000000	64.254760 
1954.000000	64.261293 
1953.000000	64.260435 
1952.000000	64.252376 
1951.000000	64.237880 
1950.000000	64.218544 
1949.000000	64.196252 
1948.000000	64.173269 
1947.000000	64.151668 
1946.000000	64.133238 
1945.000000	64.119052 
1944.000000	64.109492 
1943.000000	64.104056 
1942.000000	64.101648 
1941.000000	64.100694 
1940.000000	64.099359 
1939.000000	64.096093 
1938.000000	64.089775 
1937.000000	64.080166 
1936.000000	64.067745 
1935.000000	64.053797 
1934.000000	64.039921 
1933.000000	64.027786 
1932.000000	64.018821 
1931.000000	64.013743 
1930.000000	64.012598 
1929.000000	64.015054 
1928.000000	64.020419 
1927.000000	64.027833 
1926.000000	64.036464 
1925.000000	64.045214 
1924.000000	64.053153 
1923.000000	64.059019 
1922.000000	64.061832 
1921.000000	64.060735 
1920.000000	64.055705 
1919.000000	64.047527 
1918.000000	64.037990 
1917.000000	64.029502 
1916.000000	64.024686 
1915.000000	64.025902 
1914.000000	64.034438 
1913.000000	64.050292 
1912.000000	64.071846 
1911.000000	64.096403 
1910.000000	64.120507 
1909.000000	64.140748 
1908.000000	64.154601 
1907.000000	64.160799 
1906.000000	64.159655 
1905.000000	64.152765 
1904.000000	64.142489 
1903.000000	64.131426 
1902.000000	64.121603 
1901.000000	64.114093 
1900.000000	64.108967 
1899.000000	64.105582 
1898.000000	64.103055 
1897.000000	64.100432 
1896.000000	64.097309 
1895.000000	64.093613 
1894.000000	64.089655 
1893.000000	64.085650 
1892.000000	64.081501 
1891.000000	64.076709 
1890.000000	64.070367 
1889.000000	64.061546 
1888.000000	64.049625 
1887.000000	64.034700 
1886.000000	64.017772 
1885.000000	64.000701 
1884.000000	63.985657 
1883.000000	63.974952 
1882.000000	63.970208 
1881.000000	63.972234 
1880.000000	63.980460 
1879.000000	63.993644 
1878.000000	64.010047 
1877.000000	64.027762 
1876.000000	64.044976 
1875.000000	64.060401 
1874.000000	64.073157 
1873.000000	64.082670 
1872.000000	64.088654 
1871.000000	64.090800 
1870.000000	64.089059 
1869.000000	64.083909 
1868.000000	64.076209 
1867.000000	64.067411 
1866.000000	64.059114 
1865.000000	64.053320 
1864.000000	64.051461 
1863.000000	64.054536 
1862.000000	64.062333 
1861.000000	64.073824 
1860.000000	64.087152 
1859.000000	64.100122 
1858.000000	64.110469 
1857.000000	64.116573 
1856.000000	64.117455 
1855.000000	64.113020 
1854.000000	64.103698 
1853.000000	64.090466 
1852.000000	64.074254 
1851.000000	64.055967 
1850.000000	64.036393 
1849.000000	64.016318 
1848.000000	63.996839 
1847.000000	63.979530 
1846.000000	63.966178 
1845.000000	63.958597 
1844.000000	63.958382 
1843.000000	63.966298 
1842.000000	63.981866 
1841.000000	64.003348 
1840.000000	64.028072 
1839.000000	64.052915 
1838.000000	64.074873 
1837.000000	64.091658 
1836.000000	64.101862 
1835.000000	64.105153 
1834.000000	64.102268 
1833.000000	64.094495 
1832.000000	64.083623 
1831.000000	64.071345 
1830.000000	64.059233 
1829.000000	64.048314 
1828.000000	64.039301 
1827.000000	64.032602 
1826.000000	64.028263 
1825.000000	64.025998 
1824.000000	64.025378 
1823.000000	64.025783 
1822.000000	64.026474 
1821.000000	64.026737 
1820.000000	64.025950 
1819.000000	64.023685 
1818.000000	64.019846 
1817.000000	64.014768 
1816.000000	64.009118 
1815.000000	64.003872 
1814.000000	64.000010 
1813.000000	63.998413 
1812.000000	63.999438 
1811.000000	64.003062 
1810.000000	64.008736 
1809.000000	64.015316 
1808.000000	64.021563 
1807.000000	64.026117 
1806.000000	64.027953 
1805.000000	64.026427 
1804.000000	64.021539 
1803.000000	64.013886 
1802.000000	64.004516 
1801.000000	63.994741 
1800.000000	63.985967 
1799.000000	63.979434 
1798.000000	63.975739 
1797.000000	63.974738 
1796.000000	63.975477 
1795.000000	63.976407 
1794.000000	63.975715 
1793.000000	63.971400 
1792.000000	63.961839 
1791.000000	63.946175 
1790.000000	63.924527 
1789.000000	63.898015 
1788.000000	63.868474 
1787.000000	63.838577 
1786.000000	63.811111 
1785.000000	63.788986 
1784.000000	63.774347 
1783.000000	63.768315 
1782.000000	63.770890 
1781.000000	63.780856 
1780.000000	63.795948 
1779.000000	63.813352 
1778.000000	63.830208 
1777.000000	63.844251 
1776.000000	63.854026 
1775.000000	63.859343 
1774.000000	63.861012 
1773.000000	63.860654 
1772.000000	63.860082 
1771.000000	63.860797 
1770.000000	63.863682 
1769.000000	63.868641 
1768.000000	63.874793 
1767.000000	63.880705 
1766.000000	63.884806 
1765.000000	63.885664 
1764.000000	63.882374 
1763.000000	63.874745 
1762.000000	63.862991 
1761.000000	63.847661 
1760.000000	63.829421 
1759.000000	63.808870 
1758.000000	63.786411 
1757.000000	63.762688 
1756.000000	63.738226 
1755.000000	63.713717 
1754.000000	63.690090 
1753.000000	63.668465 
1752.000000	63.650202 
1751.000000	63.636374 
1750.000000	63.627696 
1749.000000	63.624358 
1748.000000	63.625860 
1747.000000	63.631081 
1746.000000	63.638401 
1745.000000	63.645815 
1744.000000	63.651323 
1743.000000	63.653182 
1742.000000	63.650250 
1741.000000	63.641953 
1740.000000	63.628435 
1739.000000	63.610577 
1738.000000	63.589859 
1737.000000	63.568329 
1736.000000	63.548088 
1735.000000	63.531255 
1734.000000	63.519716 
1733.000000	63.514852 
1732.000000	63.517284 
1731.000000	63.527154 
1730.000000	63.543772 
1729.000000	63.565969 
1728.000000	63.592243 
1727.000000	63.620877 
1726.000000	63.650393 
1725.000000	63.679289 
1724.000000	63.706374 
1723.000000	63.730406 
1722.000000	63.750505 
1721.000000	63.765716 
1720.000000	63.775110 
1719.000000	63.777947 
1718.000000	63.773965 
1717.000000	63.763236 
1716.000000	63.746619 
1715.000000	63.725686 
1714.000000	63.702869 
1713.000000	63.681125 
1712.000000	63.663506 
1711.000000	63.652873 
1710.000000	63.651132 
1709.000000	63.658976 
1708.000000	63.675427 
1707.000000	63.698101 
1706.000000	63.723421 
1705.000000	63.747167 
1704.000000	63.765692 
1703.000000	63.776087 
1702.000000	63.777160 
1701.000000	63.769459 
1700.000000	63.755154 
1699.000000	63.737392 
1698.000000	63.719701 
1697.000000	63.705253 
1696.000000	63.696026 
1695.000000	63.692712 
1694.000000	63.694715 
1693.000000	63.700652 
1692.000000	63.708662 
1691.000000	63.717031 
1690.000000	63.724708 
1689.000000	63.731312 
1688.000000	63.737058 
1687.000000	63.742375 
1686.000000	63.747549 
1685.000000	63.752317 
1684.000000	63.755965 
1683.000000	63.757276 
1682.000000	63.754796 
1681.000000	63.747334 
1680.000000	63.734436 
1679.000000	63.716650 
1678.000000	63.695335 
1677.000000	63.672733 
1676.000000	63.651227 
1675.000000	63.633203 
1674.000000	63.620662 
1673.000000	63.614821 
1672.000000	63.616085 
1671.000000	63.623905 
1670.000000	63.637328 
1669.000000	63.654780 
1668.000000	63.674640 
1667.000000	63.695168 
1666.000000	63.714671 
1665.000000	63.731670 
1664.000000	63.744974 
1663.000000	63.753771 
1662.000000	63.757801 
1661.000000	63.757395 
1660.000000	63.753485 
1659.000000	63.747668 
1658.000000	63.741827 
1657.000000	63.737893 
1656.000000	63.737511 
1655.000000	63.741564 
1654.000000	63.750028 
1653.000000	63.761711 
1652.000000	63.774728 
1651.000000	63.786697 
1650.000000	63.795280 
1649.000000	63.798713 
1648.000000	63.796281 
1647.000000	63.788390 
1646.000000	63.776588 
1645.000000	63.763165 
1644.000000	63.750648 
1643.000000	63.741064 
1642.000000	63.735437 
1641.000000	63.733816 
1640.000000	63.734984 
1639.000000	63.736796 
1638.000000	63.736820 
1637.000000	63.732933 
1636.000000	63.723826 
1635.000000	63.709568 
1634.000000	63.691592 
1633.000000	63.672065 
1632.000000	63.653945 
1631.000000	63.640165 
1630.000000	63.632965 
1629.000000	63.633418 
1628.000000	63.641548 
1627.000000	63.656282 
1626.000000	63.675689 
1625.000000	63.697552 
1624.000000	63.719415 
1623.000000	63.739228 
1622.000000	63.755202 
1621.000000	63.766336 
1620.000000	63.772106 
1619.000000	63.772773 
1618.000000	63.769125 
1617.000000	63.762569 
1616.000000	63.754916 
1615.000000	63.748240 
1614.000000	63.744354 
1613.000000	63.744473 
1612.000000	63.749027 
1611.000000	63.757181 
1610.000000	63.767099 
1609.000000	63.776183 
1608.000000	63.781499 
1607.000000	63.780617 
1606.000000	63.772010 
1605.000000	63.755559 
1604.000000	63.732695 
1603.000000	63.706016 
1602.000000	63.679122 
1601.000000	63.655614 
1600.000000	63.638687 
1599.000000	63.630509 
1598.000000	63.631820 
1597.000000	63.641858 
1596.000000	63.658404 
1595.000000	63.678598 
1594.000000	63.698959 
1593.000000	63.716435 
1592.000000	63.728690 
1591.000000	63.734102 
1590.000000	63.732147 
1589.000000	63.722872 
1588.000000	63.706994 
1587.000000	63.685560 
1586.000000	63.659811 
1585.000000	63.631415 
1584.000000	63.602066 
1583.000000	63.573646 
1582.000000	63.547849 
1581.000000	63.526153 
1580.000000	63.509345 
1579.000000	63.497686 
1578.000000	63.490986 
1577.000000	63.488698 
1576.000000	63.490271 
1575.000000	63.495111 
1574.000000	63.502740 
1573.000000	63.512563 
1572.000000	63.523888 
1571.000000	63.535833 
1570.000000	63.547134 
1569.000000	63.556385 
1568.000000	63.562178 
1567.000000	63.563656 
1566.000000	63.560438 
1565.000000	63.553094 
1564.000000	63.542962 
1563.000000	63.531947 
1562.000000	63.522219 
1561.000000	63.515520 
1560.000000	63.512897 
1559.000000	63.514113 
1558.000000	63.517808 
1557.000000	63.521766 
1556.000000	63.523554 
1555.000000	63.521242 
1554.000000	63.513875 
1553.000000	63.501882 
1552.000000	63.487052 
1551.000000	63.472032 
1550.000000	63.459730 
1549.000000	63.452601 
1548.000000	63.452005 
1547.000000	63.457989 
1546.000000	63.469362 
1545.000000	63.483977 
1544.000000	63.499283 
1543.000000	63.512945 
1542.000000	63.523197 
1541.000000	63.528990 
1540.000000	63.530397 
1539.000000	63.528084 
1538.000000	63.523554 
1537.000000	63.518452 
1536.000000	63.514399 
1535.000000	63.512778 
1534.000000	63.514494 
1533.000000	63.519978 
1532.000000	63.528847 
1531.000000	63.540172 
1530.000000	63.552451 
1529.000000	63.563942 
1528.000000	63.572645 
1527.000000	63.576817 
1526.000000	63.575291 
1525.000000	63.567709 
1524.000000	63.554739 
1523.000000	63.538002 
1522.000000	63.519859 
1521.000000	63.502907 
1520.000000	63.489389 
1519.000000	63.480997 
1518.000000	63.478159 
1517.000000	63.480401 
1516.000000	63.486409 
1515.000000	63.494396 
1514.000000	63.502502 
1513.000000	63.509368 
1512.000000	63.514232 
1511.000000	63.517165 
1510.000000	63.518548 
1509.000000	63.519239 
1508.000000	63.520002 
1507.000000	63.521623 
1506.000000	63.524603 
1505.000000	63.529253 
1504.000000	63.535976 
1503.000000	63.545250 
1502.000000	63.557314 
1501.000000	63.572287 
1500.000000	63.589906 
1499.000000	63.609337 
1498.000000	63.629078 
1497.000000	63.647484 
1496.000000	63.662743 
1495.000000	63.673448 
1494.000000	63.678598 
1493.000000	63.677859 
1492.000000	63.671541 
1491.000000	63.660335 
1490.000000	63.645195 
1489.000000	63.627028 
1488.000000	63.606572 
1487.000000	63.584518 
1486.000000	63.561487 
1485.000000	63.538408 
1484.000000	63.516163 
1483.000000	63.495850 
1482.000000	63.478446 
1481.000000	63.464689 
1480.000000	63.454723 
1479.000000	63.448190 
1478.000000	63.444280 
1477.000000	63.442015 
1476.000000	63.440537 
1475.000000	63.439178 
1474.000000	63.437724 
1473.000000	63.436317 
1472.000000	63.435101 
1471.000000	63.434123 
1470.000000	63.433146 
1469.000000	63.431763 
1468.000000	63.429355 
1467.000000	63.425374 
1466.000000	63.419747 
1465.000000	63.412690 
1464.000000	63.404893 
1463.000000	63.397097 
1462.000000	63.389968 
1461.000000	63.383984 
1460.000000	63.378810 
1459.000000	63.374209 
1458.000000	63.369607 
1457.000000	63.365125 
1456.000000	63.361430 
1455.000000	63.360023 
1454.000000	63.362526 
1453.000000	63.370537 
1452.000000	63.384819 
1451.000000	63.404917 
1450.000000	63.428878 
1449.000000	63.453555 
1448.000000	63.475227 
1447.000000	63.490438 
1446.000000	63.496899 
1445.000000	63.494157 
1444.000000	63.483524 
1443.000000	63.467860 
1442.000000	63.450574 
1441.000000	63.434982 
1440.000000	63.423347 
1439.000000	63.416385 
1438.000000	63.413190 
1437.000000	63.411879 
1436.000000	63.410043 
1435.000000	63.405561 
1434.000000	63.397264 
1433.000000	63.385176 
1432.000000	63.370561 
1431.000000	63.355493 
1430.000000	63.342475 
1429.000000	63.333582 
1428.000000	63.330125 
1427.000000	63.332438 
1426.000000	63.339686 
1425.000000	63.350224 
1424.000000	63.361716 
1423.000000	63.371968 
1422.000000	63.379216 
1421.000000	63.382434 
1420.000000	63.381624 
1419.000000	63.377857 
1418.000000	63.372945 
1417.000000	63.368988 
1416.000000	63.367986 
1415.000000	63.371157 
1414.000000	63.378953 
1413.000000	63.390707 
1412.000000	63.404846 
1411.000000	63.419294 
1410.000000	63.431954 
1409.000000	63.441109 
1408.000000	63.445854 
1407.000000	63.445997 
1406.000000	63.442063 
1405.000000	63.435029 
1404.000000	63.425660 
1403.000000	63.414573 
1402.000000	63.401818 
1401.000000	63.387179 
1400.000000	63.370537 
1399.000000	63.351941 
1398.000000	63.332176 
1397.000000	63.312649 
1396.000000	63.294959 
1395.000000	63.280892 
1394.000000	63.271737 
1393.000000	63.268303 
1392.000000	63.270688 
1391.000000	63.278508 
1390.000000	63.290739 
1389.000000	63.306212 
1388.000000	63.323593 
1387.000000	63.341736 
1386.000000	63.359332 
1385.000000	63.374972 
1384.000000	63.387203 
1383.000000	63.394451 
1382.000000	63.395214 
1381.000000	63.388442 
1380.000000	63.373827 
1379.000000	63.352108 
1378.000000	63.325071 
1377.000000	63.295435 
1376.000000	63.266706 
1375.000000	63.242411 
1374.000000	63.225674 
1373.000000	63.218593 
1372.000000	63.221931 
1371.000000	63.234925 
1370.000000	63.255476 
1369.000000	63.280367 
1368.000000	63.305950 
1367.000000	63.328671 
1366.000000	63.345623 
1365.000000	63.355112 
1364.000000	63.356852 
1363.000000	63.351869 
1362.000000	63.341975 
1361.000000	63.329482 
1360.000000	63.316726 
1359.000000	63.305521 
1358.000000	63.297176 
1357.000000	63.292193 
1356.000000	63.290524 
1355.000000	63.291501 
1354.000000	63.294410 
1353.000000	63.298630 
1352.000000	63.303446 
1351.000000	63.308286 
1350.000000	63.312768 
1349.000000	63.316583 
1348.000000	63.319468 
1347.000000	63.321208 
1346.000000	63.321423 
1345.000000	63.319921 
1344.000000	63.316726 
1343.000000	63.311910 
1342.000000	63.305807 
1341.000000	63.299012 
1340.000000	63.292193 
1339.000000	63.286352 
1338.000000	63.282632 
1337.000000	63.281965 
1336.000000	63.284945 
1335.000000	63.291811 
1334.000000	63.302087 
1333.000000	63.314533 
1332.000000	63.327264 
1331.000000	63.338160 
1330.000000	63.345456 
1329.000000	63.347721 
1328.000000	63.344573 
1327.000000	63.336563 
1326.000000	63.325142 
1325.000000	63.312435 
1324.000000	63.300728 
1323.000000	63.292050 
1322.000000	63.287615 
1321.000000	63.287782 
1320.000000	63.291883 
1319.000000	63.298463 
1318.000000	63.305592 
1317.000000	63.311338 
1316.000000	63.314104 
1315.000000	63.312864 
1314.000000	63.307356 
1313.000000	63.298034 
1312.000000	63.285923 
1311.000000	63.272237 
1310.000000	63.258266 
1309.000000	63.244915 
1308.000000	63.232707 
1307.000000	63.221454 
1306.000000	63.210487 
1305.000000	63.199043 
1304.000000	63.186383 
1303.000000	63.172101 
1302.000000	63.156366 
1301.000000	63.139986 
1300.000000	63.124275 
1299.000000	63.110876 
1298.000000	63.101124 
1297.000000	63.096046 
1296.000000	63.095808 
1295.000000	63.100051 
1294.000000	63.107609 
1293.000000	63.117098 
1292.000000	63.126945 
1291.000000	63.135957 
1290.000000	63.143515 
1289.000000	63.149619 
1288.000000	63.154530 
1287.000000	63.158941 
1286.000000	63.163375 
1285.000000	63.167977 
1284.000000	63.172340 
1283.000000	63.175654 
1282.000000	63.177084 
1281.000000	63.175821 
1280.000000	63.171410 
1279.000000	63.164067 
1278.000000	63.154578 
1277.000000	63.143920 
1276.000000	63.133096 
1275.000000	63.122844 
1274.000000	63.113427 
1273.000000	63.104629 
1272.000000	63.095927 
1271.000000	63.086891 
1270.000000	63.077497 
1269.000000	63.067960 
1268.000000	63.059210 
1267.000000	63.052272 
1266.000000	63.048458 
1265.000000	63.048744 
1264.000000	63.053774 
1263.000000	63.063502 
1262.000000	63.077521 
1261.000000	63.095021 
1260.000000	63.115072 
1259.000000	63.136792 
1258.000000	63.159394 
1257.000000	63.182044 
1256.000000	63.203930 
1255.000000	63.224101 
1254.000000	63.241243 
1253.000000	63.253736 
1252.000000	63.260102 
1251.000000	63.259434 
1250.000000	63.251590 
1249.000000	63.237357 
1248.000000	63.218760 
1247.000000	63.198304 
1246.000000	63.178682 
1245.000000	63.162088 
1244.000000	63.149714 
1243.000000	63.141465 
1242.000000	63.136219 
1241.000000	63.132095 
1240.000000	63.127064 
1239.000000	63.119530 
1238.000000	63.108730 
1237.000000	63.094973 
1236.000000	63.079404 
1235.000000	63.063883 
1234.000000	63.050270 
1233.000000	63.040399 
1232.000000	63.035416 
1231.000000	63.036012 
1230.000000	63.042473 
1229.000000	63.054585 
1228.000000	63.071846 
1227.000000	63.093447 
1226.000000	63.118219 
1225.000000	63.144469 
1224.000000	63.170003 
1223.000000	63.192391 
1222.000000	63.209128 
1221.000000	63.218355 
1220.000000	63.218903 
1219.000000	63.210868 
1218.000000	63.195419 
1217.000000	63.174843 
1216.000000	63.151741 
1215.000000	63.128733 
1214.000000	63.107776 
1213.000000	63.090014 
1212.000000	63.075900 
1211.000000	63.065218 
1210.000000	63.057661 
1209.000000	63.053035 
1208.000000	63.051605 
1207.000000	63.053894 
1206.000000	63.060307 
1205.000000	63.070750 
1204.000000	63.084602 
1203.000000	63.100361 
1202.000000	63.115954 
1201.000000	63.129019 
1200.000000	63.137531 
1199.000000	63.140201 
1198.000000	63.136911 
1197.000000	63.128519 
1196.000000	63.116812 
1195.000000	63.103818 
1194.000000	63.091373 
1193.000000	63.080716 
1192.000000	63.071966 
1191.000000	63.064551 
1190.000000	63.057374 
1189.000000	63.049316 
1188.000000	63.039875 
1187.000000	63.029146 
1186.000000	63.018250 
1185.000000	63.008809 
1184.000000	63.002419 
1183.000000	63.000130 
1182.000000	63.002181 
1181.000000	63.007378 
1180.000000	63.013625 
1179.000000	63.018155 
1178.000000	63.018321 
1177.000000	63.012146 
1176.000000	62.998890 
1175.000000	62.979102 
1174.000000	62.954878 
1173.000000	62.929224 
1172.000000	62.905502 
1171.000000	62.886881 
1170.000000	62.875604 
1169.000000	62.872767 
1168.000000	62.878322 
1167.000000	62.891149 
1166.000000	62.909388 
1165.000000	62.931013 
1164.000000	62.954258 
1163.000000	62.977552 
1162.000000	62.999868 
1161.000000	63.020300 
1160.000000	63.038277 
1159.000000	63.052988 
1158.000000	63.063907 
1157.000000	63.070368 
1156.000000	63.072204 
1155.000000	63.069868 
1154.000000	63.064527 
1153.000000	63.057947 
1152.000000	63.052272 
1151.000000	63.049745 
1150.000000	63.051986 
1149.000000	63.059544 
1148.000000	63.071799 
1147.000000	63.086771 
1146.000000	63.101768 
1145.000000	63.113760 
1144.000000	63.120245 
1143.000000	63.119578 
1142.000000	63.111400 
1141.000000	63.096809 
1140.000000	63.077926 
1139.000000	63.057446 
1138.000000	63.038063 
1137.000000	63.021969 
1136.000000	63.010549 
1135.000000	63.004136 
1134.000000	63.002109 
1133.000000	63.003182 
1132.000000	63.005852 
1131.000000	63.008952 
1130.000000	63.011908 
1129.000000	63.014960 
1128.000000	63.018846 
1127.000000	63.024473 
1126.000000	63.032603 
1125.000000	63.043212 
1124.000000	63.055419 
1123.000000	63.067555 
1122.000000	63.077378 
1121.000000	63.082528 
1120.000000	63.081216 
1119.000000	63.072443 
1118.000000	63.056659 
1117.000000	63.035225 
1116.000000	63.010501 
1115.000000	62.985277 
1114.000000	62.962365 
1113.000000	62.944030 
1112.000000	62.931847 
1111.000000	62.926793 
1110.000000	62.929153 
1109.000000	62.938809 
1108.000000	62.954926 
1107.000000	62.976241 
1106.000000	63.001036 
1105.000000	63.027119 
1104.000000	63.052225 
1103.000000	63.074159 
1102.000000	63.091087 
1101.000000	63.101935 
1100.000000	63.106369 
1099.000000	63.104796 
1098.000000	63.097882 
1097.000000	63.086628 
1096.000000	63.071799 
1095.000000	63.054037 
1094.000000	63.033795 
1093.000000	63.011598 
1092.000000	62.988066 
1091.000000	62.964344 
1090.000000	62.941789 
1089.000000	62.922072 
1088.000000	62.906575 
1087.000000	62.896156 
1086.000000	62.890696 
1085.000000	62.889051 
1084.000000	62.889409 
1083.000000	62.889790 
1082.000000	62.888336 
1081.000000	62.884259 
1080.000000	62.877845 
1079.000000	62.870693 
1078.000000	62.865018 
1077.000000	62.863349 
1076.000000	62.867546 
1075.000000	62.878489 
1074.000000	62.895679 
1073.000000	62.917184 
1072.000000	62.940430 
1071.000000	62.962412 
1070.000000	62.980699 
1069.000000	62.993812 
1068.000000	63.001608 
1067.000000	63.005018 
1066.000000	63.005805 
1065.000000	63.005828 
1064.000000	63.006472 
1063.000000	63.008475 
1062.000000	63.011550 
1061.000000	63.014507 
1060.000000	63.015270 
1059.000000	63.011884 
1058.000000	63.002634 
1057.000000	62.986373 
1056.000000	62.963128 
1055.000000	62.933969 
1054.000000	62.901234 
1053.000000	62.868165 
1052.000000	62.838649 
1051.000000	62.816286 
1050.000000	62.804150 
1049.000000	62.804102 
1048.000000	62.816214 
1047.000000	62.838745 
1046.000000	62.868189 
1045.000000	62.900018 
1044.000000	62.929320 
1043.000000	62.951731 
1042.000000	62.964177 
1041.000000	62.965536 
1040.000000	62.956547 
1039.000000	62.939691 
1038.000000	62.918758 
1037.000000	62.897968 
1036.000000	62.881374 
1035.000000	62.871813 
1034.000000	62.870693 
1033.000000	62.877631 
1032.000000	62.890887 
1031.000000	62.907791 
1030.000000	62.925362 
1029.000000	62.940645 
1028.000000	62.951469 
1027.000000	62.956476 
1026.000000	62.954831 
1025.000000	62.946557 
1024.000000	62.932276 
1023.000000	62.913107 
1022.000000	62.890601 
1021.000000	62.866783 
1020.000000	62.844038 
1019.000000	62.824749 
1018.000000	62.810802 
1017.000000	62.803220 
1016.000000	62.802028 
1015.000000	62.806153 
1014.000000	62.813735 
1013.000000	62.822556 
1012.000000	62.830567 
1011.000000	62.836599 
1010.000000	62.840628 
1009.000000	62.843489 
1008.000000	62.846660 
1007.000000	62.851428 
1006.000000	62.858676 
1005.000000	62.868261 
1004.000000	62.879276 
1003.000000	62.890195 
1002.000000	62.899470 
1001.000000	62.906074 
1000.000000	62.909793 
999.000000	 62.911438 
998.000000	 62.912321 
997.000000	 62.913680 
996.000000	 62.916445 
995.000000	 62.920737 
994.000000	 62.925910 
993.000000	 62.930607 
992.000000	 62.933444 
991.000000	 62.933444 
990.000000	 62.930345 
989.000000	 62.924814 
988.000000	 62.918043 
987.000000	 62.911391 
986.000000	 62.905931 
985.000000	 62.902212 
984.000000	 62.900280 
983.000000	 62.899661 
982.000000	 62.899947 
981.000000	 62.900996 
980.000000	 62.902998 
979.000000	 62.906432 
978.000000	 62.911653 
977.000000	 62.918639 
976.000000	 62.926745 
975.000000	 62.934446 
974.000000	 62.939906 
973.000000	 62.941026 
972.000000	 62.936210 
971.000000	 62.924456 
970.000000	 62.906026 
969.000000	 62.882351 
968.000000	 62.855625 
967.000000	 62.828421 
966.000000	 62.803077 
965.000000	 62.781429 
964.000000	 62.764644 
963.000000	 62.753200 
962.000000	 62.747097 
961.000000	 62.746119 
960.000000	 62.750196 
959.000000	 62.759375 
958.000000	 62.773633 
957.000000	 62.792873 
956.000000	 62.816667 
955.000000	 62.844014 
954.000000	 62.873244 
953.000000	 62.902450 
952.000000	 62.929606 
951.000000	 62.953186 
950.000000	 62.972450 
949.000000	 62.987446 
948.000000	 62.999176 
947.000000	 63.009142 
946.000000	 63.018512 
945.000000	 63.028097 
944.000000	 63.037467 
943.000000	 63.045287 
942.000000	 63.049483 
941.000000	 63.047957 
940.000000	 63.039278 
939.000000	 63.023328 
938.000000	 63.001585 
937.000000	 62.977242 
936.000000	 62.954521 
935.000000	 62.937712 
934.000000	 62.930250 
933.000000	 62.934088 
932.000000	 62.948942 
931.000000	 62.972283 
930.000000	 63.000202 
929.000000	 63.028192 
928.000000	 63.051986 
927.000000	 63.068461 
926.000000	 63.076329 
925.000000	 63.076210 
924.000000	 63.070058 
923.000000	 63.060498 
922.000000	 63.050150 
921.000000	 63.040709 
920.000000	 63.033080 
919.000000	 63.026809 
918.000000	 63.021063 
917.000000	 63.014364 
916.000000	 63.005733 
915.000000	 62.994241 
914.000000	 62.979459 
913.000000	 62.960934 
912.000000	 62.938451 
911.000000	 62.911748 
910.000000	 62.880539 
909.000000	 62.844848 
908.000000	 62.805366 
907.000000	 62.763285 
906.000000	 62.720322 
905.000000	 62.678456 
904.000000	 62.639832 
903.000000	 62.605714 
902.000000	 62.576460 
901.000000	 62.551498 
900.000000	 62.529921 
899.000000	 62.510943 
898.000000	 62.494945 
897.000000	 62.483167 
896.000000	 62.478017 
895.000000	 62.482237 
894.000000	 62.498068 
893.000000	 62.525892 
892.000000	 62.564206 
891.000000	 62.609291 
890.000000	 62.656021 
889.000000	 62.698483 
888.000000	 62.731504 
887.000000	 62.751317 
886.000000	 62.756586 
885.000000	 62.748456 
884.000000	 62.730550 
883.000000	 62.707829 
882.000000	 62.686157 
881.000000	 62.670946 
880.000000	 62.666463 
879.000000	 62.675094 
878.000000	 62.697410 
877.000000	 62.732028 
876.000000	 62.775969 
875.000000	 62.824988 
874.000000	 62.874364 
873.000000	 62.919521 
872.000000	 62.956476 
871.000000	 62.982130 
870.000000	 62.994837 
869.000000	 62.994337 
868.000000	 62.981247 
867.000000	 62.957048 
866.000000	 62.923908 
865.000000	 62.884330 
864.000000	 62.841105 
863.000000	 62.796950 
862.000000	 62.754845 
861.000000	 62.717199 
860.000000	 62.686228 
859.000000	 62.663316 
858.000000	 62.648868 
857.000000	 62.642455 
856.000000	 62.642860 
855.000000	 62.648415 
854.000000	 62.657165 
853.000000	 62.667417 
852.000000	 62.677645 
851.000000	 62.686944 
850.000000	 62.694978 
849.000000	 62.701773 
848.000000	 62.707185 
847.000000	 62.710976 
846.000000	 62.712669 
845.000000	 62.711763 
844.000000	 62.707829 
843.000000	 62.700772 
842.000000	 62.690925 
841.000000	 62.679648 
840.000000	 62.668704 
839.000000	 62.660002 
838.000000	 62.655282 
837.000000	 62.655591 
836.000000	 62.661147 
835.000000	 62.671065 
834.000000	 62.683773 
833.000000	 62.696814 
832.000000	 62.708449 
831.000000	 62.717509 
830.000000	 62.724566 
829.000000	 62.731504 
828.000000	 62.741613 
827.000000	 62.758660 
826.000000	 62.785553 
825.000000	 62.823176 
824.000000	 62.869954 
823.000000	 62.921643 
822.000000	 62.972617 
821.000000	 63.016653 
820.000000	 63.048720 
819.000000	 63.065648 
818.000000	 63.066482 
817.000000	 63.052511 
816.000000	 63.026595 
815.000000	 62.992501 
814.000000	 62.954568 
813.000000	 62.916541 
812.000000	 62.881875 
811.000000	 62.852764 
810.000000	 62.830615 
809.000000	 62.815785 
808.000000	 62.807750 
807.000000	 62.805676 
806.000000	 62.808728 
805.000000	 62.816762 
804.000000	 62.829566 
803.000000	 62.847423 
802.000000	 62.870478 
801.000000	 62.898397 
800.000000	 62.929844 
799.000000	 62.962651 
798.000000	 62.994098 
797.000000	 63.021063 
796.000000	 63.040876 
795.000000	 63.051962 
794.000000	 63.054037 
793.000000	 63.048529 
792.000000	 63.037657 
791.000000	 63.024210 
790.000000	 63.010334 
789.000000	 62.997221 
788.000000	 62.984442 
787.000000	 62.970566 
786.000000	 62.953257 
785.000000	 62.930560 
784.000000	 62.901186 
783.000000	 62.864995 
782.000000	 62.823128 
781.000000	 62.778139 
780.000000	 62.733292 
779.000000	 62.691664 
778.000000	 62.655925 
777.000000	 62.627840 
776.000000	 62.608027 
775.000000	 62.596011 
774.000000	 62.590360 
773.000000	 62.589120 
772.000000	 62.590456 
771.000000	 62.593078 
770.000000	 62.596154 
769.000000	 62.599325 
768.000000	 62.602972 
767.000000	 62.607836 
766.000000	 62.614679 
765.000000	 62.623691 
764.000000	 62.634778 
763.000000	 62.647366 
762.000000	 62.660241 
761.000000	 62.672185 
760.000000	 62.682056 
759.000000	 62.689137 
758.000000	 62.693548 
757.000000	 62.696409 
756.000000	 62.699437 
755.000000	 62.704801 
754.000000	 62.714624 
753.000000	 62.730383 
752.000000	 62.752485 
751.000000	 62.779712 
750.000000	 62.809801 
749.000000	 62.839317 
748.000000	 62.864708 
747.000000	 62.882471 
746.000000	 62.890148 
745.000000	 62.886333 
744.000000	 62.871170 
743.000000	 62.846016 
742.000000	 62.813258 
741.000000	 62.775874 
740.000000	 62.737083 
739.000000	 62.699985 
738.000000	 62.667226 
737.000000	 62.641048 
736.000000	 62.622833 
735.000000	 62.613081 
734.000000	 62.611436 
733.000000	 62.616586 
732.000000	 62.626624 
731.000000	 62.639021 
730.000000	 62.651371 
729.000000	 62.662148 
728.000000	 62.670445 
727.000000	 62.676215 
726.000000	 62.679433 
725.000000	 62.680053 
724.000000	 62.676978 
723.000000	 62.668538 
722.000000	 62.652158 
721.000000	 62.625265 
720.000000	 62.586236 
719.000000	 62.535381 
718.000000	 62.475180 
717.000000	 62.410378 
716.000000	 62.346935 
715.000000	 62.291216 
714.000000	 62.248063 
713.000000	 62.220048 
712.000000	 62.206697 
711.000000	 62.204957 
710.000000	 62.210249 
709.000000	 62.217545 
708.000000	 62.223005 
707.000000	 62.224531 
706.000000	 62.220978 
705.000000	 62.212657 
704.000000	 62.200069 
703.000000	 62.184119 
702.000000	 62.165331 
701.000000	 62.144494 
700.000000	 62.122702 
699.000000	 62.101626 
698.000000	 62.083673 
697.000000	 62.071442 
696.000000	 62.067270 
695.000000	 62.072777 
694.000000	 62.088227 
693.000000	 62.112593 
692.000000	 62.143516 
691.000000	 62.177562 
690.000000	 62.210655 
689.000000	 62.239003 
688.000000	 62.259674 
687.000000	 62.270784 
686.000000	 62.271904 
685.000000	 62.264275 
684.000000	 62.250566 
683.000000	 62.234425 
682.000000	 62.220239 
681.000000	 62.212681 
680.000000	 62.215757 
679.000000	 62.232351 
678.000000	 62.263035 
677.000000	 62.306427 
676.000000	 62.358522 
675.000000	 62.413263 
674.000000	 62.463736 
673.000000	 62.503218 
672.000000	 62.527084 
671.000000	 62.533211 
670.000000	 62.523150 
669.000000	 62.501668 
668.000000	 62.475585 
667.000000	 62.452149 
666.000000	 62.437319 
665.000000	 62.434458 
664.000000	 62.443780 
663.000000	 62.462902 
662.000000	 62.487196 
661.000000	 62.511229 
660.000000	 62.530159 
659.000000	 62.541127 
658.000000	 62.542796 
657.000000	 62.535881 
656.000000	 62.522721 
655.000000	 62.506866 
654.000000	 62.491798 
653.000000	 62.480592 
652.000000	 62.475562 
651.000000	 62.478065 
650.000000	 62.488698 
649.000000	 62.507271 
648.000000	 62.533426 
647.000000	 62.566161 
646.000000	 62.603807 
645.000000	 62.643814 
644.000000	 62.683653 
643.000000	 62.719821 
642.000000	 62.748742 
641.000000	 62.766623 
640.000000	 62.770485 
639.000000	 62.758040 
638.000000	 62.728857 
637.000000	 62.683320 
636.000000	 62.622880 
635.000000	 62.549614 
634.000000	 62.466573 
633.000000	 62.376999 
632.000000	 62.284588 
631.000000	 62.193441 
630.000000	 62.107944 
629.000000	 62.032675 
628.000000	 61.972022 
627.000000	 61.929917 
626.000000	 61.908674 
625.000000	 61.908268 
624.000000	 61.925673 
623.000000	 61.954760 
622.000000	 61.987113 
621.000000	 62.012815 
620.000000	 62.022876 
619.000000	 62.010002 
618.000000	 61.972045 
617.000000	 61.911439 
616.000000	 61.837077 
615.000000	 61.761641 
614.000000	 61.700558 
613.000000	 61.668777 
612.000000	 61.676955 
611.000000	 61.729025 
610.000000	 61.820101 
609.000000	 61.937355 
608.000000	 62.062001 
607.000000	 62.173652 
606.000000	 62.254810 
605.000000	 62.295365 
604.000000	 62.295436 
603.000000	 62.265515 
602.000000	 62.223219 
601.000000	 62.188339 
600.000000	 62.178540 
599.000000	 62.203621 
598.000000	 62.263178 
597.000000	 62.346434 
596.000000	 62.436437 
595.000000	 62.514162 
594.000000	 62.564206 
593.000000	 62.578868 
592.000000	 62.560224 
591.000000	 62.518620 
590.000000	 62.469291 
589.000000	 62.427258 
588.000000	 62.402272 
587.000000	 62.396359 
586.000000	 62.403845 
585.000000	 62.413644 
584.000000	 62.413597 
583.000000	 62.395119 
582.000000	 62.356805 
581.000000	 62.305688 
580.000000	 62.255501 
579.000000	 62.223076 
578.000000	 62.223410 
577.000000	 62.264347 
576.000000	 62.344336 
575.000000	 62.453150 
574.000000	 62.574267 
573.000000	 62.688612 
572.000000	 62.779450 
571.000000	 62.837076 
570.000000	 62.860202 
569.000000	 62.855434 
568.000000	 62.834453 
567.000000	 62.809777 
566.000000	 62.790775 
565.000000	 62.782168 
564.000000	 62.781357 
563.000000	 62.780404 
562.000000	 62.768077 
561.000000	 62.734746 
560.000000	 62.675261 
559.000000	 62.591481 
558.000000	 62.492537 
557.000000	 62.392854 
556.000000	 62.308692 
555.000000	 62.253594 
554.000000	 62.235188 
553.000000	 62.252926 
552.000000	 62.298345 
551.000000	 62.356567 
550.000000	 62.409663 
549.000000	 62.440323 
548.000000	 62.434720 
547.000000	 62.386322 
546.000000	 62.294507 
545.000000	 62.167501 
544.000000	 62.019658 
543.000000	 61.871123 
542.000000	 61.743259 
541.000000	 61.656332 
540.000000	 61.625766 
539.000000	 61.659550 
538.000000	 61.756753 
537.000000	 61.907291 
536.000000	 62.094187 
535.000000	 62.295579 
534.000000	 62.488126 
533.000000	 62.651038 
532.000000	 62.768626 
531.000000	 62.832951 
530.000000	 62.843465 
529.000000	 62.808060 
528.000000	 62.740659 
527.000000	 62.658524 
526.000000	 62.578320 
525.000000	 62.511801 
524.000000	 62.463188 
523.000000	 62.429356 
522.000000	 62.401556 
521.000000	 62.367701 
520.000000	 62.317252 
519.000000	 62.244772 
518.000000	 62.153315 
517.000000	 62.053298 
516.000000	 61.961770 
515.000000	 61.897301 
514.000000	 61.875724 
513.000000	 61.905956 
512.000000	 61.986184 
511.000000	 62.104749 
510.000000	 62.240386 
509.000000	 62.367582 
508.000000	 62.460279 
507.000000	 62.498188 
506.000000	 62.469387 
505.000000	 62.372636 
504.000000	 62.216973 
503.000000	 62.018489 
502.000000	 61.800241 
501.000000	 61.588382 
500.000000	 61.407136 
499.000000	 61.275100 
498.000000	 61.204004 
497.000000	 61.197948 
496.000000	 61.252474 
495.000000	 61.357021 
494.000000	 61.497306 
493.000000	 61.658287 
492.000000	 61.826348 
491.000000	 61.990165 
490.000000	 62.139463 
489.000000	 62.265253 
488.000000	 62.358832 
487.000000	 62.412953 
486.000000	 62.421894 
485.000000	 62.384414 
484.000000	 62.306070 
483.000000	 62.198281 
482.000000	 62.079119 
481.000000	 61.967015 
480.000000	 61.880087 
479.000000	 61.827111 
478.000000	 61.807966 
477.000000	 61.808133 
476.000000	 61.803197 
475.000000	 61.762547 
474.000000	 61.658000 
473.000000	 61.471557 
472.000000	 61.201930 
471.000000	 60.866212 
470.000000	 60.497832 
469.000000	 60.141062 
468.000000	 59.841918 
467.000000	 59.637284 
466.000000	 59.548020 
465.000000	 59.574866 
464.000000	 59.700465 
463.000000	 59.893393 
462.000000	 60.117673 
461.000000	 60.338687 
460.000000	 60.531973 
459.000000	 60.686826 
458.000000	 60.803842 
457.000000	 60.890269 
456.000000	 60.952711 
455.000000	 60.991096 
454.000000	 60.997223 
453.000000	 60.956621 
452.000000	 60.854625 
451.000000	 60.684084 
450.000000	 60.451769 
449.000000	 60.182595 
448.000000	 59.913086 
447.000000	 59.685039 
446.000000	 59.535169 
445.000000	 59.486341 
444.000000	 59.545326 
443.000000	 59.701752 
442.000000	 59.931373 
441.000000	 60.202121 
440.000000	 60.482645 
439.000000	 60.746932 
438.000000	 60.976600 
437.000000	 61.161112 
436.000000	 61.293983 
435.000000	 61.372327 
434.000000	 61.395311 
433.000000	 61.364150 
432.000000	 61.281538 
431.000000	 61.154413 
430.000000	 60.996460 
429.000000	 60.827231 
428.000000	 60.671257 
427.000000	 60.554146 
426.000000	 60.500502 
425.000000	 60.525178 
424.000000	 60.628914 
423.000000	 60.798358 
422.000000	 61.009693 
421.000000	 61.228799 
420.000000	 61.417770 
419.000000	 61.538624 
418.000000	 61.560273 
417.000000	 61.457133 
416.000000	 61.214947 
415.000000	 60.833835 
414.000000	 60.332584 
413.000000	 59.748649 
412.000000	 59.137058 
411.000000	 58.564567 
410.000000	 58.099341 
409.000000	 57.801795 
408.000000	 57.710957 
407.000000	 57.828831 
406.000000	 58.127856 
405.000000	 58.552217 
404.000000	 59.039998 
403.000000	 59.523057 
402.000000	 59.961438 
401.000000	 60.345363 
400.000000	 60.700631 
399.000000	 61.077928 
398.000000	 61.525893 
397.000000	 62.063622 
396.000000	 62.677979 
395.000000	 63.323473 
394.000000	 63.930130 
393.000000	 64.424443 
392.000000	 64.747285 
391.000000	 64.870119 
390.000000	 64.819645 
389.000000	 64.668917 
388.000000	 64.505505 
387.000000	 64.404177 
386.000000	 64.405727 
385.000000	 64.500522 
384.000000	 64.640140 
383.000000	 64.742374 
382.000000	 64.728593 
381.000000	 64.529514 
380.000000	 64.114570 
379.000000	 63.484787 
378.000000	 62.663531 
377.000000	 61.708259 
376.000000	 60.642743 
375.000000	 59.549498 
374.000000	 58.558201 
373.000000	 57.863593 
372.000000	 57.703900 
371.000000	 58.286333 
370.000000	 59.737610 

