PE IR       SPECTRUM    SPECTRUM    ASCII       PEDS        1.60        
  -1
BZBB70~1.ASC
17/04/07
21:28:12.00
17/04/07
21:28:12.00
tln
$BZ1503107-1_t0100$<tbV0>[13.0,10.4,8.0,0.0,27,1,0]
370.000000
64









2002,4.07    
MIRTGS : RIGHTBACK : INTERNAL 2
MIR : ON : INTERNAL 2
OPTKBR

0.200000
8
8.000000
FILLER
RATIO
SPECTRUM
UNLOCKED 256

DOUBLE
64
COMBINED
1
0
0


1.000000
RATIO


1
0
TRUE
51149
0
LEFT NOT FITTED RIGHT NOT FITTED 0
NONE
NONE
15600
12.000000
4.427000
51148
TRUE
1 0 8 72 0 0 0 0 

15798.010000






#HDR
-1
-1
#GR
CM-1
%T
0.00002384185791015625
0.0
5000.000000
-1.000000
4631
8
77.706694
50.846934
#DATA
5000.000000	65.036201 
4999.000000	64.873409 
4998.000000	64.759850 
4997.000000	64.706325 
4996.000000	64.716887 
4995.000000	64.785289 
4994.000000	64.898920 
4993.000000	65.039467 
4992.000000	65.188241 
4991.000000	65.329599 
4990.000000	65.451431 
4989.000000	65.547657 
4988.000000	65.610647 
4987.000000	65.630292 
4986.000000	65.591216 
4985.000000	65.476107 
4984.000000	65.267229 
4983.000000	64.953231 
4982.000000	64.536762 
4981.000000	64.038443 
4980.000000	63.495922 
4979.000000	62.959384 
4978.000000	62.481546 
4977.000000	62.108826 
4976.000000	61.871194 
4975.000000	61.779165 
4974.000000	61.819386 
4973.000000	61.964321 
4972.000000	62.176728 
4971.000000	62.422728 
4970.000000	62.675571 
4969.000000	62.922263 
4968.000000	63.157129 
4967.000000	63.383817 
4966.000000	63.603663 
4965.000000	63.818883 
4964.000000	64.026451 
4963.000000	64.223122 
4962.000000	64.405393 
4961.000000	64.575386 
4960.000000	64.742255 
4959.000000	64.920711 
4958.000000	65.127682 
4957.000000	65.376186 
4956.000000	65.669751 
4955.000000	65.998888 
4954.000000	66.339898 
4953.000000	66.656970 
4952.000000	66.908454 
4951.000000	67.057347 
4950.000000	67.079615 
4949.000000	66.969132 
4948.000000	66.741681 
4947.000000	66.434097 
4946.000000	66.097617 
4945.000000	65.788626 
4944.000000	65.555953 
4943.000000	65.436267 
4942.000000	65.441012 
4941.000000	65.559053 
4940.000000	65.754532 
4939.000000	65.976810 
4938.000000	66.170525 
4937.000000	66.288256 
4936.000000	66.300058 
4935.000000	66.196060 
4934.000000	65.992116 
4933.000000	65.723443 
4932.000000	65.436577 
4931.000000	65.177178 
4930.000000	64.982056 
4929.000000	64.871788 
4928.000000	64.847683 
4927.000000	64.893770 
4926.000000	64.983534 
4925.000000	65.087199 
4924.000000	65.177774 
4923.000000	65.236878 
4922.000000	65.255403 
4921.000000	65.235233 
4920.000000	65.181827 
4919.000000	65.106296 
4918.000000	65.021634 
4917.000000	64.941692 
4916.000000	64.880800 
4915.000000	64.849281 
4914.000000	64.853596 
4913.000000	64.892315 
4912.000000	64.959001 
4911.000000	65.039443 
4910.000000	65.114235 
4909.000000	65.162849 
4908.000000	65.167713 
4907.000000	65.119433 
4906.000000	65.018892 
4905.000000	64.878726 
4904.000000	64.720559 
4903.000000	64.570736 
4902.000000	64.454483 
4901.000000	64.390873 
4900.000000	64.388513 
4899.000000	64.443635 
4898.000000	64.541053 
4897.000000	64.658665 
4896.000000	64.772200 
4895.000000	64.859104 
4894.000000	64.904046 
4893.000000	64.899110 
4892.000000	64.847254 
4891.000000	64.759945 
4890.000000	64.655709 
4889.000000	64.555168 
4888.000000	64.476919 
4887.000000	64.433789 
4886.000000	64.430618 
4885.000000	64.464569 
4884.000000	64.526534 
4883.000000	64.604043 
4882.000000	64.685130 
4881.000000	64.760947 
4880.000000	64.827728 
4879.000000	64.886450 
4878.000000	64.940977 
4877.000000	64.995169 
4876.000000	65.050840 
4875.000000	65.105986 
4874.000000	65.155100 
4873.000000	65.190291 
4872.000000	65.203905 
4871.000000	65.190649 
4870.000000	65.150523 
4869.000000	65.088438 
4868.000000	65.012741 
4867.000000	64.933228 
4866.000000	64.858388 
4865.000000	64.794182 
4864.000000	64.743566 
4863.000000	64.706993 
4862.000000	64.683365 
4861.000000	64.671230 
4860.000000	64.670133 
4859.000000	64.679908 
4858.000000	64.700770 
4857.000000	64.731431 
4856.000000	64.767670 
4855.000000	64.802956 
4854.000000	64.829087 
4853.000000	64.838361 
4852.000000	64.825320 
4851.000000	64.788866 
4850.000000	64.732789 
4849.000000	64.664912 
4848.000000	64.595317 
4847.000000	64.533591 
4846.000000	64.486432 
4845.000000	64.456677 
4844.000000	64.442658 
4843.000000	64.439487 
4842.000000	64.440584 
4841.000000	64.440035 
4840.000000	64.434194 
4839.000000	64.421510 
4838.000000	64.403390 
4837.000000	64.382171 
4836.000000	64.361715 
4835.000000	64.345049 
4834.000000	64.335489 
4833.000000	64.335298 
4832.000000	64.346623 
4831.000000	64.371633 
4830.000000	64.411616 
4829.000000	64.466452 
4828.000000	64.534306 
4827.000000	64.611077 
4826.000000	64.691829 
4825.000000	64.771318 
4824.000000	64.845800 
4823.000000	64.913487 
4822.000000	64.974808 
4821.000000	65.031218 
4820.000000	65.084457 
4819.000000	65.134739 
4818.000000	65.179252 
4817.000000	65.212035 
4816.000000	65.225648 
4815.000000	65.212845 
4814.000000	65.169262 
4813.000000	65.095400 
4812.000000	64.998173 
4811.000000	64.889764 
4810.000000	64.785838 
4809.000000	64.702081 
4808.000000	64.650416 
4807.000000	64.636993 
4806.000000	64.661359 
4805.000000	64.716792 
4804.000000	64.792132 
4803.000000	64.874458 
4802.000000	64.951586 
4801.000000	65.014791 
4800.000000	65.059137 
4799.000000	65.084934 
4798.000000	65.095949 
4797.000000	65.098667 
4796.000000	65.099763 
4795.000000	65.104913 
4794.000000	65.117406 
4793.000000	65.137743 
4792.000000	65.163731 
4791.000000	65.191626 
4790.000000	65.216779 
4789.000000	65.234923 
4788.000000	65.242624 
4787.000000	65.238118 
4786.000000	65.220928 
4785.000000	65.191841 
4784.000000	65.152096 
4783.000000	65.103101 
4782.000000	65.046358 
4781.000000	64.983391 
4780.000000	64.916539 
4779.000000	64.848494 
4778.000000	64.783120 
4777.000000	64.725375 
4776.000000	64.680504 
4775.000000	64.652657 
4774.000000	64.644765 
4773.000000	64.656758 
4772.000000	64.686703 
4771.000000	64.730834 
4770.000000	64.784026 
4769.000000	64.840555 
4768.000000	64.895391 
4767.000000	64.944767 
4766.000000	64.986276 
4765.000000	65.018391 
4764.000000	65.040326 
4763.000000	65.051412 
4762.000000	65.051436 
4761.000000	65.040349 
4760.000000	65.019154 
4759.000000	64.989829 
4758.000000	64.955854 
4757.000000	64.921879 
4756.000000	64.893412 
4755.000000	64.875793 
4754.000000	64.873170 
4753.000000	64.887452 
4752.000000	64.918279 
4751.000000	64.962339 
4750.000000	65.014624 
4749.000000	65.068364 
4748.000000	65.116214 
4747.000000	65.151166 
4746.000000	65.167832 
4745.000000	65.162897 
4744.000000	65.135598 
4743.000000	65.088129 
4742.000000	65.025234 
4741.000000	64.954137 
4740.000000	64.883351 
4739.000000	64.821720 
4738.000000	64.776921 
4737.000000	64.754390 
4736.000000	64.755988 
4735.000000	64.779472 
4734.000000	64.818763 
4733.000000	64.865207 
4732.000000	64.909076 
4731.000000	64.941143 
4730.000000	64.954853 
4729.000000	64.946699 
4728.000000	64.917612 
4727.000000	64.871883 
4726.000000	64.817070 
4725.000000	64.762043 
4724.000000	64.715671 
4723.000000	64.685177 
4722.000000	64.674305 
4721.000000	64.683127 
4720.000000	64.708089 
4719.000000	64.742970 
4718.000000	64.780759 
4717.000000	64.815449 
4716.000000	64.843344 
4715.000000	64.863657 
4714.000000	64.878201 
4713.000000	64.890146 
4712.000000	64.902710 
4711.000000	64.917802 
4710.000000	64.935040 
4709.000000	64.952063 
4708.000000	64.965176 
4707.000000	64.970946 
4706.000000	64.967513 
4705.000000	64.955520 
4704.000000	64.938497 
4703.000000	64.921665 
4702.000000	64.910340 
4701.000000	64.908409 
4700.000000	64.916825 
4699.000000	64.933586 
4698.000000	64.954161 
4697.000000	64.972901 
4696.000000	64.984750 
4695.000000	64.986824 
4694.000000	64.978814 
4693.000000	64.963674 
4692.000000	64.946436 
4691.000000	64.933538 
4690.000000	64.930725 
4689.000000	64.942216 
4688.000000	64.969515 
4687.000000	65.010452 
4686.000000	65.059638 
4685.000000	65.109014 
4684.000000	65.149831 
4683.000000	65.173888 
4682.000000	65.175724 
4681.000000	65.153431 
4680.000000	65.109753 
4679.000000	65.051436 
4678.000000	64.988303 
4677.000000	64.931392 
4676.000000	64.890599 
4675.000000	64.873075 
4674.000000	64.881491 
4673.000000	64.913678 
4672.000000	64.963173 
4671.000000	65.021204 
4670.000000	65.078377 
4669.000000	65.126228 
4668.000000	65.159511 
4667.000000	65.176582 
4666.000000	65.179681 
4665.000000	65.173172 
4664.000000	65.163445 
4663.000000	65.156936 
4662.000000	65.159153 
4661.000000	65.173459 
4660.000000	65.200304 
4659.000000	65.237450 
4658.000000	65.280485 
4657.000000	65.324068 
4656.000000	65.362858 
4655.000000	65.392780 
4654.000000	65.411448 
4653.000000	65.418672 
4652.000000	65.415978 
4651.000000	65.405941 
4650.000000	65.391492 
4649.000000	65.374803 
4648.000000	65.357327 
4647.000000	65.338945 
4646.000000	65.319156 
4645.000000	65.296411 
4644.000000	65.269017 
4643.000000	65.235447 
4642.000000	65.195059 
4641.000000	65.148282 
4640.000000	65.096759 
4639.000000	65.043544 
4638.000000	64.992046 
4637.000000	64.946651 
4636.000000	64.911818 
4635.000000	64.891314 
4634.000000	64.887452 
4633.000000	64.900755 
4632.000000	64.929652 
4631.000000	64.970636 
4630.000000	65.018725 
4629.000000	65.068387 
4628.000000	65.114545 
4627.000000	65.153145 
4626.000000	65.181708 
4625.000000	65.199303 
4624.000000	65.206456 
4623.000000	65.204262 
4622.000000	65.194535 
4621.000000	65.179347 
4620.000000	65.160560 
4619.000000	65.140461 
4618.000000	65.121173 
4617.000000	65.105366 
4616.000000	65.095043 
4615.000000	65.092134 
4614.000000	65.097069 
4613.000000	65.109014 
4612.000000	65.125441 
4611.000000	65.142631 
4610.000000	65.156435 
4609.000000	65.162920 
4608.000000	65.159463 
4607.000000	65.145421 
4606.000000	65.122151 
4605.000000	65.092635 
4604.000000	65.060877 
4603.000000	65.031051 
4602.000000	65.006732 
4601.000000	64.990353 
4600.000000	64.983057 
4599.000000	64.984607 
4598.000000	64.993786 
4597.000000	65.008258 
4596.000000	65.025258 
4595.000000	65.041232 
4594.000000	65.052509 
4593.000000	65.055537 
4592.000000	65.047192 
4591.000000	65.025615 
4590.000000	64.990520 
4589.000000	64.943885 
4588.000000	64.889764 
4587.000000	64.833807 
4586.000000	64.782619 
4585.000000	64.741873 
4584.000000	64.715480 
4583.000000	64.704132 
4582.000000	64.705324 
4581.000000	64.713788 
4580.000000	64.722847 
4579.000000	64.726257 
4578.000000	64.719724 
4577.000000	64.702486 
4576.000000	64.677381 
4575.000000	64.649844 
4574.000000	64.626741 
4573.000000	64.614272 
4572.000000	64.616560 
4571.000000	64.634561 
4570.000000	64.665913 
4569.000000	64.706158 
4568.000000	64.749550 
4567.000000	64.791178 
4566.000000	64.827442 
4565.000000	64.856982 
4564.000000	64.879631 
4563.000000	64.896035 
4562.000000	64.906454 
4561.000000	64.910101 
4560.000000	64.905571 
4559.000000	64.891433 
4558.000000	64.867329 
4557.000000	64.834833 
4556.000000	64.797973 
4555.000000	64.762926 
4554.000000	64.737033 
4553.000000	64.727210 
4552.000000	64.738917 
4551.000000	64.774894 
4550.000000	64.834213 
4549.000000	64.912366 
4548.000000	65.002012 
4547.000000	65.093946 
4546.000000	65.178537 
4545.000000	65.247321 
4544.000000	65.294194 
4543.000000	65.316271 
4542.000000	65.314364 
4541.000000	65.292119 
4540.000000	65.255427 
4539.000000	65.210342 
4538.000000	65.163683 
4537.000000	65.119957 
4536.000000	65.082025 
4535.000000	65.049767 
4534.000000	65.021848 
4533.000000	64.995288 
4532.000000	64.966726 
4531.000000	64.933228 
4530.000000	64.893054 
4529.000000	64.845776 
4528.000000	64.792299 
4527.000000	64.734554 
4526.000000	64.674925 
4525.000000	64.615726 
4524.000000	64.558911 
4523.000000	64.505982 
4522.000000	64.458084 
4521.000000	64.416098 
4520.000000	64.381122 
4519.000000	64.353752 
4518.000000	64.334940 
4517.000000	64.325165 
4516.000000	64.325475 
4515.000000	64.336109 
4514.000000	64.358139 
4513.000000	64.392089 
4512.000000	64.439105 
4511.000000	64.499568 
4510.000000	64.573526 
4509.000000	64.660263 
4508.000000	64.757347 
4507.000000	64.860916 
4506.000000	64.964652 
4505.000000	65.060067 
4504.000000	65.138411 
4503.000000	65.192008 
4502.000000	65.217256 
4501.000000	65.215873 
4500.000000	65.195226 
4499.000000	65.167450 
4498.000000	65.144109 
4497.000000	65.133237 
4496.000000	65.136933 
4495.000000	65.151357 
4494.000000	65.169596 
4493.000000	65.184330 
4492.000000	65.192890 
4491.000000	65.197372 
4490.000000	65.202760 
4489.000000	65.215754 
4488.000000	65.240049 
4487.000000	65.276789 
4486.000000	65.325665 
4485.000000	65.383315 
4484.000000	65.445899 
4483.000000	65.507435 
4482.000000	65.560102 
4481.000000	65.596103 
4480.000000	65.609622 
4479.000000	65.597987 
4478.000000	65.561580 
4477.000000	65.506243 
4476.000000	65.442657 
4475.000000	65.384554 
4474.000000	65.345859 
4473.000000	65.337395 
4472.000000	65.364861 
4471.000000	65.424418 
4470.000000	65.504884 
4469.000000	65.586781 
4468.000000	65.647912 
4467.000000	65.684843 
4466.000000	65.709400 
4465.000000	65.744662 
4464.000000	65.811085 
4463.000000	65.910673 
4462.000000	66.024684 
4461.000000	66.105794 
4460.000000	66.103386 
4459.000000	65.981292 
4458.000000	65.737509 
4457.000000	65.419054 
4456.000000	65.105438 
4455.000000	64.886116 
4454.000000	64.838576 
4453.000000	64.995527 
4452.000000	65.349674 
4451.000000	65.850925 
4450.000000	66.431093 
4449.000000	67.027521 
4448.000000	67.590546 
4447.000000	68.096232 
4446.000000	68.527436 
4445.000000	68.869113 
4444.000000	69.074058 
4443.000000	69.063854 
4442.000000	68.733882 
4441.000000	67.985033 
4440.000000	66.763329 
4439.000000	65.094065 
4438.000000	63.104271 
4437.000000	61.010050 
4436.000000	59.077835 
4435.000000	57.571077 
4434.000000	56.682538 
4433.000000	56.500506 
4432.000000	56.986594 
4431.000000	57.995772 
4430.000000	59.308695 
4429.000000	60.691499 
4428.000000	61.937427 
4427.000000	62.916040 
4426.000000	63.570427 
4425.000000	63.933444 
4424.000000	64.086055 
4423.000000	64.139437 
4422.000000	64.190173 
4421.000000	64.303231 
4420.000000	64.499855 
4419.000000	64.760804 
4418.000000	65.046095 
4417.000000	65.304851 
4416.000000	65.497684 
4415.000000	65.600371 
4414.000000	65.611100 
4413.000000	65.542459 
4412.000000	65.417528 
4411.000000	65.262603 
4410.000000	65.101957 
4409.000000	64.953708 
4408.000000	64.828205 
4407.000000	64.736628 
4406.000000	64.685034 
4405.000000	64.672207 
4404.000000	64.690995 
4403.000000	64.732956 
4402.000000	64.787054 
4401.000000	64.838123 
4400.000000	64.873194 
4399.000000	64.881682 
4398.000000	64.860033 
4397.000000	64.813756 
4396.000000	64.752817 
4395.000000	64.685082 
4394.000000	64.620923 
4393.000000	64.571595 
4392.000000	64.546179 
4391.000000	64.550399 
4390.000000	64.584827 
4389.000000	64.645099 
4388.000000	64.721727 
4387.000000	64.802074 
4386.000000	64.873409 
4385.000000	64.925694 
4384.000000	64.952421 
4383.000000	64.952635 
4382.000000	64.930844 
4381.000000	64.896297 
4380.000000	64.860534 
4379.000000	64.834928 
4378.000000	64.827871 
4377.000000	64.843440 
4376.000000	64.881610 
4375.000000	64.938259 
4374.000000	65.006780 
4373.000000	65.079712 
4372.000000	65.150642 
4371.000000	65.215253 
4370.000000	65.271615 
4369.000000	65.320014 
4368.000000	65.361666 
4367.000000	65.398216 
4366.000000	65.431046 
4365.000000	65.460562 
4364.000000	65.486359 
4363.000000	65.507102 
4362.000000	65.521121 
4361.000000	65.526652 
4360.000000	65.522217 
4359.000000	65.506887 
4358.000000	65.480566 
4357.000000	65.444087 
4356.000000	65.399336 
4355.000000	65.349698 
4354.000000	65.299272 
4353.000000	65.252804 
4352.000000	65.214228 
4351.000000	65.185952 
4350.000000	65.168356 
4349.000000	65.159296 
4348.000000	65.155124 
4347.000000	65.151357 
4346.000000	65.144276 
4345.000000	65.131831 
4344.000000	65.114259 
4343.000000	65.093946 
4342.000000	65.074419 
4341.000000	65.058660 
4340.000000	65.048480 
4339.000000	65.043997 
4338.000000	65.043091 
4337.000000	65.041875 
4336.000000	65.036177 
4335.000000	65.022921 
4334.000000	65.000939 
4333.000000	64.971876 
4332.000000	64.939975 
4331.000000	64.911246 
4330.000000	64.892005 
4329.000000	64.887738 
4328.000000	64.901304 
4327.000000	64.932775 
4326.000000	64.979314 
4325.000000	65.035939 
4324.000000	65.096592 
4323.000000	65.155220 
4322.000000	65.207314 
4321.000000	65.249896 
4320.000000	65.281558 
4319.000000	65.302133 
4318.000000	65.312147 
4317.000000	65.312099 
4316.000000	65.302419 
4315.000000	65.283179 
4314.000000	65.254759 
4313.000000	65.217947 
4312.000000	65.174961 
4311.000000	65.129017 
4310.000000	65.084457 
4309.000000	65.046238 
4308.000000	65.019249 
4307.000000	65.007352 
4306.000000	65.012717 
4305.000000	65.035223 
4304.000000	65.072441 
4303.000000	65.120148 
4302.000000	65.172839 
4301.000000	65.224480 
4300.000000	65.269756 
4299.000000	65.304541 
4298.000000	65.326571 
4297.000000	65.335416 
4296.000000	65.332198 
4295.000000	65.319657 
4294.000000	65.300488 
4293.000000	65.277385 
4292.000000	65.251374 
4291.000000	65.223050 
4290.000000	65.191268 
4289.000000	65.154671 
4288.000000	65.111398 
4287.000000	65.060377 
4286.000000	65.001296 
4285.000000	64.934992 
4284.000000	64.863634 
4283.000000	64.790678 
4282.000000	64.720869 
4281.000000	64.659547 
4280.000000	64.612030 
4279.000000	64.582729 
4278.000000	64.573979 
4277.000000	64.585542 
4276.000000	64.613747 
4275.000000	64.652800 
4274.000000	64.695239 
4273.000000	64.734292 
4272.000000	64.764261 
4271.000000	64.782929 
4270.000000	64.791607 
4269.000000	64.795064 
4268.000000	64.799666 
4267.000000	64.811587 
4266.000000	64.835309 
4265.000000	64.871931 
4264.000000	64.919090 
4263.000000	64.971303 
4262.000000	65.021562 
4261.000000	65.063285 
4260.000000	65.092444 
4259.000000	65.107655 
4258.000000	65.110206 
4257.000000	65.103793 
4256.000000	65.093016 
4255.000000	65.082025 
4254.000000	65.073394 
4253.000000	65.068316 
4252.000000	65.066313 
4251.000000	65.065884 
4250.000000	65.064716 
4249.000000	65.060758 
4248.000000	65.052270 
4247.000000	65.037894 
4246.000000	65.016651 
4245.000000	64.987635 
4244.000000	64.950323 
4243.000000	64.904689 
4242.000000	64.851570 
4241.000000	64.792990 
4240.000000	64.732551 
4239.000000	64.675021 
4238.000000	64.626121 
4237.000000	64.591264 
4236.000000	64.574956 
4235.000000	64.579367 
4234.000000	64.604234 
4233.000000	64.646530 
4232.000000	64.701437 
4231.000000	64.763045 
4230.000000	64.825391 
4229.000000	64.883065 
4228.000000	64.932012 
4227.000000	64.969706 
4226.000000	64.994740 
4225.000000	65.006494 
4224.000000	65.005135 
4223.000000	64.991307 
4222.000000	64.966416 
4221.000000	64.932632 
4220.000000	64.893102 
4219.000000	64.851975 
4218.000000	64.814186 
4217.000000	64.784979 
4216.000000	64.768886 
4215.000000	64.769482 
4214.000000	64.788556 
4213.000000	64.826202 
4212.000000	64.880323 
4211.000000	64.947462 
4210.000000	65.023064 
4209.000000	65.101957 
4208.000000	65.178442 
4207.000000	65.247178 
4206.000000	65.303683 
4205.000000	65.344500 
4204.000000	65.367865 
4203.000000	65.373563 
4202.000000	65.362977 
4201.000000	65.338063 
4200.000000	65.301060 
4199.000000	65.253686 
4198.000000	65.197277 
4197.000000	65.133190 
4196.000000	65.063190 
4195.000000	64.989972 
4194.000000	64.917349 
4193.000000	64.850401 
4192.000000	64.794802 
4191.000000	64.755678 
4190.000000	64.736723 
4189.000000	64.739060 
4188.000000	64.761328 
4187.000000	64.799022 
4186.000000	64.846348 
4185.000000	64.896631 
4184.000000	64.944005 
4183.000000	64.984154 
4182.000000	65.014839 
4181.000000	65.035843 
4180.000000	65.048456 
4179.000000	65.054225 
4178.000000	65.055179 
4177.000000	65.053439 
4176.000000	65.050554 
4175.000000	65.047645 
4174.000000	65.044999 
4173.000000	65.042400 
4172.000000	65.039110 
4171.000000	65.033960 
4170.000000	65.025663 
4169.000000	65.013170 
4168.000000	64.996194 
4167.000000	64.975404 
4166.000000	64.951896 
4165.000000	64.927196 
4164.000000	64.903044 
4163.000000	64.881181 
4162.000000	64.862751 
4161.000000	64.848208 
4160.000000	64.837670 
4159.000000	64.830970 
4158.000000	64.827632 
4157.000000	64.826774 
4156.000000	64.827609 
4155.000000	64.828729 
4154.000000	64.828419 
4153.000000	64.824557 
4152.000000	64.814639 
4151.000000	64.796853 
4150.000000	64.770531 
4149.000000	64.736676 
4148.000000	64.698219 
4147.000000	64.659500 
4146.000000	64.625549 
4145.000000	64.601230 
4144.000000	64.590406 
4143.000000	64.594793 
4142.000000	64.613962 
4141.000000	64.645648 
4140.000000	64.686131 
4139.000000	64.730906 
4138.000000	64.775586 
4137.000000	64.816379 
4136.000000	64.850783 
4135.000000	64.877533 
4134.000000	64.896464 
4133.000000	64.908146 
4132.000000	64.913535 
4131.000000	64.913725 
4130.000000	64.909482 
4129.000000	64.901685 
4128.000000	64.890837 
4127.000000	64.877796 
4126.000000	64.863252 
4125.000000	64.848327 
4124.000000	64.834284 
4123.000000	64.822602 
4122.000000	64.814901 
4121.000000	64.812779 
4120.000000	64.817762 
4119.000000	64.831089 
4118.000000	64.853668 
4117.000000	64.885854 
4116.000000	64.927244 
4115.000000	64.976382 
4114.000000	65.030860 
4113.000000	65.087151 
4112.000000	65.140891 
4111.000000	65.187191 
4110.000000	65.221500 
4109.000000	65.240216 
4108.000000	65.241694 
4107.000000	65.226078 
4106.000000	65.195822 
4105.000000	65.154623 
4104.000000	65.107107 
4103.000000	65.057516 
4102.000000	65.009355 
4101.000000	64.964747 
4100.000000	64.924931 
4099.000000	64.890170 
4098.000000	64.860486 
4097.000000	64.836096 
4096.000000	64.817547 
4095.000000	64.805841 
4094.000000	64.801883 
4093.000000	64.806365 
4092.000000	64.819335 
4091.000000	64.840006 
4090.000000	64.866662 
4089.000000	64.897036 
4088.000000	64.928817 
4087.000000	64.959764 
4086.000000	64.988017 
4085.000000	65.012359 
4084.000000	65.032243 
4083.000000	65.047478 
4082.000000	65.058255 
4081.000000	65.065741 
4080.000000	65.071010 
4079.000000	65.075278 
4078.000000	65.079069 
4077.000000	65.082359 
4076.000000	65.084075 
4075.000000	65.082406 
4074.000000	65.075016 
4073.000000	65.059757 
4072.000000	65.035676 
4071.000000	65.003728 
4070.000000	64.966726 
4069.000000	64.928770 
4068.000000	64.894533 
4067.000000	64.868307 
4066.000000	64.852476 
4065.000000	64.847064 
4064.000000	64.849829 
4063.000000	64.856982 
4062.000000	64.864420 
4061.000000	64.868998 
4060.000000	64.869713 
4059.000000	64.867401 
4058.000000	64.864587 
4057.000000	64.863920 
4056.000000	64.866614 
4055.000000	64.872026 
4054.000000	64.876961 
4053.000000	64.877104 
4052.000000	64.867687 
4051.000000	64.846014 
4050.000000	64.812350 
4049.000000	64.770889 
4048.000000	64.728689 
4047.000000	64.694333 
4046.000000	64.675402 
4045.000000	64.676690 
4044.000000	64.698386 
4043.000000	64.736461 
4042.000000	64.783620 
4041.000000	64.831542 
4040.000000	64.873099 
4039.000000	64.904332 
4038.000000	64.925050 
4037.000000	64.938545 
4036.000000	64.950180 
4035.000000	64.965391 
4034.000000	64.987802 
4033.000000	65.018129 
4032.000000	65.053749 
4031.000000	65.090036 
4030.000000	65.121221 
4029.000000	65.142869 
4028.000000	65.152478 
4027.000000	65.150284 
4026.000000	65.138697 
4025.000000	65.121603 
4024.000000	65.103197 
4023.000000	65.086507 
4022.000000	65.073084 
4021.000000	65.062999 
4020.000000	65.055298 
4019.000000	65.048599 
4018.000000	65.041947 
4017.000000	65.035247 
4016.000000	65.029191 
4015.000000	65.024948 
4014.000000	65.023541 
4013.000000	65.025043 
4012.000000	65.028405 
4011.000000	65.031361 
4010.000000	65.030789 
4009.000000	65.023541 
4008.000000	65.007662 
4007.000000	64.982962 
4006.000000	64.951133 
4005.000000	64.915657 
4004.000000	64.881205 
4003.000000	64.852619 
4002.000000	64.834094 
4001.000000	64.828348 
4000.000000	64.836263 
3999.000000	64.856886 
3998.000000	64.887809 
3997.000000	64.925479 
3996.000000	64.965796 
3995.000000	65.004801 
3994.000000	65.038752 
3993.000000	65.064525 
3992.000000	65.079808 
3991.000000	65.083336 
3990.000000	65.075111 
3989.000000	65.056371 
3988.000000	65.029501 
3987.000000	64.997696 
3986.000000	64.964747 
3985.000000	64.933729 
3984.000000	64.906334 
3983.000000	64.882922 
3982.000000	64.862871 
3981.000000	64.844775 
3980.000000	64.827513 
3979.000000	64.810633 
3978.000000	64.795041 
3977.000000	64.782857 
3976.000000	64.776921 
3975.000000	64.779615 
3974.000000	64.792418 
3973.000000	64.815211 
3972.000000	64.846086 
3971.000000	64.881920 
3970.000000	64.918684 
3969.000000	64.952230 
3968.000000	64.978766 
3967.000000	64.995789 
3966.000000	65.001988 
3965.000000	64.997410 
3964.000000	64.983654 
3963.000000	64.963197 
3962.000000	64.940237 
3961.000000	64.919996 
3960.000000	64.908456 
3959.000000	64.911222 
3958.000000	64.932084 
3957.000000	64.972066 
3956.000000	65.028238 
3955.000000	65.094017 
3954.000000	65.159678 
3953.000000	65.214371 
3952.000000	65.248179 
3951.000000	65.254497 
3950.000000	65.231204 
3949.000000	65.181398 
3948.000000	65.112996 
3947.000000	65.036845 
3946.000000	64.964628 
3945.000000	64.906430 
3944.000000	64.869189 
3943.000000	64.855456 
3942.000000	64.863753 
3941.000000	64.889192 
3940.000000	64.925146 
3939.000000	64.964532 
3938.000000	65.001010 
3937.000000	65.030050 
3936.000000	65.049004 
3935.000000	65.057349 
3934.000000	65.056037 
3933.000000	65.047049 
3932.000000	65.032625 
3931.000000	65.014863 
3930.000000	64.995193 
3929.000000	64.974427 
3928.000000	64.952683 
3927.000000	64.929699 
3926.000000	64.905333 
3925.000000	64.879679 
3924.000000	64.853572 
3923.000000	64.828705 
3922.000000	64.807558 
3921.000000	64.792346 
3920.000000	64.785099 
3919.000000	64.786672 
3918.000000	64.797163 
3917.000000	64.815163 
3916.000000	64.839076 
3915.000000	64.866828 
3914.000000	64.897346 
3913.000000	64.930534 
3912.000000	64.966893 
3911.000000	65.006780 
3910.000000	65.049791 
3909.000000	65.093874 
3908.000000	65.135502 
3907.000000	65.170168 
3906.000000	65.193367 
3905.000000	65.201544 
3904.000000	65.193891 
3903.000000	65.172743 
3902.000000	65.143489 
3901.000000	65.113496 
3900.000000	65.090107 
3899.000000	65.078687 
3898.000000	65.081381 
3897.000000	65.096449 
3896.000000	65.118551 
3895.000000	65.140223 
3894.000000	65.154099 
3893.000000	65.154981 
3892.000000	65.140771 
3891.000000	65.113568 
3890.000000	65.078568 
3889.000000	65.043377 
3888.000000	65.015482 
3887.000000	65.000748 
3886.000000	65.002155 
3885.000000	65.018582 
3884.000000	65.045619 
3883.000000	65.075874 
3882.000000	65.101361 
3881.000000	65.114784 
3880.000000	65.111374 
3879.000000	65.089535 
3878.000000	65.051007 
3877.000000	65.000820 
3876.000000	64.945936 
3875.000000	64.893770 
3874.000000	64.850687 
3873.000000	64.821052 
3872.000000	64.806509 
3871.000000	64.806079 
3870.000000	64.816880 
3869.000000	64.834809 
3868.000000	64.856028 
3867.000000	64.877414 
3866.000000	64.897656 
3865.000000	64.916467 
3864.000000	64.934992 
3863.000000	64.954495 
3862.000000	64.976453 
3861.000000	65.001821 
3860.000000	65.030860 
3859.000000	65.063405 
3858.000000	65.098357 
3857.000000	65.134167 
3856.000000	65.168523 
3855.000000	65.199422 
3854.000000	65.224075 
3853.000000	65.239667 
3852.000000	65.243625 
3851.000000	65.234208 
3850.000000	65.211081 
3849.000000	65.175700 
3848.000000	65.131664 
3847.000000	65.084123 
3846.000000	65.039205 
3845.000000	65.002846 
3844.000000	64.979767 
3843.000000	64.972496 
3842.000000	64.980792 
3841.000000	65.001893 
3840.000000	65.030765 
3839.000000	65.061593 
3838.000000	65.088868 
3837.000000	65.108633 
3836.000000	65.118527 
3835.000000	65.118741 
3834.000000	65.111303 
3833.000000	65.099811 
3832.000000	65.088081 
3831.000000	65.079665 
3830.000000	65.077400 
3829.000000	65.082550 
3828.000000	65.095257 
3827.000000	65.114045 
3826.000000	65.136647 
3825.000000	65.159940 
3824.000000	65.180826 
3823.000000	65.196728 
3822.000000	65.205907 
3821.000000	65.207958 
3820.000000	65.203547 
3819.000000	65.194368 
3818.000000	65.182352 
3817.000000	65.169525 
3816.000000	65.157270 
3815.000000	65.146040 
3814.000000	65.135407 
3813.000000	65.124511 
3812.000000	65.112400 
3811.000000	65.098595 
3810.000000	65.083479 
3809.000000	65.068125 
3808.000000	65.054368 
3807.000000	65.044283 
3806.000000	65.039682 
3805.000000	65.041065 
3804.000000	65.047836 
3803.000000	65.058231 
3802.000000	65.069699 
3801.000000	65.079450 
3800.000000	65.085244 
3799.000000	65.085792 
3798.000000	65.081143 
3797.000000	65.072488 
3796.000000	65.061974 
3795.000000	65.052199 
3794.000000	65.045452 
3793.000000	65.043234 
3792.000000	65.046286 
3791.000000	65.054464 
3790.000000	65.067005 
3789.000000	65.082645 
3788.000000	65.100026 
3787.000000	65.117621 
3786.000000	65.134167 
3785.000000	65.148329 
3784.000000	65.158534 
3783.000000	65.163183 
3782.000000	65.160942 
3781.000000	65.151047 
3780.000000	65.133523 
3779.000000	65.109610 
3778.000000	65.081620 
3777.000000	65.052723 
3776.000000	65.026450 
3775.000000	65.005779 
3774.000000	64.992785 
3773.000000	64.987874 
3772.000000	64.989900 
3771.000000	64.996170 
3770.000000	65.003132 
3769.000000	65.007185 
3768.000000	65.005373 
3767.000000	64.995884 
3766.000000	64.978408 
3765.000000	64.954257 
3764.000000	64.926266 
3763.000000	64.897894 
3762.000000	64.873147 
3761.000000	64.856004 
3760.000000	64.849567 
3759.000000	64.855837 
3758.000000	64.874935 
3757.000000	64.905500 
3756.000000	64.944148 
3755.000000	64.986276 
3754.000000	65.026545 
3753.000000	65.059614 
3752.000000	65.081405 
3751.000000	65.089654 
3750.000000	65.084528 
3749.000000	65.068244 
3748.000000	65.044808 
3747.000000	65.019154 
3746.000000	64.995956 
3745.000000	64.978575 
3744.000000	64.968752 
3743.000000	64.966416 
3742.000000	64.970064 
3741.000000	64.977431 
3740.000000	64.986133 
3739.000000	64.994287 
3738.000000	65.000700 
3737.000000	65.005040 
3736.000000	65.007138 
3735.000000	65.006875 
3734.000000	65.003824 
3733.000000	64.997649 
3732.000000	64.987993 
3731.000000	64.975023 
3730.000000	64.959788 
3729.000000	64.944267 
3728.000000	64.931273 
3727.000000	64.923930 
3726.000000	64.924788 
3725.000000	64.935159 
3724.000000	64.954733 
3723.000000	64.981627 
3722.000000	65.012884 
3721.000000	65.045022 
3720.000000	65.074872 
3719.000000	65.099954 
3718.000000	65.118885 
3717.000000	65.131235 
3716.000000	65.137195 
3715.000000	65.137147 
3714.000000	65.131139 
3713.000000	65.118908 
3712.000000	65.099954 
3711.000000	65.073943 
3710.000000	65.040969 
3709.000000	65.001940 
3708.000000	64.958786 
3707.000000	64.914441 
3706.000000	64.872527 
3705.000000	64.836573 
3704.000000	64.809966 
3703.000000	64.795207 
3702.000000	64.794182 
3701.000000	64.807057 
3700.000000	64.833045 
3699.000000	64.869809 
3698.000000	64.914131 
3697.000000	64.961957 
3696.000000	65.009164 
3695.000000	65.051984 
3694.000000	65.087723 
3693.000000	65.114712 
3692.000000	65.132689 
3691.000000	65.142273 
3690.000000	65.144681 
3689.000000	65.141248 
3688.000000	65.133142 
3687.000000	65.120935 
3686.000000	65.104866 
3685.000000	65.084910 
3684.000000	65.060949 
3683.000000	65.033221 
3682.000000	65.002560 
3681.000000	64.970254 
3680.000000	64.937901 
3679.000000	64.907193 
3678.000000	64.879679 
3677.000000	64.856743 
3676.000000	64.839220 
3675.000000	64.827561 
3674.000000	64.822101 
3673.000000	64.822697 
3672.000000	64.828968 
3671.000000	64.840149 
3670.000000	64.855027 
3669.000000	64.872193 
3668.000000	64.889955 
3667.000000	64.906883 
3666.000000	64.921617 
3665.000000	64.933729 
3664.000000	64.943504 
3663.000000	64.951920 
3662.000000	64.960145 
3661.000000	64.969325 
3660.000000	64.980077 
3659.000000	64.992117 
3658.000000	65.004301 
3657.000000	65.015029 
3656.000000	65.022754 
3655.000000	65.026473 
3654.000000	65.026283 
3653.000000	65.023422 
3652.000000	65.019941 
3651.000000	65.018486 
3650.000000	65.021443 
3649.000000	65.030217 
3648.000000	65.044903 
3647.000000	65.064382 
3646.000000	65.086293 
3645.000000	65.107750 
3644.000000	65.125918 
3643.000000	65.138769 
3642.000000	65.145325 
3641.000000	65.145730 
3640.000000	65.141034 
3639.000000	65.132737 
3638.000000	65.122532 
3637.000000	65.111923 
3636.000000	65.101885 
3635.000000	65.092730 
3634.000000	65.084028 
3633.000000	65.074992 
3632.000000	65.064454 
3631.000000	65.051388 
3630.000000	65.035176 
3629.000000	65.015840 
3628.000000	64.994096 
3627.000000	64.971303 
3626.000000	64.949154 
3625.000000	64.929389 
3624.000000	64.913249 
3623.000000	64.901590 
3622.000000	64.894461 
3621.000000	64.891529 
3620.000000	64.891982 
3619.000000	64.895176 
3618.000000	64.900684 
3617.000000	64.908504 
3616.000000	64.918684 
3615.000000	64.931201 
3614.000000	64.945602 
3613.000000	64.960741 
3612.000000	64.974737 
3611.000000	64.985466 
3610.000000	64.991044 
3609.000000	64.990496 
3608.000000	64.983963 
3607.000000	64.972996 
3606.000000	64.960312 
3605.000000	64.949178 
3604.000000	64.942669 
3603.000000	64.943051 
3602.000000	64.951181 
3601.000000	64.966511 
3600.000000	64.987230 
3599.000000	65.010857 
3598.000000	65.034508 
3597.000000	65.056061 
3596.000000	65.073847 
3595.000000	65.086817 
3594.000000	65.094447 
3593.000000	65.096807 
3592.000000	65.094089 
3591.000000	65.086793 
3590.000000	65.075492 
3589.000000	65.061306 
3588.000000	65.045309 
3587.000000	65.028977 
3586.000000	65.013384 
3585.000000	64.999341 
3584.000000	64.987087 
3583.000000	64.976620 
3582.000000	64.967560 
3581.000000	64.959120 
3580.000000	64.950728 
3579.000000	64.942288 
3578.000000	64.934086 
3577.000000	64.926743 
3576.000000	64.921092 
3575.000000	64.917969 
3574.000000	64.918017 
3573.000000	64.921689 
3572.000000	64.929032 
3571.000000	64.939808 
3570.000000	64.953899 
3569.000000	64.970779 
3568.000000	64.989709 
3567.000000	65.009355 
3566.000000	65.028190 
3565.000000	65.044283 
3564.000000	65.056061 
3563.000000	65.061664 
3562.000000	65.060281 
3561.000000	65.051174 
3560.000000	65.034079 
3559.000000	65.008854 
3558.000000	64.975762 
3557.000000	64.935326 
3556.000000	64.888453 
3555.000000	64.836788 
3554.000000	64.782619 
3553.000000	64.728999 
3552.000000	64.679503 
3551.000000	64.637875 
3550.000000	64.607405 
3549.000000	64.590382 
3548.000000	64.587950 
3547.000000	64.599680 
3546.000000	64.623951 
3545.000000	64.658188 
3544.000000	64.699625 
3543.000000	64.745283 
3542.000000	64.792633 
3541.000000	64.839267 
3540.000000	64.883470 
3539.000000	64.923477 
3538.000000	64.958262 
3537.000000	64.987373 
3536.000000	65.011000 
3535.000000	65.030169 
3534.000000	65.045905 
3533.000000	65.059447 
3532.000000	65.071201 
3531.000000	65.081048 
3530.000000	65.087819 
3529.000000	65.089988 
3528.000000	65.086030 
3527.000000	65.075278 
3526.000000	65.058088 
3525.000000	65.035986 
3524.000000	65.011739 
3523.000000	64.988946 
3522.000000	64.970946 
3521.000000	64.960122 
3520.000000	64.957666 
3519.000000	64.963245 
3518.000000	64.975214 
3517.000000	64.991116 
3516.000000	65.008187 
3515.000000	65.023708 
3514.000000	65.035772 
3513.000000	65.043067 
3512.000000	65.044641 
3511.000000	65.040159 
3510.000000	65.029883 
3509.000000	65.014529 
3508.000000	64.995169 
3507.000000	64.973282 
3506.000000	64.950942 
3505.000000	64.930152 
3504.000000	64.912891 
3503.000000	64.900684 
3502.000000	64.894318 
3501.000000	64.894080 
3500.000000	64.899444 
3499.000000	64.909696 
3498.000000	64.923906 
3497.000000	64.941334 
3496.000000	64.961361 
3495.000000	64.983320 
3494.000000	65.006208 
3493.000000	65.028429 
3492.000000	65.047812 
3491.000000	65.061640 
3490.000000	65.067100 
3489.000000	65.062236 
3488.000000	65.046358 
3487.000000	65.020728 
3486.000000	64.988493 
3485.000000	64.954161 
3484.000000	64.922666 
3483.000000	64.898347 
3482.000000	64.883947 
3481.000000	64.880013 
3480.000000	64.885067 
3479.000000	64.896011 
3478.000000	64.909386 
3477.000000	64.922094 
3476.000000	64.932298 
3475.000000	64.939618 
3474.000000	64.944887 
3473.000000	64.949774 
3472.000000	64.955973 
3471.000000	64.964270 
3470.000000	64.974737 
3469.000000	64.986276 
3468.000000	64.997196 
3467.000000	65.005540 
3466.000000	65.009951 
3465.000000	65.009760 
3464.000000	65.005230 
3463.000000	64.997339 
3462.000000	64.987325 
3461.000000	64.976453 
3460.000000	64.965629 
3459.000000	64.955234 
3458.000000	64.945197 
3457.000000	64.935159 
3456.000000	64.924454 
3455.000000	64.912343 
3454.000000	64.898514 
3453.000000	64.883184 
3452.000000	64.866900 
3451.000000	64.850950 
3450.000000	64.836955 
3449.000000	64.826917 
3448.000000	64.822483 
3447.000000	64.825105 
3446.000000	64.835548 
3445.000000	64.853906 
3444.000000	64.879369 
3443.000000	64.910340 
3442.000000	64.944577 
3441.000000	64.979314 
3440.000000	65.011620 
3439.000000	65.038561 
3438.000000	65.057778 
3437.000000	65.067696 
3436.000000	65.067863 
3435.000000	65.058994 
3434.000000	65.043091 
3433.000000	65.023159 
3432.000000	65.002727 
3431.000000	64.985346 
3430.000000	64.973759 
3429.000000	64.969611 
3428.000000	64.973044 
3427.000000	64.982652 
3426.000000	64.996123 
3425.000000	65.010571 
3424.000000	65.023446 
3423.000000	65.033102 
3422.000000	65.039348 
3421.000000	65.043187 
3420.000000	65.046596 
3419.000000	65.051841 
3418.000000	65.060472 
3417.000000	65.072774 
3416.000000	65.087628 
3415.000000	65.102601 
3414.000000	65.114569 
3413.000000	65.120363 
3412.000000	65.117764 
3411.000000	65.105962 
3410.000000	65.085744 
3409.000000	65.059232 
3408.000000	65.029072 
3407.000000	64.997982 
3406.000000	64.968061 
3405.000000	64.940357 
3404.000000	64.915108 
3403.000000	64.891982 
3402.000000	64.870834 
3401.000000	64.851784 
3400.000000	64.835739 
3399.000000	64.824056 
3398.000000	64.818024 
3397.000000	64.818692 
3396.000000	64.825963 
3395.000000	64.839124 
3394.000000	64.856410 
3393.000000	64.876031 
3392.000000	64.896059 
3391.000000	64.915370 
3390.000000	64.933562 
3389.000000	64.950823 
3388.000000	64.967656 
3387.000000	64.984226 
3386.000000	65.000438 
3385.000000	65.015649 
3384.000000	65.028762 
3383.000000	65.038728 
3382.000000	65.044736 
3381.000000	65.046691 
3380.000000	65.044951 
3379.000000	65.040540 
3378.000000	65.034437 
3377.000000	65.027356 
3376.000000	65.019631 
3375.000000	65.011096 
3374.000000	65.001320 
3373.000000	64.990282 
3372.000000	64.978408 
3371.000000	64.966607 
3370.000000	64.956283 
3369.000000	64.948868 
3368.000000	64.945435 
3367.000000	64.946055 
3366.000000	64.949917 
3365.000000	64.955282 
3364.000000	64.960145 
3363.000000	64.962840 
3362.000000	64.962744 
3361.000000	64.960336 
3360.000000	64.957189 
3359.000000	64.955401 
3358.000000	64.956927 
3357.000000	64.962601 
3356.000000	64.971899 
3355.000000	64.982771 
3354.000000	64.992260 
3353.000000	64.997243 
3352.000000	64.995431 
3351.000000	64.985942 
3350.000000	64.969825 
3349.000000	64.949822 
3348.000000	64.929294 
3347.000000	64.911746 
3346.000000	64.899682 
3345.000000	64.894270 
3344.000000	64.894890 
3343.000000	64.899802 
3342.000000	64.906501 
3341.000000	64.912676 
3340.000000	64.916753 
3339.000000	64.918065 
3338.000000	64.916968 
3337.000000	64.914464 
3336.000000	64.911794 
3335.000000	64.909982 
3334.000000	64.909505 
3333.000000	64.910483 
3332.000000	64.912581 
3331.000000	64.915466 
3330.000000	64.918828 
3329.000000	64.922475 
3328.000000	64.926338 
3327.000000	64.930272 
3326.000000	64.934277 
3325.000000	64.938068 
3324.000000	64.941430 
3323.000000	64.944124 
3322.000000	64.946103 
3321.000000	64.947414 
3320.000000	64.948225 
3319.000000	64.948701 
3318.000000	64.948868 
3317.000000	64.948725 
3316.000000	64.947938 
3315.000000	64.946269 
3314.000000	64.943289 
3313.000000	64.938569 
3312.000000	64.931821 
3311.000000	64.923095 
3310.000000	64.912867 
3309.000000	64.902114 
3308.000000	64.892101 
3307.000000	64.884281 
3306.000000	64.880084 
3305.000000	64.880704 
3304.000000	64.886713 
3303.000000	64.898204 
3302.000000	64.914584 
3301.000000	64.934825 
3300.000000	64.957618 
3299.000000	64.981198 
3298.000000	65.003681 
3297.000000	65.023040 
3296.000000	65.037631 
3295.000000	65.046215 
3294.000000	65.048360 
3293.000000	65.044546 
3292.000000	65.036177 
3291.000000	65.025162 
3290.000000	65.013694 
3289.000000	65.003561 
3288.000000	64.995932 
3287.000000	64.991021 
3286.000000	64.988017 
3285.000000	64.985322 
3284.000000	64.981174 
3283.000000	64.973711 
3282.000000	64.961671 
3281.000000	64.944553 
3280.000000	64.922785 
3279.000000	64.897418 
3278.000000	64.870333 
3277.000000	64.843559 
3276.000000	64.819431 
3275.000000	64.800286 
3274.000000	64.788222 
3273.000000	64.784932 
3272.000000	64.791369 
3271.000000	64.807438 
3270.000000	64.831829 
3269.000000	64.862108 
3268.000000	64.895224 
3267.000000	64.927649 
3266.000000	64.956402 
3265.000000	64.979290 
3264.000000	64.995408 
3263.000000	65.005087 
3262.000000	65.009522 
3261.000000	65.010476 
3260.000000	65.009474 
3259.000000	65.007424 
3258.000000	65.004396 
3257.000000	64.999914 
3256.000000	64.993214 
3255.000000	64.983773 
3254.000000	64.971470 
3253.000000	64.956998 
3252.000000	64.941501 
3251.000000	64.926457 
3250.000000	64.912819 
3249.000000	64.901113 
3248.000000	64.891409 
3247.000000	64.883589 
3246.000000	64.877533 
3245.000000	64.873695 
3244.000000	64.873051 
3243.000000	64.877200 
3242.000000	64.887785 
3241.000000	64.905953 
3240.000000	64.931893 
3239.000000	64.964389 
3238.000000	65.000724 
3237.000000	65.037155 
3236.000000	65.069508 
3235.000000	65.094065 
3234.000000	65.108418 
3233.000000	65.111660 
3232.000000	65.104699 
3231.000000	65.089488 
3230.000000	65.068840 
3229.000000	65.045070 
3228.000000	65.019726 
3227.000000	64.993166 
3226.000000	64.964771 
3225.000000	64.933276 
3224.000000	64.897584 
3223.000000	64.857554 
3222.000000	64.814376 
3221.000000	64.770770 
3220.000000	64.730668 
3219.000000	64.698123 
3218.000000	64.676785 
3217.000000	64.668583 
3216.000000	64.673686 
3215.000000	64.689874 
3214.000000	64.713573 
3213.000000	64.740252 
3212.000000	64.765882 
3211.000000	64.787316 
3210.000000	64.803218 
3209.000000	64.813899 
3208.000000	64.821004 
3207.000000	64.826583 
3206.000000	64.832496 
3205.000000	64.839792 
3204.000000	64.848423 
3203.000000	64.857554 
3202.000000	64.865994 
3201.000000	64.872717 
3200.000000	64.877605 
3199.000000	64.881420 
3198.000000	64.885377 
3197.000000	64.890551 
3196.000000	64.897537 
3195.000000	64.906001 
3194.000000	64.914560 
3193.000000	64.921188 
3192.000000	64.923787 
3191.000000	64.921021 
3190.000000	64.912605 
3189.000000	64.899587 
3188.000000	64.884138 
3187.000000	64.869332 
3186.000000	64.858007 
3185.000000	64.852285 
3184.000000	64.853024 
3183.000000	64.859700 
3182.000000	64.870738 
3181.000000	64.883732 
3180.000000	64.896130 
3179.000000	64.905905 
3178.000000	64.912199 
3177.000000	64.914965 
3176.000000	64.914989 
3175.000000	64.913439 
3174.000000	64.911532 
3173.000000	64.909887 
3172.000000	64.908432 
3171.000000	64.906144 
3170.000000	64.901494 
3169.000000	64.892816 
3168.000000	64.878892 
3167.000000	64.859414 
3166.000000	64.835429 
3165.000000	64.808917 
3164.000000	64.782929 
3163.000000	64.760541 
3162.000000	64.744496 
3161.000000	64.736390 
3160.000000	64.736604 
3159.000000	64.744186 
3158.000000	64.757132 
3157.000000	64.772891 
3156.000000	64.788627 
3155.000000	64.801621 
3154.000000	64.809608 
3153.000000	64.810991 
3152.000000	64.804816 
3151.000000	64.790773 
3150.000000	64.769458 
3149.000000	64.742064 
3148.000000	64.710736 
3147.000000	64.678406 
3146.000000	64.648461 
3145.000000	64.624524 
3144.000000	64.609766 
3143.000000	64.606451 
3142.000000	64.615488 
3141.000000	64.636230 
3140.000000	64.666342 
3139.000000	64.702343 
3138.000000	64.739990 
3137.000000	64.775228 
3136.000000	64.804720 
3135.000000	64.826679 
3134.000000	64.840722 
3133.000000	64.848065 
3132.000000	64.850831 
3131.000000	64.851570 
3130.000000	64.853000 
3129.000000	64.856886 
3128.000000	64.863967 
3127.000000	64.873671 
3126.000000	64.884591 
3125.000000	64.894604 
3124.000000	64.901614 
3123.000000	64.903998 
3122.000000	64.900946 
3121.000000	64.892983 
3120.000000	64.881610 
3119.000000	64.869189 
3118.000000	64.858412 
3117.000000	64.851784 
3116.000000	64.851069 
3115.000000	64.856815 
3114.000000	64.868140 
3113.000000	64.882993 
3112.000000	64.898371 
3111.000000	64.911031 
3110.000000	64.918541 
3109.000000	64.919638 
3108.000000	64.915060 
3107.000000	64.906978 
3106.000000	64.898753 
3105.000000	64.894151 
3104.000000	64.896440 
3103.000000	64.907288 
3102.000000	64.926385 
3101.000000	64.951658 
3100.000000	64.979553 
3099.000000	65.006065 
3098.000000	65.027308 
3097.000000	65.040636 
3096.000000	65.044784 
3095.000000	65.040063 
3094.000000	65.027856 
3093.000000	65.009832 
3092.000000	64.987540 
3091.000000	64.962077 
3090.000000	64.933872 
3089.000000	64.903068 
3088.000000	64.869904 
3087.000000	64.835357 
3086.000000	64.800930 
3085.000000	64.768862 
3084.000000	64.741706 
3083.000000	64.721798 
3082.000000	64.710736 
3081.000000	64.708995 
3080.000000	64.715719 
3079.000000	64.728879 
3078.000000	64.745616 
3077.000000	64.762902 
3076.000000	64.777970 
3075.000000	64.788985 
3074.000000	64.795112 
3073.000000	64.796757 
3072.000000	64.795088 
3071.000000	64.791870 
3070.000000	64.788722 
3069.000000	64.787006 
3068.000000	64.787483 
3067.000000	64.790344 
3066.000000	64.795279 
3065.000000	64.801669 
3064.000000	64.808940 
3063.000000	64.816689 
3062.000000	64.824891 
3061.000000	64.833736 
3060.000000	64.843487 
3059.000000	64.854168 
3058.000000	64.865446 
3057.000000	64.876818 
3056.000000	64.887595 
3055.000000	64.897036 
3054.000000	64.904642 
3053.000000	64.910459 
3052.000000	64.914846 
3051.000000	64.918613 
3050.000000	64.922523 
3049.000000	64.927291 
3048.000000	64.933323 
3047.000000	64.940690 
3046.000000	64.949131 
3045.000000	64.958238 
3044.000000	64.967513 
3043.000000	64.976668 
3042.000000	64.985418 
3041.000000	64.993548 
3040.000000	65.000462 
3039.000000	65.005397 
3038.000000	65.007305 
3037.000000	65.005040 
3036.000000	64.997744 
3035.000000	64.985108 
3034.000000	64.967870 
3033.000000	64.947533 
3032.000000	64.926266 
3031.000000	64.906334 
3030.000000	64.889597 
3029.000000	64.876961 
3028.000000	64.868259 
3027.000000	64.862418 
3026.000000	64.857649 
3025.000000	64.852571 
3024.000000	64.846205 
3023.000000	64.839124 
3022.000000	64.832782 
3021.000000	64.829492 
3020.000000	64.831542 
3019.000000	64.840579 
3018.000000	64.856743 
3017.000000	64.878487 
3016.000000	64.902687 
3015.000000	64.925479 
3014.000000	64.942979 
3013.000000	64.952421 
3012.000000	64.952826 
3011.000000	64.945220 
3010.000000	64.932417 
3009.000000	64.918231 
3008.000000	64.906477 
3007.000000	64.900183 
3006.000000	64.900708 
3005.000000	64.907670 
3004.000000	64.919114 
3003.000000	64.932131 
3002.000000	64.943671 
3001.000000	64.951324 
3000.000000	64.953589 
2999.000000	64.950227 
2998.000000	64.942193 
2997.000000	64.931082 
2996.000000	64.918828 
2995.000000	64.907050 
2994.000000	64.896774 
2993.000000	64.888405 
2992.000000	64.881634 
2991.000000	64.875769 
2990.000000	64.870071 
2989.000000	64.864158 
2988.000000	64.858126 
2987.000000	64.852476 
2986.000000	64.848065 
2985.000000	64.845824 
2984.000000	64.846396 
2983.000000	64.849853 
2982.000000	64.855766 
2981.000000	64.863181 
2980.000000	64.870786 
2979.000000	64.877200 
2978.000000	64.881324 
2977.000000	64.882516 
2976.000000	64.880681 
2975.000000	64.876151 
2974.000000	64.869403 
2973.000000	64.860939 
2972.000000	64.850878 
2971.000000	64.839315 
2970.000000	64.826512 
2969.000000	64.812612 
2968.000000	64.798069 
2967.000000	64.783430 
2966.000000	64.769268 
2965.000000	64.756059 
2964.000000	64.743947 
2963.000000	64.732861 
2962.000000	64.722466 
2961.000000	64.712285 
2960.000000	64.701962 
2959.000000	64.691209 
2958.000000	64.679765 
2957.000000	64.667534 
2956.000000	64.654541 
2955.000000	64.640855 
2954.000000	64.626622 
2953.000000	64.612197 
2952.000000	64.598274 
2951.000000	64.585995 
2950.000000	64.576745 
2949.000000	64.572000 
2948.000000	64.572715 
2947.000000	64.579081 
2946.000000	64.590120 
2945.000000	64.603710 
2944.000000	64.617204 
2943.000000	64.627957 
2942.000000	64.633965 
2941.000000	64.634370 
2940.000000	64.629602 
2939.000000	64.621114 
2938.000000	64.611077 
2937.000000	64.601683 
2936.000000	64.594912 
2935.000000	64.592099 
2934.000000	64.594054 
2933.000000	64.600944 
2932.000000	64.612674 
2931.000000	64.628696 
2930.000000	64.648103 
2929.000000	64.669585 
2928.000000	64.691090 
2927.000000	64.710330 
2926.000000	64.724731 
2925.000000	64.732217 
2924.000000	64.731836 
2923.000000	64.724206 
2922.000000	64.711618 
2921.000000	64.697527 
2920.000000	64.685726 
2919.000000	64.679265 
2918.000000	64.679551 
2917.000000	64.686036 
2916.000000	64.696550 
2915.000000	64.707684 
2914.000000	64.716196 
2913.000000	64.719557 
2912.000000	64.716935 
2911.000000	64.709329 
2910.000000	64.699006 
2909.000000	64.688992 
2908.000000	64.682126 
2907.000000	64.680266 
2906.000000	64.683723 
2905.000000	64.691376 
2904.000000	64.700865 
2903.000000	64.709401 
2902.000000	64.714694 
2901.000000	64.715337 
2900.000000	64.711213 
2899.000000	64.703321 
2898.000000	64.693379 
2897.000000	64.683437 
2896.000000	64.675116 
2895.000000	64.669370 
2894.000000	64.666223 
2893.000000	64.665031 
2892.000000	64.664697 
2891.000000	64.663958 
2890.000000	64.661765 
2889.000000	64.657688 
2888.000000	64.651679 
2887.000000	64.644122 
2886.000000	64.635515 
2885.000000	64.626383 
2884.000000	64.617395 
2883.000000	64.609003 
2882.000000	64.601922 
2881.000000	64.597010 
2880.000000	64.595603 
2879.000000	64.598894 
2878.000000	64.607763 
2877.000000	64.622521 
2876.000000	64.642500 
2875.000000	64.666080 
2874.000000	64.690971 
2873.000000	64.714789 
2872.000000	64.735364 
2871.000000	64.751076 
2870.000000	64.761614 
2869.000000	64.767408 
2868.000000	64.769673 
2867.000000	64.769625 
2866.000000	64.768123 
2865.000000	64.765357 
2864.000000	64.760875 
2863.000000	64.753627 
2862.000000	64.742755 
2861.000000	64.727616 
2860.000000	64.708614 
2859.000000	64.686965 
2858.000000	64.664387 
2857.000000	64.643192 
2856.000000	64.625287 
2855.000000	64.612483 
2854.000000	64.605832 
2853.000000	64.605689 
2852.000000	64.611721 
2851.000000	64.622735 
2850.000000	64.636921 
2849.000000	64.651942 
2848.000000	64.665341 
2847.000000	64.674949 
2846.000000	64.679527 
2845.000000	64.678859 
2844.000000	64.673805 
2843.000000	64.666318 
2842.000000	64.658904 
2841.000000	64.654040 
2840.000000	64.653396 
2839.000000	64.657664 
2838.000000	64.666390 
2837.000000	64.678001 
2836.000000	64.690375 
2835.000000	64.701581 
2834.000000	64.710235 
2833.000000	64.716053 
2832.000000	64.719676 
2831.000000	64.722204 
2830.000000	64.725041 
2829.000000	64.729285 
2828.000000	64.735507 
2827.000000	64.743566 
2826.000000	64.752912 
2825.000000	64.762735 
2824.000000	64.772224 
2823.000000	64.780569 
2822.000000	64.787054 
2821.000000	64.791250 
2820.000000	64.792990 
2819.000000	64.792323 
2818.000000	64.789581 
2817.000000	64.785194 
2816.000000	64.779806 
2815.000000	64.774155 
2814.000000	64.768838 
2813.000000	64.764261 
2812.000000	64.760541 
2811.000000	64.757585 
2810.000000	64.755105 
2809.000000	64.752674 
2808.000000	64.750170 
2807.000000	64.747929 
2806.000000	64.746499 
2805.000000	64.746785 
2804.000000	64.749693 
2803.000000	64.755845 
2802.000000	64.765024 
2801.000000	64.776444 
2800.000000	64.788770 
2799.000000	64.800119 
2798.000000	64.808773 
2797.000000	64.813137 
2796.000000	64.812350 
2795.000000	64.806294 
2794.000000	64.795780 
2793.000000	64.782333 
2792.000000	64.767956 
2791.000000	64.754700 
2790.000000	64.744496 
2789.000000	64.738750 
2788.000000	64.738178 
2787.000000	64.742708 
2786.000000	64.751601 
2785.000000	64.763474 
2784.000000	64.776825 
2783.000000	64.790081 
2782.000000	64.801764 
2781.000000	64.810800 
2780.000000	64.816260 
2779.000000	64.817714 
2778.000000	64.814901 
2777.000000	64.807748 
2776.000000	64.796400 
2775.000000	64.781427 
2774.000000	64.763665 
2773.000000	64.744567 
2772.000000	64.725947 
2771.000000	64.709949 
2770.000000	64.698767 
2769.000000	64.694070 
2768.000000	64.696669 
2767.000000	64.706158 
2766.000000	64.720821 
2765.000000	64.738059 
2764.000000	64.754557 
2763.000000	64.767193 
2762.000000	64.773297 
2761.000000	64.771676 
2760.000000	64.762449 
2759.000000	64.747309 
2758.000000	64.728856 
2757.000000	64.710044 
2756.000000	64.693808 
2755.000000	64.682292 
2754.000000	64.676499 
2753.000000	64.676284 
2752.000000	64.680600 
2751.000000	64.687681 
2750.000000	64.695906 
2749.000000	64.703798 
2748.000000	64.710354 
2747.000000	64.715242 
2746.000000	64.718604 
2745.000000	64.720869 
2744.000000	64.722323 
2743.000000	64.722919 
2742.000000	64.722204 
2741.000000	64.719510 
2740.000000	64.714145 
2739.000000	64.705729 
2738.000000	64.694547 
2737.000000	64.681553 
2736.000000	64.668464 
2735.000000	64.657521 
2734.000000	64.651131 
2733.000000	64.651203 
2732.000000	64.659070 
2731.000000	64.675116 
2730.000000	64.698719 
2729.000000	64.728403 
2728.000000	64.761900 
2727.000000	64.796471 
2726.000000	64.829277 
2725.000000	64.857697 
2724.000000	64.879441 
2723.000000	64.892792 
2722.000000	64.896893 
2721.000000	64.891695 
2720.000000	64.878273 
2719.000000	64.858531 
2718.000000	64.835119 
2717.000000	64.811015 
2716.000000	64.788985 
2715.000000	64.771246 
2714.000000	64.758825 
2713.000000	64.751625 
2712.000000	64.748334 
2711.000000	64.746975 
2710.000000	64.745259 
2709.000000	64.741253 
2708.000000	64.733862 
2707.000000	64.723157 
2706.000000	64.710164 
2705.000000	64.696812 
2704.000000	64.685201 
2703.000000	64.677333 
2702.000000	64.674425 
2701.000000	64.676856 
2700.000000	64.683961 
2699.000000	64.694356 
2698.000000	64.706230 
2697.000000	64.717793 
2696.000000	64.727663 
2695.000000	64.734792 
2694.000000	64.738750 
2693.000000	64.739489 
2692.000000	64.737272 
2691.000000	64.732503 
2690.000000	64.725565 
2689.000000	64.716601 
2688.000000	64.705896 
2687.000000	64.693880 
2686.000000	64.681267 
2685.000000	64.669060 
2684.000000	64.658451 
2683.000000	64.650797 
2682.000000	64.647126 
2681.000000	64.647650 
2680.000000	64.651727 
2679.000000	64.657950 
2678.000000	64.664435 
2677.000000	64.669322 
2676.000000	64.671301 
2675.000000	64.670038 
2674.000000	64.666008 
2673.000000	64.660620 
2672.000000	64.655685 
2671.000000	64.652752 
2670.000000	64.652967 
2669.000000	64.656543 
2668.000000	64.662861 
2667.000000	64.670777 
2666.000000	64.678859 
2665.000000	64.686036 
2664.000000	64.691615 
2663.000000	64.695286 
2662.000000	64.697027 
2661.000000	64.697074 
2660.000000	64.695501 
2659.000000	64.692425 
2658.000000	64.688348 
2657.000000	64.684367 
2656.000000	64.682078 
2655.000000	64.683485 
2654.000000	64.690375 
2653.000000	64.703750 
2652.000000	64.723300 
2651.000000	64.747381 
2650.000000	64.772963 
2649.000000	64.796400 
2648.000000	64.814257 
2647.000000	64.824080 
2646.000000	64.824771 
2645.000000	64.816761 
2644.000000	64.802074 
2643.000000	64.783525 
2642.000000	64.763975 
2641.000000	64.745545 
2640.000000	64.729619 
2639.000000	64.716458 
2638.000000	64.705681 
2637.000000	64.696288 
2636.000000	64.687371 
2635.000000	64.678072 
2634.000000	64.667987 
2633.000000	64.656758 
2632.000000	64.644074 
2631.000000	64.629697 
2630.000000	64.613652 
2629.000000	64.595961 
2628.000000	64.577221 
2627.000000	64.558148 
2626.000000	64.540147 
2625.000000	64.524531 
2624.000000	64.513206 
2623.000000	64.507722 
2622.000000	64.509749 
2621.000000	64.520144 
2620.000000	64.539361 
2619.000000	64.567065 
2618.000000	64.601898 
2617.000000	64.641666 
2616.000000	64.683151 
2615.000000	64.722514 
2614.000000	64.755654 
2613.000000	64.778828 
2612.000000	64.789295 
2611.000000	64.785695 
2610.000000	64.768576 
2609.000000	64.740562 
2608.000000	64.705443 
2607.000000	64.667820 
2606.000000	64.632081 
2605.000000	64.601850 
2604.000000	64.579367 
2603.000000	64.565348 
2602.000000	64.559340 
2601.000000	64.559984 
2600.000000	64.565420 
2599.000000	64.573860 
2598.000000	64.583611 
2597.000000	64.593386 
2596.000000	64.602041 
2595.000000	64.608788 
2594.000000	64.612722 
2593.000000	64.613485 
2592.000000	64.610791 
2591.000000	64.605069 
2590.000000	64.597463 
2589.000000	64.589524 
2588.000000	64.583158 
2587.000000	64.579963 
2586.000000	64.580893 
2585.000000	64.585804 
2584.000000	64.593696 
2583.000000	64.602541 
2582.000000	64.609885 
2581.000000	64.613509 
2580.000000	64.612221 
2579.000000	64.606142 
2578.000000	64.596796 
2577.000000	64.586901 
2576.000000	64.579749 
2575.000000	64.578413 
2574.000000	64.584803 
2573.000000	64.599204 
2572.000000	64.619874 
2571.000000	64.643692 
2570.000000	64.666700 
2569.000000	64.684867 
2568.000000	64.695143 
2567.000000	64.696097 
2566.000000	64.688372 
2565.000000	64.674139 
2564.000000	64.656758 
2563.000000	64.639878 
2562.000000	64.626741 
2561.000000	64.619398 
2560.000000	64.618468 
2559.000000	64.623260 
2558.000000	64.631986 
2557.000000	64.642453 
2556.000000	64.652371 
2555.000000	64.659929 
2554.000000	64.663958 
2553.000000	64.664077 
2552.000000	64.660406 
2551.000000	64.653372 
2550.000000	64.643669 
2549.000000	64.632225 
2548.000000	64.619898 
2547.000000	64.607787 
2546.000000	64.597129 
2545.000000	64.589357 
2544.000000	64.585781 
2543.000000	64.587354 
2542.000000	64.594459 
2541.000000	64.606785 
2540.000000	64.622950 
2539.000000	64.640998 
2538.000000	64.659094 
2537.000000	64.675402 
2536.000000	64.688587 
2535.000000	64.697790 
2534.000000	64.702868 
2533.000000	64.703989 
2532.000000	64.701533 
2531.000000	64.695978 
2530.000000	64.687633 
2529.000000	64.676928 
2528.000000	64.664316 
2527.000000	64.650535 
2526.000000	64.636421 
2525.000000	64.622783 
2524.000000	64.610552 
2523.000000	64.600348 
2522.000000	64.592719 
2521.000000	64.587831 
2520.000000	64.585614 
2519.000000	64.585995 
2518.000000	64.588856 
2517.000000	64.594125 
2516.000000	64.601635 
2515.000000	64.610958 
2514.000000	64.621186 
2513.000000	64.630794 
2512.000000	64.637923 
2511.000000	64.640593 
2510.000000	64.637255 
2509.000000	64.627170 
2508.000000	64.611005 
2507.000000	64.590668 
2506.000000	64.569282 
2505.000000	64.550471 
2504.000000	64.537715 
2503.000000	64.533686 
2502.000000	64.539337 
2501.000000	64.553928 
2500.000000	64.574885 
2499.000000	64.598441 
2498.000000	64.620327 
2497.000000	64.636874 
2496.000000	64.645719 
2495.000000	64.646220 
2494.000000	64.639616 
2493.000000	64.628434 
2492.000000	64.615797 
2491.000000	64.604496 
2490.000000	64.596462 
2489.000000	64.592242 
2488.000000	64.590835 
2487.000000	64.590406 
2486.000000	64.588952 
2485.000000	64.584779 
2484.000000	64.577674 
2483.000000	64.568519 
2482.000000	64.559173 
2481.000000	64.551806 
2480.000000	64.548254 
2479.000000	64.549207 
2478.000000	64.553809 
2477.000000	64.560079 
2476.000000	64.565563 
2475.000000	64.568066 
2474.000000	64.566397 
2473.000000	64.560914 
2472.000000	64.553451 
2471.000000	64.546871 
2470.000000	64.544153 
2469.000000	64.547634 
2468.000000	64.558267 
2467.000000	64.575266 
2466.000000	64.596390 
2465.000000	64.618515 
2464.000000	64.638590 
2463.000000	64.654254 
2462.000000	64.664220 
2461.000000	64.668512 
2460.000000	64.668083 
2459.000000	64.664292 
2458.000000	64.658546 
2457.000000	64.651441 
2456.000000	64.642953 
2455.000000	64.632606 
2454.000000	64.619517 
2453.000000	64.603209 
2452.000000	64.583635 
2451.000000	64.561510 
2450.000000	64.538288 
2449.000000	64.515948 
2448.000000	64.496493 
2447.000000	64.481639 
2446.000000	64.472413 
2445.000000	64.469099 
2444.000000	64.471244 
2443.000000	64.477729 
2442.000000	64.487123 
2441.000000	64.498090 
2440.000000	64.509439 
2439.000000	64.520311 
2438.000000	64.530301 
2437.000000	64.539313 
2436.000000	64.547657 
2435.000000	64.555501 
2434.000000	64.563345 
2433.000000	64.571595 
2432.000000	64.580440 
2431.000000	64.589762 
2430.000000	64.599227 
2429.000000	64.608168 
2428.000000	64.615654 
2427.000000	64.620733 
2426.000000	64.622473 
2425.000000	64.620351 
2424.000000	64.614367 
2423.000000	64.605212 
2422.000000	64.593958 
2421.000000	64.582037 
2420.000000	64.570832 
2419.000000	64.561462 
2418.000000	64.554405 
2417.000000	64.549565 
2416.000000	64.546203 
2415.000000	64.543414 
2414.000000	64.540266 
2413.000000	64.536213 
2412.000000	64.531064 
2411.000000	64.525222 
2410.000000	64.519596 
2409.000000	64.514923 
2408.000000	64.511966 
2407.000000	64.511084 
2406.000000	64.512300 
2405.000000	64.515280 
2404.000000	64.519619 
2403.000000	64.524936 
2402.000000	64.531159 
2401.000000	64.538311 
2400.000000	64.546489 
2399.000000	64.555478 
2398.000000	64.564847 
2397.000000	64.573621 
2396.000000	64.580512 
2395.000000	64.584159 
2394.000000	64.583611 
2393.000000	64.578437 
2392.000000	64.569067 
2391.000000	64.556765 
2390.000000	64.543294 
2389.000000	64.530682 
2388.000000	64.520812 
2387.000000	64.514923 
2386.000000	64.513516 
2385.000000	64.516162 
2384.000000	64.521813 
2383.000000	64.528918 
2382.000000	64.535784 
2381.000000	64.540886 
2380.000000	64.543008 
2379.000000	64.541649 
2378.000000	64.536833 
2377.000000	64.529538 
2376.000000	64.521336 
2375.000000	64.514422 
2374.000000	64.511156 
2373.000000	64.513611 
2372.000000	64.523243 
2371.000000	64.540314 
2370.000000	64.563822 
2369.000000	64.591431 
2368.000000	64.619874 
2367.000000	64.645528 
2366.000000	64.665126 
2365.000000	64.676189 
2364.000000	64.677619 
2363.000000	64.669847 
2362.000000	64.654374 
2361.000000	64.633512 
2360.000000	64.609766 
2359.000000	64.585351 
2358.000000	64.562129 
2357.000000	64.541220 
2356.000000	64.523339 
2355.000000	64.509177 
2354.000000	64.499306 
2353.000000	64.494323 
2352.000000	64.494705 
2351.000000	64.500355 
2350.000000	64.510822 
2349.000000	64.525055 
2348.000000	64.541459 
2347.000000	64.558219 
2346.000000	64.573407 
2345.000000	64.585566 
2344.000000	64.593601 
2343.000000	64.597177 
2342.000000	64.596343 
2341.000000	64.591670 
2340.000000	64.583754 
2339.000000	64.573192 
2338.000000	64.560651 
2337.000000	64.546871 
2336.000000	64.532637 
2335.000000	64.519047 
2334.000000	64.507532 
2333.000000	64.499616 
2332.000000	64.496684 
2331.000000	64.499688 
2330.000000	64.508676 
2329.000000	64.522719 
2328.000000	64.540195 
2327.000000	64.558720 
2326.000000	64.575743 
2325.000000	64.588928 
2324.000000	64.596819 
2323.000000	64.598989 
2322.000000	64.595913 
2321.000000	64.588856 
2320.000000	64.579629 
2319.000000	64.569997 
2318.000000	64.561367 
2317.000000	64.554476 
2316.000000	64.549493 
2315.000000	64.545679 
2314.000000	64.542102 
2313.000000	64.537382 
2312.000000	64.530301 
2311.000000	64.519691 
2310.000000	64.504742 
2309.000000	64.485096 
2308.000000	64.460945 
2307.000000	64.433050 
2306.000000	64.402890 
2305.000000	64.372491 
2304.000000	64.344429 
2303.000000	64.321422 
2302.000000	64.306163 
2301.000000	64.300704 
2300.000000	64.306449 
2299.000000	64.323544 
2298.000000	64.351296 
2297.000000	64.387631 
2296.000000	64.429688 
2295.000000	64.473962 
2294.000000	64.516806 
2293.000000	64.554715 
2292.000000	64.584922 
2291.000000	64.605617 
2290.000000	64.616179 
2289.000000	64.617347 
2288.000000	64.610767 
2287.000000	64.598774 
2286.000000	64.583897 
2285.000000	64.568734 
2284.000000	64.555406 
2283.000000	64.545297 
2282.000000	64.539194 
2281.000000	64.537310 
2280.000000	64.539146 
2279.000000	64.544034 
2278.000000	64.550924 
2277.000000	64.558839 
2276.000000	64.566588 
2275.000000	64.573121 
2274.000000	64.577341 
2273.000000	64.578461 
2272.000000	64.576077 
2271.000000	64.570260 
2270.000000	64.561653 
2269.000000	64.551448 
2268.000000	64.541101 
2267.000000	64.532256 
2266.000000	64.526176 
2265.000000	64.523911 
2264.000000	64.526081 
2263.000000	64.532732 
2262.000000	64.543294 
2261.000000	64.556550 
2260.000000	64.571046 
2259.000000	64.585041 
2258.000000	64.596843 
2257.000000	64.605116 
2256.000000	64.609241 
2255.000000	64.609313 
2254.000000	64.606118 
2253.000000	64.600849 
2252.000000	64.594721 
2251.000000	64.588737 
2250.000000	64.583230 
2249.000000	64.577889 
2248.000000	64.571833 
2247.000000	64.563941 
2246.000000	64.553260 
2245.000000	64.539527 
2244.000000	64.523386 
2243.000000	64.506196 
2242.000000	64.489841 
2241.000000	64.476108 
2240.000000	64.466381 
2239.000000	64.461040 
2238.000000	64.459705 
2237.000000	64.461159 
2236.000000	64.463853 
2235.000000	64.466381 
2234.000000	64.467954 
2233.000000	64.468097 
2232.000000	64.467024 
2231.000000	64.465188 
2230.000000	64.463281 
2229.000000	64.461755 
2228.000000	64.460706 
2227.000000	64.459967 
2226.000000	64.459252 
2225.000000	64.458012 
2224.000000	64.455771 
2223.000000	64.452219 
2222.000000	64.447069 
2221.000000	64.440155 
2220.000000	64.431405 
2219.000000	64.420890 
2218.000000	64.408731 
2217.000000	64.395475 
2216.000000	64.381814 
2215.000000	64.368796 
2214.000000	64.357566 
2213.000000	64.349269 
2212.000000	64.344573 
2211.000000	64.343738 
2210.000000	64.346504 
2209.000000	64.352154 
2208.000000	64.359593 
2207.000000	64.367842 
2206.000000	64.375901 
2205.000000	64.383292 
2204.000000	64.389824 
2203.000000	64.395666 
2202.000000	64.401149 
2201.000000	64.406609 
2200.000000	64.411997 
2199.000000	64.416909 
2198.000000	64.420533 
2197.000000	64.421987 
2196.000000	64.420485 
2195.000000	64.415931 
2194.000000	64.408755 
2193.000000	64.400172 
2192.000000	64.391589 
2191.000000	64.384460 
2190.000000	64.379692 
2189.000000	64.377260 
2188.000000	64.376378 
2187.000000	64.375638 
2186.000000	64.373350 
2185.000000	64.368343 
2184.000000	64.360117 
2183.000000	64.349246 
2182.000000	64.337229 
2181.000000	64.326024 
2180.000000	64.317846 
2179.000000	64.314246 
2178.000000	64.316082 
2177.000000	64.323186 
2176.000000	64.334821 
2175.000000	64.349746 
2174.000000	64.366841 
2173.000000	64.385080 
2172.000000	64.403414 
2171.000000	64.420843 
2170.000000	64.436101 
2169.000000	64.447593 
2168.000000	64.453721 
2167.000000	64.453005 
2166.000000	64.444780 
2165.000000	64.429020 
2164.000000	64.406776 
2163.000000	64.380097 
2162.000000	64.351487 
2161.000000	64.323902 
2160.000000	64.299845 
2159.000000	64.281272 
2158.000000	64.269185 
2157.000000	64.263629 
2156.000000	64.263582 
2155.000000	64.267468 
2154.000000	64.273405 
2153.000000	64.279675 
2152.000000	64.285111 
2151.000000	64.289450 
2150.000000	64.293003 
2149.000000	64.296698 
2148.000000	64.301490 
2147.000000	64.308309 
2146.000000	64.317321 
2145.000000	64.328074 
2144.000000	64.339351 
2143.000000	64.349436 
2142.000000	64.356517 
2141.000000	64.359164 
2140.000000	64.356780 
2139.000000	64.349675 
2138.000000	64.339160 
2137.000000	64.327144 
2136.000000	64.315629 
2135.000000	64.306521 
2134.000000	64.300966 
2133.000000	64.299392 
2132.000000	64.301300 
2131.000000	64.305734 
2130.000000	64.311552 
2129.000000	64.317584 
2128.000000	64.323091 
2127.000000	64.327716 
2126.000000	64.331531 
2125.000000	64.334774 
2124.000000	64.337754 
2123.000000	64.340448 
2122.000000	64.342522 
2121.000000	64.343428 
2120.000000	64.342427 
2119.000000	64.338850 
2118.000000	64.332318 
2117.000000	64.323091 
2116.000000	64.311885 
2115.000000	64.299988 
2114.000000	64.288902 
2113.000000	64.280176 
2112.000000	64.274978 
2111.000000	64.274072 
2110.000000	64.277410 
2109.000000	64.284420 
2108.000000	64.293909 
2107.000000	64.304327 
2106.000000	64.314150 
2105.000000	64.321923 
2104.000000	64.326620 
2103.000000	64.327859 
2102.000000	64.325761 
2101.000000	64.321041 
2100.000000	64.314746 
2099.000000	64.308142 
2098.000000	64.302396 
2097.000000	64.298343 
2096.000000	64.296364 
2095.000000	64.296078 
2094.000000	64.296627 
2093.000000	64.296817 
2092.000000	64.295625 
2091.000000	64.292311 
2090.000000	64.286804 
2089.000000	64.279866 
2088.000000	64.273047 
2087.000000	64.268255 
2086.000000	64.267253 
2085.000000	64.271378 
2084.000000	64.280843 
2083.000000	64.294886 
2082.000000	64.311718 
2081.000000	64.328837 
2080.000000	64.343357 
2079.000000	64.352965 
2078.000000	64.355850 
2077.000000	64.351272 
2076.000000	64.339566 
2075.000000	64.322161 
2074.000000	64.301323 
2073.000000	64.279556 
2072.000000	64.259552 
2071.000000	64.243888 
2070.000000	64.234781 
2069.000000	64.233756 
2068.000000	64.241743 
2067.000000	64.258885 
2066.000000	64.284610 
2065.000000	64.317536 
2064.000000	64.355802 
2063.000000	64.397168 
2062.000000	64.439225 
2061.000000	64.479684 
2060.000000	64.516496 
2059.000000	64.547872 
2058.000000	64.572525 
2057.000000	64.589238 
2056.000000	64.597344 
2055.000000	64.596223 
2054.000000	64.585757 
2053.000000	64.566063 
2052.000000	64.537978 
2051.000000	64.502668 
2050.000000	64.462137 
2049.000000	64.418697 
2048.000000	64.375042 
2047.000000	64.333868 
2046.000000	64.297509 
2045.000000	64.267802 
2044.000000	64.245843 
2043.000000	64.232063 
2042.000000	64.226269 
2041.000000	64.227724 
2040.000000	64.235281 
2039.000000	64.247751 
2038.000000	64.263653 
2037.000000	64.281511 
2036.000000	64.299750 
2035.000000	64.316797 
2034.000000	64.331030 
2033.000000	64.340996 
2032.000000	64.345526 
2031.000000	64.343643 
2030.000000	64.334845 
2029.000000	64.319276 
2028.000000	64.297556 
2027.000000	64.270901 
2026.000000	64.240860 
2025.000000	64.209556 
2024.000000	64.179253 
2023.000000	64.152288 
2022.000000	64.130783 
2021.000000	64.116287 
2020.000000	64.109635 
2019.000000	64.110922 
2018.000000	64.119219 
2017.000000	64.132857 
2016.000000	64.149737 
2015.000000	64.167737 
2014.000000	64.184999 
2013.000000	64.200210 
2012.000000	64.212989 
2011.000000	64.223575 
2010.000000	64.232778 
2009.000000	64.241504 
2008.000000	64.250421 
2007.000000	64.259743 
2006.000000	64.269137 
2005.000000	64.277601 
2004.000000	64.284086 
2003.000000	64.287543 
2002.000000	64.287185 
2001.000000	64.282917 
2000.000000	64.275217 
1999.000000	64.265179 
1998.000000	64.254283 
1997.000000	64.244008 
1996.000000	64.235639 
1995.000000	64.229846 
1994.000000	64.226627 
1993.000000	64.225125 
1992.000000	64.224100 
1991.000000	64.222145 
1990.000000	64.217829 
1989.000000	64.210295 
1988.000000	64.199352 
1987.000000	64.185619 
1986.000000	64.170384 
1985.000000	64.155316 
1984.000000	64.142155 
1983.000000	64.132452 
1982.000000	64.127373 
1981.000000	64.127326 
1980.000000	64.132142 
1979.000000	64.141225 
1978.000000	64.153695 
1977.000000	64.168477 
1976.000000	64.184594 
1975.000000	64.200901 
1974.000000	64.216589 
1973.000000	64.230728 
1972.000000	64.242434 
1971.000000	64.251065 
1970.000000	64.256191 
1969.000000	64.257740 
1968.000000	64.256095 
1967.000000	64.252042 
1966.000000	64.246654 
1965.000000	64.241290 
1964.000000	64.237046 
1963.000000	64.234948 
1962.000000	64.235401 
1961.000000	64.238357 
1960.000000	64.243268 
1959.000000	64.249205 
1958.000000	64.255070 
1957.000000	64.259886 
1956.000000	64.262771 
1955.000000	64.263010 
1954.000000	64.260363 
1953.000000	64.254760 
1952.000000	64.246320 
1951.000000	64.235496 
1950.000000	64.222884 
1949.000000	64.209270 
1948.000000	64.195632 
1947.000000	64.182996 
1946.000000	64.172267 
1945.000000	64.164185 
1944.000000	64.159250 
1943.000000	64.157342 
1942.000000	64.157795 
1941.000000	64.159488 
1940.000000	64.161014 
1939.000000	64.161014 
1938.000000	64.158272 
1937.000000	64.152264 
1936.000000	64.143252 
1935.000000	64.132380 
1934.000000	64.121341 
1933.000000	64.112091 
1932.000000	64.106655 
1931.000000	64.106321 
1930.000000	64.111518 
1929.000000	64.121603 
1928.000000	64.134955 
1927.000000	64.149260 
1926.000000	64.161920 
1925.000000	64.170742 
1924.000000	64.174437 
1923.000000	64.172792 
1922.000000	64.166879 
1921.000000	64.158582 
1920.000000	64.150547 
1919.000000	64.145255 
1918.000000	64.144539 
1917.000000	64.149236 
1916.000000	64.158916 
1915.000000	64.171934 
1914.000000	64.186000 
1913.000000	64.198708 
1912.000000	64.207887 
1911.000000	64.212322 
1910.000000	64.211750 
1909.000000	64.206886 
1908.000000	64.199113 
1907.000000	64.190006 
1906.000000	64.180922 
1905.000000	64.172720 
1904.000000	64.165568 
1903.000000	64.159178 
1902.000000	64.152908 
1901.000000	64.146113 
1900.000000	64.138555 
1899.000000	64.130401 
1898.000000	64.122271 
1897.000000	64.115333 
1896.000000	64.110732 
1895.000000	64.109492 
1894.000000	64.112162 
1893.000000	64.118719 
1892.000000	64.128375 
1891.000000	64.139962 
1890.000000	64.151835 
1889.000000	64.162421 
1888.000000	64.170360 
1887.000000	64.174675 
1886.000000	64.174938 
1885.000000	64.171314 
1884.000000	64.164447 
1883.000000	64.155435 
1882.000000	64.145636 
1881.000000	64.136433 
1880.000000	64.129042 
1879.000000	64.124274 
1878.000000	64.122462 
1877.000000	64.123439 
1876.000000	64.126563 
1875.000000	64.130830 
1874.000000	64.135217 
1873.000000	64.138889 
1872.000000	64.141583 
1871.000000	64.143514 
1870.000000	64.145493 
1869.000000	64.148759 
1868.000000	64.154577 
1867.000000	64.163827 
1866.000000	64.176607 
1865.000000	64.192175 
1864.000000	64.208984 
1863.000000	64.225053 
1862.000000	64.238047 
1861.000000	64.246177 
1860.000000	64.247918 
1859.000000	64.242792 
1858.000000	64.231038 
1857.000000	64.213538 
1856.000000	64.191770 
1855.000000	64.167571 
1854.000000	64.142799 
1853.000000	64.119362 
1852.000000	64.098668 
1851.000000	64.081811 
1850.000000	64.069437 
1849.000000	64.061713 
1848.000000	64.058446 
1847.000000	64.059352 
1846.000000	64.063906 
1845.000000	64.071750 
1844.000000	64.082670 
1843.000000	64.096713 
1842.000000	64.113783 
1841.000000	64.133548 
1840.000000	64.155268 
1839.000000	64.177441 
1838.000000	64.198136 
1837.000000	64.215064 
1836.000000	64.226078 
1835.000000	64.229726 
1834.000000	64.225482 
1833.000000	64.213967 
1832.000000	64.196872 
1831.000000	64.176535 
1830.000000	64.155626 
1829.000000	64.136481 
1828.000000	64.121007 
1827.000000	64.110302 
1826.000000	64.104628 
1825.000000	64.103412 
1824.000000	64.105606 
1823.000000	64.109945 
1822.000000	64.115190 
1821.000000	64.120149 
1820.000000	64.123988 
1819.000000	64.126133 
1818.000000	64.126443 
1817.000000	64.125227 
1816.000000	64.123177 
1815.000000	64.121317 
1814.000000	64.120769 
1813.000000	64.122605 
1812.000000	64.127516 
1811.000000	64.135742 
1810.000000	64.146971 
1809.000000	64.160323 
1808.000000	64.174485 
1807.000000	64.187955 
1806.000000	64.199113 
1805.000000	64.206671 
1804.000000	64.209532 
1803.000000	64.207148 
1802.000000	64.199590 
1801.000000	64.187288 
1800.000000	64.171218 
1799.000000	64.152884 
1798.000000	64.133739 
1797.000000	64.115166 
1796.000000	64.098167 
1795.000000	64.083480 
1794.000000	64.071226 
1793.000000	64.061212 
1792.000000	64.052796 
1791.000000	64.045405 
1790.000000	64.038610 
1789.000000	64.032435 
1788.000000	64.027118 
1787.000000	64.023089 
1786.000000	64.020848 
1785.000000	64.020824 
1784.000000	64.022755 
1783.000000	64.026141 
1782.000000	64.030265 
1781.000000	64.034247 
1780.000000	64.037275 
1779.000000	64.038825 
1778.000000	64.038777 
1777.000000	64.037394 
1776.000000	64.035034 
1775.000000	64.032173 
1774.000000	64.029407 
1773.000000	64.027190 
1772.000000	64.025783 
1771.000000	64.025497 
1770.000000	64.026546 
1769.000000	64.029049 
1768.000000	64.033079 
1767.000000	64.038515 
1766.000000	64.044976 
1765.000000	64.051842 
1764.000000	64.058160 
1763.000000	64.062786 
1762.000000	64.064478 
1761.000000	64.062142 
1760.000000	64.054989 
1759.000000	64.042735 
1758.000000	64.025568 
1757.000000	64.004254 
1756.000000	63.980197 
1755.000000	63.955116 
1754.000000	63.931083 
1753.000000	63.910031 
1752.000000	63.893413 
1751.000000	63.882112 
1750.000000	63.876152 
1749.000000	63.874626 
1748.000000	63.876056 
1747.000000	63.878583 
1746.000000	63.880538 
1745.000000	63.880610 
1744.000000	63.878178 
1743.000000	63.873243 
1742.000000	63.866472 
1741.000000	63.858795 
1740.000000	63.851356 
1739.000000	63.845133 
1738.000000	63.840842 
1737.000000	63.838815 
1736.000000	63.839101 
1735.000000	63.841485 
1734.000000	63.845419 
1733.000000	63.850426 
1732.000000	63.855910 
1731.000000	63.861060 
1730.000000	63.865041 
1729.000000	63.866996 
1728.000000	63.866209 
1727.000000	63.862180 
1726.000000	63.854885 
1725.000000	63.844919 
1724.000000	63.832998 
1723.000000	63.820433 
1722.000000	63.808727 
1721.000000	63.799428 
1720.000000	63.793802 
1719.000000	63.792777 
1718.000000	63.796687 
1717.000000	63.805341 
1716.000000	63.817858 
1715.000000	63.833022 
1714.000000	63.849210 
1713.000000	63.865184 
1712.000000	63.879871 
1711.000000	63.892745 
1710.000000	63.903617 
1709.000000	63.912510 
1708.000000	63.919520 
1707.000000	63.924598 
1706.000000	63.927459 
1705.000000	63.927674 
1704.000000	63.924860 
1703.000000	63.919043 
1702.000000	63.910722 
1701.000000	63.901066 
1700.000000	63.891720 
1699.000000	63.884568 
1698.000000	63.881158 
1697.000000	63.882374 
1696.000000	63.888096 
1695.000000	63.897275 
1694.000000	63.908100 
1693.000000	63.918519 
1692.000000	63.926577 
1691.000000	63.930964 
1690.000000	63.931107 
1689.000000	63.927006 
1688.000000	63.919043 
1687.000000	63.907837 
1686.000000	63.893890 
1685.000000	63.877725 
1684.000000	63.859748 
1683.000000	63.840436 
1682.000000	63.820552 
1681.000000	63.801026 
1680.000000	63.783025 
1679.000000	63.767886 
1678.000000	63.756608 
1677.000000	63.749980 
1676.000000	63.748097 
1675.000000	63.750696 
1674.000000	63.757038 
1673.000000	63.766288 
1672.000000	63.777613 
1671.000000	63.790464 
1670.000000	63.804554 
1669.000000	63.819766 
1668.000000	63.836097 
1667.000000	63.853216 
1666.000000	63.870453 
1665.000000	63.886690 
1664.000000	63.900518 
1663.000000	63.910484 
1662.000000	63.915348 
1661.000000	63.914489 
1660.000000	63.908171 
1659.000000	63.897776 
1658.000000	63.885593 
1657.000000	63.874435 
1656.000000	63.867020 
1655.000000	63.865637 
1654.000000	63.871288 
1653.000000	63.883709 
1652.000000	63.901472 
1651.000000	63.921976 
1650.000000	63.942122 
1649.000000	63.959169 
1648.000000	63.970851 
1647.000000	63.976049 
1646.000000	63.974833 
1645.000000	63.968253 
1644.000000	63.958024 
1643.000000	63.946318 
1642.000000	63.934922 
1641.000000	63.925361 
1640.000000	63.918375 
1639.000000	63.914203 
1638.000000	63.912367 
1637.000000	63.911938 
1636.000000	63.911652 
1635.000000	63.910198 
1634.000000	63.906192 
1633.000000	63.898587 
1632.000000	63.886928 
1631.000000	63.871407 
1630.000000	63.853001 
1629.000000	63.833260 
1628.000000	63.814187 
1627.000000	63.797640 
1626.000000	63.785338 
1625.000000	63.778305 
1624.000000	63.776683 
1623.000000	63.779902 
1622.000000	63.786864 
1621.000000	63.796257 
1620.000000	63.806891 
1619.000000	63.817930 
1618.000000	63.828921 
1617.000000	63.839769 
1616.000000	63.850474 
1615.000000	63.861012 
1614.000000	63.871002 
1613.000000	63.879823 
1612.000000	63.886833 
1611.000000	63.891410 
1610.000000	63.893198 
1609.000000	63.892102 
1608.000000	63.888406 
1607.000000	63.882565 
1606.000000	63.875246 
1605.000000	63.867163 
1604.000000	63.858962 
1603.000000	63.851332 
1602.000000	63.844919 
1601.000000	63.840413 
1600.000000	63.838434 
1599.000000	63.839435 
1598.000000	63.843870 
1597.000000	63.851618 
1596.000000	63.862371 
1595.000000	63.875436 
1594.000000	63.889765 
1593.000000	63.904333 
1592.000000	63.917946 
1591.000000	63.929510 
1590.000000	63.937902 
1589.000000	63.942337 
1588.000000	63.941931 
1587.000000	63.935875 
1586.000000	63.923764 
1585.000000	63.905882 
1584.000000	63.883209 
1583.000000	63.857460 
1582.000000	63.831090 
1581.000000	63.807034 
1580.000000	63.788008 
1579.000000	63.776183 
1578.000000	63.772583 
1577.000000	63.777065 
1576.000000	63.788151 
1575.000000	63.803529 
1574.000000	63.820481 
1573.000000	63.836526 
1572.000000	63.849973 
1571.000000	63.860082 
1570.000000	63.867139 
1569.000000	63.872098 
1568.000000	63.876080 
1567.000000	63.880038 
1566.000000	63.884186 
1565.000000	63.887763 
1564.000000	63.889646 
1563.000000	63.888001 
1562.000000	63.881373 
1561.000000	63.868570 
1560.000000	63.849425 
1559.000000	63.824605 
1558.000000	63.795781 
1557.000000	63.765096 
1556.000000	63.735008 
1555.000000	63.707876 
1554.000000	63.685679 
1553.000000	63.669729 
1552.000000	63.660669 
1551.000000	63.658404 
1550.000000	63.662338 
1549.000000	63.671207 
1548.000000	63.683462 
1547.000000	63.697266 
1546.000000	63.711023 
1545.000000	63.723349 
1544.000000	63.733530 
1543.000000	63.741517 
1542.000000	63.748168 
1541.000000	63.754796 
1540.000000	63.762736 
1539.000000	63.772964 
1538.000000	63.785719 
1537.000000	63.800406 
1536.000000	63.815474 
1535.000000	63.829016 
1534.000000	63.839054 
1533.000000	63.844275 
1532.000000	63.844037 
1531.000000	63.838672 
1530.000000	63.829135 
1529.000000	63.816785 
1528.000000	63.802719 
1527.000000	63.787627 
1526.000000	63.771462 
1525.000000	63.753747 
1524.000000	63.733649 
1523.000000	63.710498 
1522.000000	63.684225 
1521.000000	63.655734 
1520.000000	63.626527 
1519.000000	63.598966 
1518.000000	63.575482 
1517.000000	63.558244 
1516.000000	63.548994 
1515.000000	63.548564 
1514.000000	63.556599 
1513.000000	63.571763 
1512.000000	63.591957 
1511.000000	63.614654 
1510.000000	63.637089 
1509.000000	63.656711 
1508.000000	63.671612 
1507.000000	63.680887 
1506.000000	63.684558 
1505.000000	63.683605 
1504.000000	63.679718 
1503.000000	63.675165 
1502.000000	63.671994 
1501.000000	63.671827 
1500.000000	63.675332 
1499.000000	63.682198 
1498.000000	63.691449 
1497.000000	63.701701 
1496.000000	63.711595 
1495.000000	63.720273 
1494.000000	63.727355 
1493.000000	63.732671 
1492.000000	63.736128 
1491.000000	63.737225 
1490.000000	63.735318 
1489.000000	63.729619 
1488.000000	63.719367 
1487.000000	63.704538 
1486.000000	63.685941 
1485.000000	63.665413 
1484.000000	63.645577 
1483.000000	63.629269 
1482.000000	63.619136 
1481.000000	63.616752 
1480.000000	63.622522 
1479.000000	63.635349 
1478.000000	63.653135 
1477.000000	63.673210 
1476.000000	63.692927 
1475.000000	63.710021 
1474.000000	63.723015 
1473.000000	63.731336 
1472.000000	63.735151 
1471.000000	63.734936 
1470.000000	63.731408 
1469.000000	63.725280 
1468.000000	63.717150 
1467.000000	63.707447 
1466.000000	63.696455 
1465.000000	63.684129 
1464.000000	63.670253 
1463.000000	63.654541 
1462.000000	63.636565 
1461.000000	63.616204 
1460.000000	63.593530 
1459.000000	63.569569 
1458.000000	63.545894 
1457.000000	63.524985 
1456.000000	63.509631 
1455.000000	63.502359 
1454.000000	63.504552 
1453.000000	63.516092 
1452.000000	63.535141 
1451.000000	63.558125 
1450.000000	63.580656 
1449.000000	63.598418 
1448.000000	63.608026 
1447.000000	63.607859 
1446.000000	63.598155 
1445.000000	63.580942 
1444.000000	63.559389 
1443.000000	63.537311 
1442.000000	63.518166 
1441.000000	63.504505 
1440.000000	63.497614 
1439.000000	63.497352 
1438.000000	63.502478 
1437.000000	63.510966 
1436.000000	63.520789 
1435.000000	63.530135 
1434.000000	63.537859 
1433.000000	63.543605 
1432.000000	63.547444 
1431.000000	63.549900 
1430.000000	63.551378 
1429.000000	63.552188 
1428.000000	63.552236 
1427.000000	63.551330 
1426.000000	63.549137 
1425.000000	63.545489 
1424.000000	63.540410 
1423.000000	63.534235 
1422.000000	63.527464 
1421.000000	63.520884 
1420.000000	63.515281 
1419.000000	63.511371 
1418.000000	63.509750 
1417.000000	63.510751 
1416.000000	63.514494 
1415.000000	63.520884 
1414.000000	63.529562 
1413.000000	63.539862 
1412.000000	63.550829 
1411.000000	63.561367 
1410.000000	63.570332 
1409.000000	63.576698 
1408.000000	63.579964 
1407.000000	63.579988 
1406.000000	63.577246 
1405.000000	63.572430 
1404.000000	63.566398 
1403.000000	63.559746 
1402.000000	63.552689 
1401.000000	63.545274 
1400.000000	63.537430 
1399.000000	63.529205 
1398.000000	63.521027 
1397.000000	63.513731 
1396.000000	63.508653 
1395.000000	63.507270 
1394.000000	63.510727 
1393.000000	63.519716 
1392.000000	63.533949 
1391.000000	63.552308 
1390.000000	63.572907 
1389.000000	63.593387 
1388.000000	63.611340 
1387.000000	63.624835 
1386.000000	63.632607 
1385.000000	63.634324 
1384.000000	63.630557 
1383.000000	63.622593 
1382.000000	63.612031 
1381.000000	63.600635 
1380.000000	63.589882 
1379.000000	63.580894 
1378.000000	63.574099 
1377.000000	63.569402 
1376.000000	63.565945 
1375.000000	63.562631 
1374.000000	63.558149 
1373.000000	63.551402 
1372.000000	63.541746 
1371.000000	63.528990 
1370.000000	63.513898 
1369.000000	63.497781 
1368.000000	63.482546 
1367.000000	63.470101 
1366.000000	63.462185 
1365.000000	63.459968 
1364.000000	63.463783 
1363.000000	63.473033 
1362.000000	63.486361 
1361.000000	63.501858 
1360.000000	63.517379 
1359.000000	63.531017 
1358.000000	63.541483 
1357.000000	63.548254 
1356.000000	63.551473 
1355.000000	63.552045 
1354.000000	63.551139 
1353.000000	63.550281 
1352.000000	63.550758 
1351.000000	63.553214 
1350.000000	63.557744 
1349.000000	63.563442 
1348.000000	63.569164 
1347.000000	63.573026 
1346.000000	63.573169 
1345.000000	63.567900 
1344.000000	63.556170 
1343.000000	63.537955 
1342.000000	63.514161 
1341.000000	63.486766 
1340.000000	63.458442 
1339.000000	63.432407 
1338.000000	63.411831 
1337.000000	63.399291 
1336.000000	63.396263 
1335.000000	63.402986 
1334.000000	63.418340 
1333.000000	63.440012 
1332.000000	63.464927 
1331.000000	63.489627 
1330.000000	63.511252 
1329.000000	63.527607 
1328.000000	63.537836 
1327.000000	63.542127 
1326.000000	63.541913 
1325.000000	63.539123 
1324.000000	63.535928 
1323.000000	63.534235 
1322.000000	63.535165 
1321.000000	63.539171 
1320.000000	63.545727 
1319.000000	63.553833 
1318.000000	63.561987 
1317.000000	63.568639 
1316.000000	63.572311 
1315.000000	63.571834 
1314.000000	63.566255 
1313.000000	63.555097 
1312.000000	63.537859 
1311.000000	63.514375 
1310.000000	63.484907 
1309.000000	63.450288 
1308.000000	63.411974 
1307.000000	63.372278 
1306.000000	63.334131 
1305.000000	63.300800 
1304.000000	63.275361 
1303.000000	63.260245 
1302.000000	63.256549 
1301.000000	63.264036 
1300.000000	63.281226 
1299.000000	63.305735 
1298.000000	63.334298 
1297.000000	63.363647 
1296.000000	63.390707 
1295.000000	63.412857 
1294.000000	63.428211 
1293.000000	63.435673 
1292.000000	63.434720 
1291.000000	63.425540 
1290.000000	63.409113 
1289.000000	63.387084 
1288.000000	63.361597 
1287.000000	63.335108 
1286.000000	63.310170 
1285.000000	63.288974 
1284.000000	63.273096 
1283.000000	63.263106 
1282.000000	63.258671 
1281.000000	63.258767 
1280.000000	63.261818 
1279.000000	63.266205 
1278.000000	63.270759 
1277.000000	63.274574 
1276.000000	63.277387 
1275.000000	63.279247 
1274.000000	63.280677 
1273.000000	63.282132 
1272.000000	63.284158 
1271.000000	63.287305 
1270.000000	63.292026 
1269.000000	63.298726 
1268.000000	63.307642 
1267.000000	63.318896 
1266.000000	63.332176 
1265.000000	63.347101 
1264.000000	63.362741 
1263.000000	63.377785 
1262.000000	63.390398 
1261.000000	63.398647 
1260.000000	63.400745 
1259.000000	63.395547 
1258.000000	63.382649 
1257.000000	63.362836 
1256.000000	63.338041 
1255.000000	63.311076 
1254.000000	63.285160 
1253.000000	63.263201 
1252.000000	63.247346 
1251.000000	63.238620 
1250.000000	63.236784 
1249.000000	63.240599 
1248.000000	63.247990 
1247.000000	63.256859 
1246.000000	63.265371 
1245.000000	63.272500 
1244.000000	63.277888 
1243.000000	63.281750 
1242.000000	63.284730 
1241.000000	63.287591 
1240.000000	63.290643 
1239.000000	63.293981 
1238.000000	63.297343 
1237.000000	63.300538 
1236.000000	63.303518 
1235.000000	63.306570 
1234.000000	63.310503 
1233.000000	63.316321 
1232.000000	63.324975 
1231.000000	63.336873 
1230.000000	63.351869 
1229.000000	63.368797 
1228.000000	63.385796 
1227.000000	63.400650 
1226.000000	63.411068 
1225.000000	63.415408 
1224.000000	63.413071 
1223.000000	63.404583 
1222.000000	63.391518 
1221.000000	63.376164 
1220.000000	63.360977 
1219.000000	63.348174 
1218.000000	63.339185 
1217.000000	63.334655 
1216.000000	63.334226 
1215.000000	63.337016 
1214.000000	63.341617 
1213.000000	63.346767 
1212.000000	63.351345 
1211.000000	63.354516 
1210.000000	63.355779 
1209.000000	63.354897 
1208.000000	63.351988 
1207.000000	63.347434 
1206.000000	63.341832 
1205.000000	63.335895 
1204.000000	63.330531 
1203.000000	63.326597 
1202.000000	63.324642 
1201.000000	63.324832 
1200.000000	63.326883 
1199.000000	63.330149 
1198.000000	63.333487 
1197.000000	63.335561 
1196.000000	63.335251 
1195.000000	63.331604 
1194.000000	63.324165 
1193.000000	63.312935 
1192.000000	63.298535 
1191.000000	63.282084 
1190.000000	63.264894 
1189.000000	63.248586 
1188.000000	63.234663 
1187.000000	63.224625 
1186.000000	63.219618 
1185.000000	63.220334 
1184.000000	63.226962 
1183.000000	63.239073 
1182.000000	63.255572 
1181.000000	63.274788 
1180.000000	63.294744 
1179.000000	63.313293 
1178.000000	63.328456 
1177.000000	63.338589 
1176.000000	63.342428 
1175.000000	63.339257 
1174.000000	63.328981 
1173.000000	63.312125 
1172.000000	63.289523 
1171.000000	63.262581 
1170.000000	63.232994 
1169.000000	63.202571 
1168.000000	63.173031 
1167.000000	63.146042 
1166.000000	63.123083 
1165.000000	63.105320 
1164.000000	63.093686 
1163.000000	63.088536 
1162.000000	63.089776 
1161.000000	63.096690 
1160.000000	63.108325 
1159.000000	63.123106 
1158.000000	63.139462 
1157.000000	63.155841 
1156.000000	63.171148 
1155.000000	63.184618 
1154.000000	63.196134 
1153.000000	63.205885 
1152.000000	63.214302 
1151.000000	63.221764 
1150.000000	63.228774 
1149.000000	63.235712 
1148.000000	63.242983 
1147.000000	63.250875 
1146.000000	63.259840 
1145.000000	63.270354 
1144.000000	63.282775 
1143.000000	63.297057 
1142.000000	63.312673 
1141.000000	63.328480 
1140.000000	63.342809 
1139.000000	63.353538 
1138.000000	63.358354 
1137.000000	63.355207 
1136.000000	63.343024 
1135.000000	63.321995 
1134.000000	63.293623 
1133.000000	63.260936 
1132.000000	63.227891 
1131.000000	63.198542 
1130.000000	63.176369 
1129.000000	63.163328 
1128.000000	63.159728 
1127.000000	63.164353 
1126.000000	63.175129 
1125.000000	63.189435 
1124.000000	63.204526 
1123.000000	63.217949 
1122.000000	63.227653 
1121.000000	63.231945 
1120.000000	63.229703 
1119.000000	63.220787 
1118.000000	63.205957 
1117.000000	63.187050 
1116.000000	63.166522 
1115.000000	63.146829 
1114.000000	63.129973 
1113.000000	63.116645 
1112.000000	63.106679 
1111.000000	63.099265 
1110.000000	63.093519 
1109.000000	63.089084 
1108.000000	63.086318 
1107.000000	63.086271 
1106.000000	63.090372 
1105.000000	63.099694 
1104.000000	63.114500 
1103.000000	63.133692 
1102.000000	63.154983 
1101.000000	63.175106 
1100.000000	63.190627 
1099.000000	63.198471 
1098.000000	63.196992 
1097.000000	63.186407 
1096.000000	63.168787 
1095.000000	63.147687 
1094.000000	63.127303 
1093.000000	63.111639 
1092.000000	63.103675 
1091.000000	63.104462 
1090.000000	63.113260 
1089.000000	63.127565 
1088.000000	63.143706 
1087.000000	63.157820 
1086.000000	63.166475 
1085.000000	63.167715 
1084.000000	63.160848 
1083.000000	63.147187 
1082.000000	63.129067 
1081.000000	63.109898 
1080.000000	63.092923 
1079.000000	63.080644 
1078.000000	63.074874 
1077.000000	63.075685 
1076.000000	63.082051 
1075.000000	63.091826 
1074.000000	63.102412 
1073.000000	63.111209 
1072.000000	63.116121 
1071.000000	63.115954 
1070.000000	63.110470 
1069.000000	63.100528 
1068.000000	63.087677 
1067.000000	63.073897 
1066.000000	63.060951 
1065.000000	63.050389 
1064.000000	63.043117 
1063.000000	63.039517 
1062.000000	63.039278 
1061.000000	63.041710 
1060.000000	63.046145 
1059.000000	63.051939 
1058.000000	63.058686 
1057.000000	63.066267 
1056.000000	63.074946 
1055.000000	63.084936 
1054.000000	63.096714 
1053.000000	63.110542 
1052.000000	63.126707 
1051.000000	63.145160 
1050.000000	63.165569 
1049.000000	63.187718 
1048.000000	63.211131 
1047.000000	63.235330 
1046.000000	63.259673 
1045.000000	63.283419 
1044.000000	63.305592 
1043.000000	63.325095 
1042.000000	63.340473 
1041.000000	63.350343 
1040.000000	63.353347 
1039.000000	63.348674 
1038.000000	63.336157 
1037.000000	63.316679 
1036.000000	63.292074 
1035.000000	63.265109 
1034.000000	63.238954 
1033.000000	63.216829 
1032.000000	63.201546 
1031.000000	63.194608 
1030.000000	63.196015 
1029.000000	63.204050 
1028.000000	63.215780 
1027.000000	63.227367 
1026.000000	63.234877 
1025.000000	63.235211 
1024.000000	63.226556 
1023.000000	63.208866 
1022.000000	63.183641 
1021.000000	63.154029 
1020.000000	63.123679 
1019.000000	63.096427 
1018.000000	63.075542 
1017.000000	63.063168 
1016.000000	63.059902 
1015.000000	63.064980 
1014.000000	63.076448 
1013.000000	63.091492 
1012.000000	63.107132 
1011.000000	63.120579 
1010.000000	63.129734 
1009.000000	63.133573 
1008.000000	63.132238 
1007.000000	63.126897 
1006.000000	63.119602 
1005.000000	63.112831 
1004.000000	63.108921 
1003.000000	63.109683 
1002.000000	63.115906 
1001.000000	63.127493 
1000.000000	63.143348 
999.000000	 63.161802 
998.000000	 63.180732 
997.000000	 63.198184 
996.000000	 63.212513 
995.000000	 63.222765 
994.000000	 63.228487 
993.000000	 63.229751 
992.000000	 63.226985 
991.000000	 63.220930 
990.000000	 63.212513 
989.000000	 63.202953 
988.000000	 63.193535 
987.000000	 63.185739 
986.000000	 63.181066 
985.000000	 63.180923 
984.000000	 63.186335 
983.000000	 63.197660 
982.000000	 63.214325 
981.000000	 63.234901 
980.000000	 63.257288 
979.000000	 63.279294 
978.000000	 63.298702 
977.000000	 63.313627 
976.000000	 63.323044 
975.000000	 63.326430 
974.000000	 63.324356 
973.000000	 63.317584 
972.000000	 63.307189 
971.000000	 63.294076 
970.000000	 63.279008 
969.000000	 63.262391 
968.000000	 63.244509 
967.000000	 63.225436 
966.000000	 63.205289 
965.000000	 63.184380 
964.000000	 63.163447 
963.000000	 63.143658 
962.000000	 63.126444 
961.000000	 63.113260 
960.000000	 63.105368 
959.000000	 63.103413 
958.000000	 63.107156 
957.000000	 63.115143 
956.000000	 63.124895 
955.000000	 63.133168 
954.000000	 63.136744 
953.000000	 63.133311 
952.000000	 63.122272 
951.000000	 63.104796 
950.000000	 63.084101 
949.000000	 63.064837 
948.000000	 63.051867 
947.000000	 63.049292 
946.000000	 63.059115 
945.000000	 63.080906 
944.000000	 63.111376 
943.000000	 63.145351 
942.000000	 63.176822 
941.000000	 63.200402 
940.000000	 63.212704 
939.000000	 63.212871 
938.000000	 63.203001 
937.000000	 63.187098 
936.000000	 63.170242 
935.000000	 63.157129 
934.000000	 63.151216 
933.000000	 63.154125 
932.000000	 63.165402 
931.000000	 63.183021 
930.000000	 63.203859 
929.000000	 63.224625 
928.000000	 63.242363 
927.000000	 63.255000 
926.000000	 63.261675 
925.000000	 63.262605 
924.000000	 63.258576 
923.000000	 63.250851 
922.000000	 63.240504 
921.000000	 63.228535 
920.000000	 63.215684 
919.000000	 63.202643 
918.000000	 63.189888 
917.000000	 63.178157 
916.000000	 63.168454 
915.000000	 63.161826 
914.000000	 63.159298 
913.000000	 63.161134 
912.000000	 63.166975 
911.000000	 63.175249 
910.000000	 63.183689 
909.000000	 63.189411 
908.000000	 63.189506 
907.000000	 63.181924 
906.000000	 63.166236 
905.000000	 63.143634 
904.000000	 63.116669 
903.000000	 63.088583 
902.000000	 63.062524 
901.000000	 63.040542 
900.000000	 63.023495 
899.000000	 63.010716 
898.000000	 63.000798 
897.000000	 62.992215 
896.000000	 62.984132 
895.000000	 62.976813 
894.000000	 62.971735 
893.000000	 62.970972 
892.000000	 62.976622 
891.000000	 62.989759 
890.000000	 63.010048 
889.000000	 63.035345 
888.000000	 63.062000 
887.000000	 63.085579 
886.000000	 63.101887 
885.000000	 63.107943 
884.000000	 63.102412 
883.000000	 63.085961 
882.000000	 63.060832 
881.000000	 63.030171 
880.000000	 62.997460 
879.000000	 62.965869 
878.000000	 62.937831 
877.000000	 62.914991 
876.000000	 62.898421 
875.000000	 62.889003 
874.000000	 62.887525 
873.000000	 62.894845 
872.000000	 62.911558 
871.000000	 62.937760 
870.000000	 62.972593 
869.000000	 63.014245 
868.000000	 63.059592 
867.000000	 63.104915 
866.000000	 63.146281 
865.000000	 63.180351 
864.000000	 63.204956 
863.000000	 63.219189 
862.000000	 63.223958 
861.000000	 63.220930 
860.000000	 63.212585 
859.000000	 63.200998 
858.000000	 63.187623 
857.000000	 63.172626 
856.000000	 63.155293 
855.000000	 63.134050 
854.000000	 63.107705 
853.000000	 63.075590 
852.000000	 63.038301 
851.000000	 62.998008 
850.000000	 62.958121 
849.000000	 62.922692 
848.000000	 62.895321 
847.000000	 62.878441 
846.000000	 62.872886 
845.000000	 62.877345 
844.000000	 62.888741 
843.000000	 62.903070 
842.000000	 62.916207 
841.000000	 62.924790 
840.000000	 62.926816 
839.000000	 62.921810 
838.000000	 62.910676 
837.000000	 62.895321 
836.000000	 62.877988 
835.000000	 62.860155 
834.000000	 62.842822 
833.000000	 62.826371 
832.000000	 62.811160 
831.000000	 62.797307 
830.000000	 62.786054 
829.000000	 62.779426 
828.000000	 62.780165 
827.000000	 62.791013 
826.000000	 62.813615 
825.000000	 62.847661 
824.000000	 62.890696 
823.000000	 62.938189 
822.000000	 62.984800 
821.000000	 63.025569 
820.000000	 63.057374 
819.000000	 63.079595 
818.000000	 63.094019 
817.000000	 63.103938 
816.000000	 63.113284 
815.000000	 63.125014 
814.000000	 63.140487 
813.000000	 63.158249 
812.000000	 63.175320 
811.000000	 63.186764 
810.000000	 63.187718 
809.000000	 63.173913 
808.000000	 63.143539 
807.000000	 63.097310 
806.000000	 63.039135 
805.000000	 62.975239 
804.000000	 62.913012 
803.000000	 62.859439 
802.000000	 62.819552 
801.000000	 62.795615 
800.000000	 62.786722 
799.000000	 62.789583 
798.000000	 62.799596 
797.000000	 62.812137 
796.000000	 62.823605 
795.000000	 62.832140 
794.000000	 62.837791 
793.000000	 62.841820 
792.000000	 62.845969 
791.000000	 62.851691 
790.000000	 62.859654 
789.000000	 62.869548 
788.000000	 62.880110 
787.000000	 62.890052 
786.000000	 62.898206 
785.000000	 62.904453 
784.000000	 62.909197 
783.000000	 62.913155 
782.000000	 62.916922 
781.000000	 62.920713 
780.000000	 62.924170 
779.000000	 62.926650 
778.000000	 62.927246 
777.000000	 62.925291 
776.000000	 62.920308 
775.000000	 62.912201 
774.000000	 62.900900 
773.000000	 62.886500 
772.000000	 62.869167 
771.000000	 62.849068 
770.000000	 62.826848 
769.000000	 62.803697 
768.000000	 62.781381 
767.000000	 62.762069 
766.000000	 62.748169 
765.000000	 62.741851 
764.000000	 62.744569 
763.000000	 62.756991 
762.000000	 62.778401 
761.000000	 62.807178 
760.000000	 62.841320 
759.000000	 62.878513 
758.000000	 62.916731 
757.000000	 62.953853 
756.000000	 62.987923 
755.000000	 63.016629 
754.000000	 63.037538 
753.000000	 63.048005 
752.000000	 63.045835 
751.000000	 63.029456 
750.000000	 62.998938 
749.000000	 62.955760 
748.000000	 62.903022 
747.000000	 62.844991 
746.000000	 62.786602 
745.000000	 62.732863 
744.000000	 62.688422 
743.000000	 62.656784 
742.000000	 62.639808 
741.000000	 62.637853 
740.000000	 62.649464 
739.000000	 62.671685 
738.000000	 62.700319 
737.000000	 62.730360 
736.000000	 62.756943 
735.000000	 62.775492 
734.000000	 62.782907 
733.000000	 62.777900 
732.000000	 62.761330 
731.000000	 62.736010 
730.000000	 62.706136 
729.000000	 62.676310 
728.000000	 62.650752 
727.000000	 62.632513 
726.000000	 62.623095 
725.000000	 62.622284 
724.000000	 62.628340 
723.000000	 62.638902 
722.000000	 62.650871 
721.000000	 62.661123 
720.000000	 62.666702 
719.000000	 62.665343 
718.000000	 62.655282 
717.000000	 62.635517 
716.000000	 62.606143 
715.000000	 62.568473 
714.000000	 62.525033 
713.000000	 62.479186 
712.000000	 62.434816 
711.000000	 62.395763 
710.000000	 62.364959 
709.000000	 62.344241 
708.000000	 62.333321 
707.000000	 62.330770 
706.000000	 62.334179 
705.000000	 62.341380 
704.000000	 62.350487 
703.000000	 62.360954 
702.000000	 62.373018 
701.000000	 62.387967 
700.000000	 62.407088 
699.000000	 62.431287 
698.000000	 62.460327 
697.000000	 62.492990 
696.000000	 62.527394 
695.000000	 62.561559 
694.000000	 62.594008 
693.000000	 62.624263 
692.000000	 62.652730 
691.000000	 62.680220 
690.000000	 62.707328 
689.000000	 62.733578 
688.000000	 62.757110 
687.000000	 62.774491 
686.000000	 62.781310 
685.000000	 62.773442 
684.000000	 62.748050 
683.000000	 62.704086 
682.000000	 62.643122 
681.000000	 62.569284 
680.000000	 62.489175 
679.000000	 62.410259 
678.000000	 62.340474 
677.000000	 62.286925 
676.000000	 62.255096 
675.000000	 62.247872 
674.000000	 62.265515 
673.000000	 62.305521 
672.000000	 62.363004 
671.000000	 62.431168 
670.000000	 62.502169 
669.000000	 62.567591 
668.000000	 62.620043 
667.000000	 62.653994 
666.000000	 62.666487 
665.000000	 62.657260 
664.000000	 62.628936 
663.000000	 62.586641 
662.000000	 62.536787 
661.000000	 62.486100 
660.000000	 62.440872 
659.000000	 62.405920 
658.000000	 62.383985 
657.000000	 62.375473 
656.000000	 62.378740 
655.000000	 62.390995 
654.000000	 62.408494 
653.000000	 62.428188 
652.000000	 62.448167 
651.000000	 62.468409 
650.000000	 62.490463 
649.000000	 62.516522 
648.000000	 62.548470 
647.000000	 62.586450 
646.000000	 62.628841 
645.000000	 62.671518 
644.000000	 62.708735 
643.000000	 62.734079 
642.000000	 62.742614 
641.000000	 62.731575 
640.000000	 62.701392 
639.000000	 62.655448 
638.000000	 62.599968 
637.000000	 62.542152 
636.000000	 62.488889 
635.000000	 62.444829 
634.000000	 62.411689 
633.000000	 62.387800 
632.000000	 62.369132 
631.000000	 62.350487 
630.000000	 62.327384 
629.000000	 62.297010 
628.000000	 62.259507 
627.000000	 62.217998 
626.000000	 62.178087 
625.000000	 62.146019 
624.000000	 62.127351 
623.000000	 62.125062 
622.000000	 62.138915 
621.000000	 62.164640 
620.000000	 62.195944 
619.000000	 62.224960 
618.000000	 62.246060 
617.000000	 62.257027 
616.000000	 62.260127 
615.000000	 62.261152 
614.000000	 62.267613 
613.000000	 62.286448 
612.000000	 62.320923 
611.000000	 62.369132 
610.000000	 62.424302 
609.000000	 62.476420 
608.000000	 62.514901 
607.000000	 62.531685 
606.000000	 62.523984 
605.000000	 62.495350 
604.000000	 62.455081 
603.000000	 62.415933 
602.000000	 62.390208 
601.000000	 62.386941 
600.000000	 62.409806 
599.000000	 62.456703 
598.000000	 62.521505 
597.000000	 62.595105 
596.000000	 62.669014 
595.000000	 62.735533 
594.000000	 62.789320 
593.000000	 62.826919 
592.000000	 62.846136 
591.000000	 62.845754 
590.000000	 62.825107 
589.000000	 62.784481 
588.000000	 62.726831 
587.000000	 62.655639 
586.000000	 62.575340 
585.000000	 62.490320 
584.000000	 62.405276 
583.000000	 62.323093 
582.000000	 62.245154 
581.000000	 62.171626 
580.000000	 62.102770 
579.000000	 62.040400 
578.000000	 61.988639 
577.000000	 61.953091 
576.000000	 61.939740 
575.000000	 61.954355 
574.000000	 61.999583 
573.000000	 62.071776 
572.000000	 62.161159 
571.000000	 62.253284 
570.000000	 62.332177 
569.000000	 62.382745 
568.000000	 62.396264 
567.000000	 62.370514 
566.000000	 62.313938 
565.000000	 62.242341 
564.000000	 62.178421 
563.000000	 62.145233 
562.000000	 62.163519 
561.000000	 62.246227 
560.000000	 62.396550 
559.000000	 62.607312 
558.000000	 62.861537 
557.000000	 63.136172 
556.000000	 63.405084 
555.000000	 63.643431 
554.000000	 63.830327 
553.000000	 63.951063 
552.000000	 63.995957 
551.000000	 63.959980 
550.000000	 63.843035 
549.000000	 63.649320 
548.000000	 63.386726 
547.000000	 63.067770 
546.000000	 62.710237 
545.000000	 62.338113 
544.000000	 61.980533 
543.000000	 61.670327 
542.000000	 61.438727 
541.000000	 61.312270 
540.000000	 61.306905 
539.000000	 61.425328 
538.000000	 61.652708 
537.000000	 61.960387 
536.000000	 62.310361 
535.000000	 62.659859 
534.000000	 62.965369 
533.000000	 63.191986 
532.000000	 63.317275 
531.000000	 63.335037 
530.000000	 63.253688 
529.000000	 63.097071 
528.000000	 62.898755 
527.000000	 62.697553 
526.000000	 62.529873 
525.000000	 62.422704 
524.000000	 62.388491 
523.000000	 62.423872 
522.000000	 62.511181 
521.000000	 62.621641 
520.000000	 62.723827 
519.000000	 62.791585 
518.000000	 62.810945 
517.000000	 62.782311 
516.000000	 62.718510 
515.000000	 62.642431 
514.000000	 62.574505 
513.000000	 62.527585 
512.000000	 62.497472 
511.000000	 62.466311 
510.000000	 62.402796 
509.000000	 62.272953 
508.000000	 62.049937 
507.000000	 61.724424 
506.000000	 61.310720 
505.000000	 60.845899 
504.000000	 60.383796 
503.000000	 59.981775 
502.000000	 59.692287 
501.000000	 59.551048 
500.000000	 59.571170 
499.000000	 59.741616 
498.000000	 60.034465 
497.000000	 60.412240 
496.000000	 60.836720 
495.000000	 61.275219 
494.000000	 61.703062 
493.000000	 62.103080 
492.000000	 62.461447 
491.000000	 62.764525 
490.000000	 62.995958 
489.000000	 63.137388 
488.000000	 63.173866 
487.000000	 63.096928 
486.000000	 62.912821 
485.000000	 62.641143 
484.000000	 62.319469 
483.000000	 61.991715 
482.000000	 61.702752 
481.000000	 61.487340 
480.000000	 61.364960 
479.000000	 61.336016 
478.000000	 61.384630 
477.000000	 61.483073 
476.000000	 61.600279 
475.000000	 61.707520 
474.000000	 61.784195 
473.000000	 61.820721 
472.000000	 61.818146 
471.000000	 61.783504 
470.000000	 61.725926 
469.000000	 61.654400 
468.000000	 61.575007 
467.000000	 61.492037 
466.000000	 61.407566 
465.000000	 61.323022 
464.000000	 61.240315 
463.000000	 61.163997 
462.000000	 61.101078 
461.000000	 61.056923 
460.000000	 61.037278 
459.000000	 61.049437 
458.000000	 61.097097 
457.000000	 61.180186 
456.000000	 61.289477 
455.000000	 61.406850 
454.000000	 61.506915 
453.000000	 61.560750 
452.000000	 61.545348 
451.000000	 61.447763 
450.000000	 61.275291 
449.000000	 61.055922 
448.000000	 60.832142 
447.000000	 60.651087 
446.000000	 60.553002 
445.000000	 60.560679 
444.000000	 60.675263 
443.000000	 60.875535 
442.000000	 61.122131 
441.000000	 61.366963 
440.000000	 61.566686 
439.000000	 61.690592 
438.000000	 61.726522 
437.000000	 61.679172 
436.000000	 61.564421 
435.000000	 61.402726 
434.000000	 61.212158 
433.000000	 61.004948 
432.000000	 60.785841 
431.000000	 60.557103 
430.000000	 60.321545 
429.000000	 60.090446 
428.000000	 59.886717 
427.000000	 59.742021 
426.000000	 59.687137 
425.000000	 59.748888 
424.000000	 59.942483 
423.000000	 60.261750 
422.000000	 60.676217 
421.000000	 61.133050 
420.000000	 61.565351 
419.000000	 61.903381 
418.000000	 62.089514 
417.000000	 62.079906 
416.000000	 61.854338 
415.000000	 61.430120 
414.000000	 60.860085 
413.000000	 60.212469 
412.000000	 59.564304 
411.000000	 58.999681 
410.000000	 58.589792 
409.000000	 58.384895 
408.000000	 58.399248 
407.000000	 58.611822 
406.000000	 58.963441 
405.000000	 59.377789 
404.000000	 59.763097 
403.000000	 60.025596 
402.000000	 60.086297 
401.000000	 59.900760 
400.000000	 59.457516 
399.000000	 58.769130 
398.000000	 57.885098 
397.000000	 56.880760 
396.000000	 55.855202 
395.000000	 54.920172 
394.000000	 54.178071 
393.000000	 53.703355 
392.000000	 53.569483 
391.000000	 53.845286 
390.000000	 54.605913 
389.000000	 55.917143 
388.000000	 57.831645 
387.000000	 60.351324 
386.000000	 63.388037 
385.000000	 66.747689 
384.000000	 70.147132 
383.000000	 73.240494 
382.000000	 75.697517 
381.000000	 77.238345 
380.000000	 77.706694 
379.000000	 77.061676 
378.000000	 75.444841 
377.000000	 73.062944 
376.000000	 70.162153 
375.000000	 66.953301 
374.000000	 63.575744 
373.000000	 60.142040 
372.000000	 56.731605 
371.000000	 53.529763 
370.000000	 50.846934 

