PE IR       SPECTRUM    SPECTRUM    ASCII       PEDS        1.60        
  -1
BZ6A24~1.ASC
17/04/07
16:38:14.00
17/04/07
16:38:14.00
tln
$BZ1503107-1_t0042$<tbV0>[-7.8,-5.2,8.0,0.0,27,1,0]
370.000000
64









2002,4.07    
MIRTGS : RIGHTBACK : INTERNAL 2
MIR : ON : INTERNAL 2
OPTKBR

0.200000
8
8.000000
FILLER
RATIO
SPECTRUM
UNLOCKED 256

DOUBLE
64
COMBINED
1
0
0


1.000000
RATIO


1
0
TRUE
51149
0
LEFT NOT FITTED RIGHT NOT FITTED 0
NONE
NONE
15600
12.000000
4.427000
51148
TRUE
1 0 8 72 0 0 0 0 

15798.010000






#HDR
-1
-1
#GR
CM-1
%T
0.00002384185791015625
0.0
5000.000000
-1.000000
4631
8
83.852910
53.647685
#DATA
5000.000000	65.106916 
4999.000000	65.056204 
4998.000000	65.015292 
4997.000000	64.987969 
4996.000000	64.975428 
4995.000000	64.976859 
4994.000000	64.989471 
4993.000000	65.009617 
4992.000000	65.032672 
4991.000000	65.053915 
4990.000000	65.068817 
4989.000000	65.073275 
4988.000000	65.064144 
4987.000000	65.039300 
4986.000000	64.998078 
4985.000000	64.941430 
4984.000000	64.872050 
4983.000000	64.794254 
4982.000000	64.713168 
4981.000000	64.634156 
4980.000000	64.562273 
4979.000000	64.501190 
4978.000000	64.452552 
4977.000000	64.415431 
4976.000000	64.386487 
4975.000000	64.361166 
4974.000000	64.333677 
4973.000000	64.300155 
4972.000000	64.259123 
4971.000000	64.213466 
4970.000000	64.169311 
4969.000000	64.135456 
4968.000000	64.120769 
4967.000000	64.132285 
4966.000000	64.172530 
4965.000000	64.238977 
4964.000000	64.324116 
4963.000000	64.416599 
4962.000000	64.503622 
4961.000000	64.573383 
4960.000000	64.617490 
4959.000000	64.632511 
4958.000000	64.620447 
4957.000000	64.587759 
4956.000000	64.543199 
4955.000000	64.496517 
4954.000000	64.456009 
4953.000000	64.426493 
4952.000000	64.408516 
4951.000000	64.399743 
4950.000000	64.395642 
4949.000000	64.390778 
4948.000000	64.380836 
4947.000000	64.363884 
4946.000000	64.340829 
4945.000000	64.315176 
4944.000000	64.291191 
4943.000000	64.273118 
4942.000000	64.262509 
4941.000000	64.257407 
4940.000000	64.252614 
4939.000000	64.240789 
4938.000000	64.215016 
4937.000000	64.171028 
4936.000000	64.109778 
4935.000000	64.037609 
4934.000000	63.965821 
4933.000000	63.908123 
4932.000000	63.877558 
4931.000000	63.882923 
4930.000000	63.927817 
4929.000000	64.009690 
4928.000000	64.120388 
4927.000000	64.247798 
4926.000000	64.378809 
4925.000000	64.501357 
4924.000000	64.606261 
4923.000000	64.687705 
4922.000000	64.742779 
4921.000000	64.771175 
4920.000000	64.774155 
4919.000000	64.754438 
4918.000000	64.716124 
4917.000000	64.664125 
4916.000000	64.605665 
4915.000000	64.548039 
4914.000000	64.499235 
4913.000000	64.465641 
4912.000000	64.451980 
4911.000000	64.459729 
4910.000000	64.486861 
4909.000000	64.528250 
4908.000000	64.577007 
4907.000000	64.625024 
4906.000000	64.664602 
4905.000000	64.689493 
4904.000000	64.695882 
4903.000000	64.682579 
4902.000000	64.651107 
4901.000000	64.605426 
4900.000000	64.551091 
4899.000000	64.494943 
4898.000000	64.443755 
4897.000000	64.403676 
4896.000000	64.378833 
4895.000000	64.370584 
4894.000000	64.377427 
4893.000000	64.394664 
4892.000000	64.416289 
4891.000000	64.435863 
4890.000000	64.449024 
4889.000000	64.453577 
4888.000000	64.450955 
4887.000000	64.444851 
4886.000000	64.441204 
4885.000000	64.445590 
4884.000000	64.462757 
4883.000000	64.494848 
4882.000000	64.541220 
4881.000000	64.598703 
4880.000000	64.662194 
4879.000000	64.725732 
4878.000000	64.783501 
4877.000000	64.830803 
4876.000000	64.864373 
4875.000000	64.882779 
4874.000000	64.886498 
4873.000000	64.877843 
4872.000000	64.861273 
4871.000000	64.842963 
4870.000000	64.830303 
4869.000000	64.830374 
4868.000000	64.848828 
4867.000000	64.888429 
4866.000000	64.948439 
4865.000000	65.024256 
4864.000000	65.108704 
4863.000000	65.192914 
4862.000000	65.268373 
4861.000000	65.327882 
4860.000000	65.367031 
4859.000000	65.383982 
4858.000000	65.379595 
4857.000000	65.356469 
4856.000000	65.318155 
4855.000000	65.268850 
4854.000000	65.213227 
4853.000000	65.156126 
4852.000000	65.102934 
4851.000000	65.058803 
4850.000000	65.028572 
4849.000000	65.015459 
4848.000000	65.020442 
4847.000000	65.040969 
4846.000000	65.071320 
4845.000000	65.103673 
4844.000000	65.129566 
4843.000000	65.141606 
4842.000000	65.134978 
4841.000000	65.108251 
4840.000000	65.063381 
4839.000000	65.004849 
4838.000000	64.938902 
4837.000000	64.871978 
4836.000000	64.810276 
4835.000000	64.758110 
4834.000000	64.718937 
4833.000000	64.695405 
4832.000000	64.689779 
4831.000000	64.703345 
4830.000000	64.736771 
4829.000000	64.789438 
4828.000000	64.858818 
4827.000000	64.939737 
4826.000000	65.024924 
4825.000000	65.105271 
4824.000000	65.172076 
4823.000000	65.218305 
4822.000000	65.240025 
4821.000000	65.236926 
4820.000000	65.213227 
4819.000000	65.176606 
4818.000000	65.136551 
4817.000000	65.102100 
4816.000000	65.080523 
4815.000000	65.075016 
4814.000000	65.085101 
4813.000000	65.105843 
4812.000000	65.129661 
4811.000000	65.147709 
4810.000000	65.152359 
4809.000000	65.138649 
4808.000000	65.105128 
4807.000000	65.054416 
4806.000000	64.991855 
4805.000000	64.925169 
4804.000000	64.862608 
4803.000000	64.811849 
4802.000000	64.778304 
4801.000000	64.765167 
4800.000000	64.773368 
4799.000000	64.802002 
4798.000000	64.848995 
4797.000000	64.911580 
4796.000000	64.986419 
4795.000000	65.069770 
4794.000000	65.157365 
4793.000000	65.243887 
4792.000000	65.322899 
4791.000000	65.387630 
4790.000000	65.431332 
4789.000000	65.448689 
4788.000000	65.436339 
4787.000000	65.393376 
4786.000000	65.321731 
4785.000000	65.227079 
4784.000000	65.117955 
4783.000000	65.004682 
4782.000000	64.898324 
4781.000000	64.809465 
4780.000000	64.746713 
4779.000000	64.715456 
4778.000000	64.717268 
4777.000000	64.749383 
4776.000000	64.805936 
4775.000000	64.878654 
4774.000000	64.958882 
4773.000000	65.038084 
4772.000000	65.109729 
4771.000000	65.169358 
4770.000000	65.214872 
4769.000000	65.245795 
4768.000000	65.262603 
4767.000000	65.266227 
4766.000000	65.257763 
4765.000000	65.238904 
4764.000000	65.213060 
4763.000000	65.185618 
4762.000000	65.163898 
4761.000000	65.156078 
4760.000000	65.169930 
4759.000000	65.210914 
4758.000000	65.280222 
4757.000000	65.374302 
4756.000000	65.484952 
4755.000000	65.600514 
4754.000000	65.708708 
4753.000000	65.797877 
4752.000000	65.859460 
4751.000000	65.888857 
4750.000000	65.886378 
4749.000000	65.856194 
4748.000000	65.804862 
4747.000000	65.740275 
4746.000000	65.670609 
4745.000000	65.603137 
4744.000000	65.543937 
4743.000000	65.497255 
4742.000000	65.465760 
4741.000000	65.449881 
4740.000000	65.448141 
4739.000000	65.456676 
4738.000000	65.470099 
4737.000000	65.482783 
4736.000000	65.490245 
4735.000000	65.489864 
4734.000000	65.481781 
4733.000000	65.468525 
4732.000000	65.454840 
4731.000000	65.445470 
4730.000000	65.444493 
4729.000000	65.454196 
4728.000000	65.474319 
4727.000000	65.502071 
4726.000000	65.532946 
4725.000000	65.561938 
4724.000000	65.584874 
4723.000000	65.598869 
4722.000000	65.603709 
4721.000000	65.602040 
4720.000000	65.598440 
4719.000000	65.597677 
4718.000000	65.604186 
4717.000000	65.620470 
4716.000000	65.646600 
4715.000000	65.680146 
4714.000000	65.716552 
4713.000000	65.750217 
4712.000000	65.775847 
4711.000000	65.789699 
4710.000000	65.790009 
4709.000000	65.777158 
4708.000000	65.753483 
4707.000000	65.722322 
4706.000000	65.686917 
4705.000000	65.649485 
4704.000000	65.611433 
4703.000000	65.573072 
4702.000000	65.534710 
4701.000000	65.496659 
4700.000000	65.460181 
4699.000000	65.426659 
4698.000000	65.397691 
4697.000000	65.374302 
4696.000000	65.355992 
4695.000000	65.341329 
4694.000000	65.327858 
4693.000000	65.312886 
4692.000000	65.294027 
4691.000000	65.269947 
4690.000000	65.240669 
4689.000000	65.207386 
4688.000000	65.172028 
4687.000000	65.137028 
4686.000000	65.104961 
4685.000000	65.078282 
4684.000000	65.059256 
4683.000000	65.050387 
4682.000000	65.053987 
4681.000000	65.072369 
4680.000000	65.106606 
4679.000000	65.156126 
4678.000000	65.217804 
4677.000000	65.286111 
4676.000000	65.353322 
4675.000000	65.410780 
4674.000000	65.450429 
4673.000000	65.466952 
4672.000000	65.458559 
4671.000000	65.427803 
4670.000000	65.380764 
4669.000000	65.326094 
4668.000000	65.272450 
4667.000000	65.227389 
4666.000000	65.195083 
4665.000000	65.176367 
4664.000000	65.168905 
4663.000000	65.168380 
4662.000000	65.170121 
4661.000000	65.170407 
4660.000000	65.167355 
4659.000000	65.161395 
4658.000000	65.154767 
4657.000000	65.150618 
4656.000000	65.152263 
4655.000000	65.162444 
4654.000000	65.182733 
4653.000000	65.212965 
4652.000000	65.251755 
4651.000000	65.296101 
4650.000000	65.342211 
4649.000000	65.385317 
4648.000000	65.420675 
4647.000000	65.443563 
4646.000000	65.450191 
4645.000000	65.438103 
4644.000000	65.406823 
4643.000000	65.357732 
4642.000000	65.294313 
4641.000000	65.221047 
4640.000000	65.142941 
4639.000000	65.064668 
4638.000000	64.990305 
4637.000000	64.922881 
4636.000000	64.864373 
4635.000000	64.816212 
4634.000000	64.779376 
4633.000000	64.754724 
4632.000000	64.742684 
4631.000000	64.742684 
4630.000000	64.752960 
4629.000000	64.770317 
4628.000000	64.790511 
4627.000000	64.808559 
4626.000000	64.819669 
4625.000000	64.820146 
4624.000000	64.808297 
4623.000000	64.784860 
4622.000000	64.752674 
4621.000000	64.716148 
4620.000000	64.680361 
4619.000000	64.649629 
4618.000000	64.627361 
4617.000000	64.615583 
4616.000000	64.615106 
4615.000000	64.625620 
4614.000000	64.646005 
4613.000000	64.674949 
4612.000000	64.710330 
4611.000000	64.749622 
4610.000000	64.789247 
4609.000000	64.824342 
4608.000000	64.849519 
4607.000000	64.859747 
4606.000000	64.851260 
4605.000000	64.822626 
4604.000000	64.775967 
4603.000000	64.716911 
4602.000000	64.653730 
4601.000000	64.595794 
4600.000000	64.551997 
4599.000000	64.528512 
4598.000000	64.527797 
4597.000000	64.547705 
4596.000000	64.582252 
4595.000000	64.622640 
4594.000000	64.659118 
4593.000000	64.683198 
4592.000000	64.688849 
4591.000000	64.674186 
4590.000000	64.641141 
4589.000000	64.595389 
4588.000000	64.544320 
4587.000000	64.495754 
4586.000000	64.456415 
4585.000000	64.430427 
4584.000000	64.418935 
4583.000000	64.420056 
4582.000000	64.429855 
4581.000000	64.443230 
4580.000000	64.455294 
4579.000000	64.462423 
4578.000000	64.462876 
4577.000000	64.456653 
4576.000000	64.445090 
4575.000000	64.429807 
4574.000000	64.412212 
4573.000000	64.393043 
4572.000000	64.372730 
4571.000000	64.351582 
4570.000000	64.330172 
4569.000000	64.310193 
4568.000000	64.293646 
4567.000000	64.282488 
4566.000000	64.277410 
4565.000000	64.277315 
4564.000000	64.279007 
4563.000000	64.277625 
4562.000000	64.267706 
4561.000000	64.244270 
4560.000000	64.204859 
4559.000000	64.150524 
4558.000000	64.086174 
4557.000000	64.019393 
4556.000000	63.959121 
4555.000000	63.913464 
4554.000000	63.888192 
4553.000000	63.885402 
4552.000000	63.904023 
4551.000000	63.940191 
4550.000000	63.988924 
4549.000000	64.045381 
4548.000000	64.105200 
4547.000000	64.164948 
4546.000000	64.222145 
4545.000000	64.274668 
4544.000000	64.320063 
4543.000000	64.355397 
4542.000000	64.378070 
4541.000000	64.385557 
4540.000000	64.376640 
4539.000000	64.351010 
4538.000000	64.310789 
4537.000000	64.259171 
4536.000000	64.200663 
4535.000000	64.139676 
4534.000000	64.080333 
4533.000000	64.025402 
4532.000000	63.976621 
4531.000000	63.934206 
4530.000000	63.897180 
4529.000000	63.864302 
4528.000000	63.834428 
4527.000000	63.807439 
4526.000000	63.784098 
4525.000000	63.767266 
4524.000000	63.761234 
4523.000000	63.771295 
4522.000000	63.802218 
4521.000000	63.857150 
4520.000000	63.936471 
4519.000000	64.036583 
4518.000000	64.150023 
4517.000000	64.266371 
4516.000000	64.373779 
4515.000000	64.461398 
4514.000000	64.521026 
4513.000000	64.549207 
4512.000000	64.546895 
4511.000000	64.519596 
4510.000000	64.474606 
4509.000000	64.420032 
4508.000000	64.361524 
4507.000000	64.302062 
4506.000000	64.241147 
4505.000000	64.177036 
4504.000000	64.107251 
4503.000000	64.031338 
4502.000000	63.950300 
4501.000000	63.867259 
4500.000000	63.786315 
4499.000000	63.711547 
4498.000000	63.646221 
4497.000000	63.592028 
4496.000000	63.549041 
4495.000000	63.516235 
4494.000000	63.492226 
4493.000000	63.476443 
4492.000000	63.469314 
4491.000000	63.472843 
4490.000000	63.489890 
4489.000000	63.522958 
4488.000000	63.573551 
4487.000000	63.639497 
4486.000000	63.714432 
4485.000000	63.787293 
4484.000000	63.844227 
4483.000000	63.871240 
4482.000000	63.857579 
4481.000000	63.798546 
4480.000000	63.697957 
4479.000000	63.566923 
4478.000000	63.421368 
4477.000000	63.279533 
4476.000000	63.158464 
4475.000000	63.070511 
4474.000000	63.021636 
4473.000000	63.010406 
4472.000000	63.029885 
4471.000000	63.067626 
4470.000000	63.109374 
4469.000000	63.142895 
4468.000000	63.161420 
4467.000000	63.163661 
4466.000000	63.154864 
4465.000000	63.146328 
4464.000000	63.152766 
4463.000000	63.187074 
4462.000000	63.256883 
4461.000000	63.366055 
4460.000000	63.510513 
4459.000000	63.672924 
4458.000000	63.831424 
4457.000000	63.968229 
4456.000000	64.072394 
4455.000000	64.138126 
4454.000000	64.170503 
4453.000000	64.191389 
4452.000000	64.221596 
4451.000000	64.271330 
4450.000000	64.339089 
4449.000000	64.408755 
4448.000000	64.461636 
4447.000000	64.484763 
4446.000000	64.476752 
4445.000000	64.451026 
4444.000000	64.432454 
4443.000000	64.451384 
4442.000000	64.533591 
4441.000000	64.694046 
4440.000000	64.930725 
4439.000000	65.229606 
4438.000000	65.567016 
4437.000000	65.924668 
4436.000000	66.294932 
4435.000000	66.694617 
4434.000000	67.143797 
4433.000000	67.684388 
4432.000000	68.363237 
4431.000000	69.236183 
4430.000000	70.340204 
4429.000000	71.695733 
4428.000000	73.307204 
4427.000000	75.135564 
4426.000000	77.112698 
4425.000000	79.111146 
4424.000000	80.971360 
4423.000000	82.499980 
4422.000000	83.509063 
4421.000000	83.852910 
4420.000000	83.467960 
4419.000000	82.402586 
4418.000000	80.820894 
4417.000000	78.986358 
4416.000000	77.212905 
4415.000000	75.804281 
4414.000000	74.984955 
4413.000000	74.851393 
4412.000000	75.343632 
4411.000000	76.262569 
4410.000000	77.310681 
4409.000000	78.163909 
4408.000000	78.544473 
4407.000000	78.274321 
4406.000000	77.317810 
4405.000000	75.773382 
4404.000000	73.851370 
4403.000000	71.803808 
4402.000000	69.878244 
4401.000000	68.267703 
4400.000000	67.075943 
4399.000000	66.316795 
4398.000000	65.922451 
4397.000000	65.790200 
4396.000000	65.800118 
4395.000000	65.846848 
4394.000000	65.859818 
4393.000000	65.805625 
4392.000000	65.682482 
4391.000000	65.497112 
4390.000000	65.274262 
4389.000000	65.039896 
4388.000000	64.824056 
4387.000000	64.652180 
4386.000000	64.539623 
4385.000000	64.488220 
4384.000000	64.490151 
4383.000000	64.528822 
4382.000000	64.577031 
4381.000000	64.606976 
4380.000000	64.599633 
4379.000000	64.548087 
4378.000000	64.457273 
4377.000000	64.342308 
4376.000000	64.220809 
4375.000000	64.110016 
4374.000000	64.020514 
4373.000000	63.955974 
4372.000000	63.917732 
4371.000000	63.900279 
4370.000000	63.889575 
4369.000000	63.873767 
4368.000000	63.849782 
4367.000000	63.819313 
4366.000000	63.786506 
4365.000000	63.759088 
4364.000000	63.744592 
4363.000000	63.749217 
4362.000000	63.775324 
4361.000000	63.822150 
4360.000000	63.885498 
4359.000000	63.958644 
4358.000000	64.033508 
4357.000000	64.102673 
4356.000000	64.160227 
4355.000000	64.201521 
4354.000000	64.223909 
4353.000000	64.227414 
4352.000000	64.214324 
4351.000000	64.188432 
4350.000000	64.154243 
4349.000000	64.117050 
4348.000000	64.081454 
4347.000000	64.051651 
4346.000000	64.030218 
4345.000000	64.018607 
4344.000000	64.016389 
4343.000000	64.021539 
4342.000000	64.031243 
4341.000000	64.042830 
4340.000000	64.054346 
4339.000000	64.064645 
4338.000000	64.073824 
4337.000000	64.082765 
4336.000000	64.092421 
4335.000000	64.103078 
4334.000000	64.114236 
4333.000000	64.124441 
4332.000000	64.131808 
4331.000000	64.134883 
4330.000000	64.133381 
4329.000000	64.128494 
4328.000000	64.122819 
4327.000000	64.119625 
4326.000000	64.121913 
4325.000000	64.131093 
4324.000000	64.146780 
4323.000000	64.166092 
4322.000000	64.184737 
4321.000000	64.197587 
4320.000000	64.200186 
4319.000000	64.190173 
4318.000000	64.167761 
4317.000000	64.136219 
4316.000000	64.100623 
4315.000000	64.067196 
4314.000000	64.041638 
4313.000000	64.028263 
4312.000000	64.029240 
4311.000000	64.044356 
4310.000000	64.071035 
4309.000000	64.105319 
4308.000000	64.142632 
4307.000000	64.178442 
4306.000000	64.209342 
4305.000000	64.233446 
4304.000000	64.250850 
4303.000000	64.263391 
4302.000000	64.273858 
4301.000000	64.285516 
4300.000000	64.301085 
4299.000000	64.322209 
4298.000000	64.349031 
4297.000000	64.380073 
4296.000000	64.412522 
4295.000000	64.443445 
4294.000000	64.470171 
4293.000000	64.491271 
4292.000000	64.506268 
4291.000000	64.516305 
4290.000000	64.522624 
4289.000000	64.526581 
4288.000000	64.528417 
4287.000000	64.527130 
4286.000000	64.520645 
4285.000000	64.506697 
4284.000000	64.483690 
4283.000000	64.451622 
4282.000000	64.412403 
4281.000000	64.369869 
4280.000000	64.329099 
4279.000000	64.295578 
4278.000000	64.274024 
4277.000000	64.267778 
4276.000000	64.277791 
4275.000000	64.302992 
4274.000000	64.340496 
4273.000000	64.386677 
4272.000000	64.437460 
4271.000000	64.489126 
4270.000000	64.538621 
4269.000000	64.583420 
4268.000000	64.621734 
4267.000000	64.651846 
4266.000000	64.672327 
4265.000000	64.681649 
4264.000000	64.679169 
4263.000000	64.664387 
4262.000000	64.637923 
4261.000000	64.601302 
4260.000000	64.557385 
4259.000000	64.509892 
4258.000000	64.463376 
4257.000000	64.422321 
4256.000000	64.390778 
4255.000000	64.371562 
4254.000000	64.365935 
4253.000000	64.373397 
4252.000000	64.392018 
4251.000000	64.418292 
4250.000000	64.448356 
4249.000000	64.478564 
4248.000000	64.506411 
4247.000000	64.530396 
4246.000000	64.550805 
4245.000000	64.568924 
4244.000000	64.586973 
4243.000000	64.607024 
4242.000000	64.630460 
4241.000000	64.657497 
4240.000000	64.687156 
4239.000000	64.718151 
4238.000000	64.748787 
4237.000000	64.777588 
4236.000000	64.803528 
4235.000000	64.826464 
4234.000000	64.846730 
4233.000000	64.864730 
4232.000000	64.880776 
4231.000000	64.894652 
4230.000000	64.905953 
4229.000000	64.914274 
4228.000000	64.919662 
4227.000000	64.922952 
4226.000000	64.926099 
4225.000000	64.931917 
4224.000000	64.943432 
4223.000000	64.962935 
4222.000000	64.991521 
4221.000000	65.028524 
4220.000000	65.071773 
4219.000000	65.117383 
4218.000000	65.160894 
4217.000000	65.197205 
4216.000000	65.221858 
4215.000000	65.231347 
4214.000000	65.223765 
4213.000000	65.198993 
4212.000000	65.159225 
4211.000000	65.108203 
4210.000000	65.051364 
4209.000000	64.994478 
4208.000000	64.943408 
4207.000000	64.902544 
4206.000000	64.874482 
4205.000000	64.859747 
4204.000000	64.856982 
4203.000000	64.863514 
4202.000000	64.875936 
4201.000000	64.891552 
4200.000000	64.908695 
4199.000000	64.926886 
4198.000000	64.946413 
4197.000000	64.967107 
4196.000000	64.987969 
4195.000000	65.006422 
4194.000000	65.019249 
4193.000000	65.023612 
4192.000000	65.018033 
4191.000000	65.003824 
4190.000000	64.984416 
4189.000000	64.965081 
4188.000000	64.951181 
4187.000000	64.946913 
4186.000000	64.954042 
4185.000000	64.971590 
4184.000000	64.995956 
4183.000000	65.022134 
4182.000000	65.044283 
4181.000000	65.057468 
4180.000000	65.058326 
4179.000000	65.046024 
4178.000000	65.021944 
4177.000000	64.988756 
4176.000000	64.950656 
4175.000000	64.912343 
4174.000000	64.878559 
4173.000000	64.853191 
4172.000000	64.839100 
4171.000000	64.837813 
4170.000000	64.848995 
4169.000000	64.870834 
4168.000000	64.899754 
4167.000000	64.931702 
4166.000000	64.963364 
4165.000000	64.992928 
4164.000000	65.020155 
4163.000000	65.046024 
4162.000000	65.072369 
4161.000000	65.100288 
4160.000000	65.129184 
4159.000000	65.156888 
4158.000000	65.179944 
4157.000000	65.195250 
4156.000000	65.200662 
4155.000000	65.197086 
4154.000000	65.188407 
4153.000000	65.181303 
4152.000000	65.183830 
4151.000000	65.203428 
4150.000000	65.244817 
4149.000000	65.308475 
4148.000000	65.390181 
4147.000000	65.481877 
4146.000000	65.573239 
4145.000000	65.654110 
4144.000000	65.716433 
4143.000000	65.755057 
4142.000000	65.768194 
4141.000000	65.757369 
4140.000000	65.726256 
4139.000000	65.679526 
4138.000000	65.621471 
4137.000000	65.556311 
4136.000000	65.486979 
4135.000000	65.416216 
4134.000000	65.346145 
4133.000000	65.278792 
4132.000000	65.216374 
4131.000000	65.161609 
4130.000000	65.117406 
4129.000000	65.085673 
4128.000000	65.068006 
4127.000000	65.064811 
4126.000000	65.075349 
4125.000000	65.097069 
4124.000000	65.126585 
4123.000000	65.159749 
4122.000000	65.192437 
4121.000000	65.220785 
4120.000000	65.242528 
4119.000000	65.257453 
4118.000000	65.267324 
4117.000000	65.275788 
4116.000000	65.287733 
4115.000000	65.308046 
4114.000000	65.340304 
4113.000000	65.385293 
4112.000000	65.441346 
4111.000000	65.503263 
4110.000000	65.564084 
4109.000000	65.615177 
4108.000000	65.648388 
4107.000000	65.657234 
4106.000000	65.639042 
4105.000000	65.594983 
4104.000000	65.529823 
4103.000000	65.451192 
4102.000000	65.368485 
4101.000000	65.290641 
4100.000000	65.224671 
4099.000000	65.174388 
4098.000000	65.140557 
4097.000000	65.121197 
4096.000000	65.112853 
4095.000000	65.111756 
4094.000000	65.114855 
4093.000000	65.120720 
4092.000000	65.129566 
4091.000000	65.142226 
4090.000000	65.159320 
4089.000000	65.180397 
4088.000000	65.203595 
4087.000000	65.225720 
4086.000000	65.243172 
4085.000000	65.253281 
4084.000000	65.255475 
4083.000000	65.251660 
4082.000000	65.245842 
4081.000000	65.243339 
4080.000000	65.249061 
4079.000000	65.265846 
4078.000000	65.293622 
4077.000000	65.329527 
4076.000000	65.368008 
4075.000000	65.402650 
4074.000000	65.427374 
4073.000000	65.438222 
4072.000000	65.433955 
4071.000000	65.416288 
4070.000000	65.388989 
4069.000000	65.356516 
4068.000000	65.323328 
4067.000000	65.293002 
4066.000000	65.267944 
4065.000000	65.249490 
4064.000000	65.238332 
4063.000000	65.234613 
4062.000000	65.238308 
4061.000000	65.249013 
4060.000000	65.265297 
4059.000000	65.285110 
4058.000000	65.305614 
4057.000000	65.323925 
4056.000000	65.337562 
4055.000000	65.344953 
4054.000000	65.346026 
4053.000000	65.341806 
4052.000000	65.334320 
4051.000000	65.325617 
4050.000000	65.317034 
4049.000000	65.308737 
4048.000000	65.299820 
4047.000000	65.288996 
4046.000000	65.275192 
4045.000000	65.258407 
4044.000000	65.240216 
4043.000000	65.223288 
4042.000000	65.210890 
4041.000000	65.205359 
4040.000000	65.207338 
4039.000000	65.215110 
4038.000000	65.224814 
4037.000000	65.231299 
4036.000000	65.229773 
4035.000000	65.216898 
4034.000000	65.191960 
4033.000000	65.157389 
4032.000000	65.118360 
4031.000000	65.081620 
4030.000000	65.054130 
4029.000000	65.041208 
4028.000000	65.045619 
4027.000000	65.067148 
4026.000000	65.102767 
4025.000000	65.147662 
4024.000000	65.196299 
4023.000000	65.243721 
4022.000000	65.286302 
4021.000000	65.321755 
4020.000000	65.349435 
4019.000000	65.369629 
4018.000000	65.383243 
4017.000000	65.391039 
4016.000000	65.393829 
4015.000000	65.392446 
4014.000000	65.387916 
4013.000000	65.381765 
4012.000000	65.375924 
4011.000000	65.372514 
4010.000000	65.373325 
4009.000000	65.379333 
4008.000000	65.390110 
4007.000000	65.403819 
4006.000000	65.417408 
4005.000000	65.427660 
4004.000000	65.431904 
4003.000000	65.428996 
4002.000000	65.419816 
4001.000000	65.407085 
4000.000000	65.394783 
3999.000000	65.386843 
3998.000000	65.386271 
3997.000000	65.393877 
3996.000000	65.408039 
3995.000000	65.424871 
3994.000000	65.439343 
3993.000000	65.446090 
3992.000000	65.441226 
3991.000000	65.422964 
3990.000000	65.392065 
3989.000000	65.351772 
3988.000000	65.306973 
3987.000000	65.263009 
3986.000000	65.224361 
3985.000000	65.194058 
3984.000000	65.173268 
3983.000000	65.161323 
3982.000000	65.156269 
3981.000000	65.155887 
3980.000000	65.158295 
3979.000000	65.162205 
3978.000000	65.167212 
3977.000000	65.173101 
3976.000000	65.179729 
3975.000000	65.186190 
3974.000000	65.191197 
3973.000000	65.193009 
3972.000000	65.190100 
3971.000000	65.181446 
3970.000000	65.167260 
3969.000000	65.149259 
3968.000000	65.130186 
3967.000000	65.113663 
3966.000000	65.103030 
3965.000000	65.100741 
3964.000000	65.107607 
3963.000000	65.122723 
3962.000000	65.143418 
3961.000000	65.165877 
3960.000000	65.185832 
3959.000000	65.199613 
3958.000000	65.204739 
3957.000000	65.200185 
3956.000000	65.186762 
3955.000000	65.166974 
3954.000000	65.144681 
3953.000000	65.124034 
3952.000000	65.109252 
3951.000000	65.103268 
3950.000000	65.107369 
3949.000000	65.120387 
3948.000000	65.139341 
3947.000000	65.159630 
3946.000000	65.175890 
3945.000000	65.183329 
3944.000000	65.178680 
3943.000000	65.161275 
3942.000000	65.133023 
3941.000000	65.098333 
3940.000000	65.063071 
3939.000000	65.033483 
3938.000000	65.014815 
3937.000000	65.010333 
3936.000000	65.020728 
3935.000000	65.044116 
3934.000000	65.076756 
3933.000000	65.113687 
3932.000000	65.149927 
3931.000000	65.180921 
3930.000000	65.203213 
3929.000000	65.214514 
3928.000000	65.213871 
3927.000000	65.201663 
3926.000000	65.179681 
3925.000000	65.150833 
3924.000000	65.118932 
3923.000000	65.088343 
3922.000000	65.063333 
3921.000000	65.047574 
3920.000000	65.043497 
3919.000000	65.052103 
3918.000000	65.072441 
3917.000000	65.101695 
3916.000000	65.135622 
3915.000000	65.169191 
3914.000000	65.197491 
3913.000000	65.216064 
3912.000000	65.222501 
3911.000000	65.216517 
3910.000000	65.200114 
3909.000000	65.177130 
3908.000000	65.152335 
3907.000000	65.130233 
3906.000000	65.114331 
3905.000000	65.106439 
3904.000000	65.106320 
3903.000000	65.111756 
3902.000000	65.119504 
3901.000000	65.125918 
3900.000000	65.128326 
3899.000000	65.125536 
3898.000000	65.117669 
3897.000000	65.106177 
3896.000000	65.092921 
3895.000000	65.079736 
3894.000000	65.067577 
3893.000000	65.056467 
3892.000000	65.045762 
3891.000000	65.034294 
3890.000000	65.021419 
3889.000000	65.006828 
3888.000000	64.990639 
3887.000000	64.973521 
3886.000000	64.956140 
3885.000000	64.939713 
3884.000000	64.925336 
3883.000000	64.914560 
3882.000000	64.908838 
3881.000000	64.909744 
3880.000000	64.918613 
3879.000000	64.936065 
3878.000000	64.961671 
3877.000000	64.993500 
3876.000000	65.028238 
3875.000000	65.061473 
3874.000000	65.088510 
3873.000000	65.104913 
3872.000000	65.107440 
3871.000000	65.094995 
3870.000000	65.068745 
3869.000000	65.031909 
3868.000000	64.989233 
3867.000000	64.945888 
3866.000000	64.906811 
3865.000000	64.875888 
3864.000000	64.855504 
3863.000000	64.846658 
3862.000000	64.848995 
3861.000000	64.861178 
3860.000000	64.881300 
3859.000000	64.907360 
3858.000000	64.937233 
3857.000000	64.968681 
3856.000000	64.999318 
3855.000000	65.026473 
3854.000000	65.047526 
3853.000000	65.059947 
3852.000000	65.061950 
3851.000000	65.052819 
3850.000000	65.033745 
3849.000000	65.007734 
3848.000000	64.979529 
3847.000000	64.954686 
3846.000000	64.938616 
3845.000000	64.935183 
3844.000000	64.945840 
3843.000000	64.969277 
3842.000000	65.001630 
3841.000000	65.037298 
3840.000000	65.070176 
3839.000000	65.095257 
3838.000000	65.109467 
3837.000000	65.112471 
3836.000000	65.106749 
3835.000000	65.096688 
3834.000000	65.087151 
3833.000000	65.082192 
3832.000000	65.084314 
3831.000000	65.093398 
3830.000000	65.107059 
3829.000000	65.121078 
3828.000000	65.130996 
3827.000000	65.133023 
3826.000000	65.125370 
3825.000000	65.108728 
3824.000000	65.085911 
3823.000000	65.061640 
3822.000000	65.041303 
3821.000000	65.029454 
3820.000000	65.028858 
3819.000000	65.039634 
3818.000000	65.059375 
3817.000000	65.083670 
3816.000000	65.107417 
3815.000000	65.126276 
3814.000000	65.137863 
3813.000000	65.142226 
3812.000000	65.142035 
3811.000000	65.141201 
3810.000000	65.144228 
3809.000000	65.154266 
3808.000000	65.172719 
3807.000000	65.198922 
3806.000000	65.230107 
3805.000000	65.262460 
3804.000000	65.291786 
3803.000000	65.314722 
3802.000000	65.329337 
3801.000000	65.335392 
3800.000000	65.334272 
3799.000000	65.328335 
3798.000000	65.320348 
3797.000000	65.312933 
3796.000000	65.307831 
3795.000000	65.305733 
3794.000000	65.306210 
3793.000000	65.308022 
3792.000000	65.309309 
3791.000000	65.308094 
3790.000000	65.302681 
3789.000000	65.292215 
3788.000000	65.277099 
3787.000000	65.258812 
3786.000000	65.239620 
3785.000000	65.221691 
3784.000000	65.206789 
3783.000000	65.195345 
3782.000000	65.186309 
3781.000000	65.177392 
3780.000000	65.165686 
3779.000000	65.148830 
3778.000000	65.125918 
3777.000000	65.097975 
3776.000000	65.067887 
3775.000000	65.040016 
3774.000000	65.019083 
3773.000000	65.009307 
3772.000000	65.013384 
3771.000000	65.031719 
3770.000000	65.062260 
3769.000000	65.100955 
3768.000000	65.142560 
3767.000000	65.181469 
3766.000000	65.212869 
3765.000000	65.233325 
3764.000000	65.240955 
3763.000000	65.235424 
3762.000000	65.217661 
3761.000000	65.189242 
3760.000000	65.152382 
3759.000000	65.109491 
3758.000000	65.063881 
3757.000000	65.019464 
3756.000000	64.981174 
3755.000000	64.954543 
3754.000000	64.944744 
3753.000000	64.955854 
3752.000000	64.989686 
3751.000000	65.044903 
3750.000000	65.116691 
3749.000000	65.197277 
3748.000000	65.277123 
3747.000000	65.346622 
3746.000000	65.397882 
3745.000000	65.426135 
3744.000000	65.430521 
3743.000000	65.414237 
3742.000000	65.382957 
3741.000000	65.343499 
3740.000000	65.302324 
3739.000000	65.264558 
3738.000000	65.233445 
3737.000000	65.210270 
3736.000000	65.195178 
3735.000000	65.187454 
3734.000000	65.186285 
3733.000000	65.190792 
3732.000000	65.199995 
3731.000000	65.212774 
3730.000000	65.227532 
3729.000000	65.242409 
3728.000000	65.255379 
3727.000000	65.264606 
3726.000000	65.268445 
3725.000000	65.266084 
3724.000000	65.257477 
3723.000000	65.243482 
3722.000000	65.225863 
3721.000000	65.206742 
3720.000000	65.188121 
3719.000000	65.172243 
3718.000000	65.161108 
3717.000000	65.156364 
3716.000000	65.158796 
3715.000000	65.168499 
3714.000000	65.184688 
3713.000000	65.205645 
3712.000000	65.228891 
3711.000000	65.251851 
3710.000000	65.272521 
3709.000000	65.289926 
3708.000000	65.304040 
3707.000000	65.315961 
3706.000000	65.327334 
3705.000000	65.340065 
3704.000000	65.355825 
3703.000000	65.375566 
3702.000000	65.398883 
3701.000000	65.424656 
3700.000000	65.450501 
3699.000000	65.473413 
3698.000000	65.489792 
3697.000000	65.496587 
3696.000000	65.491437 
3695.000000	65.473318 
3694.000000	65.442991 
3693.000000	65.403127 
3692.000000	65.357875 
3691.000000	65.312242 
3690.000000	65.271258 
3689.000000	65.239095 
3688.000000	65.217828 
3687.000000	65.207171 
3686.000000	65.204405 
3685.000000	65.205311 
3684.000000	65.205407 
3683.000000	65.201497 
3682.000000	65.192222 
3681.000000	65.179061 
3680.000000	65.165710 
3679.000000	65.157461 
3678.000000	65.159010 
3677.000000	65.173888 
3676.000000	65.203070 
3675.000000	65.244889 
3674.000000	65.295124 
3673.000000	65.348148 
3672.000000	65.398240 
3671.000000	65.440702 
3670.000000	65.472650 
3669.000000	65.493416 
3668.000000	65.504479 
3667.000000	65.508484 
3666.000000	65.508413 
3665.000000	65.506529 
3664.000000	65.503954 
3663.000000	65.500450 
3662.000000	65.495014 
3661.000000	65.486121 
3660.000000	65.472435 
3659.000000	65.453553 
3658.000000	65.430378 
3657.000000	65.404677 
3656.000000	65.378808 
3655.000000	65.355229 
3654.000000	65.335965 
3653.000000	65.322041 
3652.000000	65.313243 
3651.000000	65.308594 
3650.000000	65.306329 
3649.000000	65.304636 
3648.000000	65.301704 
3647.000000	65.296316 
3646.000000	65.287613 
3645.000000	65.275025 
3644.000000	65.258264 
3643.000000	65.237092 
3642.000000	65.211892 
3641.000000	65.183687 
3640.000000	65.154504 
3639.000000	65.126943 
3638.000000	65.104222 
3637.000000	65.089654 
3636.000000	65.085721 
3635.000000	65.093660 
3634.000000	65.112876 
3633.000000	65.141105 
3632.000000	65.174818 
3631.000000	65.209913 
3630.000000	65.242791 
3629.000000	65.271091 
3628.000000	65.294003 
3627.000000	65.312385 
3626.000000	65.328145 
3625.000000	65.343666 
3624.000000	65.360951 
3623.000000	65.381073 
3622.000000	65.403747 
3621.000000	65.427207 
3620.000000	65.449357 
3619.000000	65.467572 
3618.000000	65.479850 
3617.000000	65.484619 
3616.000000	65.481615 
3615.000000	65.471482 
3614.000000	65.455746 
3613.000000	65.436458 
3612.000000	65.415954 
3611.000000	65.396404 
3610.000000	65.379786 
3609.000000	65.367388 
3608.000000	65.359854 
3607.000000	65.356802 
3606.000000	65.357112 
3605.000000	65.358757 
3604.000000	65.359377 
3603.000000	65.356564 
3602.000000	65.348815 
3601.000000	65.335536 
3600.000000	65.317487 
3599.000000	65.296912 
3598.000000	65.277051 
3597.000000	65.261149 
3596.000000	65.251874 
3595.000000	65.250635 
3594.000000	65.257191 
3593.000000	65.269804 
3592.000000	65.285563 
3591.000000	65.301370 
3590.000000	65.314459 
3589.000000	65.323281 
3588.000000	65.327119 
3587.000000	65.326380 
3586.000000	65.321707 
3585.000000	65.313625 
3584.000000	65.302109 
3583.000000	65.286827 
3582.000000	65.267062 
3581.000000	65.242457 
3580.000000	65.213394 
3579.000000	65.181231 
3578.000000	65.148210 
3577.000000	65.117120 
3576.000000	65.090727 
3575.000000	65.071082 
3574.000000	65.058970 
3573.000000	65.054082 
3572.000000	65.054798 
3571.000000	65.059208 
3570.000000	65.065526 
3569.000000	65.072703 
3568.000000	65.080404 
3567.000000	65.089392 
3566.000000	65.100741 
3565.000000	65.115547 
3564.000000	65.134334 
3563.000000	65.156912 
3562.000000	65.181946 
3561.000000	65.207290 
3560.000000	65.230441 
3559.000000	65.248584 
3558.000000	65.259575 
3557.000000	65.261912 
3556.000000	65.255093 
3555.000000	65.239620 
3554.000000	65.216732 
3553.000000	65.188050 
3552.000000	65.155386 
3551.000000	65.120577 
3550.000000	65.085482 
3549.000000	65.052294 
3548.000000	65.023326 
3547.000000	65.001034 
3546.000000	64.987778 
3545.000000	64.985132 
3544.000000	64.993596 
3543.000000	65.012001 
3542.000000	65.037941 
3541.000000	65.067601 
3540.000000	65.096807 
3539.000000	65.121579 
3538.000000	65.139174 
3537.000000	65.148305 
3536.000000	65.149617 
3535.000000	65.144991 
3534.000000	65.137338 
3533.000000	65.129661 
3532.000000	65.124177 
3531.000000	65.122270 
3530.000000	65.123867 
3529.000000	65.128087 
3528.000000	65.133357 
3527.000000	65.137982 
3526.000000	65.140557 
3525.000000	65.140128 
3524.000000	65.136313 
3523.000000	65.129208 
3522.000000	65.119194 
3521.000000	65.106749 
3520.000000	65.092658 
3519.000000	65.077829 
3518.000000	65.063381 
3517.000000	65.050530 
3516.000000	65.040564 
3515.000000	65.034794 
3514.000000	65.034055 
3513.000000	65.038657 
3512.000000	65.048122 
3511.000000	65.061378 
3510.000000	65.076828 
3509.000000	65.092849 
3508.000000	65.107727 
3507.000000	65.120029 
3506.000000	65.128850 
3505.000000	65.133666 
3504.000000	65.134429 
3503.000000	65.131473 
3502.000000	65.125370 
3501.000000	65.117001 
3500.000000	65.107536 
3499.000000	65.097999 
3498.000000	65.089368 
3497.000000	65.082359 
3496.000000	65.077280 
3495.000000	65.073966 
3494.000000	65.071749 
3493.000000	65.069603 
3492.000000	65.066361 
3491.000000	65.060830 
3490.000000	65.052080 
3489.000000	65.039682 
3488.000000	65.023970 
3487.000000	65.005755 
3486.000000	64.986538 
3485.000000	64.968109 
3484.000000	64.952373 
3483.000000	64.940881 
3482.000000	64.935159 
3481.000000	64.935755 
3480.000000	64.942812 
3479.000000	64.955854 
3478.000000	64.973926 
3477.000000	64.995479 
3476.000000	65.019083 
3475.000000	65.043234 
3474.000000	65.066623 
3473.000000	65.087985 
3472.000000	65.106320 
3471.000000	65.120911 
3470.000000	65.131306 
3469.000000	65.137410 
3468.000000	65.139770 
3467.000000	65.139412 
3466.000000	65.137887 
3465.000000	65.136861 
3464.000000	65.138006 
3463.000000	65.142035 
3462.000000	65.149140 
3461.000000	65.158319 
3460.000000	65.167927 
3459.000000	65.175652 
3458.000000	65.179443 
3457.000000	65.177631 
3456.000000	65.169548 
3455.000000	65.155506 
3454.000000	65.136981 
3453.000000	65.115880 
3452.000000	65.094256 
3451.000000	65.073680 
3450.000000	65.055203 
3449.000000	65.039062 
3448.000000	65.024948 
3447.000000	65.012168 
3446.000000	64.999890 
3445.000000	64.987564 
3444.000000	64.975190 
3443.000000	64.963006 
3442.000000	64.951801 
3441.000000	64.942502 
3440.000000	64.936375 
3439.000000	64.934420 
3438.000000	64.937448 
3437.000000	64.945578 
3436.000000	64.958477 
3435.000000	64.974904 
3434.000000	64.993381 
3433.000000	65.012121 
3432.000000	65.029597 
3431.000000	65.044832 
3430.000000	65.057635 
3429.000000	65.068674 
3428.000000	65.079140 
3427.000000	65.090465 
3426.000000	65.103721 
3425.000000	65.119194 
3424.000000	65.136051 
3423.000000	65.152597 
3422.000000	65.166497 
3421.000000	65.175533 
3420.000000	65.178179 
3419.000000	65.174365 
3418.000000	65.165448 
3417.000000	65.153932 
3416.000000	65.143203 
3415.000000	65.136575 
3414.000000	65.136694 
3413.000000	65.144705 
3412.000000	65.160346 
3411.000000	65.181684 
3410.000000	65.205931 
3409.000000	65.229725 
3408.000000	65.250110 
3407.000000	65.264868 
3406.000000	65.273070 
3405.000000	65.275168 
3404.000000	65.272450 
3403.000000	65.266919 
3402.000000	65.260982 
3401.000000	65.256619 
3400.000000	65.255236 
3399.000000	65.257096 
3398.000000	65.261769 
3397.000000	65.267920 
3396.000000	65.273785 
3395.000000	65.277838 
3394.000000	65.278983 
3393.000000	65.277147 
3392.000000	65.273213 
3391.000000	65.268874 
3390.000000	65.266251 
3389.000000	65.267300 
3388.000000	65.273284 
3387.000000	65.284180 
3386.000000	65.298652 
3385.000000	65.314364 
3384.000000	65.328407 
3383.000000	65.337944 
3382.000000	65.340924 
3381.000000	65.336489 
3380.000000	65.325021 
3379.000000	65.307974 
3378.000000	65.287137 
3377.000000	65.264415 
3376.000000	65.241265 
3375.000000	65.218496 
3374.000000	65.196251 
3373.000000	65.174603 
3372.000000	65.153503 
3371.000000	65.133404 
3370.000000	65.115141 
3369.000000	65.099787 
3368.000000	65.088677 
3367.000000	65.082931 
3366.000000	65.083122 
3365.000000	65.089082 
3364.000000	65.100312 
3363.000000	65.116024 
3362.000000	65.135312 
3361.000000	65.157151 
3360.000000	65.180563 
3359.000000	65.204405 
3358.000000	65.227293 
3357.000000	65.247631 
3356.000000	65.263724 
3355.000000	65.274238 
3354.000000	65.278387 
3353.000000	65.276527 
3352.000000	65.270161 
3351.000000	65.261554 
3350.000000	65.253782 
3349.000000	65.249538 
3348.000000	65.250658 
3347.000000	65.257692 
3346.000000	65.269732 
3345.000000	65.284633 
3344.000000	65.299367 
3343.000000	65.310859 
3342.000000	65.316796 
3341.000000	65.315794 
3340.000000	65.307664 
3339.000000	65.293264 
3338.000000	65.274214 
3337.000000	65.252447 
3336.000000	65.229678 
3335.000000	65.207386 
3334.000000	65.186595 
3333.000000	65.168094 
3332.000000	65.152668 
3331.000000	65.140676 
3330.000000	65.132474 
3329.000000	65.127968 
3328.000000	65.127086 
3327.000000	65.128993 
3326.000000	65.132808 
3325.000000	65.137481 
3324.000000	65.142369 
3323.000000	65.146899 
3322.000000	65.150618 
3321.000000	65.153193 
3320.000000	65.154218 
3319.000000	65.152931 
3318.000000	65.148687 
3317.000000	65.140986 
3316.000000	65.129947 
3315.000000	65.116596 
3314.000000	65.102744 
3313.000000	65.090608 
3312.000000	65.082502 
3311.000000	65.079998 
3310.000000	65.083479 
3309.000000	65.091657 
3308.000000	65.101885 
3307.000000	65.110588 
3306.000000	65.114021 
3305.000000	65.109229 
3304.000000	65.094780 
3303.000000	65.071177 
3302.000000	65.040850 
3301.000000	65.007424 
3300.000000	64.975047 
3299.000000	64.947438 
3298.000000	64.926981 
3297.000000	64.914369 
3296.000000	64.908838 
3295.000000	64.908409 
3294.000000	64.910674 
3293.000000	64.913821 
3292.000000	64.916491 
3291.000000	64.918708 
3290.000000	64.921236 
3289.000000	64.925718 
3288.000000	64.933538 
3287.000000	64.946055 
3286.000000	64.963746 
3285.000000	64.986538 
3284.000000	65.013766 
3283.000000	65.043997 
3282.000000	65.075373 
3281.000000	65.105795 
3280.000000	65.133380 
3279.000000	65.156292 
3278.000000	65.173101 
3277.000000	65.183067 
3276.000000	65.186119 
3275.000000	65.183424 
3274.000000	65.176844 
3273.000000	65.168905 
3272.000000	65.162014 
3271.000000	65.158224 
3270.000000	65.158414 
3269.000000	65.162515 
3268.000000	65.169095 
3267.000000	65.175819 
3266.000000	65.180158 
3265.000000	65.180087 
3264.000000	65.174579 
3263.000000	65.163779 
3262.000000	65.149140 
3261.000000	65.132856 
3260.000000	65.117669 
3259.000000	65.106177 
3258.000000	65.100455 
3257.000000	65.101671 
3256.000000	65.110158 
3255.000000	65.125370 
3254.000000	65.146088 
3253.000000	65.170383 
3252.000000	65.195965 
3251.000000	65.220332 
3250.000000	65.240621 
3249.000000	65.254092 
3248.000000	65.258622 
3247.000000	65.253114 
3246.000000	65.237712 
3245.000000	65.214109 
3244.000000	65.185475 
3243.000000	65.155792 
3242.000000	65.129542 
3241.000000	65.110397 
3240.000000	65.100741 
3239.000000	65.101027 
3238.000000	65.109920 
3237.000000	65.124678 
3236.000000	65.141654 
3235.000000	65.157556 
3234.000000	65.169811 
3233.000000	65.177583 
3232.000000	65.181469 
3231.000000	65.183401 
3230.000000	65.185689 
3229.000000	65.190219 
3228.000000	65.197825 
3227.000000	65.207910 
3226.000000	65.218591 
3225.000000	65.227174 
3224.000000	65.230870 
3223.000000	65.227746 
3222.000000	65.216994 
3221.000000	65.199398 
3220.000000	65.177226 
3219.000000	65.153408 
3218.000000	65.131378 
3217.000000	65.114164 
3216.000000	65.103960 
3215.000000	65.101838 
3214.000000	65.107679 
3213.000000	65.120124 
3212.000000	65.136790 
3211.000000	65.154790 
3210.000000	65.171051 
3209.000000	65.182471 
3208.000000	65.186667 
3207.000000	65.182089 
3206.000000	65.168690 
3205.000000	65.147662 
3204.000000	65.121483 
3203.000000	65.093350 
3202.000000	65.066671 
3201.000000	65.044546 
3200.000000	65.028905 
3199.000000	65.020346 
3198.000000	65.018248 
3197.000000	65.021061 
3196.000000	65.026831 
3195.000000	65.033793 
3194.000000	65.040564 
3193.000000	65.046572 
3192.000000	65.051865 
3191.000000	65.057063 
3190.000000	65.062594 
3189.000000	65.068840 
3188.000000	65.075778 
3187.000000	65.083241 
3186.000000	65.090823 
3185.000000	65.098142 
3184.000000	65.105271 
3183.000000	65.112209 
3182.000000	65.119075 
3181.000000	65.125703 
3180.000000	65.131545 
3179.000000	65.135669 
3178.000000	65.136837 
3177.000000	65.133714 
3176.000000	65.125226 
3175.000000	65.110945 
3174.000000	65.091300 
3173.000000	65.067505 
3172.000000	65.041708 
3171.000000	65.016698 
3170.000000	64.995646 
3169.000000	64.981651 
3168.000000	64.977407 
3167.000000	64.984583 
3166.000000	65.003705 
3165.000000	65.033984 
3164.000000	65.072917 
3163.000000	65.116643 
3162.000000	65.160179 
3161.000000	65.198397 
3160.000000	65.226650 
3159.000000	65.241694 
3158.000000	65.242314 
3157.000000	65.229463 
3156.000000	65.206170 
3155.000000	65.176653 
3154.000000	65.145587 
3153.000000	65.117168 
3152.000000	65.094375 
3151.000000	65.078806 
3150.000000	65.070414 
3149.000000	65.068006 
3148.000000	65.069556 
3147.000000	65.072917 
3146.000000	65.075826 
3145.000000	65.076661 
3144.000000	65.074276 
3143.000000	65.068435 
3142.000000	65.059542 
3141.000000	65.049052 
3140.000000	65.039062 
3139.000000	65.032196 
3138.000000	65.031480 
3137.000000	65.039515 
3136.000000	65.058207 
3135.000000	65.087866 
3134.000000	65.127134 
3133.000000	65.172600 
3132.000000	65.219759 
3131.000000	65.263295 
3130.000000	65.298438 
3129.000000	65.321516 
3128.000000	65.330934 
3127.000000	65.326976 
3126.000000	65.312075 
3125.000000	65.289497 
3124.000000	65.262985 
3123.000000	65.235495 
3122.000000	65.209007 
3121.000000	65.183949 
3120.000000	65.159869 
3119.000000	65.135812 
3118.000000	65.111064 
3117.000000	65.085935 
3116.000000	65.061950 
3115.000000	65.041351 
3114.000000	65.026783 
3113.000000	65.020370 
3112.000000	65.023255 
3111.000000	65.034699 
3110.000000	65.052843 
3109.000000	65.074563 
3108.000000	65.096807 
3107.000000	65.117120 
3106.000000	65.134334 
3105.000000	65.148854 
3104.000000	65.162229 
3103.000000	65.176606 
3102.000000	65.193653 
3101.000000	65.214061 
3100.000000	65.236806 
3099.000000	65.259385 
3098.000000	65.278148 
3097.000000	65.289378 
3096.000000	65.289926 
3095.000000	65.278267 
3094.000000	65.254473 
3093.000000	65.220308 
3092.000000	65.178680 
3091.000000	65.133357 
3090.000000	65.087819 
3089.000000	65.045118 
3088.000000	65.007376 
3087.000000	64.976167 
3086.000000	64.952278 
3085.000000	64.936137 
3084.000000	64.927792 
3083.000000	64.927339 
3082.000000	64.934229 
3081.000000	64.947867 
3080.000000	64.966750 
3079.000000	64.989304 
3078.000000	65.013456 
3077.000000	65.036988 
3076.000000	65.057945 
3075.000000	65.074682 
3074.000000	65.086221 
3073.000000	65.092229 
3072.000000	65.092897 
3071.000000	65.088868 
3070.000000	65.080976 
3069.000000	65.070319 
3068.000000	65.058040 
3067.000000	65.045261 
3066.000000	65.033173 
3065.000000	65.022802 
3064.000000	65.015006 
3063.000000	65.010166 
3062.000000	65.008401 
3061.000000	65.009355 
3060.000000	65.012550 
3059.000000	65.017223 
3058.000000	65.022802 
3057.000000	65.029001 
3056.000000	65.035772 
3055.000000	65.043091 
3054.000000	65.050935 
3053.000000	65.058875 
3052.000000	65.066266 
3051.000000	65.072131 
3050.000000	65.075540 
3049.000000	65.075874 
3048.000000	65.072989 
3047.000000	65.067768 
3046.000000	65.061545 
3045.000000	65.056061 
3044.000000	65.052700 
3043.000000	65.052127 
3042.000000	65.053915 
3041.000000	65.056586 
3040.000000	65.057969 
3039.000000	65.056037 
3038.000000	65.049433 
3037.000000	65.038132 
3036.000000	65.023374 
3035.000000	65.007376 
3034.000000	64.992856 
3033.000000	64.982128 
3032.000000	64.976477 
3031.000000	64.975905 
3030.000000	64.979100 
3029.000000	64.983916 
3028.000000	64.988088 
3027.000000	64.989924 
3026.000000	64.988613 
3025.000000	64.984679 
3024.000000	64.979386 
3023.000000	64.974689 
3022.000000	64.972209 
3021.000000	64.973187 
3020.000000	64.977860 
3019.000000	64.985728 
3018.000000	64.995741 
3017.000000	65.006542 
3016.000000	65.016937 
3015.000000	65.026068 
3014.000000	65.033578 
3013.000000	65.039515 
3012.000000	65.044116 
3011.000000	65.047836 
3010.000000	65.051007 
3009.000000	65.054011 
3008.000000	65.057349 
3007.000000	65.061545 
3006.000000	65.066957 
3005.000000	65.073847 
3004.000000	65.082097 
3003.000000	65.091109 
3002.000000	65.099883 
3001.000000	65.107154 
3000.000000	65.111613 
2999.000000	65.112257 
2998.000000	65.108728 
2997.000000	65.101671 
2996.000000	65.092444 
2995.000000	65.082931 
2994.000000	65.075063 
2993.000000	65.070509 
2992.000000	65.069985 
2991.000000	65.073537 
2990.000000	65.080094 
2989.000000	65.087890 
2988.000000	65.094757 
2987.000000	65.098810 
2986.000000	65.098547 
2985.000000	65.093255 
2984.000000	65.082979 
2983.000000	65.068483 
2982.000000	65.051174 
2981.000000	65.032696 
2980.000000	65.014839 
2979.000000	64.999103 
2978.000000	64.986371 
2977.000000	64.976859 
2976.000000	64.970159 
2975.000000	64.965224 
2974.000000	64.960527 
2973.000000	64.954519 
2972.000000	64.945816 
2971.000000	64.933800 
2970.000000	64.918565 
2969.000000	64.901542 
2968.000000	64.884686 
2967.000000	64.870882 
2966.000000	64.862966 
2965.000000	64.863562 
2964.000000	64.874219 
2963.000000	64.895153 
2962.000000	64.925074 
2961.000000	64.961385 
2960.000000	65.000510 
2959.000000	65.038466 
2958.000000	65.071368 
2957.000000	65.096330 
2956.000000	65.111660 
2955.000000	65.117239 
2954.000000	65.114188 
2953.000000	65.104818 
2952.000000	65.092015 
2951.000000	65.078711 
2950.000000	65.067267 
2949.000000	65.059280 
2948.000000	65.055298 
2947.000000	65.055060 
2946.000000	65.057444 
2945.000000	65.061116 
2944.000000	65.064740 
2943.000000	65.067291 
2942.000000	65.068435 
2941.000000	65.068268 
2940.000000	65.067338 
2939.000000	65.066123 
2938.000000	65.065097 
2937.000000	65.064358 
2936.000000	65.063786 
2935.000000	65.063166 
2934.000000	65.062427 
2933.000000	65.061879 
2932.000000	65.062308 
2931.000000	65.064764 
2930.000000	65.070414 
2929.000000	65.080046 
2928.000000	65.093994 
2927.000000	65.111589 
2926.000000	65.131092 
2925.000000	65.149855 
2924.000000	65.164661 
2923.000000	65.172386 
2922.000000	65.170526 
2921.000000	65.157914 
2920.000000	65.134954 
2919.000000	65.103769 
2918.000000	65.067911 
2917.000000	65.031862 
2916.000000	64.999961 
2915.000000	64.975571 
2914.000000	64.960503 
2913.000000	64.954876 
2912.000000	64.957118 
2911.000000	64.964389 
2910.000000	64.973378 
2909.000000	64.981102 
2908.000000	64.985704 
2907.000000	64.986729 
2906.000000	64.984989 
2905.000000	64.982342 
2904.000000	64.981222 
2903.000000	64.983630 
2902.000000	64.990568 
2901.000000	65.001654 
2900.000000	65.015172 
2899.000000	65.028500 
2898.000000	65.038847 
2897.000000	65.044069 
2896.000000	65.043330 
2895.000000	65.037608 
2894.000000	65.029335 
2893.000000	65.021872 
2892.000000	65.018510 
2891.000000	65.021753 
2890.000000	65.032553 
2889.000000	65.049934 
2888.000000	65.071225 
2887.000000	65.092921 
2886.000000	65.111136 
2885.000000	65.122485 
2884.000000	65.124750 
2883.000000	65.117383 
2882.000000	65.101361 
2881.000000	65.078854 
2880.000000	65.052747 
2879.000000	65.025973 
2878.000000	65.001082 
2877.000000	64.980030 
2876.000000	64.963960 
2875.000000	64.953374 
2874.000000	64.948201 
2873.000000	64.948439 
2872.000000	64.953756 
2871.000000	64.963936 
2870.000000	64.978599 
2869.000000	64.997410 
2868.000000	65.019607 
2867.000000	65.044164 
2866.000000	65.069866 
2865.000000	65.095376 
2864.000000	65.119409 
2863.000000	65.140891 
2862.000000	65.158987 
2861.000000	65.173053 
2860.000000	65.182971 
2859.000000	65.188717 
2858.000000	65.190410 
2857.000000	65.188193 
2856.000000	65.182447 
2855.000000	65.173578 
2854.000000	65.162181 
2853.000000	65.149044 
2852.000000	65.135002 
2851.000000	65.120959 
2850.000000	65.107607 
2849.000000	65.095400 
2848.000000	65.084552 
2847.000000	65.074872 
2846.000000	65.065932 
2845.000000	65.057086 
2844.000000	65.047836 
2843.000000	65.037822 
2842.000000	65.027308 
2841.000000	65.016603 
2840.000000	65.006661 
2839.000000	64.998555 
2838.000000	64.993739 
2837.000000	64.993309 
2836.000000	64.998269 
2835.000000	65.009117 
2834.000000	65.025949 
2833.000000	65.048122 
2832.000000	65.074324 
2831.000000	65.102720 
2830.000000	65.131163 
2829.000000	65.157294 
2828.000000	65.178751 
2827.000000	65.193390 
2826.000000	65.199756 
2825.000000	65.197348 
2824.000000	65.186858 
2823.000000	65.170025 
2822.000000	65.149497 
2821.000000	65.128493 
2820.000000	65.110015 
2819.000000	65.096449 
2818.000000	65.089058 
2817.000000	65.087795 
2816.000000	65.091395 
2815.000000	65.097737 
2814.000000	65.104341 
2813.000000	65.109229 
2812.000000	65.111017 
2811.000000	65.109324 
2810.000000	65.104603 
2809.000000	65.097975 
2808.000000	65.090584 
2807.000000	65.083789 
2806.000000	65.078353 
2805.000000	65.074992 
2804.000000	65.074276 
2803.000000	65.076589 
2802.000000	65.082550 
2801.000000	65.092396 
2800.000000	65.106201 
2799.000000	65.123248 
2798.000000	65.142059 
2797.000000	65.160727 
2796.000000	65.177083 
2795.000000	65.189361 
2794.000000	65.196418 
2793.000000	65.198183 
2792.000000	65.195345 
2791.000000	65.189385 
2790.000000	65.182018 
2789.000000	65.174365 
2788.000000	65.166783 
2787.000000	65.158915 
2786.000000	65.149807 
2785.000000	65.138268 
2784.000000	65.123534 
2783.000000	65.105795 
2782.000000	65.086269 
2781.000000	65.067052 
2780.000000	65.050959 
2779.000000	65.040469 
2778.000000	65.037441 
2777.000000	65.042448 
2776.000000	65.054845 
2775.000000	65.072703 
2774.000000	65.093398 
2773.000000	65.114045 
2772.000000	65.132117 
2771.000000	65.145587 
2770.000000	65.153598 
2769.000000	65.156435 
2768.000000	65.155220 
2767.000000	65.151357 
2766.000000	65.146613 
2765.000000	65.142679 
2764.000000	65.140938 
2763.000000	65.142226 
2762.000000	65.146827 
2761.000000	65.154552 
2760.000000	65.164995 
2759.000000	65.177440 
2758.000000	65.190815 
2757.000000	65.204000 
2756.000000	65.216112 
2755.000000	65.226435 
2754.000000	65.234398 
2753.000000	65.239691 
2752.000000	65.242552 
2751.000000	65.243172 
2750.000000	65.241837 
2749.000000	65.238523 
2748.000000	65.233230 
2747.000000	65.225315 
2746.000000	65.213966 
2745.000000	65.198040 
2744.000000	65.176630 
2743.000000	65.149235 
2742.000000	65.116286 
2741.000000	65.078949 
2740.000000	65.039229 
2739.000000	64.999818 
2738.000000	64.963746 
2737.000000	64.933800 
2736.000000	64.912128 
2735.000000	64.900016 
2734.000000	64.897918 
2733.000000	64.905285 
2732.000000	64.920878 
2731.000000	64.942979 
2730.000000	64.969825 
2729.000000	64.999365 
2728.000000	65.029978 
2727.000000	65.060114 
2726.000000	65.088534 
2725.000000	65.114140 
2724.000000	65.136194 
2723.000000	65.154194 
2722.000000	65.167832 
2721.000000	65.177154 
2720.000000	65.182018 
2719.000000	65.182757 
2718.000000	65.179324 
2717.000000	65.171837 
2716.000000	65.160155 
2715.000000	65.144133 
2714.000000	65.123891 
2713.000000	65.100026 
2712.000000	65.073847 
2711.000000	65.047335 
2710.000000	65.023207 
2709.000000	65.004444 
2708.000000	64.993572 
2707.000000	64.992213 
2706.000000	65.000677 
2705.000000	65.017890 
2704.000000	65.041518 
2703.000000	65.068483 
2702.000000	65.095543 
2701.000000	65.119671 
2700.000000	65.138816 
2699.000000	65.151882 
2698.000000	65.158557 
2697.000000	65.159201 
2696.000000	65.154767 
2695.000000	65.146303 
2694.000000	65.134811 
2693.000000	65.121030 
2692.000000	65.105795 
2691.000000	65.089774 
2690.000000	65.073633 
2689.000000	65.058112 
2688.000000	65.043902 
2687.000000	65.031456 
2686.000000	65.021300 
2685.000000	65.013980 
2684.000000	65.010023 
2683.000000	65.010046 
2682.000000	65.014481 
2681.000000	65.023446 
2680.000000	65.036511 
2679.000000	65.052652 
2678.000000	65.070319 
2677.000000	65.087532 
2676.000000	65.102219 
2675.000000	65.112733 
2674.000000	65.117835 
2673.000000	65.116930 
2672.000000	65.110182 
2671.000000	65.098285 
2670.000000	65.082383 
2669.000000	65.064072 
2668.000000	65.045118 
2667.000000	65.027379 
2666.000000	65.012526 
2665.000000	65.002179 
2664.000000	64.997458 
2663.000000	64.999055 
2662.000000	65.006923 
2661.000000	65.020275 
2660.000000	65.037631 
2659.000000	65.056967 
2658.000000	65.076160 
2657.000000	65.093135 
2656.000000	65.106391 
2655.000000	65.114951 
2654.000000	65.118598 
2653.000000	65.117645 
2652.000000	65.112781 
2651.000000	65.104937 
2650.000000	65.094971 
2649.000000	65.083813 
2648.000000	65.072226 
2647.000000	65.060901 
2646.000000	65.050649 
2645.000000	65.042090 
2644.000000	65.035820 
2643.000000	65.032052 
2642.000000	65.030574 
2641.000000	65.030813 
2640.000000	65.031719 
2639.000000	65.032243 
2638.000000	65.031409 
2637.000000	65.028738 
2636.000000	65.024280 
2635.000000	65.018558 
2634.000000	65.012288 
2633.000000	65.006113 
2632.000000	65.000391 
2631.000000	64.995026 
2630.000000	64.989423 
2629.000000	64.982724 
2628.000000	64.974117 
2627.000000	64.963245 
2626.000000	64.950275 
2625.000000	64.935994 
2624.000000	64.921402 
2623.000000	64.907741 
2622.000000	64.895892 
2621.000000	64.886140 
2620.000000	64.878392 
2619.000000	64.872145 
2618.000000	64.866995 
2617.000000	64.862775 
2616.000000	64.859890 
2615.000000	64.859127 
2614.000000	64.861845 
2613.000000	64.869022 
2612.000000	64.881300 
2611.000000	64.898300 
2610.000000	64.918780 
2609.000000	64.940738 
2608.000000	64.961981 
2607.000000	64.980506 
2606.000000	64.995312 
2605.000000	65.006303 
2604.000000	65.014243 
2603.000000	65.020513 
2602.000000	65.026521 
2601.000000	65.033173 
2600.000000	65.040612 
2599.000000	65.048050 
2598.000000	65.054225 
2597.000000	65.057730 
2596.000000	65.057373 
2595.000000	65.052509 
2594.000000	65.043354 
2593.000000	65.031147 
2592.000000	65.017676 
2591.000000	65.004873 
2590.000000	64.994645 
2589.000000	64.988088 
2588.000000	64.985489 
2587.000000	64.986133 
2586.000000	64.988589 
2585.000000	64.991140 
2584.000000	64.992189 
2583.000000	64.990615 
2582.000000	64.986157 
2581.000000	64.979362 
2580.000000	64.971351 
2579.000000	64.963459 
2578.000000	64.956760 
2577.000000	64.952063 
2576.000000	64.949679 
2575.000000	64.949464 
2574.000000	64.950966 
2573.000000	64.953827 
2572.000000	64.957976 
2571.000000	64.963626 
2570.000000	64.971089 
2569.000000	64.980673 
2568.000000	64.992380 
2567.000000	65.005683 
2566.000000	65.019488 
2565.000000	65.032410 
2564.000000	65.043067 
2563.000000	65.050363 
2562.000000	65.053749 
2561.000000	65.053439 
2560.000000	65.050125 
2559.000000	65.045022 
2558.000000	65.039396 
2557.000000	65.034508 
2556.000000	65.031027 
2555.000000	65.029287 
2554.000000	65.028953 
2553.000000	65.029358 
2552.000000	65.029692 
2551.000000	65.029168 
2550.000000	65.027332 
2549.000000	65.024232 
2548.000000	65.020227 
2547.000000	65.016102 
2546.000000	65.012431 
2545.000000	65.009689 
2544.000000	65.008115 
2543.000000	65.007710 
2542.000000	65.008378 
2541.000000	65.009999 
2540.000000	65.012860 
2539.000000	65.017342 
2538.000000	65.024065 
2537.000000	65.033268 
2536.000000	65.044903 
2535.000000	65.058064 
2534.000000	65.071129 
2533.000000	65.081715 
2532.000000	65.087103 
2531.000000	65.084910 
2530.000000	65.073585 
2529.000000	65.052771 
2528.000000	65.023589 
2527.000000	64.988398 
2526.000000	64.950633 
2525.000000	64.914178 
2524.000000	64.882707 
2523.000000	64.859247 
2522.000000	64.845800 
2521.000000	64.843201 
2520.000000	64.851260 
2519.000000	64.868998 
2518.000000	64.894866 
2517.000000	64.926886 
2516.000000	64.962935 
2515.000000	65.000605 
2514.000000	65.037608 
2513.000000	65.071630 
2512.000000	65.100669 
2511.000000	65.123319 
2510.000000	65.138435 
2509.000000	65.145921 
2508.000000	65.146017 
2507.000000	65.139412 
2506.000000	65.126705 
2505.000000	65.108680 
2504.000000	65.085744 
2503.000000	65.058445 
2502.000000	65.027308 
2501.000000	64.993333 
2500.000000	64.958143 
2499.000000	64.923954 
2498.000000	64.893364 
2497.000000	64.868950 
2496.000000	64.852809 
2495.000000	64.846134 
2494.000000	64.848852 
2493.000000	64.859676 
2492.000000	64.876341 
2491.000000	64.896035 
2490.000000	64.915823 
2489.000000	64.933490 
2488.000000	64.947509 
2487.000000	64.957547 
2486.000000	64.963912 
2485.000000	64.967584 
2484.000000	64.969873 
2483.000000	64.972043 
2482.000000	64.974975 
2481.000000	64.979028 
2480.000000	64.984226 
2479.000000	64.990019 
2478.000000	64.995598 
2477.000000	64.999938 
2476.000000	65.002131 
2475.000000	65.001440 
2474.000000	64.997529 
2473.000000	64.990234 
2472.000000	64.979887 
2471.000000	64.967060 
2470.000000	64.952874 
2469.000000	64.938426 
2468.000000	64.924716 
2467.000000	64.912748 
2466.000000	64.903283 
2465.000000	64.896774 
2464.000000	64.893269 
2463.000000	64.892768 
2462.000000	64.895057 
2461.000000	64.899754 
2460.000000	64.906668 
2459.000000	64.915323 
2458.000000	64.925098 
2457.000000	64.935421 
2456.000000	64.945554 
2455.000000	64.954376 
2454.000000	64.960670 
2453.000000	64.963173 
2452.000000	64.960980 
2451.000000	64.953660 
2450.000000	64.941763 
2449.000000	64.926576 
2448.000000	64.910435 
2447.000000	64.896082 
2446.000000	64.886212 
2445.000000	64.882731 
2444.000000	64.886307 
2443.000000	64.896225 
2442.000000	64.910435 
2441.000000	64.926052 
2440.000000	64.940166 
2439.000000	64.950466 
2438.000000	64.955711 
2437.000000	64.955973 
2436.000000	64.952564 
2435.000000	64.947295 
2434.000000	64.942002 
2433.000000	64.937710 
2432.000000	64.934659 
2431.000000	64.931964 
2430.000000	64.928269 
2429.000000	64.921975 
2428.000000	64.912199 
2427.000000	64.899110 
2426.000000	64.883875 
2425.000000	64.868760 
2424.000000	64.856362 
2423.000000	64.849162 
2422.000000	64.848828 
2421.000000	64.856028 
2420.000000	64.870166 
2419.000000	64.889669 
2418.000000	64.912438 
2417.000000	64.936375 
2416.000000	64.959597 
2415.000000	64.980864 
2414.000000	64.999508 
2413.000000	65.015387 
2412.000000	65.028619 
2411.000000	65.039420 
2410.000000	65.047812 
2409.000000	65.053772 
2408.000000	65.057086 
2407.000000	65.057539 
2406.000000	65.055108 
2405.000000	65.050053 
2404.000000	65.043115 
2403.000000	65.035200 
2402.000000	65.027713 
2401.000000	65.022087 
2400.000000	65.019750 
2399.000000	65.021681 
2398.000000	65.028357 
2397.000000	65.039491 
2396.000000	65.054035 
2395.000000	65.070295 
2394.000000	65.086245 
2393.000000	65.099620 
2392.000000	65.108609 
2391.000000	65.111827 
2390.000000	65.108776 
2389.000000	65.099740 
2388.000000	65.085530 
2387.000000	65.067243 
2386.000000	65.045928 
2385.000000	65.022540 
2384.000000	64.997911 
2383.000000	64.972639 
2382.000000	64.947581 
2381.000000	64.923715 
2380.000000	64.902329 
2379.000000	64.885020 
2378.000000	64.873027 
2377.000000	64.867448 
2376.000000	64.868569 
2375.000000	64.876055 
2374.000000	64.888405 
2373.000000	64.903521 
2372.000000	64.918732 
2371.000000	64.931583 
2370.000000	64.939975 
2369.000000	64.942884 
2368.000000	64.940333 
2367.000000	64.933490 
2366.000000	64.924359 
2365.000000	64.915275 
2364.000000	64.908432 
2363.000000	64.905357 
2362.000000	64.906740 
2361.000000	64.912223 
2360.000000	64.920735 
2359.000000	64.930725 
2358.000000	64.940547 
2357.000000	64.949035 
2356.000000	64.955592 
2355.000000	64.960217 
2354.000000	64.963316 
2353.000000	64.965295 
2352.000000	64.966273 
2351.000000	64.966249 
2350.000000	64.964914 
2349.000000	64.961910 
2348.000000	64.957118 
2347.000000	64.951038 
2346.000000	64.944458 
2345.000000	64.938545 
2344.000000	64.934349 
2343.000000	64.932560 
2342.000000	64.933490 
2341.000000	64.936685 
2340.000000	64.941453 
2339.000000	64.946675 
2338.000000	64.951372 
2337.000000	64.954781 
2336.000000	64.956474 
2335.000000	64.956307 
2334.000000	64.954066 
2333.000000	64.949631 
2332.000000	64.942812 
2331.000000	64.933490 
2330.000000	64.922070 
2329.000000	64.909529 
2328.000000	64.897441 
2327.000000	64.887809 
2326.000000	64.882850 
2325.000000	64.884161 
2324.000000	64.892387 
2323.000000	64.906954 
2322.000000	64.926075 
2321.000000	64.947319 
2320.000000	64.967846 
2319.000000	64.985322 
2318.000000	64.998149 
2317.000000	65.005779 
2316.000000	65.008640 
2315.000000	65.007686 
2314.000000	65.004253 
2313.000000	64.999341 
2312.000000	64.993572 
2311.000000	64.987134 
2310.000000	64.980030 
2309.000000	64.972090 
2308.000000	64.963483 
2307.000000	64.954543 
2306.000000	64.945721 
2305.000000	64.937353 
2304.000000	64.929723 
2303.000000	64.922618 
2302.000000	64.915728 
2301.000000	64.908576 
2300.000000	64.901018 
2299.000000	64.893245 
2298.000000	64.885902 
2297.000000	64.880108 
2296.000000	64.877080 
2295.000000	64.877772 
2294.000000	64.882636 
2293.000000	64.891242 
2292.000000	64.902257 
2291.000000	64.913821 
2290.000000	64.923787 
2289.000000	64.930200 
2288.000000	64.931845 
2287.000000	64.928531 
2286.000000	64.920973 
2285.000000	64.910650 
2284.000000	64.899349 
2283.000000	64.888739 
2282.000000	64.880156 
2281.000000	64.874291 
2280.000000	64.871239 
2279.000000	64.870595 
2278.000000	64.871907 
2277.000000	64.874720 
2276.000000	64.878654 
2275.000000	64.883565 
2274.000000	64.889144 
2273.000000	64.895176 
2272.000000	64.901041 
2271.000000	64.905905 
2270.000000	64.908766 
2269.000000	64.908719 
2268.000000	64.905190 
2267.000000	64.898014 
2266.000000	64.887762 
2265.000000	64.875411 
2264.000000	64.862084 
2263.000000	64.848852 
2262.000000	64.836621 
2261.000000	64.825868 
2260.000000	64.816808 
2259.000000	64.809489 
2258.000000	64.803862 
2257.000000	64.800047 
2256.000000	64.798307 
2255.000000	64.799022 
2254.000000	64.802527 
2253.000000	64.809179 
2252.000000	64.819073 
2251.000000	64.832043 
2250.000000	64.847469 
2249.000000	64.864277 
2248.000000	64.881253 
2247.000000	64.896821 
2246.000000	64.909720 
2245.000000	64.918732 
2244.000000	64.923429 
2243.000000	64.923882 
2242.000000	64.921236 
2241.000000	64.917397 
2240.000000	64.914774 
2239.000000	64.915990 
2238.000000	64.922857 
2237.000000	64.936208 
2236.000000	64.955306 
2235.000000	64.978003 
2234.000000	65.000844 
2233.000000	65.020084 
2232.000000	65.032172 
2231.000000	65.034890 
2230.000000	65.027403 
2229.000000	65.010619 
2228.000000	64.986705 
2227.000000	64.958715 
2226.000000	64.929819 
2225.000000	64.902687 
2224.000000	64.879202 
2223.000000	64.860224 
2222.000000	64.845943 
2221.000000	64.836049 
2220.000000	64.830017 
2219.000000	64.827275 
2218.000000	64.827299 
2217.000000	64.829826 
2216.000000	64.834213 
2215.000000	64.839959 
2214.000000	64.846229 
2213.000000	64.852619 
2212.000000	64.858675 
2211.000000	64.864587 
2210.000000	64.870977 
2209.000000	64.878702 
2208.000000	64.888644 
2207.000000	64.901423 
2206.000000	64.917230 
2205.000000	64.935421 
2204.000000	64.954614 
2203.000000	64.972996 
2202.000000	64.988708 
2201.000000	65.000152 
2200.000000	65.006303 
2199.000000	65.007066 
2198.000000	65.002965 
2197.000000	64.995241 
2196.000000	64.985489 
2195.000000	64.974999 
2194.000000	64.964652 
2193.000000	64.954996 
2192.000000	64.946436 
2191.000000	64.939236 
2190.000000	64.933490 
2189.000000	64.929723 
2188.000000	64.928293 
2187.000000	64.929485 
2186.000000	64.932942 
2185.000000	64.937663 
2184.000000	64.941954 
2183.000000	64.943814 
2182.000000	64.941382 
2181.000000	64.933228 
2180.000000	64.919114 
2179.000000	64.900255 
2178.000000	64.878988 
2177.000000	64.858412 
2176.000000	64.841723 
2175.000000	64.831542 
2174.000000	64.829206 
2173.000000	64.834618 
2172.000000	64.846324 
2171.000000	64.862108 
2170.000000	64.879298 
2169.000000	64.895534 
2168.000000	64.909100 
2167.000000	64.919281 
2166.000000	64.926004 
2165.000000	64.929819 
2164.000000	64.931535 
2163.000000	64.931774 
2162.000000	64.931082 
2161.000000	64.929604 
2160.000000	64.927315 
2159.000000	64.923787 
2158.000000	64.918684 
2157.000000	64.911365 
2156.000000	64.901232 
2155.000000	64.887809 
2154.000000	64.870691 
2153.000000	64.850091 
2152.000000	64.826726 
2151.000000	64.802193 
2150.000000	64.778590 
2149.000000	64.758253 
2148.000000	64.743351 
2147.000000	64.735460 
2146.000000	64.735031 
2145.000000	64.741444 
2144.000000	64.753079 
2143.000000	64.767765 
2142.000000	64.783406 
2141.000000	64.798450 
2140.000000	64.812040 
2139.000000	64.824175 
2138.000000	64.835357 
2137.000000	64.846205 
2136.000000	64.856958 
2135.000000	64.867067 
2134.000000	64.875459 
2133.000000	64.880657 
2132.000000	64.881157 
2131.000000	64.876127 
2130.000000	64.865326 
2129.000000	64.849448 
2128.000000	64.829778 
2127.000000	64.808034 
2126.000000	64.785861 
2125.000000	64.764642 
2124.000000	64.745354 
2123.000000	64.728617 
2122.000000	64.714932 
2121.000000	64.704608 
2120.000000	64.698243 
2119.000000	64.696455 
2118.000000	64.699792 
2117.000000	64.708399 
2116.000000	64.721918 
2115.000000	64.739298 
2114.000000	64.758849 
2113.000000	64.778590 
2112.000000	64.796280 
2111.000000	64.810252 
2110.000000	64.819288 
2109.000000	64.822959 
2108.000000	64.821648 
2107.000000	64.816403 
2106.000000	64.808583 
2105.000000	64.799666 
2104.000000	64.791131 
2103.000000	64.784121 
2102.000000	64.779353 
2101.000000	64.776968 
2100.000000	64.776873 
2099.000000	64.778423 
2098.000000	64.780783 
2097.000000	64.783024 
2096.000000	64.784383 
2095.000000	64.784383 
2094.000000	64.782667 
2093.000000	64.779329 
2092.000000	64.774799 
2091.000000	64.769458 
2090.000000	64.763736 
2089.000000	64.758014 
2088.000000	64.752554 
2087.000000	64.747595 
2086.000000	64.743494 
2085.000000	64.740729 
2084.000000	64.740037 
2083.000000	64.742302 
2082.000000	64.748167 
2081.000000	64.757966 
2080.000000	64.771342 
2079.000000	64.787459 
2078.000000	64.805054 
2077.000000	64.822506 
2076.000000	64.838171 
2075.000000	64.850711 
2074.000000	64.859247 
2073.000000	64.863586 
2072.000000	64.864182 
2071.000000	64.862155 
2070.000000	64.858889 
2069.000000	64.855742 
2068.000000	64.853858 
2067.000000	64.853811 
2066.000000	64.855670 
2065.000000	64.859008 
2064.000000	64.863467 
2063.000000	64.868640 
2062.000000	64.874505 
2061.000000	64.881134 
2060.000000	64.888620 
2059.000000	64.896655 
2058.000000	64.904427 
2057.000000	64.910721 
2056.000000	64.914131 
2055.000000	64.913392 
2054.000000	64.908075 
2053.000000	64.898371 
2052.000000	64.885663 
2051.000000	64.871716 
2050.000000	64.858651 
2049.000000	64.847993 
2048.000000	64.840650 
2047.000000	64.836239 
2046.000000	64.833402 
2045.000000	64.830112 
2044.000000	64.824461 
2043.000000	64.814925 
2042.000000	64.800953 
2041.000000	64.783263 
2040.000000	64.763569 
2039.000000	64.744210 
2038.000000	64.727592 
2037.000000	64.715886 
2036.000000	64.710283 
2035.000000	64.711189 
2034.000000	64.717936 
2033.000000	64.729189 
2032.000000	64.743089 
2031.000000	64.757633 
2030.000000	64.771032 
2029.000000	64.782047 
2028.000000	64.790248 
2027.000000	64.795613 
2026.000000	64.798784 
2025.000000	64.800548 
2024.000000	64.801859 
2023.000000	64.803314 
2022.000000	64.805364 
2021.000000	64.808082 
2020.000000	64.811277 
2019.000000	64.814805 
2018.000000	64.818334 
2017.000000	64.821529 
2016.000000	64.824342 
2015.000000	64.826846 
2014.000000	64.829349 
2013.000000	64.832115 
2012.000000	64.835453 
2011.000000	64.839601 
2010.000000	64.844489 
2009.000000	64.849686 
2008.000000	64.854502 
2007.000000	64.857959 
2006.000000	64.858865 
2005.000000	64.856219 
2004.000000	64.849424 
2003.000000	64.838480 
2002.000000	64.824128 
2001.000000	64.807677 
2000.000000	64.790773 
1999.000000	64.775180 
1998.000000	64.762067 
1997.000000	64.751982 
1996.000000	64.744567 
1995.000000	64.738798 
1994.000000	64.733409 
1993.000000	64.727258 
1992.000000	64.719724 
1991.000000	64.710974 
1990.000000	64.701986 
1989.000000	64.694213 
1988.000000	64.689135 
1987.000000	64.687871 
1986.000000	64.690804 
1985.000000	64.697551 
1984.000000	64.706826 
1983.000000	64.716958 
1982.000000	64.726281 
1981.000000	64.733433 
1980.000000	64.737892 
1979.000000	64.740061 
1978.000000	64.741158 
1977.000000	64.742803 
1976.000000	64.746570 
1975.000000	64.753603 
1974.000000	64.763998 
1973.000000	64.777064 
1972.000000	64.791202 
1971.000000	64.804315 
1970.000000	64.814209 
1969.000000	64.819288 
1968.000000	64.818763 
1967.000000	64.812707 
1966.000000	64.802360 
1965.000000	64.789438 
1964.000000	64.775991 
1963.000000	64.763808 
1962.000000	64.754271 
1961.000000	64.748072 
1960.000000	64.745545 
1959.000000	64.746475 
1958.000000	64.750528 
1957.000000	64.757251 
1956.000000	64.765739 
1955.000000	64.774751 
1954.000000	64.782547 
1953.000000	64.787364 
1952.000000	64.787530 
1951.000000	64.782118 
1950.000000	64.771080 
1949.000000	64.755392 
1948.000000	64.737057 
1947.000000	64.718699 
1946.000000	64.702916 
1945.000000	64.691710 
1944.000000	64.686179 
1943.000000	64.686393 
1942.000000	64.691281 
1941.000000	64.699077 
1940.000000	64.707541 
1939.000000	64.714789 
1938.000000	64.719247 
1937.000000	64.720535 
1936.000000	64.718890 
1935.000000	64.715671 
1934.000000	64.712572 
1933.000000	64.711594 
1932.000000	64.714407 
1931.000000	64.722108 
1930.000000	64.735031 
1929.000000	64.752650 
1928.000000	64.773559 
1927.000000	64.795756 
1926.000000	64.816856 
1925.000000	64.834284 
1924.000000	64.845776 
1923.000000	64.849638 
1922.000000	64.845013 
1921.000000	64.832139 
1920.000000	64.812111 
1919.000000	64.787077 
1918.000000	64.759707 
1917.000000	64.732623 
1916.000000	64.708042 
1915.000000	64.687657 
1914.000000	64.672398 
1913.000000	64.662361 
1912.000000	64.657282 
1911.000000	64.656615 
1910.000000	64.659571 
1909.000000	64.665222 
1908.000000	64.672660 
1907.000000	64.680790 
1906.000000	64.688491 
1905.000000	64.694523 
1904.000000	64.697718 
1903.000000	64.697170 
1902.000000	64.692378 
1901.000000	64.683413 
1900.000000	64.670920 
1899.000000	64.656162 
1898.000000	64.640903 
1897.000000	64.627170 
1896.000000	64.616847 
1895.000000	64.611434 
1894.000000	64.612007 
1893.000000	64.618873 
1892.000000	64.631414 
1891.000000	64.648437 
1890.000000	64.667892 
1889.000000	64.687657 
1888.000000	64.705562 
1887.000000	64.719915 
1886.000000	64.729547 
1885.000000	64.734244 
1884.000000	64.734816 
1883.000000	64.732718 
1882.000000	64.729762 
1881.000000	64.727687 
1880.000000	64.727902 
1879.000000	64.731049 
1878.000000	64.736866 
1877.000000	64.744377 
1876.000000	64.752197 
1875.000000	64.758849 
1874.000000	64.763021 
1873.000000	64.764022 
1872.000000	64.761662 
1871.000000	64.756250 
1870.000000	64.748287 
1869.000000	64.738321 
1868.000000	64.726781 
1867.000000	64.713907 
1866.000000	64.699840 
1865.000000	64.684772 
1864.000000	64.669251 
1863.000000	64.654207 
1862.000000	64.640927 
1861.000000	64.630889 
1860.000000	64.625501 
1859.000000	64.625954 
1858.000000	64.632868 
1857.000000	64.645910 
1856.000000	64.664149 
1855.000000	64.686036 
1854.000000	64.709734 
1853.000000	64.733314 
1852.000000	64.754962 
1851.000000	64.773416 
1850.000000	64.787673 
1849.000000	64.797377 
1848.000000	64.802479 
1847.000000	64.803099 
1846.000000	64.799714 
1845.000000	64.792847 
1844.000000	64.783334 
1843.000000	64.772057 
1842.000000	64.760017 
1841.000000	64.748048 
1840.000000	64.736795 
1839.000000	64.726686 
1838.000000	64.717721 
1837.000000	64.709615 
1836.000000	64.701914 
1835.000000	64.694261 
1834.000000	64.686584 
1833.000000	64.679098 
1832.000000	64.672160 
1831.000000	64.666175 
1830.000000	64.661645 
1829.000000	64.658761 
1828.000000	64.657402 
1827.000000	64.657068 
1826.000000	64.657163 
1825.000000	64.657258 
1824.000000	64.656972 
1823.000000	64.656400 
1822.000000	64.655804 
1821.000000	64.655613 
1820.000000	64.656114 
1819.000000	64.657163 
1818.000000	64.658045 
1817.000000	64.657711 
1816.000000	64.654898 
1815.000000	64.648437 
1814.000000	64.637780 
1813.000000	64.623117 
1812.000000	64.605712 
1811.000000	64.587521 
1810.000000	64.571142 
1809.000000	64.559149 
1808.000000	64.553666 
1807.000000	64.555907 
1806.000000	64.565873 
1805.000000	64.582228 
1804.000000	64.602661 
1803.000000	64.624309 
1802.000000	64.644479 
1801.000000	64.661073 
1800.000000	64.672899 
1799.000000	64.679813 
1798.000000	64.682412 
1797.000000	64.681577 
1796.000000	64.678120 
1795.000000	64.672565 
1794.000000	64.664864 
1793.000000	64.654564 
1792.000000	64.641189 
1791.000000	64.624619 
1790.000000	64.605331 
1789.000000	64.584469 
1788.000000	64.563941 
1787.000000	64.545845 
1786.000000	64.532136 
1785.000000	64.524269 
1784.000000	64.522886 
1783.000000	64.527654 
1782.000000	64.537549 
1781.000000	64.551019 
1780.000000	64.566183 
1779.000000	64.581084 
1778.000000	64.593935 
1777.000000	64.603352 
1776.000000	64.608097 
1775.000000	64.607691 
1774.000000	64.602231 
1773.000000	64.592695 
1772.000000	64.580726 
1771.000000	64.568519 
1770.000000	64.558529 
1769.000000	64.552760 
1768.000000	64.552450 
1767.000000	64.557552 
1766.000000	64.566874 
1765.000000	64.578199 
1764.000000	64.588713 
1763.000000	64.595890 
1762.000000	64.597773 
1761.000000	64.593911 
1760.000000	64.585089 
1759.000000	64.573192 
1758.000000	64.560389 
1757.000000	64.548945 
1756.000000	64.540052 
1755.000000	64.533710 
1754.000000	64.528703 
1753.000000	64.523029 
1752.000000	64.514493 
1751.000000	64.501357 
1750.000000	64.482927 
1749.000000	64.459872 
1748.000000	64.433979 
1747.000000	64.407753 
1746.000000	64.383721 
1745.000000	64.363765 
1744.000000	64.348912 
1743.000000	64.339041 
1742.000000	64.333033 
1741.000000	64.329290 
1740.000000	64.326119 
1739.000000	64.322280 
1738.000000	64.317154 
1737.000000	64.311075 
1736.000000	64.304804 
1735.000000	64.299631 
1734.000000	64.296865 
1733.000000	64.297366 
1732.000000	64.301514 
1731.000000	64.309144 
1730.000000	64.319539 
1729.000000	64.331984 
1728.000000	64.345645 
1727.000000	64.360260 
1726.000000	64.375877 
1725.000000	64.392971 
1724.000000	64.412260 
1723.000000	64.434051 
1722.000000	64.458394 
1721.000000	64.484333 
1720.000000	64.510011 
1719.000000	64.532756 
1718.000000	64.549708 
1717.000000	64.558362 
1716.000000	64.557242 
1715.000000	64.546370 
1714.000000	64.527535 
1713.000000	64.503908 
1712.000000	64.479541 
1711.000000	64.458632 
1710.000000	64.444780 
1709.000000	64.440584 
1708.000000	64.446878 
1707.000000	64.463019 
1706.000000	64.486718 
1705.000000	64.514708 
1704.000000	64.543032 
1703.000000	64.567732 
1702.000000	64.585661 
1701.000000	64.594697 
1700.000000	64.594292 
1699.000000	64.585351 
1698.000000	64.570260 
1697.000000	64.552021 
1696.000000	64.533853 
1695.000000	64.518499 
1694.000000	64.507699 
1693.000000	64.501953 
1692.000000	64.500427 
1691.000000	64.501357 
1690.000000	64.502596 
1689.000000	64.502263 
1688.000000	64.499235 
1687.000000	64.493346 
1686.000000	64.485406 
1685.000000	64.476943 
1684.000000	64.469861 
1683.000000	64.465713 
1682.000000	64.465689 
1681.000000	64.470243 
1680.000000	64.479064 
1679.000000	64.491295 
1678.000000	64.505672 
1677.000000	64.520764 
1676.000000	64.535117 
1675.000000	64.547634 
1674.000000	64.557957 
1673.000000	64.566087 
1672.000000	64.572453 
1671.000000	64.577436 
1670.000000	64.581513 
1669.000000	64.584779 
1668.000000	64.586901 
1667.000000	64.587187 
1666.000000	64.584827 
1665.000000	64.579057 
1664.000000	64.569616 
1663.000000	64.556765 
1662.000000	64.541339 
1661.000000	64.524674 
1660.000000	64.508366 
1659.000000	64.493894 
1658.000000	64.482474 
1657.000000	64.474678 
1656.000000	64.470458 
1655.000000	64.469289 
1654.000000	64.470267 
1653.000000	64.472293 
1652.000000	64.474105 
1651.000000	64.474630 
1650.000000	64.473152 
1649.000000	64.469051 
1648.000000	64.462232 
1647.000000	64.453172 
1646.000000	64.442944 
1645.000000	64.432930 
1644.000000	64.424586 
1643.000000	64.419174 
1642.000000	64.417362 
1641.000000	64.419007 
1640.000000	64.423012 
1639.000000	64.427781 
1638.000000	64.431357 
1637.000000	64.432048 
1636.000000	64.428853 
1635.000000	64.421749 
1634.000000	64.411735 
1633.000000	64.400482 
1632.000000	64.390063 
1631.000000	64.382076 
1630.000000	64.377498 
1629.000000	64.376401 
1628.000000	64.377832 
1627.000000	64.380168 
1626.000000	64.381694 
1625.000000	64.381074 
1624.000000	64.377260 
1623.000000	64.370131 
1622.000000	64.360165 
1621.000000	64.348626 
1620.000000	64.337015 
1619.000000	64.326930 
1618.000000	64.319849 
1617.000000	64.316821 
1616.000000	64.318299 
1615.000000	64.324069 
1614.000000	64.333438 
1613.000000	64.345121 
1612.000000	64.357638 
1611.000000	64.369416 
1610.000000	64.379000 
1609.000000	64.385199 
1608.000000	64.387249 
1607.000000	64.384818 
1606.000000	64.378142 
1605.000000	64.368033 
1604.000000	64.355683 
1603.000000	64.342737 
1602.000000	64.330959 
1601.000000	64.322090 
1600.000000	64.317417 
1599.000000	64.317798 
1598.000000	64.323306 
1597.000000	64.333343 
1596.000000	64.346432 
1595.000000	64.360666 
1594.000000	64.373874 
1593.000000	64.383864 
1592.000000	64.388918 
1591.000000	64.387750 
1590.000000	64.379835 
1589.000000	64.365553 
1588.000000	64.345955 
1587.000000	64.322662 
1586.000000	64.297413 
1585.000000	64.271879 
1584.000000	64.247584 
1583.000000	64.225506 
1582.000000	64.206576 
1581.000000	64.191722 
1580.000000	64.181804 
1579.000000	64.177608 
1578.000000	64.179682 
1577.000000	64.188241 
1576.000000	64.202761 
1575.000000	64.222264 
1574.000000	64.245319 
1573.000000	64.270448 
1572.000000	64.296245 
1571.000000	64.321637 
1570.000000	64.345645 
1569.000000	64.367437 
1568.000000	64.386177 
1567.000000	64.400863 
1566.000000	64.410591 
1565.000000	64.414358 
1564.000000	64.411759 
1563.000000	64.402484 
1562.000000	64.387059 
1561.000000	64.366269 
1560.000000	64.341521 
1559.000000	64.314293 
1558.000000	64.286160 
1557.000000	64.258551 
1556.000000	64.232707 
1555.000000	64.209675 
1554.000000	64.190244 
1553.000000	64.175081 
1552.000000	64.164805 
1551.000000	64.159774 
1550.000000	64.159917 
1549.000000	64.164662 
1548.000000	64.173054 
1547.000000	64.183473 
1546.000000	64.194083 
1545.000000	64.202857 
1544.000000	64.208340 
1543.000000	64.209842 
1542.000000	64.207673 
1541.000000	64.203047 
1540.000000	64.197969 
1539.000000	64.194536 
1538.000000	64.194798 
1537.000000	64.199900 
1536.000000	64.209914 
1535.000000	64.224052 
1534.000000	64.240598 
1533.000000	64.257502 
1532.000000	64.272475 
1531.000000	64.283466 
1530.000000	64.289093 
1529.000000	64.288997 
1528.000000	64.283752 
1527.000000	64.274907 
1526.000000	64.264988 
1525.000000	64.256882 
1524.000000	64.253592 
1523.000000	64.257407 
1522.000000	64.269495 
1521.000000	64.289569 
1520.000000	64.315772 
1519.000000	64.345002 
1518.000000	64.373397 
1517.000000	64.397096 
1516.000000	64.412975 
1515.000000	64.419484 
1514.000000	64.416527 
1513.000000	64.405941 
1512.000000	64.390563 
1511.000000	64.373779 
1510.000000	64.358758 
1509.000000	64.347720 
1508.000000	64.341640 
1507.000000	64.340257 
1506.000000	64.342546 
1505.000000	64.347028 
1504.000000	64.352488 
1503.000000	64.358115 
1502.000000	64.363551 
1501.000000	64.368486 
1500.000000	64.372467 
1499.000000	64.374542 
1498.000000	64.373183 
1497.000000	64.366793 
1496.000000	64.354157 
1495.000000	64.335179 
1494.000000	64.311170 
1493.000000	64.284801 
1492.000000	64.259862 
1491.000000	64.240336 
1490.000000	64.229750 
1489.000000	64.230251 
1488.000000	64.242243 
1487.000000	64.264321 
1486.000000	64.293551 
1485.000000	64.326262 
1484.000000	64.358711 
1483.000000	64.387631 
1482.000000	64.410758 
1481.000000	64.426779 
1480.000000	64.435291 
1479.000000	64.436531 
1478.000000	64.431071 
1477.000000	64.419722 
1476.000000	64.403533 
1475.000000	64.383769 
1474.000000	64.361882 
1473.000000	64.339399 
1472.000000	64.317846 
1471.000000	64.298772 
1470.000000	64.283418 
1469.000000	64.272737 
1468.000000	64.267253 
1467.000000	64.267277 
1466.000000	64.272809 
1465.000000	64.283609 
1464.000000	64.299273 
1463.000000	64.319276 
1462.000000	64.342832 
1461.000000	64.369058 
1460.000000	64.396691 
1459.000000	64.424252 
1458.000000	64.450097 
1457.000000	64.472341 
1456.000000	64.489364 
1455.000000	64.499855 
1454.000000	64.503145 
1453.000000	64.498972 
1452.000000	64.487934 
1451.000000	64.471197 
1450.000000	64.450693 
1449.000000	64.428639 
1448.000000	64.407444 
1447.000000	64.389395 
1446.000000	64.376473 
1445.000000	64.370131 
1444.000000	64.370918 
1443.000000	64.378595 
1442.000000	64.391875 
1441.000000	64.408707 
1440.000000	64.426422 
1439.000000	64.442110 
1438.000000	64.452981 
1437.000000	64.456820 
1436.000000	64.452409 
1435.000000	64.439868 
1434.000000	64.420604 
1433.000000	64.397168 
1432.000000	64.372801 
1431.000000	64.350914 
1430.000000	64.334273 
1429.000000	64.324688 
1428.000000	64.322495 
1427.000000	64.326643 
1426.000000	64.334964 
1425.000000	64.344501 
1424.000000	64.352416 
1423.000000	64.356350 
1422.000000	64.355039 
1421.000000	64.348268 
1420.000000	64.336967 
1419.000000	64.322566 
1418.000000	64.306950 
1417.000000	64.291810 
1416.000000	64.278411 
1415.000000	64.267396 
1414.000000	64.258909 
1413.000000	64.252638 
1412.000000	64.248013 
1411.000000	64.244437 
1410.000000	64.241433 
1409.000000	64.238691 
1408.000000	64.236259 
1407.000000	64.234519 
1406.000000	64.233899 
1405.000000	64.234948 
1404.000000	64.237999 
1403.000000	64.242935 
1402.000000	64.249324 
1401.000000	64.256310 
1400.000000	64.262723 
1399.000000	64.267396 
1398.000000	64.269447 
1397.000000	64.268636 
1396.000000	64.265465 
1395.000000	64.261126 
1394.000000	64.257240 
1393.000000	64.255499 
1392.000000	64.257192 
1391.000000	64.262676 
1390.000000	64.271283 
1389.000000	64.281201 
1388.000000	64.290118 
1387.000000	64.295625 
1386.000000	64.295983 
1385.000000	64.290475 
1384.000000	64.279913 
1383.000000	64.266228 
1382.000000	64.252424 
1381.000000	64.241671 
1380.000000	64.236593 
1379.000000	64.238739 
1378.000000	64.248156 
1377.000000	64.263510 
1376.000000	64.282178 
1375.000000	64.300990 
1374.000000	64.316773 
1373.000000	64.326882 
1372.000000	64.329576 
1371.000000	64.324307 
1370.000000	64.311456 
1369.000000	64.292287 
1368.000000	64.268422 
1367.000000	64.241743 
1366.000000	64.214158 
1365.000000	64.187407 
1364.000000	64.163112 
1363.000000	64.142608 
1362.000000	64.126992 
1361.000000	64.117002 
1360.000000	64.112877 
1359.000000	64.114236 
1358.000000	64.120054 
1357.000000	64.128899 
1356.000000	64.138865 
1355.000000	64.148235 
1354.000000	64.155721 
1353.000000	64.160895 
1352.000000	64.163947 
1351.000000	64.165854 
1350.000000	64.167785 
1349.000000	64.171051 
1348.000000	64.176487 
1347.000000	64.184546 
1346.000000	64.195203 
1345.000000	64.208054 
1344.000000	64.222645 
1343.000000	64.238286 
1342.000000	64.254283 
1341.000000	64.269781 
1340.000000	64.283704 
1339.000000	64.294695 
1338.000000	64.301156 
1337.000000	64.301681 
1336.000000	64.295387 
1335.000000	64.282178 
1334.000000	64.262890 
1333.000000	64.239406 
1332.000000	64.214301 
1331.000000	64.190244 
1330.000000	64.169406 
1329.000000	64.153003 
1328.000000	64.141225 
1327.000000	64.133262 
1326.000000	64.127659 
1325.000000	64.122748 
1324.000000	64.117383 
1323.000000	64.110994 
1322.000000	64.103794 
1321.000000	64.096474 
1320.000000	64.090013 
1319.000000	64.085435 
1318.000000	64.083552 
1317.000000	64.084506 
1316.000000	64.088344 
1315.000000	64.094734 
1314.000000	64.103317 
1313.000000	64.113664 
1312.000000	64.125537 
1311.000000	64.138722 
1310.000000	64.152979 
1309.000000	64.167690 
1308.000000	64.182066 
1307.000000	64.194989 
1306.000000	64.205360 
1305.000000	64.212226 
1304.000000	64.214968 
1303.000000	64.213514 
1302.000000	64.208507 
1301.000000	64.200925 
1300.000000	64.191961 
1299.000000	64.182686 
1298.000000	64.174056 
1297.000000	64.166522 
1296.000000	64.160180 
1295.000000	64.154791 
1294.000000	64.150142 
1293.000000	64.145946 
1292.000000	64.142322 
1291.000000	64.139413 
1290.000000	64.137315 
1289.000000	64.136075 
1288.000000	64.135551 
1287.000000	64.135408 
1286.000000	64.135050 
1285.000000	64.134240 
1284.000000	64.132952 
1283.000000	64.131665 
1282.000000	64.131212 
1281.000000	64.132523 
1280.000000	64.136338 
1279.000000	64.142751 
1278.000000	64.151096 
1277.000000	64.160108 
1276.000000	64.168238 
1275.000000	64.173936 
1274.000000	64.175963 
1273.000000	64.174175 
1272.000000	64.169216 
1271.000000	64.162683 
1270.000000	64.156436 
1269.000000	64.152407 
1268.000000	64.151763 
1267.000000	64.154887 
1266.000000	64.161038 
1265.000000	64.168357 
1264.000000	64.174389 
1263.000000	64.176774 
1262.000000	64.173960 
1261.000000	64.165520 
1260.000000	64.152550 
1259.000000	64.137387 
1258.000000	64.123129 
1257.000000	64.112901 
1256.000000	64.109063 
1255.000000	64.112448 
1254.000000	64.122319 
1253.000000	64.136266 
1252.000000	64.150810 
1251.000000	64.162087 
1250.000000	64.166808 
1249.000000	64.162802 
1248.000000	64.149618 
1247.000000	64.128661 
1246.000000	64.102625 
1245.000000	64.075398 
1244.000000	64.051055 
1243.000000	64.033269 
1242.000000	64.024829 
1241.000000	64.027285 
1240.000000	64.040660 
1239.000000	64.063763 
1238.000000	64.094376 
1237.000000	64.129495 
1236.000000	64.165806 
1235.000000	64.199829 
1234.000000	64.228415 
1233.000000	64.248967 
1232.000000	64.259648 
1231.000000	64.259696 
1230.000000	64.249539 
1229.000000	64.230728 
1228.000000	64.205837 
1227.000000	64.177966 
1226.000000	64.150261 
1225.000000	64.125537 
1224.000000	64.106035 
1223.000000	64.093184 
1222.000000	64.087677 
1221.000000	64.089512 
1220.000000	64.097952 
1219.000000	64.111900 
1218.000000	64.129734 
1217.000000	64.149332 
1216.000000	64.168262 
1215.000000	64.183902 
1214.000000	64.193725 
1213.000000	64.195847 
1212.000000	64.189243 
1211.000000	64.174032 
1210.000000	64.151763 
1209.000000	64.125204 
1208.000000	64.097809 
1207.000000	64.073204 
1206.000000	64.054346 
1205.000000	64.043021 
1204.000000	64.039564 
1203.000000	64.043045 
1202.000000	64.051389 
1201.000000	64.061880 
1200.000000	64.071750 
1199.000000	64.078736 
1198.000000	64.081501 
1197.000000	64.079594 
1196.000000	64.073371 
1195.000000	64.063906 
1194.000000	64.052653 
1193.000000	64.040970 
1192.000000	64.030051 
1191.000000	64.020824 
1190.000000	64.013838 
1189.000000	64.009594 
1188.000000	64.008378 
1187.000000	64.010548 
1186.000000	64.016318 
1185.000000	64.025616 
1184.000000	64.038014 
1183.000000	64.052438 
1182.000000	64.067244 
1181.000000	64.080357 
1180.000000	64.089560 
1179.000000	64.092969 
1178.000000	64.089560 
1177.000000	64.079403 
1176.000000	64.063835 
1175.000000	64.045310 
1174.000000	64.026904 
1173.000000	64.011740 
1172.000000	64.002227 
1171.000000	63.999509 
1170.000000	64.003276 
1169.000000	64.011812 
1168.000000	64.022541 
1167.000000	64.032554 
1166.000000	64.039349 
1165.000000	64.041399 
1164.000000	64.038586 
1163.000000	64.031958 
1162.000000	64.023494 
1161.000000	64.015316 
1160.000000	64.009213 
1159.000000	64.006233 
1158.000000	64.006423 
1157.000000	64.009046 
1156.000000	64.012813 
1155.000000	64.016461 
1154.000000	64.019060 
1153.000000	64.020180 
1152.000000	64.019751 
1151.000000	64.018225 
1150.000000	64.015960 
1149.000000	64.013171 
1148.000000	64.009809 
1147.000000	64.005422 
1146.000000	63.999223 
1145.000000	63.990640 
1144.000000	63.979291 
1143.000000	63.965249 
1142.000000	63.949298 
1141.000000	63.932943 
1140.000000	63.917899 
1139.000000	63.906097 
1138.000000	63.898897 
1137.000000	63.896846 
1136.000000	63.899779 
1135.000000	63.906717 
1134.000000	63.916277 
1133.000000	63.927006 
1132.000000	63.937687 
1131.000000	63.947534 
1130.000000	63.955807 
1129.000000	63.962078 
1128.000000	63.966178 
1127.000000	63.968181 
1126.000000	63.968706 
1125.000000	63.968801 
1124.000000	63.969850 
1123.000000	63.972854 
1122.000000	63.978219 
1121.000000	63.985204 
1120.000000	63.992214 
1119.000000	63.997077 
1118.000000	63.997483 
1117.000000	63.991832 
1116.000000	63.979697 
1115.000000	63.961839 
1114.000000	63.940358 
1113.000000	63.917756 
1112.000000	63.897228 
1111.000000	63.881945 
1110.000000	63.874697 
1109.000000	63.877558 
1108.000000	63.891315 
1107.000000	63.915395 
1106.000000	63.947772 
1105.000000	63.984894 
1104.000000	64.022731 
1103.000000	64.056944 
1102.000000	64.084076 
1101.000000	64.101719 
1100.000000	64.109158 
1099.000000	64.107251 
1098.000000	64.098215 
1097.000000	64.085102 
1096.000000	64.071178 
1095.000000	64.059305 
1094.000000	64.051365 
1093.000000	64.048075 
1092.000000	64.048910 
1091.000000	64.052343 
1090.000000	64.056134 
1089.000000	64.057993 
1088.000000	64.056015 
1087.000000	64.048933 
1086.000000	64.036464 
1085.000000	64.019346 
1084.000000	63.998937 
1083.000000	63.977122 
1082.000000	63.955926 
1081.000000	63.937020 
1080.000000	63.921570 
1079.000000	63.910007 
1078.000000	63.902068 
1077.000000	63.897228 
1076.000000	63.894987 
1075.000000	63.895130 
1074.000000	63.897681 
1073.000000	63.903021 
1072.000000	63.911628 
1071.000000	63.923740 
1070.000000	63.938832 
1069.000000	63.955760 
1068.000000	63.972592 
1067.000000	63.986921 
1066.000000	63.996386 
1065.000000	63.999152 
1064.000000	63.994216 
1063.000000	63.981986 
1062.000000	63.964390 
1061.000000	63.944363 
1060.000000	63.925576 
1059.000000	63.911533 
1058.000000	63.905024 
1057.000000	63.907384 
1056.000000	63.918161 
1055.000000	63.935494 
1054.000000	63.956117 
1053.000000	63.976168 
1052.000000	63.992071 
1051.000000	64.001250 
1050.000000	64.002656 
1049.000000	63.997006 
1048.000000	63.986539 
1047.000000	63.974308 
1046.000000	63.963389 
1045.000000	63.955950 
1044.000000	63.952946 
1043.000000	63.953948 
1042.000000	63.957643 
1041.000000	63.962435 
1040.000000	63.967061 
1039.000000	63.971090 
1038.000000	63.974738 
1037.000000	63.978838 
1036.000000	63.984084 
1035.000000	63.990783 
1034.000000	63.998508 
1033.000000	64.006257 
1032.000000	64.012765 
1031.000000	64.017033 
1030.000000	64.018535 
1029.000000	64.017391 
1028.000000	64.014625 
1027.000000	64.011645 
1026.000000	64.009618 
1025.000000	64.009237 
1024.000000	64.010381 
1023.000000	64.012241 
1022.000000	64.013719 
1021.000000	64.013743 
1020.000000	64.011788 
1019.000000	64.007830 
1018.000000	64.002585 
1017.000000	63.996863 
1016.000000	63.991355 
1015.000000	63.986253 
1014.000000	63.981127 
1013.000000	63.975143 
1012.000000	63.967442 
1011.000000	63.957428 
1010.000000	63.945293 
1009.000000	63.932228 
1008.000000	63.920474 
1007.000000	63.913106 
1006.000000	63.913226 
1005.000000	63.923239 
1004.000000	63.943958 
1003.000000	63.974285 
1002.000000	64.011168 
1001.000000	64.050006 
1000.000000	64.085531 
999.000000	 64.113044 
998.000000	 64.129114 
997.000000	 64.132452 
996.000000	 64.123868 
995.000000	 64.106011 
994.000000	 64.082551 
993.000000	 64.057207 
992.000000	 64.033126 
991.000000	 64.012432 
990.000000	 63.996291 
989.000000	 63.985061 
988.000000	 63.979029 
987.000000	 63.978815 
986.000000	 63.985276 
985.000000	 63.999485 
984.000000	 64.021539 
983.000000	 64.050173 
982.000000	 64.082527 
981.000000	 64.114403 
980.000000	 64.141011 
979.000000	 64.158082 
978.000000	 64.163136 
977.000000	 64.156174 
976.000000	 64.139723 
975.000000	 64.118289 
974.000000	 64.097094 
973.000000	 64.080858 
972.000000	 64.072656 
971.000000	 64.073133 
970.000000	 64.080715 
969.000000	 64.091897 
968.000000	 64.102673 
967.000000	 64.109086 
966.000000	 64.108538 
965.000000	 64.099788 
964.000000	 64.083218 
963.000000	 64.060735 
962.000000	 64.034795 
961.000000	 64.008879 
960.000000	 63.986515 
959.000000	 63.971447 
958.000000	 63.966870 
957.000000	 63.975214 
956.000000	 63.997554 
955.000000	 64.032769 
954.000000	 64.077615 
953.000000	 64.126825 
952.000000	 64.173960 
951.000000	 64.212179 
950.000000	 64.235854 
949.000000	 64.241743 
948.000000	 64.229702 
947.000000	 64.202857 
946.000000	 64.166760 
945.000000	 64.128017 
944.000000	 64.092946 
943.000000	 64.066386 
942.000000	 64.050626 
941.000000	 64.045453 
940.000000	 64.048480 
939.000000	 64.056515 
938.000000	 64.066076 
937.000000	 64.074659 
936.000000	 64.080643 
935.000000	 64.083528 
934.000000	 64.083743 
933.000000	 64.082026 
932.000000	 64.078998 
931.000000	 64.074707 
930.000000	 64.068770 
929.000000	 64.060449 
928.000000	 64.049172 
927.000000	 64.035058 
926.000000	 64.018774 
925.000000	 64.002037 
924.000000	 63.986897 
923.000000	 63.975858 
922.000000	 63.971233 
921.000000	 63.974690 
920.000000	 63.986659 
919.000000	 64.006352 
918.000000	 64.031815 
917.000000	 64.060306 
916.000000	 64.088678 
915.000000	 64.113998 
914.000000	 64.133787 
913.000000	 64.146733 
912.000000	 64.152789 
911.000000	 64.152622 
910.000000	 64.147233 
909.000000	 64.137697 
908.000000	 64.124846 
907.000000	 64.109158 
906.000000	 64.091062 
905.000000	 64.071178 
904.000000	 64.050650 
903.000000	 64.031863 
902.000000	 64.018011 
901.000000	 64.012813 
900.000000	 64.019417 
899.000000	 64.039468 
898.000000	 64.072084 
897.000000	 64.113712 
896.000000	 64.158439 
895.000000	 64.199042 
894.000000	 64.228439 
893.000000	 64.241266 
892.000000	 64.235162 
891.000000	 64.211034 
890.000000	 64.173197 
889.000000	 64.127969 
888.000000	 64.082598 
887.000000	 64.043593 
886.000000	 64.015603 
885.000000	 64.000725 
884.000000	 63.998484 
883.000000	 64.006519 
882.000000	 64.021229 
881.000000	 64.038896 
880.000000	 64.056253 
879.000000	 64.071249 
878.000000	 64.083003 
877.000000	 64.091372 
876.000000	 64.097166 
875.000000	 64.101457 
874.000000	 64.105653 
873.000000	 64.110827 
872.000000	 64.117670 
871.000000	 64.126133 
870.000000	 64.135575 
869.000000	 64.144468 
868.000000	 64.150500 
867.000000	 64.151167 
866.000000	 64.144015 
865.000000	 64.127731 
864.000000	 64.102649 
863.000000	 64.071035 
862.000000	 64.036679 
861.000000	 64.004445 
860.000000	 63.979244 
859.000000	 63.964724 
858.000000	 63.962483 
857.000000	 63.971447 
856.000000	 63.988327 
855.000000	 64.008259 
854.000000	 64.026069 
853.000000	 64.037346 
852.000000	 64.039587 
851.000000	 64.032506 
850.000000	 64.017868 
849.000000	 63.999056 
848.000000	 63.980031 
847.000000	 63.964462 
846.000000	 63.954806 
845.000000	 63.952350 
844.000000	 63.957214 
843.000000	 63.968682 
842.000000	 63.985323 
841.000000	 64.005255 
840.000000	 64.026665 
839.000000	 64.047598 
838.000000	 64.066362 
837.000000	 64.081263 
836.000000	 64.091062 
835.000000	 64.095020 
834.000000	 64.092874 
833.000000	 64.084768 
832.000000	 64.071202 
831.000000	 64.053225 
830.000000	 64.031887 
829.000000	 64.008069 
828.000000	 63.982629 
827.000000	 63.956785 
826.000000	 63.931441 
825.000000	 63.907313 
824.000000	 63.885045 
823.000000	 63.865137 
822.000000	 63.847661 
821.000000	 63.832449 
820.000000	 63.818693 
819.000000	 63.805580 
818.000000	 63.792681 
817.000000	 63.780403 
816.000000	 63.769936 
815.000000	 63.763427 
814.000000	 63.763499 
813.000000	 63.772678 
812.000000	 63.792204 
811.000000	 63.821792 
810.000000	 63.859486 
809.000000	 63.901972 
808.000000	 63.944458 
807.000000	 63.982510 
806.000000	 64.012312 
805.000000	 64.032363 
804.000000	 64.043426 
803.000000	 64.049029 
802.000000	 64.054441 
801.000000	 64.065504 
800.000000	 64.087176 
799.000000	 64.121794 
798.000000	 64.168143 
797.000000	 64.221405 
796.000000	 64.274144 
795.000000	 64.317989 
794.000000	 64.345645 
793.000000	 64.352965 
792.000000	 64.339447 
791.000000	 64.308476 
790.000000	 64.265656 
789.000000	 64.217758 
788.000000	 64.170169 
787.000000	 64.125609 
786.000000	 64.083552 
785.000000	 64.040994 
784.000000	 63.994121 
783.000000	 63.940429 
782.000000	 63.880348 
781.000000	 63.817596 
780.000000	 63.759446 
779.000000	 63.714623 
778.000000	 63.691377 
777.000000	 63.694405 
776.000000	 63.723993 
775.000000	 63.775157 
774.000000	 63.838577 
773.000000	 63.902187 
772.000000	 63.953709 
771.000000	 63.983225 
770.000000	 63.984870 
769.000000	 63.957929 
768.000000	 63.906598 
767.000000	 63.839077 
766.000000	 63.765621 
765.000000	 63.696742 
764.000000	 63.641691 
763.000000	 63.606667 
762.000000	 63.594460 
761.000000	 63.603973 
760.000000	 63.631224 
759.000000	 63.670253 
758.000000	 63.713598 
757.000000	 63.754391 
756.000000	 63.787007 
755.000000	 63.808536 
754.000000	 63.817954 
753.000000	 63.817024 
752.000000	 63.809084 
751.000000	 63.798332 
750.000000	 63.788795 
749.000000	 63.783311 
748.000000	 63.783049 
747.000000	 63.787412 
746.000000	 63.794803 
745.000000	 63.802933 
744.000000	 63.809871 
743.000000	 63.814592 
742.000000	 63.817453 
741.000000	 63.819766 
740.000000	 63.823103 
739.000000	 63.829040 
738.000000	 63.838028 
737.000000	 63.848519 
736.000000	 63.856482 
735.000000	 63.857460 
734.000000	 63.845992 
733.000000	 63.816642 
732.000000	 63.765144 
731.000000	 63.689804 
730.000000	 63.592481 
729.000000	 63.478398 
728.000000	 63.355970 
727.000000	 63.234972 
726.000000	 63.125824 
725.000000	 63.038158 
724.000000	 62.978982 
723.000000	 62.950825 
722.000000	 62.952351 
721.000000	 62.978529 
720.000000	 63.021850 
719.000000	 63.073348 
718.000000	 63.125777 
717.000000	 63.174629 
716.000000	 63.219428 
715.000000	 63.263010 
714.000000	 63.311123 
713.000000	 63.370561 
712.000000	 63.447856 
711.000000	 63.547658 
710.000000	 63.671636 
709.000000	 63.817214 
708.000000	 63.979339 
707.000000	 64.148664 
706.000000	 64.313530 
705.000000	 64.459443 
704.000000	 64.572620 
703.000000	 64.640307 
702.000000	 64.653706 
701.000000	 64.609050 
700.000000	 64.510273 
699.000000	 64.366936 
698.000000	 64.194416 
697.000000	 64.009761 
696.000000	 63.831281 
695.000000	 63.672685 
694.000000	 63.542056 
693.000000	 63.440632 
692.000000	 63.364005 
691.000000	 63.305974 
690.000000	 63.261699 
689.000000	 63.229775 
688.000000	 63.213181 
687.000000	 63.218903 
686.000000	 63.255667 
685.000000	 63.329577 
684.000000	 63.441491 
683.000000	 63.586759 
682.000000	 63.754558 
681.000000	 63.929748 
680.000000	 64.094948 
679.000000	 64.234018 
678.000000	 64.334940 
677.000000	 64.390730 
676.000000	 64.401936 
675.000000	 64.376473 
674.000000	 64.327621 
673.000000	 64.272642 
672.000000	 64.227056 
671.000000	 64.203095 
670.000000	 64.204549 
669.000000	 64.228987 
668.000000	 64.264941 
667.000000	 64.296460 
666.000000	 64.305877 
665.000000	 64.279580 
664.000000	 64.210319 
663.000000	 64.099431 
662.000000	 63.957238 
661.000000	 63.800954 
660.000000	 63.650631 
659.000000	 63.524556 
658.000000	 63.435506 
657.000000	 63.388133 
656.000000	 63.378596 
655.000000	 63.396239 
654.000000	 63.426327 
653.000000	 63.454675 
652.000000	 63.470458 
651.000000	 63.470005 
650.000000	 63.454341 
649.000000	 63.431453 
648.000000	 63.413000 
647.000000	 63.412046 
646.000000	 63.438105 
645.000000	 63.495850 
644.000000	 63.583970 
643.000000	 63.694834 
642.000000	 63.816714 
641.000000	 63.935303 
640.000000	 64.036917 
639.000000	 64.111042 
638.000000	 64.152288 
637.000000	 64.160370 
636.000000	 64.139652 
635.000000	 64.098262 
634.000000	 64.046144 
633.000000	 63.993668 
632.000000	 63.949584 
631.000000	 63.921403 
630.000000	 63.913702 
629.000000	 63.927745 
628.000000	 63.960504 
627.000000	 64.006686 
626.000000	 64.057874 
625.000000	 64.103603 
624.000000	 64.132857 
623.000000	 64.135146 
622.000000	 64.103364 
621.000000	 64.035415 
620.000000	 63.935422 
619.000000	 63.812565 
618.000000	 63.680624 
617.000000	 63.555526 
616.000000	 63.452482 
615.000000	 63.382887 
614.000000	 63.353157 
613.000000	 63.363909 
612.000000	 63.410139 
611.000000	 63.482499 
610.000000	 63.570117 
609.000000	 63.662624 
608.000000	 63.752198 
607.000000	 63.834333 
606.000000	 63.908839 
605.000000	 63.978314 
604.000000	 64.047360 
603.000000	 64.119505 
602.000000	 64.196085 
601.000000	 64.273691 
600.000000	 64.345383 
599.000000	 64.400172 
598.000000	 64.426636 
597.000000	 64.414405 
596.000000	 64.358067 
595.000000	 64.258170 
594.000000	 64.122605 
593.000000	 63.964724 
592.000000	 63.801908 
591.000000	 63.651061 
590.000000	 63.525271 
589.000000	 63.431429 
588.000000	 63.369727 
587.000000	 63.334798 
586.000000	 63.317298 
585.000000	 63.308978 
584.000000	 63.304495 
583.000000	 63.304066 
582.000000	 63.312220 
581.000000	 63.336229 
580.000000	 63.382411 
579.000000	 63.453412 
578.000000	 63.545680 
577.000000	 63.648033 
576.000000	 63.743162 
575.000000	 63.812494 
574.000000	 63.839817 
573.000000	 63.815093 
572.000000	 63.737463 
571.000000	 63.616108 
570.000000	 63.468933 
569.000000	 63.317584 
568.000000	 63.184094 
567.000000	 63.086771 
566.000000	 63.037157 
565.000000	 63.038706 
564.000000	 63.087153 
563.000000	 63.171911 
562.000000	 63.280034 
561.000000	 63.398814 
560.000000	 63.518452 
559.000000	 63.632035 
558.000000	 63.736605 
557.000000	 63.831400 
556.000000	 63.915443 
555.000000	 63.985538 
554.000000	 64.035844 
553.000000	 64.058494 
552.000000	 64.045166 
551.000000	 63.989162 
550.000000	 63.888382 
549.000000	 63.746166 
548.000000	 63.571000 
547.000000	 63.374948 
546.000000	 63.171982 
545.000000	 62.975263 
544.000000	 62.795305 
543.000000	 62.639212 
542.000000	 62.510061 
541.000000	 62.408924 
540.000000	 62.334871 
539.000000	 62.287926 
538.000000	 62.268018 
537.000000	 62.276887 
536.000000	 62.315034 
535.000000	 62.382531 
534.000000	 62.476181 
533.000000	 62.590312 
532.000000	 62.715983 
531.000000	 62.842392 
530.000000	 62.957525 
529.000000	 63.051462 
528.000000	 63.117933 
527.000000	 63.155007 
526.000000	 63.165140 
525.000000	 63.155293 
524.000000	 63.134980 
523.000000	 63.114643 
522.000000	 63.103222 
521.000000	 63.106799 
520.000000	 63.127255 
519.000000	 63.163256 
518.000000	 63.210511 
517.000000	 63.262462 
516.000000	 63.312578 
515.000000	 63.356757 
514.000000	 63.393568 
513.000000	 63.423132 
512.000000	 63.447594 
511.000000	 63.470983 
510.000000	 63.496208 
509.000000	 63.524198 
508.000000	 63.552522 
507.000000	 63.576841 
506.000000	 63.590502 
505.000000	 63.586878 
504.000000	 63.560223 
503.000000	 63.507819 
502.000000	 63.430619 
501.000000	 63.333892 
500.000000	 63.225626 
499.000000	 63.115072 
498.000000	 63.011574 
497.000000	 62.923169 
496.000000	 62.854385 
495.000000	 62.806940 
494.000000	 62.780284 
493.000000	 62.773466 
492.000000	 62.785124 
491.000000	 62.815451 
490.000000	 62.864875 
489.000000	 62.935376 
488.000000	 63.027381 
487.000000	 63.140845 
486.000000	 63.273882 
485.000000	 63.422107 
484.000000	 63.578438 
483.000000	 63.732790 
482.000000	 63.874077 
481.000000	 63.990640 
480.000000	 64.072418 
479.000000	 64.112806 
478.000000	 64.110779 
477.000000	 64.070415 
476.000000	 64.000606 
475.000000	 63.912892 
474.000000	 63.819789 
473.000000	 63.730955 
472.000000	 63.651895 
471.000000	 63.583445 
470.000000	 63.523292 
469.000000	 63.467812 
468.000000	 63.414740 
467.000000	 63.364696 
466.000000	 63.321518 
465.000000	 63.292479 
464.000000	 63.284969 
463.000000	 63.302326 
462.000000	 63.342118 
461.000000	 63.395261 
460.000000	 63.447809 
459.000000	 63.483834 
458.000000	 63.489413 
457.000000	 63.457369 
456.000000	 63.387703 
455.000000	 63.288474 
454.000000	 63.171434 
453.000000	 63.049674 
452.000000	 62.931752 
451.000000	 62.820672 
450.000000	 62.711429 
449.000000	 62.593889 
448.000000	 62.456345 
447.000000	 62.290978 
446.000000	 62.097001 
445.000000	 61.883258 
444.000000	 61.667585 
443.000000	 61.474561 
442.000000	 61.328482 
441.000000	 61.249828 
440.000000	 61.252832 
439.000000	 61.343097 
438.000000	 61.515140 
437.000000	 61.754298 
436.000000	 62.038636 
435.000000	 62.343502 
434.000000	 62.640762 
433.000000	 62.907075 
432.000000	 63.129591 
431.000000	 63.303947 
430.000000	 63.430523 
429.000000	 63.514041 
428.000000	 63.563418 
427.000000	 63.585758 
426.000000	 63.587498 
425.000000	 63.570237 
424.000000	 63.530111 
423.000000	 63.466668 
422.000000	 63.391494 
421.000000	 63.313341 
420.000000	 63.234376 
419.000000	 63.159322 
418.000000	 63.095140 
417.000000	 63.030958 
416.000000	 62.941813 
415.000000	 62.797927 
414.000000	 62.573909 
413.000000	 62.266898 
412.000000	 61.894440 
411.000000	 61.492109 
410.000000	 61.096239 
409.000000	 60.744333 
408.000000	 60.446619 
407.000000	 60.178470 
406.000000	 59.882211 
405.000000	 59.479475 
404.000000	 58.903074 
403.000000	 58.107018 
402.000000	 57.112932 
401.000000	 55.999517 
400.000000	 54.924225 
399.000000	 54.069805 
398.000000	 53.647685 
397.000000	 53.832101 
396.000000	 54.754424 
395.000000	 56.449174 
394.000000	 58.894205 
393.000000	 62.004208 
392.000000	 65.627646 
391.000000	 69.547271 
390.000000	 73.485898 
389.000000	 77.120065 
388.000000	 80.093240 
387.000000	 82.062649 
386.000000	 82.762694 
385.000000	 82.055425 
384.000000	 79.994940 
383.000000	 76.814508 
382.000000	 72.907781 
381.000000	 68.751549 
380.000000	 64.843106 
379.000000	 61.600112 
378.000000	 59.319567 
377.000000	 58.122682 
376.000000	 57.954812 
375.000000	 58.623504 
374.000000	 59.892678 
373.000000	 61.483240 
372.000000	 63.116836 
371.000000	 64.535045 
370.000000	 65.519332 

