PE IR       SPECTRUM    SPECTRUM    ASCII       PEDS        1.60        
  -1
BZ6EA0~1.ASC
17/04/07
16:10:31.00
17/04/07
16:10:31.00
tln
$BZ1503107-1_t0036$<tbV0>[7.8,-5.2,8.0,0.0,27,1,0]
370.000000
64









2002,4.07    
MIRTGS : RIGHTBACK : INTERNAL 2
MIR : ON : INTERNAL 2
OPTKBR

0.200000
8
8.000000
FILLER
RATIO
SPECTRUM
UNLOCKED 256

DOUBLE
64
COMBINED
1
0
0


1.000000
RATIO


1
0
TRUE
51149
0
LEFT NOT FITTED RIGHT NOT FITTED 0
NONE
NONE
15600
12.000000
4.427000
51148
TRUE
1 0 8 72 0 0 0 0 

15798.010000






#HDR
-1
-1
#GR
CM-1
%T
0.00002384185791015625
0.0
5000.000000
-1.000000
4631
8
77.558159
40.458679
#DATA
5000.000000	65.372896 
4999.000000	65.245127 
4998.000000	65.123152 
4997.000000	65.019035 
4996.000000	64.940237 
4995.000000	64.890146 
4994.000000	64.867353 
4993.000000	64.867711 
4992.000000	64.884924 
4991.000000	64.912509 
4990.000000	64.943766 
4989.000000	64.971709 
4988.000000	64.990615 
4987.000000	64.995837 
4986.000000	64.985060 
4985.000000	64.957976 
4984.000000	64.917755 
4983.000000	64.870214 
4982.000000	64.822912 
4981.000000	64.783191 
4980.000000	64.757013 
4979.000000	64.746856 
4978.000000	64.751267 
4977.000000	64.764595 
4976.000000	64.778017 
4975.000000	64.781522 
4974.000000	64.766621 
4973.000000	64.728546 
4972.000000	64.666986 
4971.000000	64.586782 
4970.000000	64.496803 
4969.000000	64.407920 
4968.000000	64.330506 
4967.000000	64.271688 
4966.000000	64.234733 
4965.000000	64.217305 
4964.000000	64.212799 
4963.000000	64.211916 
4962.000000	64.204835 
4961.000000	64.184403 
4960.000000	64.147806 
4959.000000	64.097547 
4958.000000	64.040374 
4957.000000	63.986134 
4956.000000	63.945055 
4955.000000	63.926005 
4954.000000	63.934421 
4953.000000	63.970804 
4952.000000	64.031410 
4951.000000	64.109802 
4950.000000	64.198851 
4949.000000	64.291906 
4948.000000	64.384388 
4947.000000	64.473915 
4946.000000	64.559340 
4945.000000	64.639401 
4944.000000	64.711117 
4943.000000	64.770197 
4942.000000	64.809918 
4941.000000	64.823698 
4940.000000	64.805102 
4939.000000	64.752173 
4938.000000	64.665722 
4937.000000	64.550733 
4936.000000	64.415192 
4935.000000	64.269614 
4934.000000	64.125633 
4933.000000	63.994431 
4932.000000	63.886666 
4931.000000	63.811278 
4930.000000	63.775968 
4929.000000	63.786029 
4928.000000	63.843917 
4927.000000	63.947796 
4926.000000	64.090752 
4925.000000	64.260768 
4924.000000	64.440870 
4923.000000	64.612007 
4922.000000	64.755654 
4921.000000	64.857506 
4920.000000	64.909577 
4919.000000	64.912176 
4918.000000	64.873886 
4917.000000	64.809370 
4916.000000	64.736342 
4915.000000	64.671397 
4914.000000	64.627957 
4913.000000	64.612770 
4912.000000	64.627337 
4911.000000	64.666318 
4910.000000	64.720726 
4909.000000	64.779281 
4908.000000	64.832019 
4907.000000	64.871072 
4906.000000	64.892077 
4905.000000	64.894580 
4904.000000	64.881086 
4903.000000	64.856147 
4902.000000	64.825081 
4901.000000	64.793372 
4900.000000	64.765334 
4899.000000	64.744091 
4898.000000	64.730596 
4897.000000	64.723896 
4896.000000	64.721250 
4895.000000	64.718818 
4894.000000	64.713191 
4893.000000	64.700627 
4892.000000	64.680147 
4891.000000	64.653062 
4890.000000	64.624810 
4889.000000	64.602494 
4888.000000	64.595127 
4887.000000	64.611339 
4886.000000	64.657044 
4885.000000	64.734005 
4884.000000	64.837980 
4883.000000	64.959478 
4882.000000	65.084648 
4881.000000	65.198230 
4880.000000	65.286397 
4879.000000	65.339636 
4878.000000	65.354514 
4877.000000	65.334105 
4876.000000	65.286421 
4875.000000	65.222096 
4874.000000	65.151929 
4873.000000	65.084314 
4872.000000	65.023565 
4871.000000	64.969873 
4870.000000	64.921140 
4869.000000	64.874601 
4868.000000	64.828872 
4867.000000	64.785647 
4866.000000	64.749360 
4865.000000	64.726781 
4864.000000	64.724826 
4863.000000	64.748501 
4862.000000	64.798092 
4861.000000	64.868807 
4860.000000	64.950990 
4859.000000	65.031814 
4858.000000	65.097784 
4857.000000	65.137863 
4856.000000	65.145468 
4855.000000	65.120482 
4854.000000	65.068721 
4853.000000	65.001726 
4852.000000	64.933896 
4851.000000	64.879870 
4850.000000	64.851284 
4849.000000	64.855337 
4848.000000	64.893579 
4847.000000	64.961886 
4846.000000	65.051507 
4845.000000	65.151095 
4844.000000	65.248727 
4843.000000	65.333938 
4842.000000	65.398836 
4841.000000	65.438365 
4840.000000	65.450453 
4839.000000	65.435576 
4838.000000	65.396451 
4837.000000	65.337419 
4836.000000	65.264344 
4835.000000	65.184283 
4834.000000	65.104866 
4833.000000	65.034365 
4832.000000	64.980077 
4831.000000	64.947867 
4830.000000	64.940428 
4829.000000	64.957237 
4828.000000	64.993762 
4827.000000	65.041851 
4826.000000	65.091681 
4825.000000	65.133404 
4824.000000	65.159392 
4823.000000	65.165257 
4822.000000	65.151071 
4821.000000	65.120816 
4820.000000	65.081739 
4819.000000	65.042352 
4818.000000	65.010738 
4817.000000	64.992189 
4816.000000	64.988946 
4815.000000	64.999032 
4814.000000	65.017271 
4813.000000	65.036273 
4812.000000	65.048098 
4811.000000	65.046310 
4810.000000	65.027475 
4809.000000	64.991927 
4808.000000	64.943456 
4807.000000	64.888072 
4806.000000	64.832377 
4805.000000	64.782023 
4804.000000	64.740848 
4803.000000	64.710092 
4802.000000	64.688467 
4801.000000	64.673399 
4800.000000	64.662384 
4799.000000	64.653873 
4798.000000	64.647746 
4797.000000	64.645290 
4796.000000	64.648485 
4795.000000	64.659047 
4794.000000	64.677405 
4793.000000	64.702486 
4792.000000	64.731597 
4791.000000	64.761567 
4790.000000	64.789342 
4789.000000	64.813256 
4788.000000	64.832997 
4787.000000	64.849328 
4786.000000	64.863467 
4785.000000	64.876174 
4784.000000	64.887785 
4783.000000	64.897966 
4782.000000	64.906048 
4781.000000	64.912009 
4780.000000	64.916348 
4779.000000	64.920711 
4778.000000	64.927363 
4777.000000	64.938807 
4776.000000	64.956569 
4775.000000	64.980506 
4774.000000	65.008878 
4773.000000	65.038514 
4772.000000	65.066146 
4771.000000	65.089154 
4770.000000	65.106749 
4769.000000	65.120363 
4768.000000	65.133190 
4767.000000	65.149354 
4766.000000	65.172410 
4765.000000	65.204262 
4764.000000	65.244364 
4763.000000	65.289592 
4762.000000	65.334916 
4761.000000	65.374350 
4760.000000	65.402150 
4759.000000	65.413832 
4758.000000	65.407013 
4757.000000	65.382003 
4756.000000	65.341973 
4755.000000	65.292334 
4754.000000	65.239834 
4753.000000	65.191459 
4752.000000	65.153574 
4751.000000	65.130591 
4750.000000	65.124654 
4749.000000	65.134835 
4748.000000	65.157604 
4747.000000	65.187501 
4746.000000	65.217876 
4745.000000	65.242624 
4744.000000	65.257000 
4743.000000	65.258979 
4742.000000	65.249228 
4741.000000	65.230894 
4740.000000	65.208578 
4739.000000	65.187382 
4738.000000	65.171837 
4737.000000	65.165257 
4736.000000	65.169143 
4735.000000	65.183210 
4734.000000	65.205335 
4733.000000	65.232300 
4732.000000	65.260386 
4731.000000	65.285301 
4730.000000	65.303611 
4729.000000	65.313434 
4728.000000	65.314722 
4727.000000	65.308880 
4726.000000	65.298795 
4725.000000	65.287923 
4724.000000	65.279650 
4723.000000	65.276527 
4722.000000	65.279841 
4721.000000	65.289306 
4720.000000	65.303826 
4719.000000	65.321755 
4718.000000	65.342044 
4717.000000	65.364456 
4716.000000	65.389966 
4715.000000	65.419983 
4714.000000	65.456199 
4713.000000	65.499424 
4712.000000	65.548610 
4711.000000	65.600109 
4710.000000	65.648579 
4709.000000	65.687274 
4708.000000	65.709733 
4707.000000	65.710473 
4706.000000	65.686225 
4705.000000	65.636491 
4704.000000	65.564203 
4703.000000	65.475201 
4702.000000	65.377521 
4701.000000	65.280175 
4700.000000	65.192079 
4699.000000	65.120244 
4698.000000	65.068912 
4697.000000	65.039110 
4696.000000	65.028619 
4695.000000	65.033197 
4694.000000	65.047335 
4693.000000	65.065550 
4692.000000	65.083217 
4691.000000	65.096831 
4690.000000	65.103793 
4689.000000	65.101790 
4688.000000	65.088558 
4687.000000	65.061855 
4686.000000	65.019893 
4685.000000	64.962148 
4684.000000	64.890193 
4683.000000	64.808845 
4682.000000	64.726018 
4681.000000	64.651966 
4680.000000	64.597487 
4679.000000	64.571213 
4678.000000	64.577889 
4677.000000	64.616775 
4676.000000	64.681935 
4675.000000	64.762973 
4674.000000	64.847874 
4673.000000	64.925098 
4672.000000	64.986467 
4671.000000	65.027642 
4670.000000	65.049076 
4669.000000	65.054512 
4668.000000	65.049815 
4667.000000	65.040564 
4666.000000	65.030908 
4665.000000	65.022850 
4664.000000	65.016102 
4663.000000	65.008997 
4662.000000	64.999198 
4661.000000	64.985275 
4660.000000	64.967012 
4659.000000	64.946103 
4658.000000	64.925408 
4657.000000	64.908647 
4656.000000	64.899587 
4655.000000	64.901661 
4654.000000	64.917445 
4653.000000	64.948320 
4652.000000	64.994287 
4651.000000	65.053582 
4650.000000	65.123248 
4649.000000	65.198588 
4648.000000	65.273451 
4647.000000	65.340375 
4646.000000	65.392017 
4645.000000	65.421748 
4644.000000	65.425395 
4643.000000	65.401482 
4642.000000	65.351963 
4641.000000	65.281510 
4640.000000	65.197634 
4639.000000	65.108442 
4638.000000	65.022110 
4637.000000	64.945101 
4636.000000	64.881825 
4635.000000	64.834189 
4634.000000	64.802122 
4633.000000	64.783811 
4632.000000	64.776444 
4631.000000	64.776754 
4630.000000	64.781832 
4629.000000	64.788913 
4628.000000	64.796185 
4627.000000	64.802479 
4626.000000	64.807724 
4625.000000	64.812874 
4624.000000	64.819598 
4623.000000	64.829707 
4622.000000	64.844059 
4621.000000	64.862132 
4620.000000	64.881324 
4619.000000	64.897108 
4618.000000	64.904403 
4617.000000	64.899086 
4616.000000	64.879512 
4615.000000	64.847230 
4614.000000	64.807224 
4613.000000	64.766740 
4612.000000	64.733743 
4611.000000	64.715003 
4610.000000	64.714479 
4609.000000	64.732122 
4608.000000	64.764523 
4607.000000	64.806008 
4606.000000	64.850306 
4605.000000	64.891958 
4604.000000	64.927935 
4603.000000	64.957761 
4602.000000	64.982604 
4601.000000	65.004253 
4600.000000	65.023851 
4599.000000	65.041017 
4598.000000	65.054082 
4597.000000	65.060305 
4596.000000	65.057373 
4595.000000	65.043687 
4594.000000	65.019392 
4593.000000	64.986371 
4592.000000	64.947605 
4591.000000	64.907503 
4590.000000	64.870643 
4589.000000	64.841747 
4588.000000	64.824342 
4587.000000	64.820933 
4586.000000	64.832687 
4585.000000	64.858865 
4584.000000	64.897060 
4583.000000	64.943122 
4582.000000	64.991736 
4581.000000	65.037012 
4580.000000	65.073442 
4579.000000	65.096735 
4578.000000	65.104746 
4577.000000	65.097856 
4576.000000	65.078902 
4575.000000	65.052151 
4574.000000	65.022230 
4573.000000	64.993357 
4572.000000	64.968490 
4571.000000	64.949369 
4570.000000	64.936208 
4569.000000	64.928340 
4568.000000	64.924311 
4567.000000	64.922809 
4566.000000	64.922380 
4565.000000	64.921569 
4564.000000	64.918875 
4563.000000	64.912796 
4562.000000	64.902114 
4561.000000	64.885759 
4560.000000	64.863538 
4559.000000	64.836096 
4558.000000	64.805054 
4557.000000	64.772677 
4556.000000	64.741802 
4555.000000	64.714837 
4554.000000	64.694118 
4553.000000	64.681410 
4552.000000	64.679193 
4551.000000	64.690399 
4550.000000	64.718389 
4549.000000	64.765834 
4548.000000	64.833307 
4547.000000	64.917778 
4546.000000	65.011906 
4545.000000	65.104603 
4544.000000	65.182423 
4543.000000	65.232253 
4542.000000	65.244722 
4541.000000	65.216016 
4540.000000	65.148973 
4539.000000	65.052485 
4538.000000	64.940762 
4537.000000	64.829349 
4536.000000	64.732646 
4535.000000	64.660573 
4534.000000	64.617443 
4533.000000	64.601278 
4532.000000	64.605522 
4531.000000	64.620852 
4530.000000	64.637827 
4529.000000	64.649415 
4528.000000	64.652204 
4527.000000	64.647197 
4526.000000	64.638233 
4525.000000	64.631390 
4524.000000	64.632844 
4523.000000	64.647054 
4522.000000	64.675354 
4521.000000	64.715766 
4520.000000	64.763712 
4519.000000	64.812707 
4518.000000	64.856886 
4517.000000	64.892721 
4516.000000	64.920234 
4515.000000	64.943385 
4514.000000	64.968371 
4513.000000	65.001916 
4512.000000	65.048336 
4511.000000	65.108537 
4510.000000	65.178322 
4509.000000	65.249848 
4508.000000	65.312147 
4507.000000	65.355062 
4506.000000	65.370368 
4505.000000	65.354537 
4504.000000	65.309190 
4503.000000	65.241146 
4502.000000	65.160393 
4501.000000	65.078330 
4500.000000	65.004539 
4499.000000	64.945006 
4498.000000	64.901041 
4497.000000	64.869999 
4496.000000	64.845561 
4495.000000	64.820480 
4494.000000	64.788532 
4493.000000	64.747548 
4492.000000	64.699220 
4491.000000	64.650487 
4490.000000	64.611411 
4489.000000	64.593696 
4488.000000	64.607715 
4487.000000	64.659428 
4486.000000	64.748334 
4485.000000	64.866423 
4484.000000	64.999341 
4483.000000	65.128850 
4482.000000	65.236783 
4481.000000	65.307950 
4480.000000	65.334296 
4479.000000	65.314030 
4478.000000	65.251684 
4477.000000	65.155696 
4476.000000	65.036582 
4475.000000	64.904999 
4474.000000	64.770889 
4473.000000	64.641833 
4472.000000	64.523935 
4471.000000	64.418578 
4470.000000	64.324021 
4469.000000	64.237999 
4468.000000	64.160323 
4467.000000	64.092445 
4466.000000	64.038777 
4465.000000	64.008378 
4464.000000	64.012455 
4463.000000	64.057826 
4462.000000	64.146018 
4461.000000	64.272046 
4460.000000	64.424753 
4459.000000	64.586067 
4458.000000	64.737892 
4457.000000	64.860892 
4456.000000	64.944481 
4455.000000	64.997363 
4454.000000	65.034914 
4453.000000	65.070152 
4452.000000	65.111351 
4451.000000	65.160083 
4450.000000	65.208053 
4449.000000	65.238475 
4448.000000	65.236258 
4447.000000	65.193247 
4446.000000	65.119838 
4445.000000	65.046119 
4444.000000	65.016388 
4443.000000	65.078425 
4442.000000	65.272402 
4441.000000	65.620803 
4440.000000	66.111898 
4439.000000	66.707921 
4438.000000	67.357015 
4437.000000	68.008565 
4436.000000	68.644618 
4435.000000	69.259953 
4434.000000	69.884419 
4433.000000	70.517349 
4432.000000	71.115279 
4431.000000	71.561741 
4430.000000	71.681118 
4429.000000	71.282172 
4428.000000	70.216989 
4427.000000	68.439459 
4426.000000	66.049742 
4425.000000	63.287258 
4424.000000	60.492563 
4423.000000	58.039689 
4422.000000	56.246900 
4421.000000	55.324745 
4420.000000	55.330300 
4419.000000	56.172299 
4418.000000	57.639098 
4417.000000	59.461069 
4416.000000	61.372375 
4415.000000	63.156652 
4414.000000	64.679217 
4413.000000	65.886545 
4412.000000	66.794705 
4411.000000	67.449069 
4410.000000	67.901945 
4409.000000	68.198990 
4408.000000	68.363022 
4407.000000	68.417835 
4406.000000	68.370795 
4405.000000	68.241405 
4404.000000	68.043470 
4403.000000	67.799544 
4402.000000	67.529177 
4401.000000	67.253518 
4400.000000	66.989612 
4399.000000	66.754651 
4398.000000	66.559290 
4397.000000	66.408228 
4396.000000	66.299653 
4395.000000	66.228580 
4394.000000	66.184139 
4393.000000	66.149497 
4392.000000	66.110754 
4391.000000	66.060638 
4390.000000	65.992617 
4389.000000	65.901088 
4388.000000	65.785360 
4387.000000	65.648889 
4386.000000	65.501618 
4385.000000	65.357542 
4384.000000	65.225410 
4383.000000	65.109276 
4382.000000	65.014386 
4381.000000	64.944410 
4380.000000	64.897513 
4379.000000	64.869499 
4378.000000	64.856696 
4377.000000	64.855122 
4376.000000	64.860320 
4375.000000	64.867806 
4374.000000	64.871883 
4373.000000	64.867162 
4372.000000	64.848303 
4371.000000	64.812254 
4370.000000	64.757537 
4369.000000	64.687705 
4368.000000	64.610910 
4367.000000	64.538955 
4366.000000	64.484214 
4365.000000	64.458036 
4364.000000	64.467930 
4363.000000	64.515852 
4362.000000	64.597272 
4361.000000	64.702582 
4360.000000	64.818596 
4359.000000	64.931511 
4358.000000	65.029215 
4357.000000	65.103435 
4356.000000	65.150475 
4355.000000	65.170192 
4354.000000	65.165281 
4353.000000	65.140700 
4352.000000	65.102028 
4351.000000	65.054488 
4350.000000	65.002584 
4349.000000	64.951825 
4348.000000	64.907050 
4347.000000	64.873528 
4346.000000	64.855146 
4345.000000	64.854669 
4344.000000	64.872097 
4343.000000	64.904499 
4342.000000	64.945816 
4341.000000	64.987993 
4340.000000	65.021967 
4339.000000	65.039253 
4338.000000	65.033745 
4337.000000	65.002965 
4336.000000	64.947891 
4335.000000	64.872598 
4334.000000	64.783525 
4333.000000	64.688563 
4332.000000	64.595341 
4331.000000	64.510822 
4330.000000	64.440703 
4329.000000	64.389443 
4328.000000	64.360475 
4327.000000	64.356017 
4326.000000	64.376497 
4325.000000	64.420318 
4324.000000	64.483237 
4323.000000	64.558982 
4322.000000	64.638471 
4321.000000	64.712333 
4320.000000	64.771819 
4319.000000	64.810991 
4318.000000	64.827394 
4317.000000	64.823031 
4316.000000	64.803338 
4315.000000	64.776325 
4314.000000	64.750742 
4313.000000	64.734697 
4312.000000	64.734268 
4311.000000	64.752554 
4310.000000	64.789509 
4309.000000	64.842367 
4308.000000	64.906620 
4307.000000	64.976310 
4306.000000	65.045666 
4305.000000	65.109491 
4304.000000	65.164256 
4303.000000	65.208387 
4302.000000	65.242195 
4301.000000	65.267610 
4300.000000	65.286803 
4299.000000	65.302658 
4298.000000	65.316367 
4297.000000	65.327286 
4296.000000	65.332126 
4295.000000	65.326428 
4294.000000	65.305590 
4293.000000	65.266871 
4292.000000	65.210413 
4291.000000	65.140414 
4290.000000	65.063905 
4289.000000	64.989829 
4288.000000	64.926481 
4287.000000	64.879393 
4286.000000	64.850306 
4285.000000	64.837026 
4284.000000	64.834094 
4283.000000	64.834523 
4282.000000	64.831829 
4281.000000	64.821910 
4280.000000	64.803647 
4279.000000	64.779329 
4278.000000	64.753603 
4277.000000	64.732360 
4276.000000	64.720630 
4275.000000	64.721417 
4274.000000	64.735126 
4273.000000	64.759516 
4272.000000	64.790558 
4271.000000	64.823246 
4270.000000	64.852857 
4269.000000	64.875936 
4268.000000	64.890551 
4267.000000	64.896631 
4266.000000	64.895439 
4265.000000	64.889526 
4264.000000	64.881849 
4263.000000	64.875054 
4262.000000	64.870762 
4261.000000	64.869332 
4260.000000	64.870452 
4259.000000	64.872765 
4258.000000	64.874482 
4257.000000	64.873623 
4256.000000	64.868903 
4255.000000	64.859533 
4254.000000	64.845442 
4253.000000	64.827466 
4252.000000	64.807438 
4251.000000	64.788413 
4250.000000	64.774060 
4249.000000	64.768338 
4248.000000	64.774394 
4247.000000	64.794135 
4246.000000	64.827227 
4245.000000	64.870715 
4244.000000	64.919638 
4243.000000	64.967465 
4242.000000	65.007948 
4241.000000	65.036153 
4240.000000	65.049910 
4239.000000	65.050721 
4238.000000	65.043234 
4237.000000	65.034341 
4236.000000	65.030908 
4235.000000	65.038275 
4234.000000	65.058350 
4233.000000	65.089559 
4232.000000	65.126299 
4231.000000	65.160918 
4230.000000	65.185427 
4229.000000	65.194058 
4228.000000	65.184044 
4227.000000	65.156555 
4226.000000	65.116214 
4225.000000	65.069842 
4224.000000	65.024900 
4223.000000	64.987730 
4222.000000	64.962315 
4221.000000	64.949703 
4220.000000	64.948177 
4219.000000	64.954042 
4218.000000	64.963078 
4217.000000	64.971566 
4216.000000	64.976954 
4215.000000	64.978742 
4214.000000	64.977478 
4213.000000	64.975190 
4212.000000	64.974284 
4211.000000	64.977502 
4210.000000	64.986419 
4209.000000	65.002131 
4208.000000	65.025091 
4207.000000	65.055036 
4206.000000	65.091180 
4205.000000	65.132260 
4204.000000	65.176820 
4203.000000	65.222811 
4202.000000	65.267658 
4201.000000	65.308332 
4200.000000	65.341591 
4199.000000	65.364336 
4198.000000	65.374279 
4197.000000	65.371060 
4196.000000	65.356254 
4195.000000	65.333652 
4194.000000	65.308523 
4193.000000	65.286540 
4192.000000	65.272212 
4191.000000	65.268635 
4190.000000	65.275716 
4189.000000	65.290641 
4188.000000	65.307950 
4187.000000	65.321302 
4186.000000	65.324497 
4185.000000	65.313196 
4184.000000	65.285587 
4183.000000	65.243124 
4182.000000	65.189695 
4181.000000	65.130972 
4180.000000	65.072989 
4179.000000	65.020942 
4178.000000	64.978313 
4177.000000	64.946460 
4176.000000	64.924597 
4175.000000	64.910531 
4174.000000	64.901375 
4173.000000	64.894318 
4172.000000	64.887022 
4171.000000	64.878177 
4170.000000	64.867591 
4169.000000	64.856219 
4168.000000	64.845514 
4167.000000	64.837265 
4166.000000	64.833116 
4165.000000	64.834284 
4164.000000	64.841246 
4163.000000	64.853930 
4162.000000	64.871597 
4161.000000	64.893174 
4160.000000	64.917373 
4159.000000	64.942884 
4158.000000	64.968323 
4157.000000	64.992642 
4156.000000	65.014743 
4155.000000	65.034103 
4154.000000	65.050339 
4153.000000	65.063476 
4152.000000	65.073919 
4151.000000	65.082287 
4150.000000	65.089082 
4149.000000	65.094995 
4148.000000	65.100717 
4147.000000	65.106940 
4146.000000	65.114474 
4145.000000	65.124130 
4144.000000	65.136742 
4143.000000	65.153098 
4142.000000	65.173602 
4141.000000	65.198135 
4140.000000	65.225648 
4139.000000	65.254402 
4138.000000	65.281772 
4137.000000	65.304899 
4136.000000	65.320920 
4135.000000	65.327930 
4134.000000	65.324950 
4133.000000	65.312695 
4132.000000	65.292882 
4131.000000	65.268421 
4130.000000	65.242409 
4129.000000	65.217876 
4128.000000	65.197205 
4127.000000	65.182018 
4126.000000	65.172839 
4125.000000	65.169453 
4124.000000	65.170264 
4123.000000	65.172815 
4122.000000	65.173745 
4121.000000	65.169453 
4120.000000	65.156674 
4119.000000	65.133213 
4118.000000	65.098667 
4117.000000	65.054512 
4116.000000	65.004229 
4115.000000	64.952874 
4114.000000	64.906120 
4113.000000	64.869141 
4112.000000	64.845871 
4111.000000	64.838218 
4110.000000	64.845633 
4109.000000	64.865112 
4108.000000	64.891791 
4107.000000	64.920306 
4106.000000	64.945316 
4105.000000	64.963483 
4104.000000	64.973521 
4103.000000	64.977145 
4102.000000	64.977717 
4101.000000	64.979982 
4100.000000	64.988493 
4099.000000	65.006446 
4098.000000	65.034866 
4097.000000	65.072202 
4096.000000	65.114903 
4095.000000	65.158224 
4094.000000	65.197372 
4093.000000	65.228486 
4092.000000	65.249466 
4091.000000	65.260028 
4090.000000	65.261650 
4089.000000	65.256428 
4088.000000	65.246582 
4087.000000	65.233898 
4086.000000	65.219712 
4085.000000	65.205073 
4084.000000	65.190982 
4083.000000	65.179276 
4082.000000	65.172052 
4081.000000	65.171527 
4080.000000	65.179228 
4079.000000	65.195584 
4078.000000	65.219283 
4077.000000	65.247416 
4076.000000	65.275311 
4075.000000	65.297675 
4074.000000	65.309238 
4073.000000	65.306043 
4072.000000	65.285992 
4071.000000	65.249085 
4070.000000	65.197849 
4069.000000	65.136981 
4068.000000	65.072584 
4067.000000	65.011286 
4066.000000	64.959430 
4065.000000	64.922094 
4064.000000	64.902329 
4063.000000	64.900588 
4062.000000	64.914822 
4061.000000	64.940881 
4060.000000	64.972758 
4059.000000	65.004277 
4058.000000	65.029811 
4057.000000	65.046000 
4056.000000	65.051865 
4055.000000	65.049219 
4054.000000	65.041542 
4053.000000	65.033078 
4052.000000	65.027832 
4051.000000	65.028214 
4050.000000	65.034484 
4049.000000	65.044689 
4048.000000	65.055465 
4047.000000	65.062785 
4046.000000	65.063214 
4045.000000	65.054893 
4044.000000	65.038013 
4043.000000	65.015006 
4042.000000	64.989590 
4041.000000	64.966177 
4040.000000	64.948654 
4039.000000	64.939355 
4038.000000	64.938449 
4037.000000	64.944219 
4036.000000	64.953827 
4035.000000	64.963626 
4034.000000	64.970755 
4033.000000	64.973568 
4032.000000	64.972615 
4031.000000	64.970421 
4030.000000	64.971041 
4029.000000	64.978718 
4028.000000	64.996838 
4027.000000	65.026879 
4026.000000	65.067458 
4025.000000	65.114831 
4024.000000	65.163326 
4023.000000	65.206837 
4022.000000	65.240001 
4021.000000	65.259695 
4020.000000	65.265607 
4019.000000	65.260148 
4018.000000	65.247845 
4017.000000	65.234160 
4016.000000	65.224075 
4015.000000	65.221357 
4014.000000	65.227508 
4013.000000	65.241789 
4012.000000	65.261697 
4011.000000	65.283846 
4010.000000	65.304565 
4009.000000	65.320873 
4008.000000	65.330457 
4007.000000	65.332150 
4006.000000	65.325689 
4005.000000	65.312123 
4004.000000	65.293240 
4003.000000	65.271806 
4002.000000	65.251111 
4001.000000	65.234827 
4000.000000	65.226435 
3999.000000	65.228533 
3998.000000	65.242314 
3997.000000	65.267109 
3996.000000	65.300631 
3995.000000	65.338826 
3994.000000	65.376901 
3993.000000	65.409445 
3992.000000	65.431952 
3991.000000	65.440654 
3990.000000	65.433263 
3989.000000	65.408897 
3988.000000	65.368270 
3987.000000	65.313386 
3986.000000	65.247511 
3985.000000	65.175080 
3984.000000	65.101766 
3983.000000	65.034008 
3982.000000	64.978218 
3981.000000	64.940142 
3980.000000	64.923882 
3979.000000	64.930629 
3978.000000	64.958810 
3977.000000	65.003728 
3976.000000	65.058779 
3975.000000	65.115952 
3974.000000	65.167951 
3973.000000	65.208649 
3972.000000	65.234756 
3971.000000	65.245413 
3970.000000	65.242600 
3969.000000	65.229964 
3968.000000	65.212178 
3967.000000	65.193867 
3966.000000	65.178751 
3965.000000	65.169310 
3964.000000	65.166234 
3963.000000	65.169262 
3962.000000	65.176653 
3961.000000	65.186119 
3960.000000	65.195059 
3959.000000	65.200948 
3958.000000	65.201830 
3957.000000	65.196609 
3956.000000	65.185475 
3955.000000	65.169882 
3954.000000	65.152215 
3953.000000	65.135312 
3952.000000	65.122342 
3951.000000	65.116024 
3950.000000	65.117907 
3949.000000	65.127897 
3948.000000	65.144371 
3947.000000	65.164422 
3946.000000	65.184378 
3945.000000	65.200495 
3944.000000	65.209650 
3943.000000	65.210175 
3942.000000	65.202522 
3941.000000	65.189051 
3940.000000	65.173125 
3939.000000	65.158653 
3938.000000	65.148878 
3937.000000	65.145611 
3936.000000	65.149068 
3935.000000	65.157413 
3934.000000	65.167760 
3933.000000	65.176820 
3932.000000	65.182137 
3931.000000	65.182399 
3930.000000	65.178132 
3929.000000	65.171456 
3928.000000	65.165710 
3927.000000	65.164709 
3926.000000	65.171837 
3925.000000	65.189409 
3924.000000	65.217638 
3923.000000	65.254712 
3922.000000	65.296411 
3921.000000	65.337133 
3920.000000	65.370583 
3919.000000	65.390920 
3918.000000	65.394043 
3917.000000	65.377998 
3916.000000	65.343999 
3915.000000	65.296101 
3914.000000	65.240526 
3913.000000	65.184760 
3912.000000	65.135979 
3911.000000	65.100121 
3910.000000	65.080761 
3909.000000	65.078711 
3908.000000	65.092253 
3907.000000	65.117669 
3906.000000	65.150403 
3905.000000	65.185785 
3904.000000	65.220022 
3903.000000	65.250468 
3902.000000	65.275883 
3901.000000	65.295982 
3900.000000	65.311503 
3899.000000	65.323615 
3898.000000	65.333700 
3897.000000	65.342617 
3896.000000	65.350961 
3895.000000	65.358495 
3894.000000	65.364766 
3893.000000	65.368795 
3892.000000	65.369534 
3891.000000	65.365791 
3890.000000	65.356969 
3889.000000	65.342783 
3888.000000	65.323638 
3887.000000	65.300393 
3886.000000	65.274620 
3885.000000	65.248227 
3884.000000	65.223288 
3883.000000	65.201807 
3882.000000	65.185475 
3881.000000	65.175366 
3880.000000	65.171623 
3879.000000	65.173459 
3878.000000	65.179228 
3877.000000	65.186452 
3876.000000	65.192317 
3875.000000	65.193772 
3874.000000	65.188145 
3873.000000	65.173792 
3872.000000	65.150427 
3871.000000	65.119218 
3870.000000	65.082859 
3869.000000	65.045404 
3868.000000	65.011668 
3867.000000	64.986348 
3866.000000	64.973568 
3865.000000	64.975953 
3864.000000	64.994454 
3863.000000	65.027713 
3862.000000	65.072655 
3861.000000	65.124583 
3860.000000	65.178036 
3859.000000	65.227556 
3858.000000	65.268373 
3857.000000	65.297055 
3856.000000	65.311908 
3855.000000	65.313100 
3854.000000	65.302181 
3853.000000	65.281748 
3852.000000	65.254878 
3851.000000	65.225052 
3850.000000	65.195298 
3849.000000	65.168261 
3848.000000	65.145850 
3847.000000	65.129232 
3846.000000	65.118718 
3845.000000	65.113854 
3844.000000	65.113282 
3843.000000	65.115070 
3842.000000	65.117025 
3841.000000	65.117383 
3840.000000	65.114665 
3839.000000	65.108394 
3838.000000	65.098905 
3837.000000	65.087747 
3836.000000	65.076851 
3835.000000	65.068483 
3834.000000	65.064239 
3833.000000	65.065121 
3832.000000	65.071249 
3831.000000	65.082240 
3830.000000	65.097546 
3829.000000	65.116620 
3828.000000	65.139055 
3827.000000	65.164470 
3826.000000	65.192294 
3825.000000	65.221261 
3824.000000	65.249252 
3823.000000	65.273499 
3822.000000	65.290999 
3821.000000	65.299034 
3820.000000	65.295791 
3819.000000	65.280818 
3818.000000	65.255188 
3817.000000	65.221381 
3816.000000	65.182876 
3815.000000	65.143489 
3814.000000	65.106940 
3813.000000	65.076255 
3812.000000	65.053677 
3811.000000	65.040802 
3810.000000	65.038323 
3809.000000	65.046501 
3808.000000	65.064859 
3807.000000	65.091991 
3806.000000	65.125846 
3805.000000	65.163278 
3804.000000	65.200972 
3803.000000	65.235447 
3802.000000	65.263843 
3801.000000	65.284347 
3800.000000	65.296101 
3799.000000	65.299344 
3798.000000	65.294885 
3797.000000	65.283823 
3796.000000	65.266823 
3795.000000	65.243959 
3794.000000	65.214896 
3793.000000	65.179157 
3792.000000	65.136528 
3791.000000	65.087699 
3790.000000	65.034556 
3789.000000	64.980316 
3788.000000	64.929080 
3787.000000	64.885759 
3786.000000	64.854621 
3785.000000	64.839267 
3784.000000	64.841628 
3783.000000	64.861893 
3782.000000	64.898180 
3781.000000	64.946842 
3780.000000	65.002655 
3779.000000	65.059661 
3778.000000	65.111541 
3777.000000	65.153002 
3776.000000	65.180015 
3775.000000	65.191006 
3774.000000	65.186667 
3773.000000	65.170407 
3772.000000	65.147662 
3771.000000	65.125036 
3770.000000	65.109205 
3769.000000	65.105223 
3768.000000	65.116000 
3767.000000	65.141391 
3766.000000	65.178656 
3765.000000	65.222883 
3764.000000	65.267920 
3763.000000	65.307998 
3762.000000	65.338540 
3761.000000	65.356636 
3760.000000	65.361380 
3759.000000	65.353465 
3758.000000	65.335083 
3757.000000	65.309000 
3756.000000	65.278005 
3755.000000	65.245008 
3754.000000	65.212321 
3753.000000	65.182113 
3752.000000	65.155887 
3751.000000	65.134835 
3750.000000	65.119647 
3749.000000	65.110540 
3748.000000	65.107321 
3747.000000	65.108895 
3746.000000	65.114164 
3745.000000	65.121984 
3744.000000	65.131402 
3743.000000	65.141582 
3742.000000	65.151786 
3741.000000	65.161371 
3740.000000	65.169620 
3739.000000	65.175843 
3738.000000	65.179467 
3737.000000	65.180063 
3736.000000	65.177798 
3735.000000	65.173339 
3734.000000	65.167498 
3733.000000	65.160965 
3732.000000	65.154194 
3731.000000	65.147018 
3730.000000	65.138936 
3729.000000	65.129089 
3728.000000	65.116643 
3727.000000	65.101099 
3726.000000	65.082955 
3725.000000	65.063357 
3724.000000	65.044093 
3723.000000	65.026950 
3722.000000	65.013480 
3721.000000	65.004396 
3720.000000	64.999294 
3719.000000	64.997386 
3718.000000	64.997434 
3717.000000	64.998602 
3716.000000	65.000677 
3715.000000	65.004348 
3714.000000	65.010976 
3713.000000	65.022253 
3712.000000	65.039658 
3711.000000	65.064120 
3710.000000	65.095734 
3709.000000	65.133666 
3708.000000	65.176200 
3707.000000	65.220952 
3706.000000	65.264749 
3705.000000	65.304660 
3704.000000	65.337586 
3703.000000	65.360736 
3702.000000	65.371394 
3701.000000	65.368223 
3700.000000	65.350723 
3699.000000	65.319705 
3698.000000	65.276980 
3697.000000	65.226054 
3696.000000	65.171027 
3695.000000	65.116381 
3694.000000	65.066146 
3693.000000	65.023541 
3692.000000	64.990472 
3691.000000	64.967489 
3690.000000	64.953851 
3689.000000	64.947891 
3688.000000	64.947462 
3687.000000	64.950537 
3686.000000	64.955377 
3685.000000	64.960908 
3684.000000	64.966678 
3683.000000	64.973115 
3682.000000	64.980983 
3681.000000	64.991760 
3680.000000	65.007114 
3679.000000	65.028905 
3678.000000	65.058636 
3677.000000	65.097141 
3676.000000	65.144538 
3675.000000	65.199565 
3674.000000	65.259599 
3673.000000	65.320467 
3672.000000	65.377378 
3671.000000	65.425157 
3670.000000	65.459251 
3669.000000	65.476322 
3668.000000	65.475296 
3667.000000	65.457153 
3666.000000	65.425181 
3665.000000	65.383958 
3664.000000	65.338420 
3663.000000	65.293312 
3662.000000	65.252780 
3661.000000	65.219831 
3660.000000	65.196299 
3659.000000	65.183281 
3658.000000	65.181279 
3657.000000	65.190243 
3656.000000	65.209674 
3655.000000	65.238165 
3654.000000	65.273404 
3653.000000	65.312075 
3652.000000	65.350174 
3651.000000	65.383362 
3650.000000	65.407752 
3649.000000	65.420842 
3648.000000	65.421605 
3647.000000	65.410947 
3646.000000	65.391016 
3645.000000	65.364599 
3644.000000	65.334725 
3643.000000	65.303969 
3642.000000	65.274429 
3641.000000	65.248203 
3640.000000	65.227222 
3639.000000	65.213608 
3638.000000	65.209126 
3637.000000	65.215063 
3636.000000	65.231323 
3635.000000	65.256166 
3634.000000	65.286302 
3633.000000	65.317034 
3632.000000	65.343499 
3631.000000	65.361452 
3630.000000	65.368270 
3629.000000	65.363454 
3628.000000	65.348744 
3627.000000	65.327620 
3626.000000	65.304207 
3625.000000	65.282392 
3624.000000	65.264987 
3623.000000	65.253305 
3622.000000	65.247344 
3621.000000	65.245985 
3620.000000	65.247964 
3619.000000	65.252208 
3618.000000	65.258049 
3617.000000	65.265488 
3616.000000	65.274429 
3615.000000	65.284967 
3614.000000	65.296864 
3613.000000	65.309572 
3612.000000	65.322160 
3611.000000	65.333509 
3610.000000	65.342593 
3609.000000	65.348529 
3608.000000	65.350651 
3607.000000	65.348649 
3606.000000	65.342521 
3605.000000	65.332531 
3604.000000	65.319108 
3603.000000	65.303015 
3602.000000	65.285515 
3601.000000	65.268397 
3600.000000	65.253901 
3599.000000	65.244674 
3598.000000	65.243411 
3597.000000	65.252232 
3596.000000	65.272235 
3595.000000	65.302944 
3594.000000	65.342140 
3593.000000	65.386223 
3592.000000	65.430402 
3591.000000	65.469694 
3590.000000	65.499591 
3589.000000	65.516734 
3588.000000	65.519356 
3587.000000	65.507602 
3586.000000	65.483069 
3585.000000	65.448594 
3584.000000	65.407299 
3583.000000	65.362620 
3582.000000	65.317463 
3581.000000	65.274310 
3580.000000	65.235042 
3579.000000	65.201425 
3578.000000	65.174698 
3577.000000	65.155911 
3576.000000	65.145707 
3575.000000	65.144419 
3574.000000	65.151500 
3573.000000	65.165829 
3572.000000	65.185952 
3571.000000	65.210008 
3570.000000	65.236067 
3569.000000	65.262103 
3568.000000	65.286302 
3567.000000	65.306854 
3566.000000	65.322256 
3565.000000	65.331149 
3564.000000	65.332770 
3563.000000	65.326809 
3562.000000	65.313744 
3561.000000	65.294790 
3560.000000	65.272068 
3559.000000	65.247964 
3558.000000	65.224838 
3557.000000	65.204429 
3556.000000	65.187692 
3555.000000	65.174508 
3554.000000	65.163969 
3553.000000	65.154600 
3552.000000	65.144586 
3551.000000	65.132784 
3550.000000	65.118980 
3549.000000	65.103387 
3548.000000	65.086984 
3547.000000	65.070867 
3546.000000	65.056395 
3545.000000	65.044283 
3544.000000	65.034937 
3543.000000	65.028500 
3542.000000	65.024566 
3541.000000	65.022993 
3540.000000	65.023493 
3539.000000	65.025687 
3538.000000	65.028810 
3537.000000	65.031838 
3536.000000	65.033340 
3535.000000	65.031504 
3534.000000	65.024733 
3533.000000	65.012097 
3532.000000	64.993929 
3531.000000	64.971923 
3530.000000	64.949321 
3529.000000	64.930152 
3528.000000	64.918923 
3527.000000	64.919209 
3526.000000	64.933252 
3525.000000	64.961075 
3524.000000	65.000844 
3523.000000	65.049147 
3522.000000	65.101599 
3521.000000	65.153694 
3520.000000	65.201687 
3519.000000	65.242648 
3518.000000	65.274763 
3517.000000	65.297055 
3516.000000	65.309047 
3515.000000	65.310645 
3514.000000	65.302062 
3513.000000	65.283632 
3512.000000	65.256690 
3511.000000	65.223002 
3510.000000	65.185475 
3509.000000	65.147161 
3508.000000	65.111541 
3507.000000	65.081429 
3506.000000	65.058660 
3505.000000	65.043783 
3504.000000	65.036010 
3503.000000	65.033721 
3502.000000	65.035152 
3501.000000	65.039086 
3500.000000	65.044832 
3499.000000	65.052700 
3498.000000	65.063548 
3497.000000	65.078163 
3496.000000	65.096783 
3495.000000	65.118741 
3494.000000	65.142369 
3493.000000	65.165138 
3492.000000	65.184068 
3491.000000	65.196728 
3490.000000	65.201544 
3489.000000	65.198278 
3488.000000	65.187907 
3487.000000	65.172648 
3486.000000	65.155434 
3485.000000	65.139341 
3484.000000	65.126943 
3483.000000	65.120291 
3482.000000	65.120148 
3481.000000	65.126681 
3480.000000	65.138721 
3479.000000	65.154099 
3478.000000	65.170001 
3477.000000	65.183639 
3476.000000	65.192604 
3475.000000	65.195274 
3474.000000	65.191435 
3473.000000	65.182018 
3472.000000	65.168738 
3471.000000	65.153598 
3470.000000	65.138125 
3469.000000	65.123152 
3468.000000	65.108370 
3467.000000	65.092849 
3466.000000	65.075397 
3465.000000	65.055203 
3464.000000	65.032172 
3463.000000	65.007376 
3462.000000	64.982843 
3461.000000	64.961338 
3460.000000	64.945363 
3459.000000	64.937257 
3458.000000	64.937853 
3457.000000	64.947080 
3456.000000	64.963769 
3455.000000	64.986038 
3454.000000	65.011882 
3453.000000	65.039372 
3452.000000	65.066862 
3451.000000	65.093016 
3450.000000	65.116524 
3449.000000	65.136456 
3448.000000	65.151834 
3447.000000	65.161895 
3446.000000	65.166330 
3445.000000	65.165424 
3444.000000	65.160322 
3443.000000	65.153026 
3442.000000	65.146112 
3441.000000	65.142488 
3440.000000	65.144634 
3439.000000	65.154337 
3438.000000	65.172052 
3437.000000	65.196800 
3436.000000	65.226316 
3435.000000	65.257596 
3434.000000	65.287375 
3433.000000	65.312910 
3432.000000	65.332388 
3431.000000	65.345406 
3430.000000	65.352749 
3429.000000	65.356016 
3428.000000	65.356969 
3427.000000	65.357208 
3426.000000	65.357303 
3425.000000	65.356779 
3424.000000	65.354204 
3423.000000	65.347743 
3422.000000	65.335917 
3421.000000	65.318274 
3420.000000	65.295600 
3419.000000	65.270113 
3418.000000	65.245151 
3417.000000	65.224266 
3416.000000	65.210294 
3415.000000	65.204787 
3414.000000	65.207529 
3413.000000	65.216875 
3412.000000	65.229797 
3411.000000	65.243101 
3410.000000	65.254235 
3409.000000	65.261840 
3408.000000	65.265989 
3407.000000	65.267992 
3406.000000	65.269732 
3405.000000	65.272927 
3404.000000	65.278315 
3403.000000	65.285754 
3402.000000	65.294075 
3401.000000	65.301752 
3400.000000	65.307283 
3399.000000	65.309739 
3398.000000	65.309214 
3397.000000	65.306711 
3396.000000	65.303850 
3395.000000	65.302205 
3394.000000	65.302991 
3393.000000	65.306568 
3392.000000	65.312385 
3391.000000	65.318942 
3390.000000	65.324282 
3389.000000	65.326356 
3388.000000	65.323686 
3387.000000	65.315437 
3386.000000	65.301609 
3385.000000	65.283107 
3384.000000	65.261650 
3383.000000	65.239572 
3382.000000	65.219402 
3381.000000	65.203547 
3380.000000	65.193629 
3379.000000	65.190315 
3378.000000	65.193200 
3377.000000	65.200686 
3376.000000	65.210390 
3375.000000	65.219616 
3374.000000	65.226054 
3373.000000	65.228104 
3372.000000	65.225124 
3371.000000	65.217471 
3370.000000	65.206360 
3369.000000	65.193247 
3368.000000	65.180063 
3367.000000	65.168690 
3366.000000	65.160894 
3365.000000	65.158033 
3364.000000	65.161323 
3363.000000	65.171551 
3362.000000	65.188860 
3361.000000	65.212392 
3360.000000	65.240120 
3359.000000	65.268993 
3358.000000	65.295076 
3357.000000	65.314507 
3356.000000	65.324163 
3355.000000	65.322637 
3354.000000	65.310859 
3353.000000	65.291857 
3352.000000	65.270066 
3351.000000	65.250325 
3350.000000	65.236973 
3349.000000	65.232515 
3348.000000	65.237426 
3347.000000	65.249872 
3346.000000	65.266609 
3345.000000	65.283441 
3344.000000	65.296459 
3343.000000	65.302658 
3342.000000	65.300297 
3341.000000	65.289187 
3340.000000	65.270495 
3339.000000	65.246129 
3338.000000	65.218353 
3337.000000	65.189456 
3336.000000	65.161466 
3335.000000	65.136075 
3334.000000	65.114688 
3333.000000	65.098381 
3332.000000	65.088081 
3331.000000	65.084123 
3330.000000	65.086269 
3329.000000	65.093851 
3328.000000	65.105581 
3327.000000	65.119743 
3326.000000	65.134549 
3325.000000	65.148282 
3324.000000	65.159773 
3323.000000	65.168356 
3322.000000	65.173864 
3321.000000	65.176343 
3320.000000	65.175890 
3319.000000	65.172743 
3318.000000	65.166783 
3317.000000	65.157914 
3316.000000	65.145921 
3315.000000	65.131068 
3314.000000	65.113878 
3313.000000	65.095376 
3312.000000	65.076756 
3311.000000	65.059232 
3310.000000	65.043830 
3309.000000	65.031051 
3308.000000	65.020966 
3307.000000	65.013170 
3306.000000	65.006875 
3305.000000	65.001106 
3304.000000	64.995074 
3303.000000	64.988803 
3302.000000	64.982891 
3301.000000	64.978718 
3300.000000	64.978170 
3299.000000	64.983129 
3298.000000	64.994883 
3297.000000	65.013909 
3296.000000	65.039372 
3295.000000	65.069389 
3294.000000	65.101218 
3293.000000	65.131855 
3292.000000	65.158438 
3291.000000	65.178871 
3290.000000	65.192103 
3289.000000	65.198206 
3288.000000	65.198254 
3287.000000	65.194058 
3286.000000	65.187716 
3285.000000	65.181636 
3284.000000	65.177941 
3283.000000	65.178227 
3282.000000	65.183448 
3281.000000	65.193772 
3280.000000	65.208745 
3279.000000	65.226817 
3278.000000	65.245723 
3277.000000	65.262699 
3276.000000	65.275096 
3275.000000	65.280628 
3274.000000	65.278005 
3273.000000	65.267229 
3272.000000	65.249657 
3271.000000	65.227723 
3270.000000	65.204524 
3269.000000	65.183091 
3268.000000	65.165662 
3267.000000	65.153670 
3266.000000	65.147233 
3265.000000	65.145277 
3264.000000	65.145969 
3263.000000	65.147495 
3262.000000	65.148329 
3261.000000	65.147447 
3260.000000	65.144777 
3259.000000	65.140867 
3258.000000	65.136837 
3257.000000	65.133762 
3256.000000	65.132832 
3255.000000	65.135002 
3254.000000	65.140914 
3253.000000	65.150713 
3252.000000	65.164208 
3251.000000	65.180635 
3250.000000	65.198731 
3249.000000	65.216827 
3248.000000	65.233039 
3247.000000	65.245366 
3246.000000	65.252089 
3245.000000	65.251779 
3244.000000	65.243864 
3243.000000	65.228271 
3242.000000	65.205979 
3241.000000	65.178561 
3240.000000	65.147924 
3239.000000	65.116310 
3238.000000	65.086126 
3237.000000	65.059566 
3236.000000	65.038490 
3235.000000	65.024232 
3234.000000	65.017461 
3233.000000	65.018033 
3232.000000	65.024924 
3231.000000	65.036296 
3230.000000	65.049862 
3229.000000	65.063142 
3228.000000	65.073943 
3227.000000	65.080690 
3226.000000	65.082645 
3225.000000	65.079879 
3224.000000	65.072989 
3223.000000	65.062785 
3222.000000	65.050077 
3221.000000	65.035271 
3220.000000	65.018534 
3219.000000	64.999747 
3218.000000	64.979314 
3217.000000	64.958214 
3216.000000	64.938163 
3215.000000	64.921593 
3214.000000	64.911007 
3213.000000	64.908432 
3212.000000	64.914631 
3211.000000	64.928674 
3210.000000	64.948153 
3209.000000	64.969205 
3208.000000	64.987802 
3207.000000	65.000581 
3206.000000	65.005731 
3205.000000	65.003275 
3204.000000	64.995241 
3203.000000	64.984965 
3202.000000	64.976143 
3201.000000	64.971613 
3200.000000	64.972686 
3199.000000	64.978957 
3198.000000	64.988422 
3197.000000	64.998269 
3196.000000	65.005707 
3195.000000	65.008974 
3194.000000	65.007567 
3193.000000	65.002489 
3192.000000	64.995837 
3191.000000	64.989876 
3190.000000	64.986395 
3189.000000	64.986133 
3188.000000	64.988827 
3187.000000	64.993166 
3186.000000	64.997315 
3185.000000	64.999532 
3184.000000	64.998984 
3183.000000	64.995908 
3182.000000	64.991378 
3181.000000	64.987254 
3180.000000	64.985489 
3179.000000	64.987564 
3178.000000	64.994168 
3177.000000	65.004920 
3176.000000	65.018510 
3175.000000	65.033054 
3174.000000	65.046596 
3173.000000	65.057301 
3172.000000	65.063834 
3171.000000	65.065336 
3170.000000	65.061593 
3169.000000	65.052771 
3168.000000	65.039563 
3167.000000	65.023159 
3166.000000	65.005087 
3165.000000	64.987325 
3164.000000	64.972019 
3163.000000	64.961171 
3162.000000	64.956402 
3161.000000	64.958500 
3160.000000	64.967322 
3159.000000	64.981484 
3158.000000	64.998865 
3157.000000	65.016937 
3156.000000	65.033149 
3155.000000	65.045642 
3154.000000	65.053272 
3153.000000	65.055966 
3152.000000	65.054345 
3151.000000	65.049314 
3150.000000	65.041732 
3149.000000	65.032172 
3148.000000	65.020632 
3147.000000	65.006661 
3146.000000	64.989781 
3145.000000	64.969778 
3144.000000	64.947056 
3143.000000	64.922857 
3142.000000	64.899015 
3141.000000	64.877796 
3140.000000	64.861559 
3139.000000	64.852190 
3138.000000	64.850735 
3137.000000	64.857435 
3136.000000	64.871644 
3135.000000	64.891958 
3134.000000	64.916634 
3133.000000	64.943408 
3132.000000	64.969611 
3131.000000	64.992737 
3130.000000	65.010452 
3129.000000	65.021228 
3128.000000	65.024542 
3127.000000	65.021109 
3126.000000	65.012812 
3125.000000	65.002441 
3124.000000	64.993238 
3123.000000	64.988040 
3122.000000	64.988589 
3121.000000	64.995265 
3120.000000	65.007209 
3119.000000	65.022349 
3118.000000	65.038275 
3117.000000	65.052723 
3116.000000	65.064191 
3115.000000	65.072226 
3114.000000	65.077280 
3113.000000	65.080142 
3112.000000	65.081715 
3111.000000	65.082478 
3110.000000	65.082788 
3109.000000	65.082669 
3108.000000	65.082478 
3107.000000	65.083217 
3106.000000	65.086197 
3105.000000	65.093088 
3104.000000	65.105032 
3103.000000	65.122389 
3102.000000	65.143942 
3101.000000	65.167117 
3100.000000	65.188097 
3099.000000	65.202736 
3098.000000	65.207433 
3097.000000	65.200018 
3096.000000	65.180277 
3095.000000	65.150237 
3094.000000	65.113615 
3093.000000	65.075063 
3092.000000	65.039253 
3091.000000	65.010142 
3090.000000	64.990425 
3089.000000	64.981675 
3088.000000	64.984226 
3087.000000	64.997386 
3086.000000	65.019845 
3085.000000	65.049791 
3084.000000	65.084791 
3083.000000	65.121865 
3082.000000	65.157532 
3081.000000	65.188360 
3080.000000	65.210914 
3079.000000	65.222692 
3078.000000	65.222644 
3077.000000	65.211510 
3076.000000	65.191960 
3075.000000	65.168094 
3074.000000	65.145015 
3073.000000	65.127372 
3072.000000	65.118861 
3071.000000	65.121102 
3070.000000	65.133404 
3069.000000	65.152883 
3068.000000	65.175294 
3067.000000	65.195798 
3066.000000	65.210199 
3065.000000	65.215611 
3064.000000	65.211248 
3063.000000	65.198349 
3062.000000	65.179967 
3061.000000	65.159916 
3060.000000	65.142035 
3059.000000	65.129470 
3058.000000	65.123677 
3057.000000	65.124630 
3056.000000	65.130424 
3055.000000	65.138268 
3054.000000	65.145015 
3053.000000	65.147733 
3052.000000	65.144753 
3051.000000	65.135884 
3050.000000	65.122532 
3049.000000	65.107202 
3048.000000	65.093374 
3047.000000	65.084338 
3046.000000	65.082669 
3045.000000	65.089726 
3044.000000	65.105295 
3043.000000	65.127801 
3042.000000	65.154314 
3041.000000	65.181493 
3040.000000	65.205693 
3039.000000	65.223717 
3038.000000	65.233135 
3037.000000	65.232610 
3036.000000	65.221858 
3035.000000	65.201711 
3034.000000	65.174055 
3033.000000	65.141415 
3032.000000	65.106558 
3031.000000	65.072321 
3030.000000	65.041303 
3029.000000	65.015673 
3028.000000	64.996647 
3027.000000	64.984655 
3026.000000	64.979434 
3025.000000	64.980316 
3024.000000	64.986371 
3023.000000	64.996647 
3022.000000	65.010404 
3021.000000	65.026831 
3020.000000	65.044927 
3019.000000	65.063476 
3018.000000	65.080976 
3017.000000	65.095543 
3016.000000	65.105366 
3015.000000	65.109038 
3014.000000	65.105843 
3013.000000	65.096092 
3012.000000	65.081048 
3011.000000	65.062832 
3010.000000	65.044069 
3009.000000	65.027689 
3008.000000	65.016436 
3007.000000	65.012311 
3006.000000	65.016174 
3005.000000	65.027594 
3004.000000	65.045166 
3003.000000	65.066337 
3002.000000	65.088343 
3001.000000	65.108394 
3000.000000	65.124368 
2999.000000	65.135169 
2998.000000	65.141153 
2997.000000	65.143513 
2996.000000	65.144348 
2995.000000	65.145874 
2994.000000	65.149879 
2993.000000	65.157341 
2992.000000	65.167999 
2991.000000	65.180754 
2990.000000	65.193581 
2989.000000	65.204477 
2988.000000	65.211677 
2987.000000	65.213966 
2986.000000	65.210890 
2985.000000	65.202689 
2984.000000	65.189886 
2983.000000	65.173339 
2982.000000	65.153932 
2981.000000	65.132665 
2980.000000	65.110659 
2979.000000	65.089058 
2978.000000	65.068912 
2977.000000	65.051054 
2976.000000	65.036010 
2975.000000	65.023756 
2974.000000	65.013790 
2973.000000	65.005016 
2972.000000	64.996218 
2971.000000	64.986395 
2970.000000	64.975047 
2969.000000	64.962553 
2968.000000	64.949989 
2967.000000	64.939165 
2966.000000	64.932203 
2965.000000	64.930915 
2964.000000	64.936089 
2963.000000	64.947462 
2962.000000	64.963436 
2961.000000	64.981293 
2960.000000	64.997887 
2959.000000	65.010166 
2958.000000	65.015840 
2957.000000	65.013909 
2956.000000	65.004920 
2955.000000	64.990615 
2954.000000	64.973831 
2953.000000	64.957785 
2952.000000	64.945626 
2951.000000	64.939928 
2950.000000	64.942407 
2949.000000	64.953994 
2948.000000	64.974427 
2947.000000	65.002799 
2946.000000	65.037274 
2945.000000	65.075492 
2944.000000	65.114331 
2943.000000	65.150308 
2942.000000	65.179681 
2941.000000	65.199041 
2940.000000	65.205883 
2939.000000	65.199160 
2938.000000	65.179681 
2937.000000	65.150284 
2936.000000	65.115308 
2935.000000	65.079951 
2934.000000	65.049505 
2933.000000	65.028500 
2932.000000	65.019631 
2931.000000	65.023303 
2930.000000	65.037870 
2929.000000	65.059947 
2928.000000	65.085005 
2927.000000	65.108418 
2926.000000	65.126013 
2925.000000	65.134882 
2924.000000	65.133476 
2923.000000	65.121912 
2922.000000	65.101480 
2921.000000	65.074539 
2920.000000	65.044283 
2919.000000	65.013933 
2918.000000	64.986610 
2917.000000	64.964437 
2916.000000	64.948701 
2915.000000	64.939236 
2914.000000	64.934515 
2913.000000	64.932584 
2912.000000	64.931416 
2911.000000	64.929890 
2910.000000	64.927625 
2909.000000	64.925789 
2908.000000	64.926338 
2907.000000	64.931774 
2906.000000	64.944171 
2905.000000	64.964532 
2904.000000	64.992189 
2903.000000	65.025067 
2902.000000	65.059971 
2901.000000	65.093064 
2900.000000	65.120601 
2899.000000	65.139842 
2898.000000	65.149450 
2897.000000	65.149736 
2896.000000	65.142250 
2895.000000	65.129446 
2894.000000	65.114045 
2893.000000	65.098428 
2892.000000	65.084338 
2891.000000	65.072798 
2890.000000	65.063738 
2889.000000	65.056848 
2888.000000	65.051054 
2887.000000	65.045499 
2886.000000	65.039277 
2885.000000	65.031576 
2884.000000	65.021920 
2883.000000	65.010142 
2882.000000	64.996623 
2881.000000	64.982438 
2880.000000	64.969229 
2879.000000	64.958882 
2878.000000	64.953422 
2877.000000	64.954638 
2876.000000	64.963459 
2875.000000	64.979815 
2874.000000	65.002608 
2873.000000	65.029931 
2872.000000	65.059232 
2871.000000	65.087914 
2870.000000	65.113830 
2869.000000	65.135407 
2868.000000	65.151882 
2867.000000	65.163016 
2866.000000	65.169191 
2865.000000	65.171098 
2864.000000	65.169572 
2863.000000	65.165495 
2862.000000	65.159869 
2861.000000	65.153598 
2860.000000	65.147948 
2859.000000	65.143680 
2858.000000	65.141153 
2857.000000	65.139770 
2856.000000	65.138339 
2855.000000	65.134930 
2854.000000	65.127348 
2853.000000	65.113806 
2852.000000	65.093374 
2851.000000	65.066576 
2850.000000	65.035319 
2849.000000	65.002799 
2848.000000	64.972782 
2847.000000	64.948868 
2846.000000	64.933705 
2845.000000	64.928293 
2844.000000	64.931845 
2843.000000	64.942169 
2842.000000	64.956092 
2841.000000	64.970183 
2840.000000	64.981484 
2839.000000	64.988160 
2838.000000	64.989852 
2837.000000	64.987254 
2836.000000	64.982175 
2835.000000	64.976930 
2834.000000	64.974093 
2833.000000	64.975714 
2832.000000	64.982962 
2831.000000	64.996004 
2830.000000	65.013718 
2829.000000	65.034294 
2828.000000	65.054941 
2827.000000	65.072751 
2826.000000	65.085077 
2825.000000	65.090084 
2824.000000	65.086913 
2823.000000	65.075969 
2822.000000	65.058755 
2821.000000	65.037608 
2820.000000	65.015077 
2819.000000	64.993500 
2818.000000	64.974761 
2817.000000	64.959883 
2816.000000	64.949250 
2815.000000	64.942717 
2814.000000	64.939880 
2813.000000	64.940190 
2812.000000	64.942932 
2811.000000	64.947557 
2810.000000	64.953088 
2809.000000	64.958858 
2808.000000	64.964079 
2807.000000	64.968466 
2806.000000	64.971995 
2805.000000	64.975404 
2804.000000	64.979863 
2803.000000	64.986801 
2802.000000	64.997720 
2801.000000	65.013527 
2800.000000	65.034055 
2799.000000	65.058064 
2798.000000	65.083408 
2797.000000	65.107393 
2796.000000	65.127086 
2795.000000	65.140056 
2794.000000	65.144872 
2793.000000	65.140891 
2792.000000	65.128421 
2791.000000	65.108489 
2790.000000	65.082621 
2789.000000	65.052723 
2788.000000	65.020871 
2787.000000	64.989447 
2786.000000	64.960908 
2785.000000	64.937829 
2784.000000	64.922428 
2783.000000	64.916229 
2782.000000	64.919924 
2781.000000	64.932966 
2780.000000	64.953875 
2779.000000	64.979934 
2778.000000	65.008378 
2777.000000	65.036702 
2776.000000	65.063333 
2775.000000	65.087652 
2774.000000	65.110230 
2773.000000	65.132284 
2772.000000	65.155076 
2771.000000	65.179300 
2770.000000	65.204715 
2769.000000	65.230178 
2768.000000	65.253758 
2767.000000	65.273237 
2766.000000	65.286779 
2765.000000	65.293383 
2764.000000	65.293192 
2763.000000	65.287232 
2762.000000	65.277528 
2761.000000	65.266036 
2760.000000	65.254616 
2759.000000	65.244412 
2758.000000	65.235853 
2757.000000	65.228581 
2756.000000	65.222024 
2755.000000	65.215611 
2754.000000	65.208935 
2753.000000	65.201926 
2752.000000	65.194964 
2751.000000	65.188622 
2750.000000	65.183401 
2749.000000	65.179562 
2748.000000	65.176844 
2747.000000	65.174603 
2746.000000	65.171980 
2745.000000	65.167903 
2744.000000	65.161490 
2743.000000	65.152049 
2742.000000	65.139579 
2741.000000	65.124535 
2740.000000	65.107631 
2739.000000	65.089941 
2738.000000	65.072655 
2737.000000	65.056800 
2736.000000	65.043044 
2735.000000	65.031623 
2734.000000	65.022468 
2733.000000	65.015101 
2732.000000	65.009117 
2731.000000	65.003895 
2730.000000	64.999270 
2729.000000	64.995384 
2728.000000	64.992785 
2727.000000	64.992141 
2726.000000	64.993977 
2725.000000	64.998650 
2724.000000	65.005970 
2723.000000	65.015053 
2722.000000	65.024495 
2721.000000	65.032505 
2720.000000	65.037488 
2719.000000	65.038132 
2718.000000	65.033936 
2717.000000	65.025186 
2716.000000	65.012931 
2715.000000	64.998626 
2714.000000	64.983820 
2713.000000	64.969849 
2712.000000	64.957761 
2711.000000	64.948153 
2710.000000	64.941453 
2709.000000	64.938044 
2708.000000	64.938116 
2707.000000	64.942002 
2706.000000	64.950060 
2705.000000	64.962577 
2704.000000	64.979481 
2703.000000	65.000295 
2702.000000	65.024065 
2701.000000	65.049362 
2700.000000	65.074467 
2699.000000	65.097451 
2698.000000	65.116667 
2697.000000	65.130734 
2696.000000	65.138792 
2695.000000	65.140604 
2694.000000	65.136575 
2693.000000	65.127587 
2692.000000	65.114951 
2691.000000	65.099954 
2690.000000	65.084171 
2689.000000	65.068793 
2688.000000	65.054893 
2687.000000	65.043163 
2686.000000	65.034127 
2685.000000	65.028262 
2684.000000	65.026164 
2683.000000	65.028429 
2682.000000	65.035676 
2681.000000	65.048193 
2680.000000	65.065813 
2679.000000	65.087628 
2678.000000	65.112018 
2677.000000	65.136742 
2676.000000	65.159130 
2675.000000	65.176677 
2674.000000	65.187382 
2673.000000	65.190243 
2672.000000	65.185379 
2671.000000	65.174007 
2670.000000	65.158271 
2669.000000	65.140938 
2668.000000	65.124654 
2667.000000	65.111589 
2666.000000	65.103030 
2665.000000	65.099263 
2664.000000	65.099620 
2663.000000	65.102624 
2662.000000	65.106296 
2661.000000	65.108823 
2660.000000	65.108633 
2659.000000	65.104794 
2658.000000	65.097093 
2657.000000	65.086245 
2656.000000	65.073347 
2655.000000	65.059876 
2654.000000	65.047454 
2653.000000	65.037655 
2652.000000	65.031456 
2651.000000	65.029573 
2650.000000	65.031790 
2649.000000	65.037560 
2648.000000	65.045666 
2647.000000	65.054893 
2646.000000	65.064120 
2645.000000	65.072584 
2644.000000	65.079879 
2643.000000	65.086078 
2642.000000	65.091538 
2641.000000	65.096616 
2640.000000	65.101528 
2639.000000	65.106129 
2638.000000	65.109920 
2637.000000	65.112090 
2636.000000	65.111827 
2635.000000	65.108275 
2634.000000	65.100693 
2633.000000	65.088629 
2632.000000	65.072107 
2631.000000	65.051555 
2630.000000	65.027952 
2629.000000	65.002632 
2628.000000	64.977455 
2627.000000	64.954376 
2626.000000	64.935445 
2625.000000	64.922475 
2624.000000	64.916777 
2623.000000	64.918684 
2622.000000	64.927554 
2621.000000	64.941835 
2620.000000	64.959335 
2619.000000	64.977455 
2618.000000	64.993715 
2617.000000	65.006232 
2616.000000	65.014028 
2615.000000	65.017127 
2614.000000	65.016460 
2613.000000	65.013313 
2612.000000	65.009260 
2611.000000	65.005826 
2610.000000	65.004038 
2609.000000	65.004372 
2608.000000	65.007042 
2607.000000	65.011930 
2606.000000	65.018796 
2605.000000	65.027308 
2604.000000	65.036797 
2603.000000	65.046429 
2602.000000	65.055060 
2601.000000	65.061473 
2600.000000	65.064525 
2599.000000	65.063691 
2598.000000	65.059375 
2597.000000	65.052652 
2596.000000	65.045523 
2595.000000	65.040278 
2594.000000	65.039086 
2593.000000	65.043401 
2592.000000	65.053677 
2591.000000	65.068936 
2590.000000	65.087056 
2589.000000	65.104913 
2588.000000	65.119338 
2587.000000	65.127229 
2586.000000	65.126538 
2585.000000	65.116620 
2584.000000	65.098309 
2583.000000	65.073776 
2582.000000	65.046095 
2581.000000	65.018606 
2580.000000	64.994525 
2579.000000	64.976239 
2578.000000	64.965105 
2577.000000	64.961171 
2576.000000	64.963436 
2575.000000	64.970016 
2574.000000	64.978790 
2573.000000	64.987850 
2572.000000	64.995813 
2571.000000	65.001964 
2570.000000	65.006279 
2569.000000	65.009117 
2568.000000	65.011000 
2567.000000	65.012192 
2566.000000	65.012812 
2565.000000	65.012812 
2564.000000	65.011978 
2563.000000	65.010309 
2562.000000	65.007948 
2561.000000	65.005159 
2560.000000	65.002155 
2559.000000	64.998984 
2558.000000	64.995431 
2557.000000	64.990806 
2556.000000	64.984250 
2555.000000	64.974761 
2554.000000	64.961886 
2553.000000	64.945912 
2552.000000	64.927983 
2551.000000	64.910101 
2550.000000	64.894747 
2549.000000	64.884448 
2548.000000	64.881181 
2547.000000	64.885902 
2546.000000	64.898157 
2545.000000	64.916491 
2544.000000	64.938354 
2543.000000	64.960861 
2542.000000	64.981365 
2541.000000	64.997935 
2540.000000	65.009641 
2539.000000	65.016412 
2538.000000	65.019059 
2537.000000	65.018868 
2536.000000	65.017223 
2535.000000	65.015339 
2534.000000	65.014004 
2533.000000	65.013623 
2532.000000	65.014457 
2531.000000	65.016341 
2530.000000	65.019154 
2529.000000	65.022516 
2528.000000	65.025973 
2527.000000	65.028738 
2526.000000	65.030145 
2525.000000	65.029263 
2524.000000	65.025329 
2523.000000	65.018010 
2522.000000	65.007519 
2521.000000	64.994597 
2520.000000	64.980578 
2519.000000	64.966940 
2518.000000	64.955234 
2517.000000	64.946627 
2516.000000	64.941811 
2515.000000	64.940690 
2514.000000	64.942908 
2513.000000	64.947605 
2512.000000	64.954042 
2511.000000	64.961862 
2510.000000	64.971184 
2509.000000	64.982438 
2508.000000	64.996123 
2507.000000	65.012407 
2506.000000	65.030884 
2505.000000	65.050435 
2504.000000	65.069460 
2503.000000	65.085959 
2502.000000	65.098071 
2501.000000	65.104365 
2500.000000	65.103769 
2499.000000	65.095806 
2498.000000	65.080523 
2497.000000	65.058565 
2496.000000	65.031027 
2495.000000	64.999485 
2494.000000	64.966249 
2493.000000	64.933967 
2492.000000	64.905428 
2491.000000	64.883089 
2490.000000	64.868688 
2489.000000	64.862966 
2488.000000	64.865183 
2487.000000	64.873695 
2486.000000	64.885854 
2485.000000	64.899015 
2484.000000	64.910793 
2483.000000	64.919900 
2482.000000	64.926052 
2481.000000	64.929986 
2480.000000	64.932727 
2479.000000	64.935302 
2478.000000	64.937973 
2477.000000	64.940428 
2476.000000	64.941692 
2475.000000	64.940690 
2474.000000	64.936709 
2473.000000	64.929795 
2472.000000	64.920997 
2471.000000	64.912295 
2470.000000	64.905929 
2469.000000	64.903998 
2468.000000	64.907813 
2467.000000	64.917230 
2466.000000	64.931011 
2465.000000	64.946436 
2464.000000	64.960312 
2463.000000	64.969515 
2462.000000	64.971804 
2461.000000	64.966201 
2460.000000	64.953422 
2459.000000	64.935541 
2458.000000	64.915776 
2457.000000	64.897751 
2456.000000	64.884614 
2455.000000	64.878559 
2454.000000	64.880228 
2453.000000	64.888811 
2452.000000	64.902210 
2451.000000	64.917469 
2450.000000	64.931941 
2449.000000	64.943838 
2448.000000	64.952731 
2447.000000	64.959383 
2446.000000	64.965558 
2445.000000	64.973187 
2444.000000	64.983725 
2443.000000	64.997363 
2442.000000	65.013051 
2441.000000	65.028381 
2440.000000	65.040397 
2439.000000	65.046167 
2438.000000	65.043616 
2437.000000	65.031957 
2436.000000	65.011978 
2435.000000	64.985918 
2434.000000	64.956951 
2433.000000	64.928388 
2432.000000	64.903306 
2431.000000	64.883947 
2430.000000	64.871478 
2429.000000	64.865779 
2428.000000	64.865946 
2427.000000	64.870166 
2426.000000	64.876079 
2425.000000	64.881324 
2424.000000	64.883732 
2423.000000	64.881896 
2422.000000	64.875340 
2421.000000	64.864659 
2420.000000	64.851450 
2419.000000	64.838099 
2418.000000	64.827346 
2417.000000	64.821505 
2416.000000	64.821982 
2415.000000	64.829015 
2414.000000	64.841580 
2413.000000	64.857530 
2412.000000	64.874076 
2411.000000	64.888477 
2410.000000	64.898991 
2409.000000	64.904761 
2408.000000	64.906454 
2407.000000	64.905643 
2406.000000	64.904832 
2405.000000	64.906406 
2404.000000	64.912271 
2403.000000	64.923286 
2402.000000	64.939260 
2401.000000	64.959239 
2400.000000	64.981389 
2399.000000	65.003728 
2398.000000	65.024256 
2397.000000	65.041589 
2396.000000	65.054702 
2395.000000	65.063166 
2394.000000	65.066814 
2393.000000	65.065765 
2392.000000	65.060162 
2391.000000	65.050244 
2390.000000	65.036201 
2389.000000	65.018343 
2388.000000	64.997100 
2387.000000	64.973115 
2386.000000	64.947152 
2385.000000	64.920258 
2384.000000	64.893507 
2383.000000	64.868164 
2382.000000	64.845275 
2381.000000	64.825987 
2380.000000	64.811253 
2379.000000	64.802026 
2378.000000	64.798665 
2377.000000	64.801406 
2376.000000	64.809608 
2375.000000	64.822411 
2374.000000	64.838242 
2373.000000	64.855432 
2372.000000	64.872241 
2371.000000	64.887285 
2370.000000	64.899349 
2369.000000	64.907908 
2368.000000	64.912748 
2367.000000	64.913916 
2366.000000	64.911627 
2365.000000	64.906263 
2364.000000	64.898252 
2363.000000	64.888358 
2362.000000	64.877462 
2361.000000	64.866685 
2360.000000	64.857125 
2359.000000	64.849805 
2358.000000	64.845323 
2357.000000	64.843726 
2356.000000	64.844608 
2355.000000	64.846992 
2354.000000	64.849781 
2353.000000	64.851951 
2352.000000	64.853024 
2351.000000	64.853215 
2350.000000	64.853382 
2349.000000	64.854645 
2348.000000	64.858078 
2347.000000	64.864516 
2346.000000	64.874005 
2345.000000	64.885687 
2344.000000	64.897918 
2343.000000	64.908885 
2342.000000	64.916563 
2341.000000	64.919781 
2340.000000	64.917969 
2339.000000	64.911627 
2338.000000	64.902091 
2337.000000	64.891147 
2336.000000	64.880704 
2335.000000	64.872312 
2334.000000	64.866638 
2333.000000	64.863443 
2332.000000	64.861869 
2331.000000	64.860439 
2330.000000	64.857721 
2329.000000	64.852547 
2328.000000	64.844489 
2327.000000	64.834070 
2326.000000	64.822459 
2325.000000	64.811754 
2324.000000	64.803934 
2323.000000	64.801049 
2322.000000	64.804482 
2321.000000	64.814734 
2320.000000	64.831304 
2319.000000	64.852595 
2318.000000	64.876246 
2317.000000	64.899253 
2316.000000	64.918661 
2315.000000	64.931821 
2314.000000	64.937043 
2313.000000	64.933800 
2312.000000	64.922785 
2311.000000	64.905953 
2310.000000	64.886140 
2309.000000	64.866662 
2308.000000	64.850521 
2307.000000	64.840078 
2306.000000	64.836478 
2305.000000	64.839673 
2304.000000	64.848399 
2303.000000	64.860486 
2302.000000	64.873504 
2301.000000	64.885020 
2300.000000	64.893174 
2299.000000	64.896988 
2298.000000	64.896368 
2297.000000	64.892101 
2296.000000	64.885377 
2295.000000	64.877820 
2294.000000	64.870858 
2293.000000	64.865779 
2292.000000	64.863181 
2291.000000	64.863157 
2290.000000	64.864993 
2289.000000	64.867830 
2288.000000	64.870357 
2287.000000	64.871454 
2286.000000	64.870238 
2285.000000	64.866161 
2284.000000	64.859342 
2283.000000	64.850378 
2282.000000	64.840269 
2281.000000	64.830112 
2280.000000	64.820933 
2279.000000	64.813375 
2278.000000	64.807677 
2277.000000	64.803600 
2276.000000	64.800429 
2275.000000	64.797139 
2274.000000	64.792633 
2273.000000	64.785957 
2272.000000	64.776444 
2271.000000	64.764022 
2270.000000	64.748883 
2269.000000	64.731955 
2268.000000	64.714479 
2267.000000	64.698147 
2266.000000	64.684724 
2265.000000	64.675927 
2264.000000	64.673042 
2263.000000	64.676761 
2262.000000	64.687061 
2261.000000	64.703035 
2260.000000	64.722967 
2259.000000	64.744687 
2258.000000	64.765763 
2257.000000	64.784169 
2256.000000	64.798426 
2255.000000	64.807868 
2254.000000	64.812707 
2253.000000	64.813852 
2252.000000	64.812541 
2251.000000	64.810204 
2250.000000	64.807844 
2249.000000	64.806199 
2248.000000	64.805197 
2247.000000	64.804625 
2246.000000	64.803957 
2245.000000	64.802813 
2244.000000	64.801073 
2243.000000	64.799189 
2242.000000	64.797902 
2241.000000	64.798283 
2240.000000	64.801502 
2239.000000	64.808535 
2238.000000	64.819884 
2237.000000	64.835262 
2236.000000	64.853572 
2235.000000	64.873361 
2234.000000	64.892435 
2233.000000	64.908552 
2232.000000	64.919567 
2231.000000	64.923954 
2230.000000	64.921188 
2229.000000	64.911699 
2228.000000	64.896774 
2227.000000	64.878487 
2226.000000	64.859175 
2225.000000	64.841246 
2224.000000	64.826536 
2223.000000	64.815998 
2222.000000	64.809870 
2221.000000	64.807701 
2220.000000	64.808511 
2219.000000	64.811253 
2218.000000	64.815044 
2217.000000	64.819383 
2216.000000	64.824175 
2215.000000	64.829659 
2214.000000	64.835906 
2213.000000	64.843297 
2212.000000	64.851760 
2211.000000	64.861226 
2210.000000	64.871478 
2209.000000	64.882349 
2208.000000	64.893794 
2207.000000	64.905714 
2206.000000	64.918208 
2205.000000	64.931058 
2204.000000	64.943790 
2203.000000	64.955592 
2202.000000	64.965462 
2201.000000	64.972281 
2200.000000	64.974999 
2199.000000	64.972996 
2198.000000	64.966011 
2197.000000	64.954376 
2196.000000	64.938950 
2195.000000	64.920759 
2194.000000	64.901161 
2193.000000	64.881539 
2192.000000	64.863348 
2191.000000	64.848041 
2190.000000	64.837026 
2189.000000	64.831638 
2188.000000	64.832830 
2187.000000	64.841032 
2186.000000	64.855909 
2185.000000	64.876031 
2184.000000	64.899182 
2183.000000	64.922499 
2182.000000	64.942908 
2181.000000	64.957666 
2180.000000	64.964842 
2179.000000	64.963889 
2178.000000	64.955353 
2177.000000	64.941096 
2176.000000	64.923620 
2175.000000	64.905452 
2174.000000	64.888906 
2173.000000	64.875388 
2172.000000	64.865565 
2171.000000	64.859318 
2170.000000	64.855909 
2169.000000	64.854359 
2168.000000	64.853835 
2167.000000	64.853858 
2166.000000	64.854073 
2165.000000	64.854407 
2164.000000	64.854764 
2163.000000	64.855051 
2162.000000	64.855003 
2161.000000	64.854335 
2160.000000	64.852881 
2159.000000	64.850687 
2158.000000	64.847970 
2157.000000	64.845085 
2156.000000	64.842343 
2155.000000	64.840006 
2154.000000	64.838075 
2153.000000	64.836692 
2152.000000	64.835977 
2151.000000	64.836263 
2150.000000	64.838123 
2149.000000	64.842009 
2148.000000	64.848041 
2147.000000	64.855790 
2146.000000	64.864015 
2145.000000	64.870762 
2144.000000	64.873790 
2143.000000	64.871215 
2142.000000	64.862060 
2141.000000	64.846825 
2140.000000	64.827561 
2139.000000	64.807605 
2138.000000	64.790606 
2137.000000	64.779496 
2136.000000	64.775705 
2135.000000	64.778614 
2134.000000	64.785742 
2133.000000	64.793729 
2132.000000	64.799165 
2131.000000	64.799714 
2130.000000	64.794802 
2129.000000	64.785647 
2128.000000	64.774966 
2127.000000	64.765834 
2126.000000	64.761137 
2125.000000	64.762711 
2124.000000	64.770865 
2123.000000	64.784550 
2122.000000	64.801836 
2121.000000	64.820528 
2120.000000	64.838719 
2119.000000	64.855098 
2118.000000	64.869022 
2117.000000	64.880371 
2116.000000	64.889001 
2115.000000	64.894890 
2114.000000	64.897847 
2113.000000	64.897751 
2112.000000	64.894819 
2111.000000	64.889383 
2110.000000	64.882278 
2109.000000	64.874434 
2108.000000	64.866900 
2107.000000	64.860391 
2106.000000	64.855122 
2105.000000	64.850831 
2104.000000	64.846968 
2103.000000	64.842915 
2102.000000	64.838123 
2101.000000	64.832401 
2100.000000	64.825987 
2099.000000	64.819550 
2098.000000	64.813899 
2097.000000	64.809751 
2096.000000	64.807534 
2095.000000	64.807295 
2094.000000	64.808726 
2093.000000	64.811158 
2092.000000	64.813828 
2091.000000	64.815974 
2090.000000	64.816856 
2089.000000	64.815926 
2088.000000	64.812779 
2087.000000	64.807319 
2086.000000	64.799737 
2085.000000	64.790558 
2084.000000	64.780569 
2083.000000	64.770674 
2082.000000	64.762020 
2081.000000	64.755535 
2080.000000	64.752101 
2079.000000	64.752626 
2078.000000	64.757800 
2077.000000	64.768075 
2076.000000	64.783382 
2075.000000	64.803218 
2074.000000	64.826416 
2073.000000	64.851236 
2072.000000	64.875555 
2071.000000	64.897203 
2070.000000	64.914083 
2069.000000	64.924716 
2068.000000	64.928269 
2067.000000	64.924645 
2066.000000	64.914536 
2065.000000	64.899468 
2064.000000	64.881515 
2063.000000	64.863061 
2062.000000	64.846706 
2061.000000	64.834594 
2060.000000	64.828300 
2059.000000	64.828276 
2058.000000	64.833950 
2057.000000	64.843559 
2056.000000	64.854383 
2055.000000	64.863395 
2054.000000	64.867663 
2053.000000	64.865255 
2052.000000	64.855313 
2051.000000	64.838457 
2050.000000	64.816641 
2049.000000	64.792776 
2048.000000	64.770007 
2047.000000	64.751100 
2046.000000	64.737844 
2045.000000	64.730834 
2044.000000	64.729571 
2043.000000	64.732646 
2042.000000	64.738202 
2041.000000	64.744353 
2040.000000	64.749932 
2039.000000	64.754295 
2038.000000	64.757513 
2037.000000	64.760112 
2036.000000	64.762711 
2035.000000	64.765954 
2034.000000	64.770245 
2033.000000	64.775705 
2032.000000	64.782238 
2031.000000	64.789605 
2030.000000	64.797711 
2029.000000	64.806389 
2028.000000	64.815497 
2027.000000	64.824700 
2026.000000	64.833712 
2025.000000	64.842224 
2024.000000	64.849853 
2023.000000	64.856362 
2022.000000	64.861345 
2021.000000	64.864730 
2020.000000	64.866137 
2019.000000	64.865398 
2018.000000	64.862346 
2017.000000	64.856910 
2016.000000	64.849376 
2015.000000	64.840340 
2014.000000	64.830923 
2013.000000	64.822626 
2012.000000	64.817237 
2011.000000	64.816331 
2010.000000	64.821052 
2009.000000	64.831686 
2008.000000	64.847397 
2007.000000	64.866328 
2006.000000	64.885997 
2005.000000	64.903545 
2004.000000	64.916586 
2003.000000	64.923334 
2002.000000	64.923048 
2001.000000	64.915895 
2000.000000	64.903068 
1999.000000	64.886260 
1998.000000	64.867377 
1997.000000	64.848208 
1996.000000	64.830303 
1995.000000	64.814734 
1994.000000	64.801979 
1993.000000	64.792013 
1992.000000	64.784526 
1991.000000	64.778828 
1990.000000	64.774203 
1989.000000	64.769792 
1988.000000	64.764809 
1987.000000	64.758634 
1986.000000	64.750981 
1985.000000	64.741945 
1984.000000	64.731955 
1983.000000	64.721679 
1982.000000	64.712166 
1981.000000	64.704418 
1980.000000	64.699530 
1979.000000	64.698410 
1978.000000	64.701771 
1977.000000	64.709949 
1976.000000	64.722776 
1975.000000	64.739513 
1974.000000	64.758992 
1973.000000	64.779520 
1972.000000	64.799475 
1971.000000	64.817333 
1970.000000	64.832186 
1969.000000	64.843773 
1968.000000	64.852166 
1967.000000	64.857745 
1966.000000	64.860844 
1965.000000	64.861607 
1964.000000	64.859700 
1963.000000	64.854669 
1962.000000	64.845943 
1961.000000	64.833378 
1960.000000	64.817523 
1959.000000	64.799642 
1958.000000	64.781570 
1957.000000	64.765524 
1956.000000	64.753198 
1955.000000	64.745569 
1954.000000	64.742422 
1953.000000	64.742708 
1952.000000	64.744544 
1951.000000	64.746117 
1950.000000	64.745974 
1949.000000	64.743566 
1948.000000	64.739346 
1947.000000	64.734649 
1946.000000	64.730954 
1945.000000	64.729595 
1944.000000	64.731454 
1943.000000	64.736509 
1942.000000	64.743852 
1941.000000	64.751648 
1940.000000	64.757895 
1939.000000	64.760351 
1938.000000	64.757323 
1937.000000	64.747786 
1936.000000	64.731764 
1935.000000	64.710426 
1934.000000	64.685821 
1933.000000	64.660954 
1932.000000	64.639210 
1931.000000	64.623999 
1930.000000	64.618134 
1929.000000	64.623403 
1928.000000	64.640092 
1927.000000	64.666891 
1926.000000	64.700865 
1925.000000	64.737892 
1924.000000	64.773273 
1923.000000	64.802503 
1922.000000	64.822077 
1921.000000	64.829993 
1920.000000	64.825963 
1919.000000	64.811515 
1918.000000	64.789438 
1917.000000	64.763450 
1916.000000	64.737057 
1915.000000	64.713478 
1914.000000	64.694762 
1913.000000	64.681959 
1912.000000	64.674925 
1911.000000	64.672803 
1910.000000	64.674091 
1909.000000	64.677333 
1908.000000	64.681243 
1907.000000	64.684891 
1906.000000	64.687609 
1905.000000	64.689016 
1904.000000	64.689040 
1903.000000	64.687752 
1902.000000	64.685535 
1901.000000	64.682817 
1900.000000	64.680314 
1899.000000	64.678835 
1898.000000	64.679002 
1897.000000	64.681363 
1896.000000	64.685988 
1895.000000	64.692497 
1894.000000	64.700388 
1893.000000	64.708876 
1892.000000	64.717125 
1891.000000	64.724087 
1890.000000	64.728975 
1889.000000	64.730811 
1888.000000	64.728736 
1887.000000	64.721989 
1886.000000	64.709949 
1885.000000	64.692568 
1884.000000	64.670491 
1883.000000	64.645266 
1882.000000	64.619135 
1881.000000	64.594960 
1880.000000	64.575648 
1879.000000	64.563751 
1878.000000	64.560818 
1877.000000	64.567065 
1876.000000	64.581251 
1875.000000	64.600968 
1874.000000	64.623045 
1873.000000	64.644265 
1872.000000	64.661908 
1871.000000	64.674067 
1870.000000	64.679932 
1869.000000	64.679574 
1868.000000	64.673805 
1867.000000	64.663720 
1866.000000	64.650654 
1865.000000	64.635848 
1864.000000	64.620304 
1863.000000	64.605021 
1862.000000	64.591073 
1861.000000	64.579677 
1860.000000	64.572000 
1859.000000	64.569258 
1858.000000	64.572167 
1857.000000	64.580845 
1856.000000	64.594340 
1855.000000	64.610743 
1854.000000	64.627337 
1853.000000	64.641022 
1852.000000	64.649128 
1851.000000	64.649796 
1850.000000	64.642786 
1849.000000	64.629530 
1848.000000	64.612674 
1847.000000	64.595746 
1846.000000	64.582347 
1845.000000	64.575147 
1844.000000	64.575600 
1843.000000	64.583182 
1842.000000	64.595961 
1841.000000	64.610910 
1840.000000	64.624762 
1839.000000	64.634799 
1838.000000	64.639401 
1837.000000	64.638352 
1836.000000	64.632630 
1835.000000	64.624309 
1834.000000	64.615678 
1833.000000	64.608860 
1832.000000	64.605522 
1831.000000	64.606356 
1830.000000	64.611220 
1829.000000	64.619255 
1828.000000	64.629197 
1827.000000	64.639568 
1826.000000	64.649057 
1825.000000	64.656758 
1824.000000	64.662384 
1823.000000	64.666223 
1822.000000	64.668822 
1821.000000	64.671254 
1820.000000	64.674520 
1819.000000	64.679455 
1818.000000	64.686512 
1817.000000	64.695334 
1816.000000	64.704942 
1815.000000	64.714050 
1814.000000	64.721226 
1813.000000	64.725160 
1812.000000	64.725232 
1811.000000	64.721751 
1810.000000	64.715576 
1809.000000	64.708042 
1808.000000	64.700460 
1807.000000	64.693856 
1806.000000	64.688348 
1805.000000	64.683628 
1804.000000	64.678597 
1803.000000	64.672136 
1802.000000	64.663100 
1801.000000	64.650893 
1800.000000	64.635634 
1799.000000	64.617967 
1798.000000	64.599132 
1797.000000	64.580488 
1796.000000	64.563179 
1795.000000	64.548039 
1794.000000	64.535570 
1793.000000	64.525914 
1792.000000	64.519119 
1791.000000	64.515280 
1790.000000	64.514493 
1789.000000	64.517140 
1788.000000	64.523458 
1787.000000	64.533567 
1786.000000	64.547276 
1785.000000	64.563894 
1784.000000	64.582395 
1783.000000	64.601206 
1782.000000	64.618563 
1781.000000	64.632558 
1780.000000	64.641523 
1779.000000	64.644241 
1778.000000	64.640331 
1777.000000	64.630246 
1776.000000	64.615249 
1775.000000	64.597320 
1774.000000	64.578676 
1773.000000	64.561629 
1772.000000	64.548134 
1771.000000	64.539384 
1770.000000	64.535784 
1769.000000	64.536809 
1768.000000	64.541292 
1767.000000	64.547467 
1766.000000	64.553451 
1765.000000	64.557719 
1764.000000	64.559316 
1763.000000	64.558053 
1762.000000	64.554595 
1761.000000	64.550304 
1760.000000	64.546775 
1759.000000	64.545297 
1758.000000	64.546394 
1757.000000	64.549827 
1756.000000	64.554071 
1755.000000	64.556908 
1754.000000	64.555692 
1753.000000	64.548206 
1752.000000	64.532828 
1751.000000	64.509415 
1750.000000	64.479160 
1749.000000	64.444518 
1748.000000	64.408636 
1747.000000	64.374804 
1746.000000	64.345812 
1745.000000	64.323568 
1744.000000	64.308619 
1743.000000	64.300417 
1742.000000	64.297628 
1741.000000	64.298582 
1740.000000	64.301729 
1739.000000	64.306044 
1738.000000	64.311122 
1737.000000	64.317107 
1736.000000	64.324569 
1735.000000	64.334011 
1734.000000	64.345741 
1733.000000	64.359688 
1732.000000	64.375114 
1731.000000	64.390969 
1730.000000	64.406108 
1729.000000	64.419603 
1728.000000	64.430737 
1727.000000	64.439129 
1726.000000	64.445114 
1725.000000	64.449071 
1724.000000	64.451622 
1723.000000	64.453172 
1722.000000	64.454150 
1721.000000	64.454531 
1720.000000	64.454245 
1719.000000	64.453053 
1718.000000	64.451026 
1717.000000	64.448189 
1716.000000	64.444828 
1715.000000	64.441394 
1714.000000	64.438581 
1713.000000	64.437031 
1712.000000	64.437508 
1711.000000	64.440655 
1710.000000	64.446949 
1709.000000	64.456820 
1708.000000	64.470744 
1707.000000	64.488792 
1706.000000	64.510869 
1705.000000	64.536523 
1704.000000	64.564943 
1703.000000	64.594841 
1702.000000	64.624619 
1701.000000	64.652347 
1700.000000	64.676260 
1699.000000	64.694762 
1698.000000	64.706969 
1697.000000	64.712977 
1696.000000	64.713668 
1695.000000	64.710760 
1694.000000	64.706182 
1693.000000	64.701843 
1692.000000	64.698863 
1691.000000	64.697670 
1690.000000	64.697551 
1689.000000	64.697170 
1688.000000	64.694619 
1687.000000	64.688158 
1686.000000	64.676642 
1685.000000	64.659953 
1684.000000	64.638948 
1683.000000	64.615368 
1682.000000	64.591574 
1681.000000	64.570116 
1680.000000	64.553070 
1679.000000	64.541769 
1678.000000	64.536929 
1677.000000	64.538216 
1676.000000	64.544486 
1675.000000	64.554071 
1674.000000	64.564847 
1673.000000	64.574956 
1672.000000	64.582371 
1671.000000	64.585781 
1670.000000	64.584589 
1669.000000	64.579057 
1668.000000	64.570045 
1667.000000	64.558839 
1666.000000	64.546990 
1665.000000	64.535641 
1664.000000	64.525628 
1663.000000	64.516997 
1662.000000	64.509463 
1661.000000	64.502358 
1660.000000	64.495015 
1659.000000	64.487004 
1658.000000	64.478182 
1657.000000	64.468765 
1656.000000	64.459180 
1655.000000	64.449763 
1654.000000	64.440679 
1653.000000	64.431619 
1652.000000	64.422202 
1651.000000	64.411997 
1650.000000	64.400839 
1649.000000	64.389061 
1648.000000	64.377522 
1647.000000	64.367413 
1646.000000	64.360141 
1645.000000	64.356780 
1644.000000	64.358162 
1643.000000	64.364409 
1642.000000	64.375281 
1641.000000	64.390063 
1640.000000	64.407801 
1639.000000	64.427375 
1638.000000	64.447760 
1637.000000	64.467883 
1636.000000	64.486837 
1635.000000	64.503669 
1634.000000	64.517593 
1633.000000	64.527869 
1632.000000	64.534020 
1631.000000	64.535713 
1630.000000	64.533066 
1629.000000	64.526319 
1628.000000	64.515924 
1627.000000	64.502215 
1626.000000	64.485692 
1625.000000	64.466714 
1624.000000	64.445734 
1623.000000	64.423274 
1622.000000	64.400386 
1621.000000	64.378547 
1620.000000	64.359569 
1619.000000	64.345455 
1618.000000	64.337944 
1617.000000	64.338374 
1616.000000	64.347052 
1615.000000	64.363145 
1614.000000	64.384627 
1613.000000	64.408731 
1612.000000	64.432287 
1611.000000	64.452314 
1610.000000	64.466357 
1609.000000	64.473032 
1608.000000	64.471960 
1607.000000	64.463710 
1606.000000	64.449572 
1605.000000	64.431333 
1604.000000	64.411211 
1603.000000	64.391493 
1602.000000	64.374375 
1601.000000	64.361810 
1600.000000	64.355397 
1599.000000	64.356279 
1598.000000	64.365077 
1597.000000	64.381551 
1596.000000	64.404749 
1595.000000	64.432907 
1594.000000	64.463782 
1593.000000	64.494514 
1592.000000	64.522171 
1591.000000	64.544177 
1590.000000	64.558696 
1589.000000	64.564943 
1588.000000	64.563179 
1587.000000	64.554858 
1586.000000	64.541840 
1585.000000	64.526200 
1584.000000	64.509487 
1583.000000	64.492654 
1582.000000	64.475917 
1581.000000	64.459156 
1580.000000	64.441847 
1579.000000	64.423751 
1578.000000	64.404821 
1577.000000	64.385700 
1576.000000	64.367341 
1575.000000	64.351201 
1574.000000	64.338898 
1573.000000	64.332175 
1572.000000	64.332509 
1571.000000	64.340996 
1570.000000	64.357924 
1569.000000	64.382982 
1568.000000	64.414787 
1567.000000	64.451146 
1566.000000	64.489197 
1565.000000	64.525794 
1564.000000	64.557766 
1563.000000	64.582300 
1562.000000	64.597558 
1561.000000	64.602589 
1560.000000	64.597558 
1559.000000	64.583539 
1558.000000	64.562582 
1557.000000	64.537048 
1556.000000	64.509582 
1555.000000	64.482545 
1554.000000	64.458012 
1553.000000	64.437532 
1552.000000	64.422059 
1551.000000	64.411854 
1550.000000	64.406609 
1549.000000	64.405417 
1548.000000	64.406919 
1547.000000	64.409136 
1546.000000	64.409995 
1545.000000	64.407491 
1544.000000	64.400458 
1543.000000	64.388561 
1542.000000	64.372849 
1541.000000	64.355325 
1540.000000	64.338850 
1539.000000	64.326214 
1538.000000	64.319396 
1537.000000	64.319252 
1536.000000	64.325141 
1535.000000	64.335298 
1534.000000	64.347195 
1533.000000	64.358210 
1532.000000	64.365983 
1531.000000	64.368915 
1530.000000	64.366292 
1529.000000	64.358353 
1528.000000	64.346003 
1527.000000	64.330530 
1526.000000	64.313578 
1525.000000	64.296913 
1524.000000	64.282155 
1523.000000	64.270710 
1522.000000	64.263796 
1521.000000	64.262294 
1520.000000	64.266467 
1519.000000	64.276051 
1518.000000	64.290094 
1517.000000	64.307427 
1516.000000	64.326381 
1515.000000	64.345312 
1514.000000	64.362812 
1513.000000	64.377999 
1512.000000	64.390420 
1511.000000	64.400196 
1510.000000	64.407873 
1509.000000	64.414191 
1508.000000	64.420056 
1507.000000	64.426183 
1506.000000	64.433240 
1505.000000	64.441537 
1504.000000	64.451217 
1503.000000	64.462018 
1502.000000	64.473438 
1501.000000	64.484548 
1500.000000	64.494204 
1499.000000	64.501261 
1498.000000	64.504766 
1497.000000	64.504265 
1496.000000	64.500117 
1495.000000	64.493417 
1494.000000	64.485859 
1493.000000	64.479374 
1492.000000	64.475679 
1491.000000	64.475798 
1490.000000	64.479899 
1489.000000	64.487195 
1488.000000	64.496159 
1487.000000	64.505171 
1486.000000	64.512443 
1485.000000	64.516687 
1484.000000	64.516901 
1483.000000	64.512705 
1482.000000	64.503908 
1481.000000	64.490628 
1480.000000	64.473032 
1479.000000	64.451289 
1478.000000	64.425945 
1477.000000	64.397954 
1476.000000	64.368939 
1475.000000	64.340925 
1474.000000	64.316487 
1473.000000	64.298057 
1472.000000	64.287400 
1471.000000	64.285135 
1470.000000	64.290237 
1469.000000	64.300346 
1468.000000	64.311766 
1467.000000	64.320611 
1466.000000	64.323544 
1465.000000	64.318943 
1464.000000	64.306950 
1463.000000	64.289784 
1462.000000	64.271283 
1461.000000	64.255881 
1460.000000	64.247560 
1459.000000	64.248824 
1458.000000	64.260315 
1457.000000	64.280390 
1456.000000	64.305758 
1455.000000	64.332103 
1454.000000	64.355015 
1453.000000	64.370918 
1452.000000	64.377713 
1451.000000	64.375162 
1450.000000	64.364624 
1449.000000	64.348816 
1448.000000	64.331102 
1447.000000	64.314937 
1446.000000	64.303040 
1445.000000	64.297342 
1444.000000	64.298558 
1443.000000	64.306163 
1442.000000	64.318490 
1441.000000	64.333224 
1440.000000	64.347672 
1439.000000	64.359307 
1438.000000	64.366173 
1437.000000	64.367103 
1436.000000	64.361858 
1435.000000	64.351105 
1434.000000	64.336156 
1433.000000	64.318633 
1432.000000	64.300012 
1431.000000	64.281678 
1430.000000	64.264535 
1429.000000	64.249205 
1428.000000	64.236211 
1427.000000	64.225983 
1426.000000	64.218902 
1425.000000	64.215517 
1424.000000	64.216399 
1423.000000	64.222025 
1422.000000	64.232397 
1421.000000	64.246821 
1420.000000	64.264130 
1419.000000	64.282631 
1418.000000	64.300251 
1417.000000	64.315152 
1416.000000	64.325976 
1415.000000	64.331984 
1414.000000	64.333248 
1413.000000	64.330506 
1412.000000	64.324784 
1411.000000	64.317083 
1410.000000	64.308166 
1409.000000	64.298343 
1408.000000	64.287757 
1407.000000	64.276289 
1406.000000	64.263963 
1405.000000	64.251041 
1404.000000	64.238095 
1403.000000	64.225840 
1402.000000	64.215016 
1401.000000	64.206194 
1400.000000	64.199328 
1399.000000	64.194273 
1398.000000	64.190387 
1397.000000	64.187216 
1396.000000	64.184498 
1395.000000	64.182424 
1394.000000	64.181447 
1393.000000	64.182257 
1392.000000	64.185333 
1391.000000	64.190602 
1390.000000	64.197182 
1389.000000	64.203786 
1388.000000	64.208817 
1387.000000	64.210772 
1386.000000	64.208650 
1385.000000	64.202189 
1384.000000	64.192152 
1383.000000	64.179992 
1382.000000	64.167690 
1381.000000	64.157319 
1380.000000	64.150667 
1379.000000	64.149188 
1378.000000	64.153575 
1377.000000	64.163732 
1376.000000	64.178872 
1375.000000	64.197802 
1374.000000	64.218759 
1373.000000	64.239716 
1372.000000	64.258599 
1371.000000	64.273428 
1370.000000	64.282631 
1369.000000	64.285087 
1368.000000	64.280366 
1367.000000	64.268946 
1366.000000	64.251804 
1365.000000	64.230394 
1364.000000	64.206337 
1363.000000	64.181256 
1362.000000	64.156436 
1361.000000	64.133071 
1360.000000	64.111924 
1359.000000	64.093542 
1358.000000	64.078259 
1357.000000	64.066720 
1356.000000	64.059257 
1355.000000	64.056420 
1354.000000	64.058899 
1353.000000	64.067292 
1352.000000	64.081716 
1351.000000	64.102149 
1350.000000	64.127802 
1349.000000	64.157390 
1348.000000	64.189195 
1347.000000	64.221334 
1346.000000	64.251732 
1345.000000	64.278864 
1344.000000	64.301562 
1343.000000	64.319252 
1342.000000	64.331817 
1341.000000	64.339423 
1340.000000	64.342522 
1339.000000	64.341330 
1338.000000	64.336013 
1337.000000	64.326739 
1336.000000	64.313745 
1335.000000	64.297485 
1334.000000	64.278507 
1333.000000	64.257907 
1332.000000	64.236927 
1331.000000	64.216637 
1330.000000	64.197897 
1329.000000	64.181137 
1328.000000	64.166498 
1327.000000	64.153885 
1326.000000	64.143323 
1325.000000	64.134931 
1324.000000	64.129233 
1323.000000	64.127016 
1322.000000	64.129137 
1321.000000	64.136052 
1320.000000	64.147710 
1319.000000	64.163160 
1318.000000	64.180874 
1317.000000	64.198470 
1316.000000	64.213800 
1315.000000	64.225435 
1314.000000	64.233064 
1313.000000	64.237284 
1312.000000	64.239835 
1311.000000	64.243030 
1310.000000	64.249014 
1309.000000	64.259123 
1308.000000	64.273667 
1307.000000	64.291596 
1306.000000	64.310908 
1305.000000	64.329051 
1304.000000	64.343333 
1303.000000	64.351534 
1302.000000	64.352321 
1301.000000	64.345550 
1300.000000	64.331984 
1299.000000	64.313459 
1298.000000	64.292359 
1297.000000	64.271235 
1296.000000	64.252495 
1295.000000	64.237833 
1294.000000	64.228343 
1293.000000	64.223980 
1292.000000	64.224028 
1291.000000	64.226722 
1290.000000	64.230012 
1289.000000	64.231586 
1288.000000	64.229345 
1287.000000	64.221644 
1286.000000	64.207649 
1285.000000	64.187550 
1284.000000	64.162516 
1283.000000	64.134597 
1282.000000	64.106202 
1281.000000	64.079952 
1280.000000	64.058113 
1279.000000	64.042186 
1278.000000	64.032793 
1277.000000	64.029598 
1276.000000	64.031505 
1275.000000	64.036893 
1274.000000	64.043951 
1273.000000	64.050984 
1272.000000	64.056754 
1271.000000	64.060425 
1270.000000	64.061999 
1269.000000	64.062023 
1268.000000	64.061498 
1267.000000	64.061737 
1266.000000	64.064025 
1265.000000	64.069080 
1264.000000	64.077258 
1263.000000	64.088416 
1262.000000	64.102005 
1261.000000	64.117217 
1260.000000	64.133262 
1259.000000	64.149546 
1258.000000	64.165663 
1257.000000	64.181327 
1256.000000	64.196181 
1255.000000	64.209699 
1254.000000	64.220929 
1253.000000	64.228725 
1252.000000	64.231991 
1251.000000	64.229941 
1250.000000	64.222478 
1249.000000	64.210128 
1248.000000	64.194488 
1247.000000	64.177608 
1246.000000	64.161658 
1245.000000	64.148235 
1244.000000	64.138245 
1243.000000	64.131569 
1242.000000	64.127516 
1241.000000	64.124846 
1240.000000	64.122390 
1239.000000	64.119434 
1238.000000	64.116072 
1237.000000	64.113068 
1236.000000	64.111399 
1235.000000	64.111900 
1234.000000	64.114832 
1233.000000	64.119601 
1232.000000	64.124870 
1231.000000	64.128899 
1230.000000	64.130210 
1229.000000	64.128041 
1228.000000	64.122581 
1227.000000	64.115023 
1226.000000	64.107275 
1225.000000	64.101433 
1224.000000	64.099287 
1223.000000	64.101982 
1222.000000	64.109826 
1221.000000	64.122414 
1220.000000	64.138627 
1219.000000	64.157032 
1218.000000	64.175939 
1217.000000	64.193797 
1216.000000	64.209103 
1215.000000	64.220476 
1214.000000	64.226770 
1213.000000	64.227247 
1212.000000	64.221596 
1211.000000	64.209961 
1210.000000	64.193272 
1209.000000	64.173150 
1208.000000	64.151716 
1207.000000	64.131212 
1206.000000	64.113712 
1205.000000	64.100623 
1204.000000	64.092493 
1203.000000	64.089035 
1202.000000	64.089179 
1201.000000	64.091277 
1200.000000	64.093780 
1199.000000	64.095449 
1198.000000	64.095520 
1197.000000	64.093923 
1196.000000	64.091062 
1195.000000	64.087653 
1194.000000	64.084482 
1193.000000	64.082169 
1192.000000	64.080834 
1191.000000	64.080572 
1190.000000	64.081168 
1189.000000	64.082551 
1188.000000	64.085173 
1187.000000	64.089894 
1186.000000	64.097666 
1185.000000	64.109182 
1184.000000	64.124703 
1183.000000	64.143586 
1182.000000	64.164185 
1181.000000	64.183878 
1180.000000	64.199590 
1179.000000	64.208459 
1178.000000	64.208412 
1177.000000	64.198374 
1176.000000	64.178657 
1175.000000	64.150977 
1174.000000	64.118170 
1173.000000	64.083790 
1172.000000	64.051604 
1171.000000	64.025187 
1170.000000	64.007306 
1169.000000	63.999891 
1168.000000	64.003562 
1167.000000	64.017796 
1166.000000	64.040327 
1165.000000	64.067721 
1164.000000	64.095520 
1163.000000	64.118838 
1162.000000	64.133048 
1161.000000	64.134716 
1160.000000	64.122247 
1159.000000	64.096236 
1158.000000	64.059329 
1157.000000	64.016103 
1156.000000	63.972067 
1155.000000	63.932681 
1154.000000	63.902473 
1153.000000	63.884401 
1152.000000	63.879370 
1151.000000	63.886332 
1150.000000	63.902831 
1149.000000	63.925409 
1148.000000	63.950324 
1147.000000	63.974022 
1146.000000	63.993620 
1145.000000	64.007163 
1144.000000	64.013504 
1143.000000	64.012336 
1142.000000	64.004087 
1141.000000	63.989853 
1140.000000	63.971614 
1139.000000	63.951659 
1138.000000	63.932442 
1137.000000	63.916063 
1136.000000	63.904356 
1135.000000	63.898348 
1134.000000	63.898205 
1133.000000	63.903212 
1132.000000	63.911747 
1131.000000	63.921976 
1130.000000	63.932275 
1129.000000	63.941407 
1128.000000	63.948798 
1127.000000	63.954687 
1126.000000	63.959884 
1125.000000	63.965487 
1124.000000	63.972544 
1123.000000	63.981437 
1122.000000	63.991856 
1121.000000	64.002776 
1120.000000	64.012718 
1119.000000	64.020037 
1118.000000	64.023613 
1117.000000	64.023041 
1116.000000	64.019179 
1115.000000	64.014077 
1114.000000	64.010667 
1113.000000	64.012217 
1112.000000	64.021229 
1111.000000	64.039087 
1110.000000	64.064979 
1109.000000	64.096426 
1108.000000	64.128923 
1107.000000	64.157128 
1106.000000	64.175581 
1105.000000	64.180159 
1104.000000	64.168763 
1103.000000	64.142012 
1102.000000	64.102888 
1101.000000	64.056491 
1100.000000	64.008688 
1099.000000	63.965034 
1098.000000	63.929843 
1097.000000	63.905572 
1096.000000	63.892698 
1095.000000	63.890123 
1094.000000	63.895726 
1093.000000	63.906955 
1092.000000	63.921475 
1091.000000	63.937377 
1090.000000	63.953089 
1089.000000	63.967633 
1088.000000	63.980102 
1087.000000	63.990092 
1086.000000	63.997387 
1085.000000	64.002084 
1084.000000	64.004826 
1083.000000	64.006304 
1082.000000	64.007687 
1081.000000	64.009666 
1080.000000	64.012455 
1079.000000	64.015555 
1078.000000	64.017796 
1077.000000	64.017653 
1076.000000	64.013814 
1075.000000	64.005827 
1074.000000	63.994336 
1073.000000	63.981103 
1072.000000	63.968729 
1071.000000	63.960003 
1070.000000	63.957095 
1069.000000	63.960766 
1068.000000	63.970112 
1067.000000	63.982820 
1066.000000	63.995862 
1065.000000	64.006018 
1064.000000	64.010572 
1063.000000	64.008474 
1062.000000	64.000225 
1061.000000	63.987612 
1060.000000	63.973283 
1059.000000	63.959693 
1058.000000	63.948869 
1057.000000	63.941693 
1056.000000	63.937830 
1055.000000	63.936424 
1054.000000	63.936305 
1053.000000	63.936638 
1052.000000	63.937044 
1051.000000	63.937735 
1050.000000	63.939189 
1049.000000	63.941740 
1048.000000	63.945293 
1047.000000	63.948845 
1046.000000	63.951039 
1045.000000	63.950109 
1044.000000	63.944888 
1043.000000	63.935232 
1042.000000	63.922381 
1041.000000	63.909006 
1040.000000	63.898658 
1039.000000	63.894963 
1038.000000	63.900661 
1037.000000	63.917016 
1036.000000	63.943266 
1035.000000	63.977050 
1034.000000	64.015030 
1033.000000	64.053702 
1032.000000	64.090418 
1031.000000	64.123582 
1030.000000	64.152956 
1029.000000	64.179205 
1028.000000	64.203214 
1027.000000	64.225363 
1026.000000	64.245104 
1025.000000	64.260959 
1024.000000	64.271140 
1023.000000	64.274024 
1022.000000	64.269137 
1021.000000	64.257335 
1020.000000	64.241194 
1019.000000	64.223909 
1018.000000	64.208912 
1017.000000	64.198470 
1016.000000	64.193391 
1015.000000	64.192724 
1014.000000	64.194083 
1013.000000	64.194703 
1012.000000	64.192175 
1011.000000	64.184927 
1010.000000	64.172959 
1009.000000	64.157366 
1008.000000	64.140295 
1007.000000	64.124155 
1006.000000	64.111137 
1005.000000	64.102554 
1004.000000	64.098668 
1003.000000	64.099097 
1002.000000	64.102721 
1001.000000	64.108300 
1000.000000	64.114499 
999.000000	 64.120650 
998.000000	 64.126467 
997.000000	 64.131808 
996.000000	 64.136528 
995.000000	 64.140510 
994.000000	 64.143395 
993.000000	 64.144611 
992.000000	 64.143681 
991.000000	 64.140319 
990.000000	 64.134883 
989.000000	 64.128279 
988.000000	 64.122128 
987.000000	 64.118456 
986.000000	 64.119124 
985.000000	 64.125275 
984.000000	 64.136695 
983.000000	 64.151430 
982.000000	 64.166092 
981.000000	 64.176607 
980.000000	 64.179229 
979.000000	 64.171266 
978.000000	 64.152240 
977.000000	 64.123940 
976.000000	 64.090037 
975.000000	 64.055323 
974.000000	 64.024519 
973.000000	 64.001488 
972.000000	 63.988089 
971.000000	 63.984251 
970.000000	 63.988184 
969.000000	 63.997030 
968.000000	 64.007639 
967.000000	 64.017462 
966.000000	 64.024806 
965.000000	 64.029002 
964.000000	 64.029932 
963.000000	 64.027833 
962.000000	 64.022755 
961.000000	 64.014601 
960.000000	 64.003062 
959.000000	 63.988280 
958.000000	 63.970899 
957.000000	 63.952136 
956.000000	 63.933801 
955.000000	 63.917946 
954.000000	 63.906288 
953.000000	 63.900041 
952.000000	 63.899445 
951.000000	 63.903689 
950.000000	 63.911104 
949.000000	 63.919448 
948.000000	 63.926792 
947.000000	 63.931560 
946.000000	 63.933420 
945.000000	 63.932752 
944.000000	 63.931131 
943.000000	 63.930535 
942.000000	 63.932824 
941.000000	 63.939118 
940.000000	 63.949489 
939.000000	 63.962960 
938.000000	 63.977646 
937.000000	 63.991332 
936.000000	 64.002156 
935.000000	 64.008951 
934.000000	 64.011693 
933.000000	 64.011597 
932.000000	 64.010524 
931.000000	 64.010620 
930.000000	 64.013409 
929.000000	 64.019322 
928.000000	 64.027523 
927.000000	 64.036107 
926.000000	 64.042854 
925.000000	 64.045667 
924.000000	 64.043521 
923.000000	 64.036798 
922.000000	 64.027309 
921.000000	 64.018011 
920.000000	 64.011955 
919.000000	 64.011788 
918.000000	 64.018940 
917.000000	 64.033174 
916.000000	 64.052534 
915.000000	 64.073657 
914.000000	 64.092540 
913.000000	 64.105319 
912.000000	 64.109110 
911.000000	 64.102959 
910.000000	 64.087700 
909.000000	 64.066267 
908.000000	 64.042782 
907.000000	 64.021849 
906.000000	 64.007544 
905.000000	 64.002561 
904.000000	 64.007592 
903.000000	 64.021348 
902.000000	 64.040899 
901.000000	 64.062356 
900.000000	 64.081740 
899.000000	 64.095711 
898.000000	 64.102196 
897.000000	 64.100694 
896.000000	 64.092183 
895.000000	 64.078474 
894.000000	 64.061665 
893.000000	 64.043760 
892.000000	 64.026188 
891.000000	 64.009976 
890.000000	 63.995671 
889.000000	 63.983917 
888.000000	 63.975334 
887.000000	 63.970923 
886.000000	 63.971734 
885.000000	 63.978719 
884.000000	 63.992309 
883.000000	 64.012145 
882.000000	 64.036560 
881.000000	 64.062786 
880.000000	 64.087057 
879.000000	 64.105391 
878.000000	 64.114236 
877.000000	 64.111280 
876.000000	 64.096236 
875.000000	 64.071154 
874.000000	 64.040184 
873.000000	 64.008879 
872.000000	 63.983249 
871.000000	 63.968253 
870.000000	 63.967013 
869.000000	 63.979864 
868.000000	 64.004826 
867.000000	 64.037728 
866.000000	 64.073157 
865.000000	 64.105725 
864.000000	 64.131236 
863.000000	 64.147496 
862.000000	 64.154195 
861.000000	 64.152956 
860.000000	 64.146423 
859.000000	 64.137673 
858.000000	 64.129281 
857.000000	 64.122700 
856.000000	 64.118194 
855.000000	 64.114952 
854.000000	 64.111542 
853.000000	 64.106440 
852.000000	 64.098620 
851.000000	 64.087891 
850.000000	 64.074802 
849.000000	 64.060854 
848.000000	 64.047813 
847.000000	 64.037537 
846.000000	 64.031338 
845.000000	 64.029622 
844.000000	 64.031648 
843.000000	 64.035773 
842.000000	 64.039468 
841.000000	 64.039731 
840.000000	 64.033555 
839.000000	 64.018845 
838.000000	 63.994669 
837.000000	 63.961553 
836.000000	 63.921546 
835.000000	 63.877677 
834.000000	 63.833665 
833.000000	 63.793253 
832.000000	 63.759493 
831.000000	 63.734030 
830.000000	 63.717007 
829.000000	 63.706851 
828.000000	 63.701224 
827.000000	 63.697648 
826.000000	 63.694143 
825.000000	 63.689804 
824.000000	 63.685131 
823.000000	 63.681817 
822.000000	 63.681960 
821.000000	 63.687348 
820.000000	 63.698840 
819.000000	 63.716053 
818.000000	 63.737511 
817.000000	 63.760948 
816.000000	 63.784432 
815.000000	 63.806390 
814.000000	 63.825964 
813.000000	 63.842773 
812.000000	 63.856625 
811.000000	 63.867235 
810.000000	 63.873910 
809.000000	 63.875985 
808.000000	 63.872408 
807.000000	 63.863015 
806.000000	 63.848590 
805.000000	 63.831686 
804.000000	 63.816285 
803.000000	 63.807535 
802.000000	 63.810324 
801.000000	 63.828372 
800.000000	 63.863325 
799.000000	 63.913488 
798.000000	 63.974046 
797.000000	 64.037775 
796.000000	 64.096593 
795.000000	 64.143490 
794.000000	 64.174151 
793.000000	 64.187860 
792.000000	 64.187479 
791.000000	 64.178967 
790.000000	 64.169049 
789.000000	 64.163875 
788.000000	 64.166283 
787.000000	 64.175701 
786.000000	 64.187455 
785.000000	 64.194655 
784.000000	 64.189743 
783.000000	 64.167189 
782.000000	 64.124989 
781.000000	 64.065766 
780.000000	 63.996386 
779.000000	 63.926339 
778.000000	 63.865828 
777.000000	 63.822937 
776.000000	 63.802480 
775.000000	 63.804984 
774.000000	 63.826608 
773.000000	 63.860464 
772.000000	 63.897848 
771.000000	 63.930559 
770.000000	 63.951802 
769.000000	 63.957667 
768.000000	 63.947153 
767.000000	 63.921880 
766.000000	 63.885593 
765.000000	 63.842821 
764.000000	 63.798499 
763.000000	 63.756680 
762.000000	 63.720273 
761.000000	 63.690710 
760.000000	 63.668322 
759.000000	 63.652443 
758.000000	 63.641881 
757.000000	 63.635396 
756.000000	 63.632369 
755.000000	 63.632702 
754.000000	 63.636684 
753.000000	 63.644075 
752.000000	 63.653898 
751.000000	 63.663744 
750.000000	 63.670063 
749.000000	 63.668966 
748.000000	 63.656687 
747.000000	 63.631629 
746.000000	 63.594698 
745.000000	 63.550496 
744.000000	 63.506364 
743.000000	 63.471508 
742.000000	 63.455033 
741.000000	 63.463664 
740.000000	 63.500142 
739.000000	 63.562273 
738.000000	 63.643002 
737.000000	 63.731575 
736.000000	 63.815140 
735.000000	 63.881969 
734.000000	 63.923096 
733.000000	 63.933324 
732.000000	 63.912391 
731.000000	 63.864302 
730.000000	 63.796973 
729.000000	 63.720655 
728.000000	 63.645911 
727.000000	 63.583064 
726.000000	 63.538956 
725.000000	 63.517308 
724.000000	 63.516736 
723.000000	 63.532590 
722.000000	 63.556790 
721.000000	 63.580107 
720.000000	 63.593721 
719.000000	 63.591098 
718.000000	 63.569831 
717.000000	 63.531923 
716.000000	 63.483738 
715.000000	 63.434267 
714.000000	 63.394665 
713.000000	 63.375663 
712.000000	 63.385462 
711.000000	 63.427734 
710.000000	 63.501310 
709.000000	 63.599753 
708.000000	 63.712239 
707.000000	 63.825273 
706.000000	 63.925337 
705.000000	 64.001107 
704.000000	 64.044690 
703.000000	 64.053940 
702.000000	 64.032077 
701.000000	 63.987636 
700.000000	 63.932490 
699.000000	 63.879466 
698.000000	 63.840055 
697.000000	 63.821792 
696.000000	 63.828444 
695.000000	 63.857674 
694.000000	 63.902831 
693.000000	 63.953280 
692.000000	 63.997602 
691.000000	 64.024353 
690.000000	 64.024496 
689.000000	 63.992357 
688.000000	 63.926768 
687.000000	 63.830566 
686.000000	 63.710045 
685.000000	 63.573884 
684.000000	 63.431906 
683.000000	 63.293671 
682.000000	 63.167095 
681.000000	 63.058447 
680.000000	 62.971806 
679.000000	 62.908196 
678.000000	 62.867236 
677.000000	 62.846350 
676.000000	 62.843441 
675.000000	 62.856912 
674.000000	 62.886381 
673.000000	 62.931084 
672.000000	 62.989902 
671.000000	 63.059067 
670.000000	 63.133406 
669.000000	 63.205504 
668.000000	 63.268232 
667.000000	 63.315367 
666.000000	 63.344788 
665.000000	 63.359093 
664.000000	 63.363790 
663.000000	 63.365745 
662.000000	 63.371157 
661.000000	 63.384103 
660.000000	 63.405156 
659.000000	 63.431882 
658.000000	 63.460469 
657.000000	 63.487577 
656.000000	 63.512635 
655.000000	 63.538002 
654.000000	 63.568353 
653.000000	 63.608384 
652.000000	 63.661098 
651.000000	 63.725733 
650.000000	 63.796186 
649.000000	 63.863205 
648.000000	 63.916707 
647.000000	 63.949656 
646.000000	 63.959550 
645.000000	 63.950920 
644.000000	 63.934254 
643.000000	 63.924193 
642.000000	 63.935256 
641.000000	 63.979506 
640.000000	 64.063072 
639.000000	 64.185953 
638.000000	 64.341950 
637.000000	 64.520549 
636.000000	 64.709091 
635.000000	 64.894485 
634.000000	 65.064930 
633.000000	 65.209460 
632.000000	 65.317726 
631.000000	 65.380668 
630.000000	 65.389752 
629.000000	 65.337944 
628.000000	 65.219974 
627.000000	 65.036988 
626.000000	 64.795112 
625.000000	 64.507389 
624.000000	 64.190793 
623.000000	 63.865947 
622.000000	 63.553261 
621.000000	 63.270759 
620.000000	 63.032531 
619.000000	 62.845730 
618.000000	 62.713861 
617.000000	 62.636590 
616.000000	 62.612581 
615.000000	 62.637352 
614.000000	 62.707042 
613.000000	 62.816214 
612.000000	 62.958121 
611.000000	 63.121819 
610.000000	 63.294601 
609.000000	 63.461995 
608.000000	 63.610911 
607.000000	 63.731336 
606.000000	 63.819837 
605.000000	 63.880085 
604.000000	 63.922667 
603.000000	 63.961958 
602.000000	 64.013290 
601.000000	 64.087629 
600.000000	 64.189648 
599.000000	 64.314389 
598.000000	 64.450049 
597.000000	 64.578199 
596.000000	 64.680933 
595.000000	 64.741516 
594.000000	 64.749193 
593.000000	 64.699673 
592.000000	 64.597463 
591.000000	 64.452719 
590.000000	 64.278697 
589.000000	 64.090156 
588.000000	 63.901710 
587.000000	 63.725852 
586.000000	 63.571977 
585.000000	 63.447332 
584.000000	 63.357615 
583.000000	 63.307595 
582.000000	 63.301253 
581.000000	 63.340806 
580.000000	 63.425445 
579.000000	 63.550877 
578.000000	 63.708376 
577.000000	 63.884043 
576.000000	 64.059758 
575.000000	 64.215707 
574.000000	 64.333057 
573.000000	 64.397168 
572.000000	 64.400100 
571.000000	 64.342665 
570.000000	 64.233660 
569.000000	 64.089083 
568.000000	 63.928008 
567.000000	 63.770318 
566.000000	 63.632035 
565.000000	 63.523411 
564.000000	 63.448166 
563.000000	 63.404870 
562.000000	 63.388562 
561.000000	 63.393044 
560.000000	 63.413476 
559.000000	 63.446879 
558.000000	 63.493204 
557.000000	 63.553452 
556.000000	 63.627767 
555.000000	 63.713026 
554.000000	 63.803458 
553.000000	 63.890933 
552.000000	 63.967490 
551.000000	 64.027142 
550.000000	 64.068198 
549.000000	 64.093351 
548.000000	 64.109516 
547.000000	 64.124917 
546.000000	 64.146399 
545.000000	 64.176702 
544.000000	 64.214515 
543.000000	 64.253282 
542.000000	 64.283776 
541.000000	 64.295387 
540.000000	 64.280104 
539.000000	 64.233875 
538.000000	 64.157891 
537.000000	 64.058756 
536.000000	 63.946199 
535.000000	 63.833069 
534.000000	 63.732290 
533.000000	 63.656258 
532.000000	 63.614606 
531.000000	 63.613390 
530.000000	 63.654541 
529.000000	 63.734102 
528.000000	 63.842606 
527.000000	 63.965225 
526.000000	 64.083933 
525.000000	 64.180803 
524.000000	 64.240980 
523.000000	 64.255595 
522.000000	 64.222931 
521.000000	 64.149117 
520.000000	 64.045834 
519.000000	 63.927650 
518.000000	 63.808226 
517.000000	 63.698220 
516.000000	 63.603401 
515.000000	 63.525271 
514.000000	 63.461613 
513.000000	 63.408780 
512.000000	 63.363337 
511.000000	 63.324236 
510.000000	 63.292789 
509.000000	 63.270998 
508.000000	 63.261961 
507.000000	 63.266658 
506.000000	 63.285541 
505.000000	 63.316798 
504.000000	 63.358211 
503.000000	 63.406920 
502.000000	 63.460206 
501.000000	 63.515663 
500.000000	 63.570499 
499.000000	 63.621401 
498.000000	 63.664126 
497.000000	 63.693857 
496.000000	 63.705348 
495.000000	 63.694405 
494.000000	 63.659763 
493.000000	 63.604021 
492.000000	 63.532805 
491.000000	 63.455414 
490.000000	 63.383555 
489.000000	 63.330221 
488.000000	 63.305997 
487.000000	 63.318729 
486.000000	 63.372159 
485.000000	 63.465261 
484.000000	 63.592696 
483.000000	 63.744258 
482.000000	 63.906407 
481.000000	 64.063072 
480.000000	 64.198017 
479.000000	 64.296340 
478.000000	 64.346432 
477.000000	 64.342522 
476.000000	 64.285993 
475.000000	 64.185261 
474.000000	 64.054584 
473.000000	 63.911676 
472.000000	 63.774275 
471.000000	 63.657331 
470.000000	 63.569641 
469.000000	 63.512444 
468.000000	 63.478803 
467.000000	 63.454866 
466.000000	 63.422989 
465.000000	 63.366484 
464.000000	 63.273596 
463.000000	 63.138937 
462.000000	 62.965965 
461.000000	 62.765169 
460.000000	 62.553286 
459.000000	 62.348270 
458.000000	 62.167978 
457.000000	 62.024593 
456.000000	 61.926817 
455.000000	 61.878204 
454.000000	 61.879086 
453.000000	 61.926174 
452.000000	 62.014150 
451.000000	 62.136411 
450.000000	 62.282919 
449.000000	 62.439537 
448.000000	 62.588262 
447.000000	 62.708878 
446.000000	 62.782287 
445.000000	 62.794828 
444.000000	 62.742519 
443.000000	 62.633609 
442.000000	 62.491440 
441.000000	 62.350678 
440.000000	 62.249255 
439.000000	 62.219667 
438.000000	 62.285542 
437.000000	 62.451863 
436.000000	 62.701177 
435.000000	 62.995958 
434.000000	 63.290452 
433.000000	 63.536739 
432.000000	 63.694763 
431.000000	 63.739919 
430.000000	 63.668465 
429.000000	 63.495564 
428.000000	 63.249301 
427.000000	 62.965106 
426.000000	 62.680506 
425.000000	 62.424612 
424.000000	 62.211608 
423.000000	 62.047529 
422.000000	 61.935305 
421.000000	 61.874842 
420.000000	 61.866021 
419.000000	 61.912202 
418.000000	 62.019705 
417.000000	 62.193822 
416.000000	 62.438535 
415.000000	 62.745857 
414.000000	 63.101673 
413.000000	 63.500499 
412.000000	 63.945889 
411.000000	 64.440488 
410.000000	 64.984917 
409.000000	 65.585899 
408.000000	 66.238355 
407.000000	 66.910648 
406.000000	 67.551946 
405.000000	 68.106746 
404.000000	 68.525028 
403.000000	 68.761801 
402.000000	 68.812298 
401.000000	 68.716192 
400.000000	 68.562006 
399.000000	 68.470096 
398.000000	 68.567728 
397.000000	 68.955373 
396.000000	 69.686388 
395.000000	 70.750761 
394.000000	 72.077250 
393.000000	 73.547673 
392.000000	 75.004744 
391.000000	 76.278209 
390.000000	 77.186369 
389.000000	 77.558159 
388.000000	 77.274703 
387.000000	 76.276063 
386.000000	 74.562072 
385.000000	 72.186207 
384.000000	 69.270467 
383.000000	 65.968132 
382.000000	 62.481999 
381.000000	 58.998346 
380.000000	 55.668807 
379.000000	 52.589774 
378.000000	 49.778747 
377.000000	 47.242450 
376.000000	 44.948077 
375.000000	 42.944765 
374.000000	 41.385650 
373.000000	 40.484094 
372.000000	 40.458679 
371.000000	 41.407394 
370.000000	 43.225550 

