PE IR       SPECTRUM    SPECTRUM    ASCII       PEDS        1.60        
  -1
BZ6136~1.ASC
17/04/07
20:36:45.00
17/04/07
20:36:45.00
tln
$BZ1503107-1_t0089$<tbV0>[13.0,7.8,8.0,0.0,27,1,0]
370.000000
64









2002,4.07    
MIRTGS : RIGHTBACK : INTERNAL 2
MIR : ON : INTERNAL 2
OPTKBR

0.200000
8
8.000000
FILLER
RATIO
SPECTRUM
UNLOCKED 256

DOUBLE
64
COMBINED
1
0
0


1.000000
RATIO


1
0
TRUE
51149
0
LEFT NOT FITTED RIGHT NOT FITTED 0
NONE
NONE
15600
12.000000
4.427000
51148
TRUE
1 0 8 72 0 0 0 0 

15798.010000






#HDR
-1
-1
#GR
CM-1
%T
0.00002384185791015625
0.0
5000.000000
-1.000000
4631
8
82.304477
42.256140
#DATA
5000.000000	64.144062 
4999.000000	64.166331 
4998.000000	64.185833 
4997.000000	64.201402 
4996.000000	64.212059 
4995.000000	64.216399 
4994.000000	64.212870 
4993.000000	64.200210 
4992.000000	64.178442 
4991.000000	64.149308 
4990.000000	64.116287 
4989.000000	64.084506 
4988.000000	64.058399 
4987.000000	64.039921 
4986.000000	64.029622 
4985.000000	64.026808 
4984.000000	64.029002 
4983.000000	64.032244 
4982.000000	64.033484 
4981.000000	64.030957 
4980.000000	64.023280 
4979.000000	64.010024 
4978.000000	63.990378 
4977.000000	63.964295 
4976.000000	63.932991 
4975.000000	63.899564 
4974.000000	63.868403 
4973.000000	63.844919 
4972.000000	63.834834 
4971.000000	63.841772 
4970.000000	63.866519 
4969.000000	63.905572 
4968.000000	63.950347 
4967.000000	63.990974 
4966.000000	64.016294 
4965.000000	64.021515 
4964.000000	64.008426 
4963.000000	63.989448 
4962.000000	63.983345 
4961.000000	64.014959 
4960.000000	64.108133 
4959.000000	64.280652 
4958.000000	64.538121 
4957.000000	64.872527 
4956.000000	65.261650 
4955.000000	65.672039 
4954.000000	66.063117 
4953.000000	66.392970 
4952.000000	66.624164 
4951.000000	66.729116 
4950.000000	66.695141 
4949.000000	66.526031 
4948.000000	66.242933 
4947.000000	65.882968 
4946.000000	65.492868 
4945.000000	65.123844 
4944.000000	64.820647 
4943.000000	64.619088 
4942.000000	64.535117 
4941.000000	64.565682 
4940.000000	64.687132 
4939.000000	64.862513 
4938.000000	65.047669 
4937.000000	65.199208 
4936.000000	65.284395 
4935.000000	65.284705 
4934.000000	65.200781 
4933.000000	65.049195 
4932.000000	64.857125 
4931.000000	64.654159 
4930.000000	64.465069 
4929.000000	64.304757 
4928.000000	64.176249 
4927.000000	64.073061 
4926.000000	63.985848 
4925.000000	63.907718 
4924.000000	63.837313 
4923.000000	63.780522 
4922.000000	63.747715 
4921.000000	63.751339 
4920.000000	63.796234 
4919.000000	63.882112 
4918.000000	63.999962 
4917.000000	64.138269 
4916.000000	64.285016 
4915.000000	64.432621 
4914.000000	64.579057 
4913.000000	64.727282 
4912.000000	64.884376 
4911.000000	65.053915 
4910.000000	65.232467 
4909.000000	65.407419 
4908.000000	65.559244 
4907.000000	65.665674 
4906.000000	65.708708 
4905.000000	65.679621 
4904.000000	65.583372 
4903.000000	65.436720 
4902.000000	65.265011 
4901.000000	65.095400 
4900.000000	64.950847 
4899.000000	64.845275 
4898.000000	64.781641 
4897.000000	64.754462 
4896.000000	64.752173 
4895.000000	64.761972 
4894.000000	64.773058 
4893.000000	64.778280 
4892.000000	64.775896 
4891.000000	64.767241 
4890.000000	64.756679 
4889.000000	64.746642 
4888.000000	64.739322 
4887.000000	64.735507 
4886.000000	64.735484 
4885.000000	64.739465 
4884.000000	64.748096 
4883.000000	64.763474 
4882.000000	64.787006 
4881.000000	64.818406 
4880.000000	64.855432 
4879.000000	64.894080 
4878.000000	64.928507 
4877.000000	64.952206 
4876.000000	64.959073 
4875.000000	64.944839 
4874.000000	64.907741 
4873.000000	64.848899 
4872.000000	64.771842 
4871.000000	64.681434 
4870.000000	64.583969 
4869.000000	64.485406 
4868.000000	64.389848 
4867.000000	64.299321 
4866.000000	64.214587 
4865.000000	64.135289 
4864.000000	64.060473 
4863.000000	63.989615 
4862.000000	63.922595 
4861.000000	63.860678 
4860.000000	63.805723 
4859.000000	63.760232 
4858.000000	63.726162 
4857.000000	63.704562 
4856.000000	63.694167 
4855.000000	63.692355 
4854.000000	63.694977 
4853.000000	63.698339 
4852.000000	63.699579 
4851.000000	63.698172 
4850.000000	63.695645 
4849.000000	63.694930 
4848.000000	63.699245 
4847.000000	63.711023 
4846.000000	63.731002 
4845.000000	63.758254 
4844.000000	63.790202 
4843.000000	63.823580 
4842.000000	63.855051 
4841.000000	63.882064 
4840.000000	63.903141 
4839.000000	63.918042 
4838.000000	63.927793 
4837.000000	63.933324 
4836.000000	63.936209 
4835.000000	63.938140 
4834.000000	63.941264 
4833.000000	63.948082 
4832.000000	63.961076 
4831.000000	63.982796 
4830.000000	64.014530 
4829.000000	64.055347 
4828.000000	64.102435 
4827.000000	64.151096 
4826.000000	64.196491 
4825.000000	64.234638 
4824.000000	64.263916 
4823.000000	64.285349 
4822.000000	64.301276 
4821.000000	64.314055 
4820.000000	64.324450 
4819.000000	64.331030 
4818.000000	64.330220 
4817.000000	64.317297 
4816.000000	64.288353 
4815.000000	64.241695 
4814.000000	64.179468 
4813.000000	64.106965 
4812.000000	64.032649 
4811.000000	63.965344 
4810.000000	63.912534 
4809.000000	63.878273 
4808.000000	63.862013 
4807.000000	63.859295 
4806.000000	63.863086 
4805.000000	63.865661 
4804.000000	63.860583 
4803.000000	63.844561 
4802.000000	63.817644 
4801.000000	63.783740 
4800.000000	63.748240 
4799.000000	63.718724 
4798.000000	63.702392 
4797.000000	63.705253 
4796.000000	63.730239 
4795.000000	63.776350 
4794.000000	63.838744 
4793.000000	63.908648 
4792.000000	63.975572 
4791.000000	64.029526 
4790.000000	64.063835 
4789.000000	64.076137 
4788.000000	64.069366 
4787.000000	64.050722 
4786.000000	64.029669 
4785.000000	64.015913 
4784.000000	64.016270 
4783.000000	64.033222 
4782.000000	64.064025 
4781.000000	64.103007 
4780.000000	64.141774 
4779.000000	64.172244 
4778.000000	64.188146 
4777.000000	64.187169 
4776.000000	64.170479 
4775.000000	64.141964 
4774.000000	64.106750 
4773.000000	64.069414 
4772.000000	64.033317 
4771.000000	63.999915 
4770.000000	63.968896 
4769.000000	63.939142 
4768.000000	63.908648 
4767.000000	63.875651 
4766.000000	63.838458 
4765.000000	63.796091 
4764.000000	63.748240 
4763.000000	63.695931 
4762.000000	63.640809 
4761.000000	63.586139 
4760.000000	63.536572 
4759.000000	63.498115 
4758.000000	63.476824 
4757.000000	63.478326 
4756.000000	63.506531 
4755.000000	63.562536 
4754.000000	63.643693 
4753.000000	63.743424 
4752.000000	63.851213 
4751.000000	63.954710 
4750.000000	64.041590 
4749.000000	64.102196 
4748.000000	64.131355 
4747.000000	64.129376 
4746.000000	64.101839 
4745.000000	64.057540 
4744.000000	64.006447 
4743.000000	63.957071 
4742.000000	63.915252 
4741.000000	63.882637 
4740.000000	63.857340 
4739.000000	63.835644 
4738.000000	63.813877 
4737.000000	63.789653 
4736.000000	63.763022 
4735.000000	63.736081 
4734.000000	63.712811 
4733.000000	63.696956 
4732.000000	63.691735 
4731.000000	63.698267 
4730.000000	63.716101 
4729.000000	63.743352 
4728.000000	63.777780 
4727.000000	63.817405 
4726.000000	63.860750 
4725.000000	63.906478 
4724.000000	63.953185 
4723.000000	63.998293 
4722.000000	64.038991 
4721.000000	64.072227 
4720.000000	64.095687 
4719.000000	64.108347 
4718.000000	64.111185 
4717.000000	64.107179 
4716.000000	64.100813 
4715.000000	64.097142 
4714.000000	64.100217 
4713.000000	64.112019 
4712.000000	64.132022 
4711.000000	64.157295 
4710.000000	64.182853 
4709.000000	64.202785 
4708.000000	64.212107 
4707.000000	64.207935 
4706.000000	64.190578 
4705.000000	64.163446 
4704.000000	64.132237 
4703.000000	64.103484 
4702.000000	64.082646 
4701.000000	64.072704 
4700.000000	64.073657 
4699.000000	64.082241 
4698.000000	64.093112 
4697.000000	64.100337 
4696.000000	64.098811 
4695.000000	64.086365 
4694.000000	64.064121 
4693.000000	64.036703 
4692.000000	64.010500 
4691.000000	63.992977 
4690.000000	63.990640 
4689.000000	64.007735 
4688.000000	64.044737 
4687.000000	64.099049 
4686.000000	64.165258 
4685.000000	64.236187 
4684.000000	64.304304 
4683.000000	64.362835 
4682.000000	64.406800 
4681.000000	64.433431 
4680.000000	64.442658 
4679.000000	64.436841 
4678.000000	64.420342 
4677.000000	64.398956 
4676.000000	64.378380 
4675.000000	64.364218 
4674.000000	64.360213 
4673.000000	64.368343 
4672.000000	64.388132 
4671.000000	64.417195 
4670.000000	64.451408 
4669.000000	64.486312 
4668.000000	64.517259 
4667.000000	64.540052 
4666.000000	64.551734 
4665.000000	64.550971 
4664.000000	64.538073 
4663.000000	64.514517 
4662.000000	64.483070 
4661.000000	64.447188 
4660.000000	64.410281 
4659.000000	64.375114 
4658.000000	64.343690 
4657.000000	64.317083 
4656.000000	64.295744 
4655.000000	64.279627 
4654.000000	64.268064 
4653.000000	64.259982 
4652.000000	64.254117 
4651.000000	64.249038 
4650.000000	64.242935 
4649.000000	64.234232 
4648.000000	64.221453 
4647.000000	64.204621 
4646.000000	64.184427 
4645.000000	64.163661 
4644.000000	64.146280 
4643.000000	64.137506 
4642.000000	64.142274 
4641.000000	64.164805 
4640.000000	64.207124 
4639.000000	64.268827 
4638.000000	64.346456 
4637.000000	64.434766 
4636.000000	64.527416 
4635.000000	64.617967 
4634.000000	64.700722 
4633.000000	64.770913 
4632.000000	64.824962 
4631.000000	64.860367 
4630.000000	64.875912 
4629.000000	64.871573 
4628.000000	64.848685 
4627.000000	64.810776 
4626.000000	64.762783 
4625.000000	64.711165 
4624.000000	64.662456 
4623.000000	64.622998 
4622.000000	64.597153 
4621.000000	64.586925 
4620.000000	64.591574 
4619.000000	64.607667 
4618.000000	64.630293 
4617.000000	64.654088 
4616.000000	64.674568 
4615.000000	64.688754 
4614.000000	64.695596 
4613.000000	64.695215 
4612.000000	64.688920 
4611.000000	64.678049 
4610.000000	64.664053 
4609.000000	64.648079 
4608.000000	64.631056 
4607.000000	64.613866 
4606.000000	64.597392 
4605.000000	64.582633 
4604.000000	64.570331 
4603.000000	64.561057 
4602.000000	64.555001 
4601.000000	64.552116 
4600.000000	64.551973 
4599.000000	64.553666 
4598.000000	64.555716 
4597.000000	64.556169 
4596.000000	64.552974 
4595.000000	64.544272 
4594.000000	64.528274 
4593.000000	64.504408 
4592.000000	64.473509 
4591.000000	64.438176 
4590.000000	64.402341 
4589.000000	64.371109 
4588.000000	64.349508 
4587.000000	64.341568 
4586.000000	64.349508 
4585.000000	64.372849 
4584.000000	64.408397 
4583.000000	64.450955 
4582.000000	64.494419 
4581.000000	64.533543 
4580.000000	64.564871 
4579.000000	64.587831 
4578.000000	64.604735 
4577.000000	64.620137 
4576.000000	64.639353 
4575.000000	64.666676 
4574.000000	64.704012 
4573.000000	64.750623 
4572.000000	64.803099 
4571.000000	64.856576 
4570.000000	64.905309 
4569.000000	64.945292 
4568.000000	64.973926 
4567.000000	64.990854 
4566.000000	64.996767 
4565.000000	64.993214 
4564.000000	64.981436 
4563.000000	64.961791 
4562.000000	64.934015 
4561.000000	64.898204 
4560.000000	64.855122 
4559.000000	64.807391 
4558.000000	64.759016 
4557.000000	64.715480 
4556.000000	64.681673 
4555.000000	64.660954 
4554.000000	64.653944 
4553.000000	64.658331 
4552.000000	64.670443 
4551.000000	64.686274 
4550.000000	64.703273 
4549.000000	64.720964 
4548.000000	64.741873 
4547.000000	64.770150 
4546.000000	64.809322 
4545.000000	64.861011 
4544.000000	64.923572 
4543.000000	64.992213 
4542.000000	65.059423 
4541.000000	65.117287 
4540.000000	65.159773 
4539.000000	65.184426 
4538.000000	65.193367 
4537.000000	65.192317 
4536.000000	65.189266 
4535.000000	65.191912 
4534.000000	65.205740 
4533.000000	65.232253 
4532.000000	65.268707 
4531.000000	65.309214 
4530.000000	65.346980 
4529.000000	65.376067 
4528.000000	65.393638 
4527.000000	65.399956 
4526.000000	65.398216 
4525.000000	65.392184 
4524.000000	65.384769 
4523.000000	65.376353 
4522.000000	65.364313 
4521.000000	65.344786 
4520.000000	65.313959 
4519.000000	65.269732 
4518.000000	65.212631 
4517.000000	65.146279 
4516.000000	65.076971 
4515.000000	65.011429 
4514.000000	64.956760 
4513.000000	64.918231 
4512.000000	64.899826 
4511.000000	64.903569 
4510.000000	64.929699 
4509.000000	64.976453 
4508.000000	65.040063 
4507.000000	65.115475 
4506.000000	65.195870 
4505.000000	65.272498 
4504.000000	65.336823 
4503.000000	65.381002 
4502.000000	65.400171 
4501.000000	65.393280 
4500.000000	65.363097 
4499.000000	65.315604 
4498.000000	65.257215 
4497.000000	65.193295 
4496.000000	65.125584 
4495.000000	65.052509 
4494.000000	64.970898 
4493.000000	64.878296 
4492.000000	64.775276 
4491.000000	64.667224 
4490.000000	64.562630 
4489.000000	64.473652 
4488.000000	64.411187 
4487.000000	64.385485 
4486.000000	64.404225 
4485.000000	64.471888 
4484.000000	64.582133 
4483.000000	64.725351 
4482.000000	64.896798 
4481.000000	65.090012 
4480.000000	65.289235 
4479.000000	65.479660 
4478.000000	65.654325 
4477.000000	65.805554 
4476.000000	65.922212 
4475.000000	65.995812 
4474.000000	66.022849 
4473.000000	66.003036 
4472.000000	65.941452 
4471.000000	65.842342 
4470.000000	65.709114 
4469.000000	65.549349 
4468.000000	65.376234 
4467.000000	65.202999 
4466.000000	65.043330 
4465.000000	64.920067 
4464.000000	64.854669 
4463.000000	64.864110 
4462.000000	64.941763 
4461.000000	65.076637 
4460.000000	65.217852 
4459.000000	65.287542 
4458.000000	65.167713 
4457.000000	64.739680 
4456.000000	63.885545 
4455.000000	62.526631 
4454.000000	60.636377 
4453.000000	58.265542 
4452.000000	55.534410 
4451.000000	52.612328 
4450.000000	49.710488 
4449.000000	47.036385 
4448.000000	44.799709 
4447.000000	43.178224 
4446.000000	42.307257 
4445.000000	42.256140 
4444.000000	43.013024 
4443.000000	44.483137 
4442.000000	46.491193 
4441.000000	48.813724 
4440.000000	51.229310 
4439.000000	53.558611 
4438.000000	55.690765 
4437.000000	57.588815 
4436.000000	59.262537 
4435.000000	60.748171 
4434.000000	62.070989 
4433.000000	63.234829 
4432.000000	64.229989 
4431.000000	65.027523 
4430.000000	65.631747 
4429.000000	66.047215 
4428.000000	66.305065 
4427.000000	66.434454 
4426.000000	66.473221 
4425.000000	66.446232 
4424.000000	66.370177 
4423.000000	66.251850 
4422.000000	66.106820 
4421.000000	65.943980 
4420.000000	65.771055 
4419.000000	65.598464 
4418.000000	65.443491 
4417.000000	65.319585 
4416.000000	65.234065 
4415.000000	65.190792 
4414.000000	65.188717 
4413.000000	65.219783 
4412.000000	65.271449 
4411.000000	65.324068 
4410.000000	65.357446 
4409.000000	65.364313 
4408.000000	65.347957 
4407.000000	65.311288 
4406.000000	65.259671 
4405.000000	65.204668 
4404.000000	65.155792 
4403.000000	65.112185 
4402.000000	65.068030 
4401.000000	65.018534 
4400.000000	64.959216 
4399.000000	64.887166 
4398.000000	64.805030 
4397.000000	64.721894 
4396.000000	64.650177 
4395.000000	64.601230 
4394.000000	64.583969 
4393.000000	64.601540 
4392.000000	64.651536 
4391.000000	64.726138 
4390.000000	64.813709 
4389.000000	64.900803 
4388.000000	64.975166 
4387.000000	65.027952 
4386.000000	65.053510 
4385.000000	65.050268 
4384.000000	65.019989 
4383.000000	64.967823 
4382.000000	64.901018 
4381.000000	64.828491 
4380.000000	64.760136 
4379.000000	64.705133 
4378.000000	64.671778 
4377.000000	64.665293 
4376.000000	64.687371 
4375.000000	64.735627 
4374.000000	64.803886 
4373.000000	64.883565 
4372.000000	64.964795 
4371.000000	65.038681 
4370.000000	65.098118 
4369.000000	65.139317 
4368.000000	65.161657 
4367.000000	65.167951 
4366.000000	65.162849 
4365.000000	65.152168 
4364.000000	65.141534 
4363.000000	65.135121 
4362.000000	65.135002 
4361.000000	65.141105 
4360.000000	65.151476 
4359.000000	65.162229 
4358.000000	65.168428 
4357.000000	65.165114 
4356.000000	65.148401 
4355.000000	65.116477 
4354.000000	65.070414 
4353.000000	65.014004 
4352.000000	64.953112 
4351.000000	64.894509 
4350.000000	64.844369 
4349.000000	64.807105 
4348.000000	64.784431 
4347.000000	64.775371 
4346.000000	64.776420 
4345.000000	64.782834 
4344.000000	64.789652 
4343.000000	64.792895 
4342.000000	64.790153 
4341.000000	64.780402 
4340.000000	64.764642 
4339.000000	64.745140 
4338.000000	64.724993 
4337.000000	64.706921 
4336.000000	64.694452 
4335.000000	64.691114 
4334.000000	64.700388 
4333.000000	64.724922 
4332.000000	64.766097 
4331.000000	64.823293 
4330.000000	64.893436 
4329.000000	64.971137 
4328.000000	65.049338 
4327.000000	65.120267 
4326.000000	65.176939 
4325.000000	65.213942 
4324.000000	65.228199 
4323.000000	65.219330 
4322.000000	65.190052 
4321.000000	65.145039 
4320.000000	65.090250 
4319.000000	65.031814 
4318.000000	64.976263 
4317.000000	64.928555 
4316.000000	64.891982 
4315.000000	64.867067 
4314.000000	64.852428 
4313.000000	64.844107 
4312.000000	64.836764 
4311.000000	64.824247 
4310.000000	64.801049 
4309.000000	64.764142 
4308.000000	64.713525 
4307.000000	64.652943 
4306.000000	64.588809 
4305.000000	64.528727 
4304.000000	64.479947 
4303.000000	64.447093 
4302.000000	64.431834 
4301.000000	64.432501 
4300.000000	64.445614 
4299.000000	64.466047 
4298.000000	64.489650 
4297.000000	64.514327 
4296.000000	64.540624 
4295.000000	64.570236 
4294.000000	64.605736 
4293.000000	64.648914 
4292.000000	64.699816 
4291.000000	64.755773 
4290.000000	64.811754 
4289.000000	64.861416 
4288.000000	64.898371 
4287.000000	64.918398 
4286.000000	64.919328 
4285.000000	64.901685 
4284.000000	64.868617 
4283.000000	64.825296 
4282.000000	64.778041 
4281.000000	64.733004 
4280.000000	64.695811 
4279.000000	64.670348 
4278.000000	64.658188 
4277.000000	64.657998 
4276.000000	64.666080 
4275.000000	64.676713 
4274.000000	64.682745 
4273.000000	64.677286 
4272.000000	64.654874 
4271.000000	64.613080 
4270.000000	64.552807 
4269.000000	64.478754 
4268.000000	64.398169 
4267.000000	64.319920 
4266.000000	64.252734 
4265.000000	64.203786 
4264.000000	64.176893 
4263.000000	64.172720 
4262.000000	64.189338 
4261.000000	64.222693 
4260.000000	64.267516 
4259.000000	64.318323 
4258.000000	64.369988 
4257.000000	64.417958 
4256.000000	64.458036 
4255.000000	64.487266 
4254.000000	64.503979 
4253.000000	64.508008 
4252.000000	64.500594 
4251.000000	64.484763 
4250.000000	64.464521 
4249.000000	64.444971 
4248.000000	64.430737 
4247.000000	64.425349 
4246.000000	64.429688 
4245.000000	64.443111 
4244.000000	64.462327 
4243.000000	64.482235 
4242.000000	64.496684 
4241.000000	64.500498 
4240.000000	64.489960 
4239.000000	64.463400 
4238.000000	64.421987 
4237.000000	64.369559 
4236.000000	64.311742 
4235.000000	64.254617 
4234.000000	64.203906 
4233.000000	64.164137 
4232.000000	64.137196 
4231.000000	64.122533 
4230.000000	64.116644 
4229.000000	64.114379 
4228.000000	64.109492 
4227.000000	64.096426 
4226.000000	64.071249 
4225.000000	64.032888 
4224.000000	63.983798 
4223.000000	63.930058 
4222.000000	63.880014 
4221.000000	63.843131 
4220.000000	63.827753 
4219.000000	63.839793 
4218.000000	63.881063 
4217.000000	63.949322 
4216.000000	64.038133 
4215.000000	64.138936 
4214.000000	64.242076 
4213.000000	64.338994 
4212.000000	64.423298 
4211.000000	64.491558 
4210.000000	64.542984 
4209.000000	64.578795 
4208.000000	64.600968 
4207.000000	64.611506 
4206.000000	64.612054 
4205.000000	64.603614 
4204.000000	64.587259 
4203.000000	64.564442 
4202.000000	64.537858 
4201.000000	64.510250 
4200.000000	64.484357 
4199.000000	64.462089 
4198.000000	64.444613 
4197.000000	64.432191 
4196.000000	64.424228 
4195.000000	64.420151 
4194.000000	64.419341 
4193.000000	64.421606 
4192.000000	64.426875 
4191.000000	64.434957 
4190.000000	64.445114 
4189.000000	64.456081 
4188.000000	64.465951 
4187.000000	64.472484 
4186.000000	64.473509 
4185.000000	64.467430 
4184.000000	64.453816 
4183.000000	64.432907 
4182.000000	64.406418 
4181.000000	64.377045 
4180.000000	64.348173 
4179.000000	64.322829 
4178.000000	64.304256 
4177.000000	64.295411 
4176.000000	64.298582 
4175.000000	64.314937 
4174.000000	64.344215 
4173.000000	64.384484 
4172.000000	64.432001 
4171.000000	64.481616 
4170.000000	64.527487 
4169.000000	64.563870 
4168.000000	64.586400 
4167.000000	64.592480 
4166.000000	64.581561 
4165.000000	64.555096 
4164.000000	64.516282 
4163.000000	64.469432 
4162.000000	64.419341 
4161.000000	64.370703 
4160.000000	64.327812 
4159.000000	64.294219 
4158.000000	64.272665 
4157.000000	64.264583 
4156.000000	64.270019 
4155.000000	64.287161 
4154.000000	64.312481 
4153.000000	64.340853 
4152.000000	64.365959 
4151.000000	64.381623 
4150.000000	64.382863 
4149.000000	64.367175 
4148.000000	64.335036 
4147.000000	64.289784 
4146.000000	64.237022 
4145.000000	64.183616 
4144.000000	64.136362 
4143.000000	64.100933 
4142.000000	64.081144 
4141.000000	64.078450 
4140.000000	64.092111 
4139.000000	64.119458 
4138.000000	64.156603 
4137.000000	64.198660 
4136.000000	64.241147 
4135.000000	64.280033 
4134.000000	64.312386 
4133.000000	64.336299 
4132.000000	64.350891 
4131.000000	64.355778 
4130.000000	64.351058 
4129.000000	64.337658 
4128.000000	64.316630 
4127.000000	64.289569 
4126.000000	64.258337 
4125.000000	64.225554 
4124.000000	64.193940 
4123.000000	64.166331 
4122.000000	64.145350 
4121.000000	64.132833 
4120.000000	64.130020 
4119.000000	64.137434 
4118.000000	64.154839 
4117.000000	64.181160 
4116.000000	64.214992 
4115.000000	64.254570 
4114.000000	64.297819 
4113.000000	64.342236 
4112.000000	64.384770 
4111.000000	64.421916 
4110.000000	64.450287 
4109.000000	64.467144 
4108.000000	64.470863 
4107.000000	64.461874 
4106.000000	64.442706 
4105.000000	64.417743 
4104.000000	64.392447 
4103.000000	64.372491 
4102.000000	64.362525 
4101.000000	64.365267 
4100.000000	64.381098 
4099.000000	64.407634 
4098.000000	64.440679 
4097.000000	64.474558 
4096.000000	64.503383 
4095.000000	64.521932 
4094.000000	64.526534 
4093.000000	64.515542 
4092.000000	64.489483 
4091.000000	64.450955 
4090.000000	64.404010 
4089.000000	64.353656 
4088.000000	64.305043 
4087.000000	64.262843 
4086.000000	64.230489 
4085.000000	64.209890 
4084.000000	64.201521 
4083.000000	64.204049 
4082.000000	64.215397 
4081.000000	64.233160 
4080.000000	64.255309 
4079.000000	64.280223 
4078.000000	64.306998 
4077.000000	64.335012 
4076.000000	64.363718 
4075.000000	64.391994 
4074.000000	64.418196 
4073.000000	64.440107 
4072.000000	64.455270 
4071.000000	64.461898 
4070.000000	64.458775 
4069.000000	64.446020 
4068.000000	64.424991 
4067.000000	64.398241 
4066.000000	64.368820 
4065.000000	64.339804 
4064.000000	64.313626 
4063.000000	64.291858 
4062.000000	64.275026 
4061.000000	64.262723 
4060.000000	64.254260 
4059.000000	64.248967 
4058.000000	64.246296 
4057.000000	64.246320 
4056.000000	64.249444 
4055.000000	64.256548 
4054.000000	64.268398 
4053.000000	64.285850 
4052.000000	64.308977 
4051.000000	64.337611 
4050.000000	64.370989 
4049.000000	64.407896 
4048.000000	64.446687 
4047.000000	64.485430 
4046.000000	64.522385 
4045.000000	64.555644 
4044.000000	64.583659 
4043.000000	64.605069 
4042.000000	64.619135 
4041.000000	64.625763 
4040.000000	64.625453 
4039.000000	64.619755 
4038.000000	64.611172 
4037.000000	64.602851 
4036.000000	64.597940 
4035.000000	64.599132 
4034.000000	64.607739 
4033.000000	64.623904 
4032.000000	64.645814 
4031.000000	64.670300 
4030.000000	64.692902 
4029.000000	64.709329 
4028.000000	64.715814 
4027.000000	64.710116 
4026.000000	64.691686 
4025.000000	64.662075 
4024.000000	64.624285 
4023.000000	64.582467 
4022.000000	64.541053 
4021.000000	64.504265 
4020.000000	64.475011 
4019.000000	64.455008 
4018.000000	64.443993 
4017.000000	64.440321 
4016.000000	64.440917 
4015.000000	64.442229 
4014.000000	64.440584 
4013.000000	64.432883 
4012.000000	64.417743 
4011.000000	64.395594 
4010.000000	64.368891 
4009.000000	64.341378 
4008.000000	64.317822 
4007.000000	64.302706 
4006.000000	64.299154 
4005.000000	64.308285 
4004.000000	64.328646 
4003.000000	64.356732 
4002.000000	64.387440 
4001.000000	64.415431 
4000.000000	64.436197 
3999.000000	64.447259 
3998.000000	64.448356 
3997.000000	64.441752 
3996.000000	64.431428 
3995.000000	64.422249 
3994.000000	64.418745 
3993.000000	64.424133 
3992.000000	64.439511 
3991.000000	64.463901 
3990.000000	64.494776 
3989.000000	64.528298 
3988.000000	64.560365 
3987.000000	64.587235 
3986.000000	64.606428 
3985.000000	64.616441 
3984.000000	64.616894 
3983.000000	64.608430 
3982.000000	64.592385 
3981.000000	64.570927 
3980.000000	64.546656 
3979.000000	64.522409 
3978.000000	64.500832 
3977.000000	64.484286 
3976.000000	64.474368 
3975.000000	64.471554 
3974.000000	64.475440 
3973.000000	64.484190 
3972.000000	64.495563 
3971.000000	64.507102 
3970.000000	64.516949 
3969.000000	64.524102 
3968.000000	64.528441 
3967.000000	64.530515 
3966.000000	64.531421 
3965.000000	64.532041 
3964.000000	64.533019 
3963.000000	64.534473 
3962.000000	64.536714 
3961.000000	64.540338 
3960.000000	64.546513 
3959.000000	64.556908 
3958.000000	64.572548 
3957.000000	64.593100 
3956.000000	64.616060 
3955.000000	64.636778 
3954.000000	64.649033 
3953.000000	64.646649 
3952.000000	64.624834 
3951.000000	64.582443 
3950.000000	64.522790 
3949.000000	64.454054 
3948.000000	64.387631 
3947.000000	64.336109 
3946.000000	64.310383 
3945.000000	64.317131 
3944.000000	64.356946 
3943.000000	64.424133 
3942.000000	64.507818 
3941.000000	64.594411 
3940.000000	64.670467 
3939.000000	64.725828 
3938.000000	64.755082 
3937.000000	64.759159 
3936.000000	64.743733 
3935.000000	64.718580 
3934.000000	64.694476 
3933.000000	64.680910 
3932.000000	64.683914 
3931.000000	64.704513 
3930.000000	64.738988 
3929.000000	64.779639 
3928.000000	64.816927 
3927.000000	64.841413 
3926.000000	64.845991 
3925.000000	64.827179 
3924.000000	64.785599 
3923.000000	64.725470 
3922.000000	64.653611 
3921.000000	64.577603 
3920.000000	64.504766 
3919.000000	64.440798 
3918.000000	64.389634 
3917.000000	64.353275 
3916.000000	64.332389 
3915.000000	64.326882 
3914.000000	64.336180 
3913.000000	64.359354 
3912.000000	64.394927 
3911.000000	64.440035 
3910.000000	64.490723 
3909.000000	64.541292 
3908.000000	64.585995 
3907.000000	64.619922 
3906.000000	64.639973 
3905.000000	64.645409 
3904.000000	64.637994 
3903.000000	64.621281 
3902.000000	64.599967 
3901.000000	64.578533 
3900.000000	64.560365 
3899.000000	64.546966 
3898.000000	64.538335 
3897.000000	64.532780 
3896.000000	64.527702 
3895.000000	64.520263 
3894.000000	64.508152 
3893.000000	64.490175 
3892.000000	64.466190 
3891.000000	64.437747 
3890.000000	64.407420 
3889.000000	64.378833 
3888.000000	64.355683 
3887.000000	64.341068 
3886.000000	64.337468 
3885.000000	64.345550 
3884.000000	64.363765 
3883.000000	64.388728 
3882.000000	64.415669 
3881.000000	64.439797 
3880.000000	64.457583 
3879.000000	64.467334 
3878.000000	64.469337 
3877.000000	64.465737 
3876.000000	64.459681 
3875.000000	64.453983 
3874.000000	64.450383 
3873.000000	64.449381 
3872.000000	64.450430 
3871.000000	64.452481 
3870.000000	64.454531 
3869.000000	64.456176 
3868.000000	64.457678 
3867.000000	64.459919 
3866.000000	64.464378 
3865.000000	64.471817 
3864.000000	64.482784 
3863.000000	64.496994 
3862.000000	64.513921 
3861.000000	64.533019 
3860.000000	64.553761 
3859.000000	64.576315 
3858.000000	64.600348 
3857.000000	64.625239 
3856.000000	64.649176 
3855.000000	64.669322 
3854.000000	64.682364 
3853.000000	64.685297 
3852.000000	64.676046 
3851.000000	64.654588 
3850.000000	64.622950 
3849.000000	64.585232 
3848.000000	64.546322 
3847.000000	64.511275 
3846.000000	64.483976 
3845.000000	64.466977 
3844.000000	64.460992 
3843.000000	64.465284 
3842.000000	64.478397 
3841.000000	64.498949 
3840.000000	64.525747 
3839.000000	64.558029 
3838.000000	64.595055 
3837.000000	64.635586 
3836.000000	64.677238 
3835.000000	64.716434 
3834.000000	64.748692 
3833.000000	64.769220 
3832.000000	64.774203 
3831.000000	64.761304 
3830.000000	64.730787 
3829.000000	64.685153 
3828.000000	64.629149 
3827.000000	64.568495 
3826.000000	64.508914 
3825.000000	64.455270 
3824.000000	64.410758 
3823.000000	64.376854 
3822.000000	64.353466 
3821.000000	64.339518 
3820.000000	64.333510 
3819.000000	64.333939 
3818.000000	64.339566 
3817.000000	64.349246 
3816.000000	64.362239 
3815.000000	64.377212 
3814.000000	64.392876 
3813.000000	64.407706 
3812.000000	64.420437 
3811.000000	64.429998 
3810.000000	64.435815 
3809.000000	64.438009 
3808.000000	64.437055 
3807.000000	64.433884 
3806.000000	64.429473 
3805.000000	64.424490 
3804.000000	64.419770 
3803.000000	64.416241 
3802.000000	64.415001 
3801.000000	64.417195 
3800.000000	64.423966 
3799.000000	64.436268 
3798.000000	64.454174 
3797.000000	64.476752 
3796.000000	64.501929 
3795.000000	64.526939 
3794.000000	64.548730 
3793.000000	64.564752 
3792.000000	64.573478 
3791.000000	64.574861 
3790.000000	64.570569 
3789.000000	64.563727 
3788.000000	64.558219 
3787.000000	64.557743 
3786.000000	64.565110 
3785.000000	64.581322 
3784.000000	64.605545 
3783.000000	64.634656 
3782.000000	64.664483 
3781.000000	64.689970 
3780.000000	64.706778 
3779.000000	64.711618 
3778.000000	64.703202 
3777.000000	64.682197 
3776.000000	64.650964 
3775.000000	64.613103 
3774.000000	64.572572 
3773.000000	64.532804 
3772.000000	64.496302 
3771.000000	64.464306 
3770.000000	64.437079 
3769.000000	64.414238 
3768.000000	64.395475 
3767.000000	64.380931 
3766.000000	64.371275 
3765.000000	64.367556 
3764.000000	64.371013 
3763.000000	64.382195 
3762.000000	64.400792 
3761.000000	64.425468 
3760.000000	64.453959 
3759.000000	64.483380 
3758.000000	64.510822 
3757.000000	64.533734 
3756.000000	64.550471 
3755.000000	64.560627 
3754.000000	64.564800 
3753.000000	64.564514 
3752.000000	64.561915 
3751.000000	64.559125 
3750.000000	64.557790 
3749.000000	64.558982 
3748.000000	64.562702 
3747.000000	64.568090 
3746.000000	64.573597 
3745.000000	64.577364 
3744.000000	64.577722 
3743.000000	64.573693 
3742.000000	64.565157 
3741.000000	64.552855 
3740.000000	64.538383 
3739.000000	64.523816 
3738.000000	64.511203 
3737.000000	64.502024 
3736.000000	64.496922 
3735.000000	64.495849 
3734.000000	64.497852 
3733.000000	64.501786 
3732.000000	64.506554 
3731.000000	64.511632 
3730.000000	64.517068 
3729.000000	64.523696 
3728.000000	64.532375 
3727.000000	64.543914 
3726.000000	64.558506 
3725.000000	64.575648 
3724.000000	64.593935 
3723.000000	64.611506 
3722.000000	64.626336 
3721.000000	64.636898 
3720.000000	64.642620 
3719.000000	64.643645 
3718.000000	64.641213 
3717.000000	64.636850 
3716.000000	64.632105 
3715.000000	64.628148 
3714.000000	64.625406 
3713.000000	64.623808 
3712.000000	64.622783 
3711.000000	64.621782 
3710.000000	64.620661 
3709.000000	64.619755 
3708.000000	64.619779 
3707.000000	64.621567 
3706.000000	64.625668 
3705.000000	64.631915 
3704.000000	64.639210 
3703.000000	64.645862 
3702.000000	64.649987 
3701.000000	64.649891 
3700.000000	64.644837 
3699.000000	64.635181 
3698.000000	64.622378 
3697.000000	64.608764 
3696.000000	64.596843 
3695.000000	64.588880 
3694.000000	64.585971 
3693.000000	64.587926 
3692.000000	64.593505 
3691.000000	64.600586 
3690.000000	64.606976 
3689.000000	64.610743 
3688.000000	64.610934 
3687.000000	64.607429 
3686.000000	64.601063 
3685.000000	64.592933 
3684.000000	64.584231 
3683.000000	64.575600 
3682.000000	64.567017 
3681.000000	64.557790 
3680.000000	64.546799 
3679.000000	64.533066 
3678.000000	64.516067 
3677.000000	64.496421 
3676.000000	64.475798 
3675.000000	64.456748 
3674.000000	64.442324 
3673.000000	64.435172 
3672.000000	64.436864 
3671.000000	64.447283 
3670.000000	64.464759 
3669.000000	64.486122 
3668.000000	64.507460 
3667.000000	64.525079 
3666.000000	64.536285 
3665.000000	64.540076 
3664.000000	64.537334 
3663.000000	64.530396 
3662.000000	64.522409 
3661.000000	64.516234 
3660.000000	64.513826 
3659.000000	64.515376 
3658.000000	64.519667 
3657.000000	64.524722 
3656.000000	64.528489 
3655.000000	64.529752 
3654.000000	64.528441 
3653.000000	64.525794 
3652.000000	64.524102 
3651.000000	64.525651 
3650.000000	64.532327 
3649.000000	64.544796 
3648.000000	64.562439 
3647.000000	64.583516 
3646.000000	64.605498 
3645.000000	64.625573 
3644.000000	64.641118 
3643.000000	64.650630 
3642.000000	64.653468 
3641.000000	64.649796 
3640.000000	64.640426 
3639.000000	64.626598 
3638.000000	64.609694 
3637.000000	64.591169 
3636.000000	64.572024 
3635.000000	64.552927 
3634.000000	64.533901 
3633.000000	64.514398 
3632.000000	64.493417 
3631.000000	64.469718 
3630.000000	64.442396 
3629.000000	64.411187 
3628.000000	64.376926 
3627.000000	64.341735 
3626.000000	64.308214 
3625.000000	64.279675 
3624.000000	64.258885 
3623.000000	64.248347 
3622.000000	64.249467 
3621.000000	64.262795 
3620.000000	64.287662 
3619.000000	64.322614 
3618.000000	64.365625 
3617.000000	64.413976 
3616.000000	64.464497 
3615.000000	64.513659 
3614.000000	64.557862 
3613.000000	64.593625 
3612.000000	64.618015 
3611.000000	64.629054 
3610.000000	64.626312 
3609.000000	64.610862 
3608.000000	64.585471 
3607.000000	64.553809 
3606.000000	64.520239 
3605.000000	64.489197 
3604.000000	64.464521 
3603.000000	64.449357 
3602.000000	64.445757 
3601.000000	64.455008 
3600.000000	64.477252 
3599.000000	64.511466 
3598.000000	64.555263 
3597.000000	64.604902 
3596.000000	64.655566 
3595.000000	64.701366 
3594.000000	64.736604 
3593.000000	64.756369 
3592.000000	64.757871 
3591.000000	64.741301 
3590.000000	64.709806 
3589.000000	64.669275 
3588.000000	64.626765 
3587.000000	64.589524 
3586.000000	64.562773 
3585.000000	64.549064 
3584.000000	64.547634 
3583.000000	64.555287 
3582.000000	64.567160 
3581.000000	64.578342 
3580.000000	64.585208 
3579.000000	64.586305 
3578.000000	64.582443 
3577.000000	64.576363 
3576.000000	64.571666 
3575.000000	64.571762 
3574.000000	64.578938 
3573.000000	64.593601 
3572.000000	64.614367 
3571.000000	64.638066 
3570.000000	64.661049 
3569.000000	64.679336 
3568.000000	64.689779 
3567.000000	64.690113 
3566.000000	64.679431 
3565.000000	64.658355 
3564.000000	64.629030 
3563.000000	64.594507 
3562.000000	64.558744 
3561.000000	64.525556 
3560.000000	64.498209 
3559.000000	64.478731 
3558.000000	64.468002 
3557.000000	64.465212 
3556.000000	64.468455 
3555.000000	64.475226 
3554.000000	64.482903 
3553.000000	64.489507 
3552.000000	64.493823 
3551.000000	64.495539 
3550.000000	64.495229 
3549.000000	64.493989 
3548.000000	64.493155 
3547.000000	64.493823 
3546.000000	64.496374 
3545.000000	64.500808 
3544.000000	64.506483 
3543.000000	64.512562 
3542.000000	64.518237 
3541.000000	64.522981 
3540.000000	64.526939 
3539.000000	64.530539 
3538.000000	64.534926 
3537.000000	64.541506 
3536.000000	64.551687 
3535.000000	64.566540 
3534.000000	64.586448 
3533.000000	64.611029 
3532.000000	64.638900 
3531.000000	64.667987 
3530.000000	64.695644 
3529.000000	64.719009 
3528.000000	64.735388 
3527.000000	64.743065 
3526.000000	64.741325 
3525.000000	64.730596 
3524.000000	64.712738 
3523.000000	64.690303 
3522.000000	64.666247 
3521.000000	64.643192 
3520.000000	64.623093 
3519.000000	64.607024 
3518.000000	64.595079 
3517.000000	64.586567 
3516.000000	64.580512 
3515.000000	64.575982 
3514.000000	64.572668 
3513.000000	64.570951 
3512.000000	64.571475 
3511.000000	64.575099 
3510.000000	64.582586 
3509.000000	64.594149 
3508.000000	64.609217 
3507.000000	64.626479 
3506.000000	64.644050 
3505.000000	64.660024 
3504.000000	64.672851 
3503.000000	64.681720 
3502.000000	64.686655 
3501.000000	64.688611 
3500.000000	64.689111 
3499.000000	64.690256 
3498.000000	64.694190 
3497.000000	64.702701 
3496.000000	64.716744 
3495.000000	64.736628 
3494.000000	64.761543 
3493.000000	64.789819 
3492.000000	64.818787 
3491.000000	64.845395 
3490.000000	64.866185 
3489.000000	64.878153 
3488.000000	64.879012 
3487.000000	64.867663 
3486.000000	64.844703 
3485.000000	64.812278 
3484.000000	64.774131 
3483.000000	64.735174 
3482.000000	64.700913 
3481.000000	64.676594 
3480.000000	64.666366 
3479.000000	64.672732 
3478.000000	64.696002 
3477.000000	64.734148 
3476.000000	64.782786 
3475.000000	64.835953 
3474.000000	64.886736 
3473.000000	64.928388 
3472.000000	64.955163 
3471.000000	64.963459 
3470.000000	64.952158 
3469.000000	64.922595 
3468.000000	64.878416 
3467.000000	64.824628 
3466.000000	64.766907 
3465.000000	64.710426 
3464.000000	64.659500 
3463.000000	64.616656 
3462.000000	64.582848 
3461.000000	64.557313 
3460.000000	64.538669 
3459.000000	64.525032 
3458.000000	64.514422 
3457.000000	64.505481 
3456.000000	64.497160 
3455.000000	64.489579 
3454.000000	64.482879 
3453.000000	64.478230 
3452.000000	64.476513 
3451.000000	64.479112 
3450.000000	64.487004 
3449.000000	64.500951 
3448.000000	64.520788 
3447.000000	64.545679 
3446.000000	64.574003 
3445.000000	64.603567 
3444.000000	64.631891 
3443.000000	64.656615 
3442.000000	64.675831 
3441.000000	64.688444 
3440.000000	64.694190 
3439.000000	64.693403 
3438.000000	64.686989 
3437.000000	64.675784 
3436.000000	64.660477 
3435.000000	64.641809 
3434.000000	64.620304 
3433.000000	64.596629 
3432.000000	64.571547 
3431.000000	64.546418 
3430.000000	64.523005 
3429.000000	64.502906 
3428.000000	64.487624 
3427.000000	64.477992 
3426.000000	64.474272 
3425.000000	64.475965 
3424.000000	64.482450 
3423.000000	64.492869 
3422.000000	64.506793 
3421.000000	64.524054 
3420.000000	64.545011 
3419.000000	64.569926 
3418.000000	64.598846 
3417.000000	64.631009 
3416.000000	64.664721 
3415.000000	64.697384 
3414.000000	64.725804 
3413.000000	64.746642 
3412.000000	64.757227 
3411.000000	64.755892 
3410.000000	64.742445 
3409.000000	64.717936 
3408.000000	64.684772 
3407.000000	64.646029 
3406.000000	64.605188 
3405.000000	64.565396 
3404.000000	64.529347 
3403.000000	64.498949 
3402.000000	64.475321 
3401.000000	64.458823 
3400.000000	64.449238 
3399.000000	64.445877 
3398.000000	64.447689 
3397.000000	64.453530 
3396.000000	64.461994 
3395.000000	64.471793 
3394.000000	64.481616 
3393.000000	64.490556 
3392.000000	64.497852 
3391.000000	64.503574 
3390.000000	64.508247 
3389.000000	64.513015 
3388.000000	64.519119 
3387.000000	64.527988 
3386.000000	64.540624 
3385.000000	64.557528 
3384.000000	64.578127 
3383.000000	64.601016 
3382.000000	64.623737 
3381.000000	64.643454 
3380.000000	64.657258 
3379.000000	64.662837 
3378.000000	64.658546 
3377.000000	64.644384 
3376.000000	64.621353 
3375.000000	64.591550 
3374.000000	64.557886 
3373.000000	64.523601 
3372.000000	64.491772 
3371.000000	64.464902 
3370.000000	64.444637 
3369.000000	64.431595 
3368.000000	64.425563 
3367.000000	64.425587 
3366.000000	64.430093 
3365.000000	64.437103 
3364.000000	64.444684 
3363.000000	64.451241 
3362.000000	64.455866 
3361.000000	64.458203 
3360.000000	64.459109 
3359.000000	64.460229 
3358.000000	64.463520 
3357.000000	64.470911 
3356.000000	64.483761 
3355.000000	64.502215 
3354.000000	64.525055 
3353.000000	64.549875 
3352.000000	64.573597 
3351.000000	64.593195 
3350.000000	64.606499 
3349.000000	64.612627 
3348.000000	64.612293 
3347.000000	64.607238 
3346.000000	64.600038 
3345.000000	64.592742 
3344.000000	64.586281 
3343.000000	64.580106 
3342.000000	64.572644 
3341.000000	64.561438 
3340.000000	64.544177 
3339.000000	64.519834 
3338.000000	64.489221 
3337.000000	64.454913 
3336.000000	64.420628 
3335.000000	64.390397 
3334.000000	64.367508 
3333.000000	64.353704 
3332.000000	64.348626 
3331.000000	64.350080 
3330.000000	64.354753 
3329.000000	64.359283 
3328.000000	64.361286 
3327.000000	64.359903 
3326.000000	64.355969 
3325.000000	64.351630 
3324.000000	64.349699 
3323.000000	64.352321 
3322.000000	64.360547 
3321.000000	64.373874 
3320.000000	64.390397 
3319.000000	64.407348 
3318.000000	64.421844 
3317.000000	64.431858 
3316.000000	64.436602 
3315.000000	64.436888 
3314.000000	64.434671 
3313.000000	64.432477 
3312.000000	64.432621 
3311.000000	64.436697 
3310.000000	64.445233 
3309.000000	64.457535 
3308.000000	64.472055 
3307.000000	64.486885 
3306.000000	64.499783 
3305.000000	64.508891 
3304.000000	64.512920 
3303.000000	64.511609 
3302.000000	64.505577 
3301.000000	64.496278 
3300.000000	64.485883 
3299.000000	64.476680 
3298.000000	64.470648 
3297.000000	64.469194 
3296.000000	64.472603 
3295.000000	64.480400 
3294.000000	64.491319 
3293.000000	64.503884 
3292.000000	64.516615 
3291.000000	64.528608 
3290.000000	64.539265 
3289.000000	64.548420 
3288.000000	64.556097 
3287.000000	64.562058 
3286.000000	64.565873 
3285.000000	64.566707 
3284.000000	64.563798 
3283.000000	64.556670 
3282.000000	64.545631 
3281.000000	64.531946 
3280.000000	64.517664 
3279.000000	64.504981 
3278.000000	64.495801 
3277.000000	64.490985 
3276.000000	64.490032 
3275.000000	64.491391 
3274.000000	64.492726 
3273.000000	64.491748 
3272.000000	64.486742 
3271.000000	64.477491 
3270.000000	64.465355 
3269.000000	64.452600 
3268.000000	64.442110 
3267.000000	64.436030 
3266.000000	64.435553 
3265.000000	64.440202 
3264.000000	64.448261 
3263.000000	64.457392 
3262.000000	64.465355 
3261.000000	64.470791 
3260.000000	64.473581 
3259.000000	64.474916 
3258.000000	64.476752 
3257.000000	64.481258 
3256.000000	64.490151 
3255.000000	64.504098 
3254.000000	64.522743 
3253.000000	64.544582 
3252.000000	64.567399 
3251.000000	64.588594 
3250.000000	64.605760 
3249.000000	64.616847 
3248.000000	64.620471 
3247.000000	64.615941 
3246.000000	64.603233 
3245.000000	64.583206 
3244.000000	64.557409 
3243.000000	64.528131 
3242.000000	64.498090 
3241.000000	64.470171 
3240.000000	64.446902 
3239.000000	64.430093 
3238.000000	64.420390 
3237.000000	64.417362 
3236.000000	64.419460 
3235.000000	64.424753 
3234.000000	64.431166 
3233.000000	64.437222 
3232.000000	64.442086 
3231.000000	64.445924 
3230.000000	64.449357 
3229.000000	64.453530 
3228.000000	64.459371 
3227.000000	64.467334 
3226.000000	64.477157 
3225.000000	64.487814 
3224.000000	64.497661 
3223.000000	64.504861 
3222.000000	64.507770 
3221.000000	64.505290 
3220.000000	64.497184 
3219.000000	64.483952 
3218.000000	64.466762 
3217.000000	64.447426 
3216.000000	64.428091 
3215.000000	64.410829 
3214.000000	64.397621 
3213.000000	64.389896 
3212.000000	64.388489 
3211.000000	64.393568 
3210.000000	64.404559 
3209.000000	64.420032 
3208.000000	64.438152 
3207.000000	64.456772 
3206.000000	64.473795 
3205.000000	64.487409 
3204.000000	64.496660 
3203.000000	64.501428 
3202.000000	64.502787 
3201.000000	64.502525 
3200.000000	64.502978 
3199.000000	64.506268 
3198.000000	64.513611 
3197.000000	64.525032 
3196.000000	64.539122 
3195.000000	64.553284 
3194.000000	64.564490 
3193.000000	64.569640 
3192.000000	64.566731 
3191.000000	64.555072 
3190.000000	64.535450 
3189.000000	64.510035 
3188.000000	64.481735 
3187.000000	64.453673 
3186.000000	64.428687 
3185.000000	64.408922 
3184.000000	64.395451 
3183.000000	64.388704 
3182.000000	64.388680 
3181.000000	64.395093 
3180.000000	64.407539 
3179.000000	64.425683 
3178.000000	64.448952 
3177.000000	64.476513 
3176.000000	64.506840 
3175.000000	64.537978 
3174.000000	64.567804 
3173.000000	64.594078 
3172.000000	64.614844 
3171.000000	64.628934 
3170.000000	64.636063 
3169.000000	64.637017 
3168.000000	64.633321 
3167.000000	64.627194 
3166.000000	64.620828 
3165.000000	64.616441 
3164.000000	64.615154 
3163.000000	64.617204 
3162.000000	64.621305 
3161.000000	64.625263 
3160.000000	64.626216 
3159.000000	64.621448 
3158.000000	64.609026 
3157.000000	64.588403 
3156.000000	64.560770 
3155.000000	64.528894 
3154.000000	64.496731 
3153.000000	64.468622 
3152.000000	64.448332 
3151.000000	64.438152 
3150.000000	64.438271 
3149.000000	64.446926 
3148.000000	64.460873 
3147.000000	64.475989 
3146.000000	64.488410 
3145.000000	64.495325 
3144.000000	64.495539 
3143.000000	64.489865 
3142.000000	64.480352 
3141.000000	64.469933 
3140.000000	64.461445 
3139.000000	64.457106 
3138.000000	64.457869 
3137.000000	64.463043 
3136.000000	64.470911 
3135.000000	64.478754 
3134.000000	64.483857 
3133.000000	64.484095 
3132.000000	64.478254 
3131.000000	64.466738 
3130.000000	64.450955 
3129.000000	64.433670 
3128.000000	64.417958 
3127.000000	64.407157 
3126.000000	64.403820 
3125.000000	64.409518 
3124.000000	64.424371 
3123.000000	64.447140 
3122.000000	64.475512 
3121.000000	64.506125 
3120.000000	64.535450 
3119.000000	64.560151 
3118.000000	64.577770 
3117.000000	64.586925 
3116.000000	64.587712 
3115.000000	64.581370 
3114.000000	64.569997 
3113.000000	64.556217 
3112.000000	64.542365 
3111.000000	64.530491 
3110.000000	64.521598 
3109.000000	64.515876 
3108.000000	64.512705 
3107.000000	64.511275 
3106.000000	64.510631 
3105.000000	64.510107 
3104.000000	64.509344 
3103.000000	64.508295 
3102.000000	64.507412 
3101.000000	64.507198 
3100.000000	64.508008 
3099.000000	64.510035 
3098.000000	64.513230 
3097.000000	64.517283 
3096.000000	64.521884 
3095.000000	64.526796 
3094.000000	64.531683 
3093.000000	64.536213 
3092.000000	64.539933 
3091.000000	64.542293 
3090.000000	64.542531 
3089.000000	64.539861 
3088.000000	64.533615 
3087.000000	64.523386 
3086.000000	64.509344 
3085.000000	64.492368 
3084.000000	64.473915 
3083.000000	64.456248 
3082.000000	64.441752 
3081.000000	64.432692 
3080.000000	64.430689 
3079.000000	64.436173 
3078.000000	64.448356 
3077.000000	64.465069 
3076.000000	64.483213 
3075.000000	64.499473 
3074.000000	64.511036 
3073.000000	64.516305 
3072.000000	64.514994 
3071.000000	64.508414 
3070.000000	64.498925 
3069.000000	64.489459 
3068.000000	64.482736 
3067.000000	64.480638 
3066.000000	64.484000 
3065.000000	64.492535 
3064.000000	64.505314 
3063.000000	64.521026 
3062.000000	64.538598 
3061.000000	64.557385 
3060.000000	64.577293 
3059.000000	64.598250 
3058.000000	64.619970 
3057.000000	64.641666 
3056.000000	64.662051 
3055.000000	64.679574 
3054.000000	64.692425 
3053.000000	64.699530 
3052.000000	64.700198 
3051.000000	64.694714 
3050.000000	64.683747 
3049.000000	64.668583 
3048.000000	64.650440 
3047.000000	64.630460 
3046.000000	64.609336 
3045.000000	64.587593 
3044.000000	64.565730 
3043.000000	64.544510 
3042.000000	64.524960 
3041.000000	64.508199 
3040.000000	64.495587 
3039.000000	64.488291 
3038.000000	64.487051 
3037.000000	64.492058 
3036.000000	64.502882 
3035.000000	64.518952 
3034.000000	64.539313 
3033.000000	64.562916 
3032.000000	64.588856 
3031.000000	64.615845 
3030.000000	64.642238 
3029.000000	64.666199 
3028.000000	64.685678 
3027.000000	64.698791 
3026.000000	64.703989 
3025.000000	64.700651 
3024.000000	64.689612 
3023.000000	64.672946 
3022.000000	64.653754 
3021.000000	64.635396 
3020.000000	64.621090 
3019.000000	64.612865 
3018.000000	64.611315 
3017.000000	64.615273 
3016.000000	64.622116 
3015.000000	64.628624 
3014.000000	64.631843 
3013.000000	64.629578 
3012.000000	64.621138 
3011.000000	64.607429 
3010.000000	64.590811 
3009.000000	64.574480 
3008.000000	64.561796 
3007.000000	64.555430 
3006.000000	64.556694 
3005.000000	64.565348 
3004.000000	64.579415 
3003.000000	64.595580 
3002.000000	64.609742 
3001.000000	64.618134 
3000.000000	64.617681 
2999.000000	64.606785 
2998.000000	64.585471 
2997.000000	64.555644 
2996.000000	64.520525 
2995.000000	64.483904 
2994.000000	64.449477 
2993.000000	64.420247 
2992.000000	64.397978 
2991.000000	64.383125 
2990.000000	64.375114 
2989.000000	64.372658 
2988.000000	64.374470 
2987.000000	64.379572 
2986.000000	64.387631 
2985.000000	64.398598 
2984.000000	64.412641 
2983.000000	64.429402 
2982.000000	64.447999 
2981.000000	64.466595 
2980.000000	64.482903 
2979.000000	64.494299 
2978.000000	64.498519 
2977.000000	64.494109 
2976.000000	64.481210 
2975.000000	64.461278 
2974.000000	64.436721 
2973.000000	64.410424 
2972.000000	64.385175 
2971.000000	64.363098 
2970.000000	64.345383 
2969.000000	64.332151 
2968.000000	64.322710 
2967.000000	64.316105 
2966.000000	64.311265 
2965.000000	64.307475 
2964.000000	64.304494 
2963.000000	64.302587 
2962.000000	64.302015 
2961.000000	64.303088 
2960.000000	64.305830 
2959.000000	64.309954 
2958.000000	64.315009 
2957.000000	64.320421 
2956.000000	64.325666 
2955.000000	64.330697 
2954.000000	64.335823 
2953.000000	64.341664 
2952.000000	64.348983 
2951.000000	64.358472 
2950.000000	64.370584 
2949.000000	64.385390 
2948.000000	64.402437 
2947.000000	64.420700 
2946.000000	64.438986 
2945.000000	64.455819 
2944.000000	64.470028 
2943.000000	64.480686 
2942.000000	64.487528 
2941.000000	64.490962 
2940.000000	64.491677 
2939.000000	64.490675 
2938.000000	64.488816 
2937.000000	64.486885 
2936.000000	64.485073 
2935.000000	64.483261 
2934.000000	64.480900 
2933.000000	64.477276 
2932.000000	64.471673 
2931.000000	64.463734 
2930.000000	64.453434 
2929.000000	64.441394 
2928.000000	64.428687 
2927.000000	64.416933 
2926.000000	64.407944 
2925.000000	64.403414 
2924.000000	64.404511 
2923.000000	64.411473 
2922.000000	64.423680 
2921.000000	64.439678 
2920.000000	64.457321 
2919.000000	64.474296 
2918.000000	64.488387 
2917.000000	64.497637 
2916.000000	64.500761 
2915.000000	64.497089 
2914.000000	64.486694 
2913.000000	64.470314 
2912.000000	64.449453 
2911.000000	64.426016 
2910.000000	64.402341 
2909.000000	64.380431 
2908.000000	64.362001 
2907.000000	64.347839 
2906.000000	64.338016 
2905.000000	64.331793 
2904.000000	64.328098 
2903.000000	64.325785 
2902.000000	64.324116 
2901.000000	64.322996 
2900.000000	64.322948 
2899.000000	64.324998 
2898.000000	64.330267 
2897.000000	64.339518 
2896.000000	64.352822 
2895.000000	64.369392 
2894.000000	64.387536 
2893.000000	64.404964 
2892.000000	64.419269 
2891.000000	64.428472 
2890.000000	64.431428 
2889.000000	64.428091 
2888.000000	64.419436 
2887.000000	64.407253 
2886.000000	64.393639 
2885.000000	64.380598 
2884.000000	64.369654 
2883.000000	64.361476 
2882.000000	64.356112 
2881.000000	64.353227 
2880.000000	64.352130 
2879.000000	64.352321 
2878.000000	64.353418 
2877.000000	64.355254 
2876.000000	64.357733 
2875.000000	64.360666 
2874.000000	64.363718 
2873.000000	64.366340 
2872.000000	64.367985 
2871.000000	64.367985 
2870.000000	64.366126 
2869.000000	64.362478 
2868.000000	64.357542 
2867.000000	64.352321 
2866.000000	64.348053 
2865.000000	64.345932 
2864.000000	64.347052 
2863.000000	64.351868 
2862.000000	64.360284 
2861.000000	64.371609 
2860.000000	64.384555 
2859.000000	64.397454 
2858.000000	64.408612 
2857.000000	64.416456 
2856.000000	64.419960 
2855.000000	64.418911 
2854.000000	64.413738 
2853.000000	64.405536 
2852.000000	64.395856 
2851.000000	64.386320 
2850.000000	64.378190 
2849.000000	64.372086 
2848.000000	64.368009 
2847.000000	64.365506 
2846.000000	64.363932 
2845.000000	64.362740 
2844.000000	64.361715 
2843.000000	64.361000 
2842.000000	64.361214 
2841.000000	64.362931 
2840.000000	64.366674 
2839.000000	64.372491 
2838.000000	64.379930 
2837.000000	64.388084 
2836.000000	64.395737 
2835.000000	64.401602 
2834.000000	64.404773 
2833.000000	64.404869 
2832.000000	64.402318 
2831.000000	64.398074 
2830.000000	64.393591 
2829.000000	64.390349 
2828.000000	64.389586 
2827.000000	64.392089 
2826.000000	64.398002 
2825.000000	64.406704 
2824.000000	64.416956 
2823.000000	64.427256 
2822.000000	64.436078 
2821.000000	64.442205 
2820.000000	64.444923 
2819.000000	64.444303 
2818.000000	64.440965 
2817.000000	64.435958 
2816.000000	64.430379 
2815.000000	64.425015 
2814.000000	64.420247 
2813.000000	64.416074 
2812.000000	64.412236 
2811.000000	64.408659 
2810.000000	64.405274 
2809.000000	64.402389 
2808.000000	64.400506 
2807.000000	64.400148 
2806.000000	64.401555 
2805.000000	64.404654 
2804.000000	64.408874 
2803.000000	64.413475 
2802.000000	64.417505 
2801.000000	64.420366 
2800.000000	64.421892 
2799.000000	64.422464 
2798.000000	64.422893 
2797.000000	64.423942 
2796.000000	64.426207 
2795.000000	64.429569 
2794.000000	64.433526 
2793.000000	64.437174 
2792.000000	64.439749 
2791.000000	64.440917 
2790.000000	64.440894 
2789.000000	64.440441 
2788.000000	64.440727 
2787.000000	64.442706 
2786.000000	64.446902 
2785.000000	64.453363 
2784.000000	64.461421 
2783.000000	64.470076 
2782.000000	64.478111 
2781.000000	64.484691 
2780.000000	64.489293 
2779.000000	64.492011 
2778.000000	64.493274 
2777.000000	64.493560 
2776.000000	64.493179 
2775.000000	64.492225 
2774.000000	64.490556 
2773.000000	64.487910 
2772.000000	64.484190 
2771.000000	64.479708 
2770.000000	64.475178 
2769.000000	64.471602 
2768.000000	64.470005 
2767.000000	64.471173 
2766.000000	64.475440 
2765.000000	64.482307 
2764.000000	64.490604 
2763.000000	64.498567 
2762.000000	64.504122 
2761.000000	64.505219 
2760.000000	64.500260 
2759.000000	64.488577 
2758.000000	64.470291 
2757.000000	64.446878 
2756.000000	64.420676 
2755.000000	64.394712 
2754.000000	64.372229 
2753.000000	64.356160 
2752.000000	64.348626 
2751.000000	64.350485 
2750.000000	64.361310 
2749.000000	64.379429 
2748.000000	64.402055 
2747.000000	64.425992 
2746.000000	64.448380 
2745.000000	64.466929 
2744.000000	64.480566 
2743.000000	64.489173 
2742.000000	64.493536 
2741.000000	64.494848 
2740.000000	64.494419 
2739.000000	64.493131 
2738.000000	64.491319 
2737.000000	64.489078 
2736.000000	64.486122 
2735.000000	64.482259 
2734.000000	64.477705 
2733.000000	64.473128 
2732.000000	64.469432 
2731.000000	64.467835 
2730.000000	64.468979 
2729.000000	64.473080 
2728.000000	64.479494 
2727.000000	64.486575 
2726.000000	64.492440 
2725.000000	64.495015 
2724.000000	64.492893 
2723.000000	64.485692 
2722.000000	64.474248 
2721.000000	64.460492 
2720.000000	64.447212 
2719.000000	64.437174 
2718.000000	64.432668 
2717.000000	64.434909 
2716.000000	64.443922 
2715.000000	64.458537 
2714.000000	64.476823 
2713.000000	64.496493 
2712.000000	64.515233 
2711.000000	64.531278 
2710.000000	64.543533 
2709.000000	64.551496 
2708.000000	64.555168 
2707.000000	64.554858 
2706.000000	64.551162 
2705.000000	64.544725 
2704.000000	64.536285 
2703.000000	64.526677 
2702.000000	64.516806 
2701.000000	64.507579 
2700.000000	64.499783 
2699.000000	64.493727 
2698.000000	64.489412 
2697.000000	64.486360 
2696.000000	64.483785 
2695.000000	64.480876 
2694.000000	64.476752 
2693.000000	64.471030 
2692.000000	64.463710 
2691.000000	64.455389 
2690.000000	64.446949 
2689.000000	64.439654 
2688.000000	64.434719 
2687.000000	64.433145 
2686.000000	64.435625 
2685.000000	64.442300 
2684.000000	64.452838 
2683.000000	64.466309 
2682.000000	64.481401 
2681.000000	64.496517 
2680.000000	64.509963 
2679.000000	64.520311 
2678.000000	64.526724 
2677.000000	64.529013 
2676.000000	64.527821 
2675.000000	64.524483 
2674.000000	64.520621 
2673.000000	64.517617 
2672.000000	64.516258 
2671.000000	64.516639 
2670.000000	64.517831 
2669.000000	64.518451 
2668.000000	64.516878 
2667.000000	64.511966 
2666.000000	64.503264 
2665.000000	64.491415 
2664.000000	64.477825 
2663.000000	64.464378 
2662.000000	64.452719 
2661.000000	64.443802 
2660.000000	64.437723 
2659.000000	64.433622 
2658.000000	64.430427 
2657.000000	64.427208 
2656.000000	64.423727 
2655.000000	64.420580 
2654.000000	64.418983 
2653.000000	64.420318 
2652.000000	64.425516 
2651.000000	64.434599 
2650.000000	64.446568 
2649.000000	64.459466 
2648.000000	64.470958 
2647.000000	64.478921 
2646.000000	64.482188 
2645.000000	64.480614 
2644.000000	64.475274 
2643.000000	64.467978 
2642.000000	64.460778 
2641.000000	64.455342 
2640.000000	64.452481 
2639.000000	64.452409 
2638.000000	64.454936 
2637.000000	64.459657 
2636.000000	64.466261 
2635.000000	64.474439 
2634.000000	64.483857 
2633.000000	64.493918 
2632.000000	64.503598 
2631.000000	64.511656 
2630.000000	64.516592 
2629.000000	64.517354 
2628.000000	64.513468 
2627.000000	64.505290 
2626.000000	64.493989 
2625.000000	64.481282 
2624.000000	64.469242 
2623.000000	64.459848 
2622.000000	64.454627 
2621.000000	64.454197 
2620.000000	64.458584 
2619.000000	64.467024 
2618.000000	64.478158 
2617.000000	64.490413 
2616.000000	64.501833 
2615.000000	64.510512 
2614.000000	64.514565 
2613.000000	64.512419 
2612.000000	64.503240 
2611.000000	64.487218 
2610.000000	64.465618 
2609.000000	64.440727 
2608.000000	64.415454 
2607.000000	64.392852 
2606.000000	64.375424 
2605.000000	64.364719 
2604.000000	64.361214 
2603.000000	64.364337 
2602.000000	64.372682 
2601.000000	64.384388 
2600.000000	64.397501 
2599.000000	64.410281 
2598.000000	64.421367 
2597.000000	64.429855 
2596.000000	64.435100 
2595.000000	64.437150 
2594.000000	64.436054 
2593.000000	64.432573 
2592.000000	64.427900 
2591.000000	64.423513 
2590.000000	64.421248 
2589.000000	64.422512 
2588.000000	64.427900 
2587.000000	64.436841 
2586.000000	64.447712 
2585.000000	64.458084 
2584.000000	64.465284 
2583.000000	64.467239 
2582.000000	64.463019 
2581.000000	64.453053 
2580.000000	64.439201 
2579.000000	64.424324 
2578.000000	64.411544 
2577.000000	64.403629 
2576.000000	64.402437 
2575.000000	64.408755 
2574.000000	64.421939 
2573.000000	64.440417 
2572.000000	64.461731 
2571.000000	64.483261 
2570.000000	64.502429 
2569.000000	64.516949 
2568.000000	64.525389 
2567.000000	64.526700 
2566.000000	64.520716 
2565.000000	64.507889 
2564.000000	64.489459 
2563.000000	64.467310 
2562.000000	64.443445 
2561.000000	64.419960 
2560.000000	64.398646 
2559.000000	64.380741 
2558.000000	64.366650 
2557.000000	64.356184 
2556.000000	64.348411 
2555.000000	64.342164 
2554.000000	64.336228 
2553.000000	64.329624 
2552.000000	64.322042 
2551.000000	64.313936 
2550.000000	64.306235 
2549.000000	64.300465 
2548.000000	64.298152 
2547.000000	64.300537 
2546.000000	64.307951 
2545.000000	64.319849 
2544.000000	64.334678 
2543.000000	64.350390 
2542.000000	64.364576 
2541.000000	64.375305 
2540.000000	64.381313 
2539.000000	64.382433 
2538.000000	64.379835 
2537.000000	64.375352 
2536.000000	64.371037 
2535.000000	64.368367 
2534.000000	64.368033 
2533.000000	64.369463 
2532.000000	64.371013 
2531.000000	64.370703 
2530.000000	64.366936 
2529.000000	64.359116 
2528.000000	64.348149 
2527.000000	64.336276 
2526.000000	64.326596 
2525.000000	64.322304 
2524.000000	64.325881 
2523.000000	64.338517 
2522.000000	64.359736 
2521.000000	64.387702 
2520.000000	64.419579 
2519.000000	64.452219 
2518.000000	64.482688 
2517.000000	64.508867 
2516.000000	64.529252 
2515.000000	64.543080 
2514.000000	64.549708 
2513.000000	64.548683 
2512.000000	64.539337 
2511.000000	64.521241 
2510.000000	64.494228 
2509.000000	64.458990 
2508.000000	64.417243 
2507.000000	64.371824 
2506.000000	64.326381 
2505.000000	64.284896 
2504.000000	64.251017 
2503.000000	64.227533 
2502.000000	64.215946 
2501.000000	64.215993 
2500.000000	64.226293 
2499.000000	64.244461 
2498.000000	64.267635 
2497.000000	64.293098 
2496.000000	64.318633 
2495.000000	64.342570 
2494.000000	64.363908 
2493.000000	64.382123 
2492.000000	64.396739 
2491.000000	64.407205 
2490.000000	64.412951 
2489.000000	64.413714 
2488.000000	64.409518 
2487.000000	64.401030 
2486.000000	64.389777 
2485.000000	64.377737 
2484.000000	64.367270 
2483.000000	64.360523 
2482.000000	64.359140 
2481.000000	64.363598 
2480.000000	64.373302 
2479.000000	64.386367 
2478.000000	64.400410 
2477.000000	64.412689 
2476.000000	64.420652 
2475.000000	64.422392 
2474.000000	64.417266 
2473.000000	64.405727 
2472.000000	64.389348 
2471.000000	64.370656 
2470.000000	64.352560 
2469.000000	64.338040 
2468.000000	64.329791 
2467.000000	64.329624 
2466.000000	64.338183 
2465.000000	64.355111 
2464.000000	64.378929 
2463.000000	64.407277 
2462.000000	64.437127 
2461.000000	64.465546 
2460.000000	64.489936 
2459.000000	64.508342 
2458.000000	64.519762 
2457.000000	64.524126 
2456.000000	64.522099 
2455.000000	64.515018 
2454.000000	64.504456 
2453.000000	64.491987 
2452.000000	64.478969 
2451.000000	64.466595 
2450.000000	64.455580 
2449.000000	64.446496 
2448.000000	64.439439 
2447.000000	64.434289 
2446.000000	64.430594 
2445.000000	64.427804 
2444.000000	64.424943 
2443.000000	64.421033 
2442.000000	64.415192 
2441.000000	64.406847 
2440.000000	64.396023 
2439.000000	64.383268 
2438.000000	64.369654 
2437.000000	64.356470 
2436.000000	64.345121 
2435.000000	64.336538 
2434.000000	64.331197 
2433.000000	64.328765 
2432.000000	64.328336 
2431.000000	64.328646 
2430.000000	64.328432 
2429.000000	64.326953 
2428.000000	64.323878 
2427.000000	64.319658 
2426.000000	64.315176 
2425.000000	64.311480 
2424.000000	64.309382 
2423.000000	64.309072 
2422.000000	64.309978 
2421.000000	64.310765 
2420.000000	64.309811 
2419.000000	64.305543 
2418.000000	64.297056 
2417.000000	64.284420 
2416.000000	64.268898 
2415.000000	64.252638 
2414.000000	64.238309 
2413.000000	64.228510 
2412.000000	64.225292 
2411.000000	64.229679 
2410.000000	64.241409 
2409.000000	64.259028 
2408.000000	64.280533 
2407.000000	64.303350 
2406.000000	64.325165 
2405.000000	64.344167 
2404.000000	64.359116 
2403.000000	64.369726 
2402.000000	64.376091 
2401.000000	64.378809 
2400.000000	64.378452 
2399.000000	64.375543 
2398.000000	64.370274 
2397.000000	64.362668 
2396.000000	64.352583 
2395.000000	64.339876 
2394.000000	64.324617 
2393.000000	64.307403 
2392.000000	64.289450 
2391.000000	64.272713 
2390.000000	64.259648 
2389.000000	64.252781 
2388.000000	64.254117 
2387.000000	64.264869 
2386.000000	64.284873 
2385.000000	64.312362 
2384.000000	64.344310 
2383.000000	64.376783 
2382.000000	64.405560 
2381.000000	64.426875 
2380.000000	64.438080 
2379.000000	64.438128 
2378.000000	64.427638 
2377.000000	64.408826 
2376.000000	64.384961 
2375.000000	64.359784 
2374.000000	64.336848 
2373.000000	64.318847 
2372.000000	64.307641 
2371.000000	64.303445 
2370.000000	64.305424 
2369.000000	64.311623 
2368.000000	64.319610 
2367.000000	64.326810 
2366.000000	64.331150 
2365.000000	64.331674 
2364.000000	64.328479 
2363.000000	64.322805 
2362.000000	64.316582 
2361.000000	64.311695 
2360.000000	64.309334 
2359.000000	64.309597 
2358.000000	64.311528 
2357.000000	64.313173 
2356.000000	64.312148 
2355.000000	64.306807 
2354.000000	64.296531 
2353.000000	64.282059 
2352.000000	64.265727 
2351.000000	64.250516 
2350.000000	64.239525 
2349.000000	64.235067 
2348.000000	64.238214 
2347.000000	64.248228 
2346.000000	64.262938 
2345.000000	64.279437 
2344.000000	64.294624 
2343.000000	64.306211 
2342.000000	64.312887 
2341.000000	64.314365 
2340.000000	64.311289 
2339.000000	64.304757 
2338.000000	64.295864 
2337.000000	64.285516 
2336.000000	64.274191 
2335.000000	64.262199 
2334.000000	64.249992 
2333.000000	64.238381 
2332.000000	64.228773 
2331.000000	64.222884 
2330.000000	64.222717 
2329.000000	64.229798 
2328.000000	64.244937 
2327.000000	64.267635 
2326.000000	64.296102 
2325.000000	64.327096 
2324.000000	64.356660 
2323.000000	64.380574 
2322.000000	64.395308 
2321.000000	64.398527 
2320.000000	64.389705 
2319.000000	64.370131 
2318.000000	64.342808 
2317.000000	64.311742 
2316.000000	64.281368 
2315.000000	64.255475 
2314.000000	64.236831 
2313.000000	64.226245 
2312.000000	64.223003 
2311.000000	64.224958 
2310.000000	64.229178 
2309.000000	64.232683 
2308.000000	64.233493 
2307.000000	64.230656 
2306.000000	64.224886 
2305.000000	64.217877 
2304.000000	64.212274 
2303.000000	64.210605 
2302.000000	64.214682 
2301.000000	64.225125 
2300.000000	64.241147 
2299.000000	64.260864 
2298.000000	64.281582 
2297.000000	64.300680 
2296.000000	64.315867 
2295.000000	64.325928 
2294.000000	64.330554 
2293.000000	64.330339 
2292.000000	64.326333 
2291.000000	64.319753 
2290.000000	64.311432 
2289.000000	64.301776 
2288.000000	64.290833 
2287.000000	64.278435 
2286.000000	64.264678 
2285.000000	64.250135 
2284.000000	64.236021 
2283.000000	64.224004 
2282.000000	64.215922 
2281.000000	64.213609 
2280.000000	64.218211 
2279.000000	64.230036 
2278.000000	64.248347 
2277.000000	64.271426 
2276.000000	64.296770 
2275.000000	64.321637 
2274.000000	64.343214 
2273.000000	64.359307 
2272.000000	64.368581 
2271.000000	64.370679 
2270.000000	64.366292 
2269.000000	64.356756 
2268.000000	64.344239 
2267.000000	64.330863 
2266.000000	64.318728 
2265.000000	64.309310 
2264.000000	64.303541 
2263.000000	64.301538 
2262.000000	64.302635 
2261.000000	64.305686 
2260.000000	64.309382 
2259.000000	64.312314 
2258.000000	64.313530 
2257.000000	64.312672 
2256.000000	64.309954 
2255.000000	64.306378 
2254.000000	64.303112 
2253.000000	64.301395 
2252.000000	64.302134 
2251.000000	64.305734 
2250.000000	64.311790 
2249.000000	64.319181 
2248.000000	64.326238 
2247.000000	64.331340 
2246.000000	64.333009 
2245.000000	64.330554 
2244.000000	64.324140 
2243.000000	64.314699 
2242.000000	64.303684 
2241.000000	64.292931 
2240.000000	64.284062 
2239.000000	64.278078 
2238.000000	64.275312 
2237.000000	64.275360 
2236.000000	64.277362 
2235.000000	64.280176 
2234.000000	64.282512 
2233.000000	64.283442 
2232.000000	64.282178 
2231.000000	64.278388 
2230.000000	64.271926 
2229.000000	64.263081 
2228.000000	64.252328 
2227.000000	64.240264 
2226.000000	64.227795 
2225.000000	64.216065 
2224.000000	64.206385 
2223.000000	64.200115 
2222.000000	64.198422 
2221.000000	64.201951 
2220.000000	64.210939 
2219.000000	64.224743 
2218.000000	64.242148 
2217.000000	64.261102 
2216.000000	64.279341 
2215.000000	64.294314 
2214.000000	64.303755 
2213.000000	64.305734 
2212.000000	64.299368 
2211.000000	64.284443 
2210.000000	64.261841 
2209.000000	64.233303 
2208.000000	64.201307 
2207.000000	64.168787 
2206.000000	64.138674 
2205.000000	64.113521 
2204.000000	64.095187 
2203.000000	64.084815 
2202.000000	64.082622 
2201.000000	64.087939 
2200.000000	64.099431 
2199.000000	64.115309 
2198.000000	64.133596 
2197.000000	64.152431 
2196.000000	64.170289 
2195.000000	64.185976 
2194.000000	64.198827 
2193.000000	64.208579 
2192.000000	64.215326 
2191.000000	64.219403 
2190.000000	64.221429 
2189.000000	64.221978 
2188.000000	64.221739 
2187.000000	64.221525 
2186.000000	64.221954 
2185.000000	64.223551 
2184.000000	64.226555 
2183.000000	64.231157 
2182.000000	64.236998 
2181.000000	64.243507 
2180.000000	64.249634 
2179.000000	64.254236 
2178.000000	64.256191 
2177.000000	64.254736 
2176.000000	64.249658 
2175.000000	64.241290 
2174.000000	64.230966 
2173.000000	64.220547 
2172.000000	64.212322 
2171.000000	64.208316 
2170.000000	64.209961 
2169.000000	64.217877 
2168.000000	64.231586 
2167.000000	64.249491 
2166.000000	64.269232 
2165.000000	64.288091 
2164.000000	64.303421 
2163.000000	64.313292 
2162.000000	64.316558 
2161.000000	64.313292 
2160.000000	64.304542 
2159.000000	64.292049 
2158.000000	64.277720 
2157.000000	64.263391 
2156.000000	64.250326 
2155.000000	64.239072 
2154.000000	64.229536 
2153.000000	64.221405 
2152.000000	64.214396 
2151.000000	64.208722 
2150.000000	64.205026 
2149.000000	64.204525 
2148.000000	64.208722 
2147.000000	64.218783 
2146.000000	64.235234 
2145.000000	64.257454 
2144.000000	64.283704 
2143.000000	64.311385 
2142.000000	64.337420 
2141.000000	64.358997 
2140.000000	64.374184 
2139.000000	64.382195 
2138.000000	64.383530 
2137.000000	64.379692 
2136.000000	64.372420 
2135.000000	64.363336 
2134.000000	64.353418 
2133.000000	64.343070 
2132.000000	64.331889 
2131.000000	64.319205 
2130.000000	64.304232 
2129.000000	64.286851 
2128.000000	64.267563 
2127.000000	64.247608 
2126.000000	64.228868 
2125.000000	64.213442 
2124.000000	64.203214 
2123.000000	64.199471 
2122.000000	64.202475 
2121.000000	64.211511 
2120.000000	64.224958 
2119.000000	64.240503 
2118.000000	64.255833 
2117.000000	64.268946 
2116.000000	64.278531 
2115.000000	64.284157 
2114.000000	64.286231 
2113.000000	64.285898 
2112.000000	64.284586 
2111.000000	64.283347 
2110.000000	64.283156 
2109.000000	64.284229 
2108.000000	64.286112 
2107.000000	64.287805 
2106.000000	64.288187 
2105.000000	64.286112 
2104.000000	64.280796 
2103.000000	64.271998 
2102.000000	64.259910 
2101.000000	64.245295 
2100.000000	64.229226 
2099.000000	64.212870 
2098.000000	64.197278 
2097.000000	64.183378 
2096.000000	64.171910 
2095.000000	64.163422 
2094.000000	64.158320 
2093.000000	64.156866 
2092.000000	64.159250 
2091.000000	64.165329 
2090.000000	64.174556 
2089.000000	64.186024 
2088.000000	64.198303 
2087.000000	64.209866 
2086.000000	64.218759 
2085.000000	64.223456 
2084.000000	64.222621 
2083.000000	64.215517 
2082.000000	64.201807 
2081.000000	64.181923 
2080.000000	64.156866 
2079.000000	64.128303 
2078.000000	64.098262 
2077.000000	64.069032 
2076.000000	64.042901 
2075.000000	64.021801 
2074.000000	64.007258 
2073.000000	63.999843 
2072.000000	63.999581 
2071.000000	64.005875 
2070.000000	64.017724 
2069.000000	64.033937 
2068.000000	64.053225 
2067.000000	64.074397 
2066.000000	64.096546 
2065.000000	64.118909 
2064.000000	64.141011 
2063.000000	64.162445 
2062.000000	64.183068 
2061.000000	64.202594 
2060.000000	64.220976 
2059.000000	64.237833 
2058.000000	64.252781 
2057.000000	64.265203 
2056.000000	64.274287 
2055.000000	64.279079 
2054.000000	64.278888 
2053.000000	64.273071 
2052.000000	64.261651 
2051.000000	64.245176 
2050.000000	64.224863 
2049.000000	64.202618 
2048.000000	64.180493 
2047.000000	64.160370 
2046.000000	64.143800 
2045.000000	64.131689 
2044.000000	64.124178 
2043.000000	64.120769 
2042.000000	64.120364 
2041.000000	64.121913 
2040.000000	64.124441 
2039.000000	64.127349 
2038.000000	64.130401 
2037.000000	64.133787 
2036.000000	64.137911 
2035.000000	64.143085 
2034.000000	64.149308 
2033.000000	64.156198 
2032.000000	64.163303 
2031.000000	64.169788 
2030.000000	64.174842 
2029.000000	64.178061 
2028.000000	64.179325 
2027.000000	64.179039 
2026.000000	64.177823 
2025.000000	64.176583 
2024.000000	64.176011 
2023.000000	64.176630 
2022.000000	64.178228 
2021.000000	64.180040 
2020.000000	64.180755 
2019.000000	64.178943 
2018.000000	64.173269 
2017.000000	64.162945 
2016.000000	64.147949 
2015.000000	64.129161 
2014.000000	64.108347 
2013.000000	64.087581 
2012.000000	64.069056 
2011.000000	64.054632 
2010.000000	64.045429 
2009.000000	64.041805 
2008.000000	64.043259 
2007.000000	64.048528 
2006.000000	64.056015 
2005.000000	64.064121 
2004.000000	64.071416 
2003.000000	64.077019 
2002.000000	64.080619 
2001.000000	64.082574 
2000.000000	64.083695 
1999.000000	64.085006 
1998.000000	64.087581 
1997.000000	64.092135 
1996.000000	64.099121 
1995.000000	64.108157 
1994.000000	64.118313 
1993.000000	64.128088 
1992.000000	64.135956 
1991.000000	64.140367 
1990.000000	64.140439 
1989.000000	64.135956 
1988.000000	64.127635 
1987.000000	64.116764 
1986.000000	64.104890 
1985.000000	64.093685 
1984.000000	64.084315 
1983.000000	64.077448 
1982.000000	64.072990 
1981.000000	64.070415 
1980.000000	64.068913 
1979.000000	64.067888 
1978.000000	64.066958 
1977.000000	64.066052 
1976.000000	64.065599 
1975.000000	64.066123 
1974.000000	64.068293 
1973.000000	64.072322 
1972.000000	64.078378 
1971.000000	64.086294 
1970.000000	64.095807 
1969.000000	64.106464 
1968.000000	64.117717 
1967.000000	64.128851 
1966.000000	64.138984 
1965.000000	64.147138 
1964.000000	64.152574 
1963.000000	64.155030 
1962.000000	64.154720 
1961.000000	64.152336 
1960.000000	64.149045 
1959.000000	64.146065 
1958.000000	64.144349 
1957.000000	64.144253 
1956.000000	64.145469 
1955.000000	64.147114 
1954.000000	64.147949 
1953.000000	64.146733 
1952.000000	64.142394 
1951.000000	64.134263 
1950.000000	64.122390 
1949.000000	64.107441 
1948.000000	64.090681 
1947.000000	64.073824 
1946.000000	64.058661 
1945.000000	64.046812 
1944.000000	64.039421 
1943.000000	64.037132 
1942.000000	64.039802 
1941.000000	64.046716 
1940.000000	64.056324 
1939.000000	64.066767 
1938.000000	64.075970 
1937.000000	64.082002 
1936.000000	64.083409 
1935.000000	64.079332 
1934.000000	64.069652 
1933.000000	64.054894 
1932.000000	64.036083 
1931.000000	64.014577 
1930.000000	63.992071 
1929.000000	63.970541 
1928.000000	63.952136 
1927.000000	63.938975 
1926.000000	63.932895 
1925.000000	63.935041 
1924.000000	63.945603 
1923.000000	63.963437 
1922.000000	63.986515 
1921.000000	64.012050 
1920.000000	64.037513 
1919.000000	64.060616 
1918.000000	64.080142 
1917.000000	64.095878 
1916.000000	64.108347 
1915.000000	64.118742 
1914.000000	64.128017 
1913.000000	64.136695 
1912.000000	64.144492 
1911.000000	64.150547 
1910.000000	64.153742 
1909.000000	64.153194 
1908.000000	64.148616 
1907.000000	64.140892 
1906.000000	64.131689 
1905.000000	64.123106 
1904.000000	64.117336 
1903.000000	64.115810 
1902.000000	64.118766 
1901.000000	64.125180 
1900.000000	64.132833 
1899.000000	64.139127 
1898.000000	64.141559 
1897.000000	64.138364 
1896.000000	64.129066 
1895.000000	64.114618 
1894.000000	64.097046 
1893.000000	64.078903 
1892.000000	64.062714 
1891.000000	64.050221 
1890.000000	64.042258 
1889.000000	64.038372 
1888.000000	64.037299 
1887.000000	64.037370 
1886.000000	64.037108 
1885.000000	64.035725 
1884.000000	64.033126 
1883.000000	64.030241 
1882.000000	64.028573 
1881.000000	64.029932 
1880.000000	64.035582 
1879.000000	64.046335 
1878.000000	64.062023 
1877.000000	64.081525 
1876.000000	64.102911 
1875.000000	64.123821 
1874.000000	64.141821 
1873.000000	64.154934 
1872.000000	64.161801 
1871.000000	64.161992 
1870.000000	64.156150 
1869.000000	64.145755 
1868.000000	64.133024 
1867.000000	64.120388 
1866.000000	64.110302 
1865.000000	64.104604 
1864.000000	64.104437 
1863.000000	64.109897 
1862.000000	64.120006 
1861.000000	64.133310 
1860.000000	64.147639 
1859.000000	64.160799 
1858.000000	64.170932 
1857.000000	64.176630 
1856.000000	64.177227 
1855.000000	64.172887 
1854.000000	64.164161 
1853.000000	64.151859 
1852.000000	64.136743 
1851.000000	64.119458 
1850.000000	64.100360 
1849.000000	64.079833 
1848.000000	64.058661 
1847.000000	64.038038 
1846.000000	64.019656 
1845.000000	64.005517 
1844.000000	63.997554 
1843.000000	63.997077 
1842.000000	64.004325 
1841.000000	64.018201 
1840.000000	64.036417 
1839.000000	64.055991 
1838.000000	64.073896 
1837.000000	64.087510 
1836.000000	64.095139 
1835.000000	64.096426 
1834.000000	64.092183 
1833.000000	64.083981 
1832.000000	64.073681 
1831.000000	64.062881 
1830.000000	64.052557 
1829.000000	64.043045 
1828.000000	64.034223 
1827.000000	64.025664 
1826.000000	64.017009 
1825.000000	64.008116 
1824.000000	63.999295 
1823.000000	63.990974 
1822.000000	63.983631 
1821.000000	63.977503 
1820.000000	63.972687 
1819.000000	63.968992 
1818.000000	63.966083 
1817.000000	63.963818 
1816.000000	63.962125 
1815.000000	63.961482 
1814.000000	63.962674 
1813.000000	63.966536 
1812.000000	63.973951 
1811.000000	63.985347 
1810.000000	64.000558 
1809.000000	64.018702 
1808.000000	64.038276 
1807.000000	64.057183 
1806.000000	64.073252 
1805.000000	64.084553 
1804.000000	64.089655 
1803.000000	64.087915 
1802.000000	64.079499 
1801.000000	64.065241 
1800.000000	64.046525 
1799.000000	64.025235 
1798.000000	64.003062 
1797.000000	63.981580 
1796.000000	63.961911 
1795.000000	63.944911 
1794.000000	63.930940 
1793.000000	63.919997 
1792.000000	63.911914 
1791.000000	63.906455 
1790.000000	63.903355 
1789.000000	63.902521 
1788.000000	63.903665 
1787.000000	63.906621 
1786.000000	63.910984 
1785.000000	63.916397 
1784.000000	63.922047 
1783.000000	63.927245 
1782.000000	63.931202 
1781.000000	63.933396 
1780.000000	63.933467 
1779.000000	63.931536 
1778.000000	63.928008 
1777.000000	63.923835 
1776.000000	63.920068 
1775.000000	63.917994 
1774.000000	63.918876 
1773.000000	63.923883 
1772.000000	63.933491 
1771.000000	63.947653 
1770.000000	63.965439 
1769.000000	63.985371 
1768.000000	64.005422 
1767.000000	64.023375 
1766.000000	64.037156 
1765.000000	64.045286 
1764.000000	64.046978 
1763.000000	64.042139 
1762.000000	64.031100 
1761.000000	64.014792 
1760.000000	63.994264 
1759.000000	63.970708 
1758.000000	63.945174 
1757.000000	63.918781 
1756.000000	63.892602 
1755.000000	63.867831 
1754.000000	63.845610 
1753.000000	63.826990 
1752.000000	63.812518 
1751.000000	63.802218 
1750.000000	63.795447 
1749.000000	63.790893 
1748.000000	63.787031 
1747.000000	63.782405 
1746.000000	63.776087 
1745.000000	63.767766 
1744.000000	63.757944 
1743.000000	63.747525 
1742.000000	63.737559 
1741.000000	63.729023 
1740.000000	63.722538 
1739.000000	63.718366 
1738.000000	63.716387 
1737.000000	63.716363 
1736.000000	63.718104 
1735.000000	63.721632 
1734.000000	63.727068 
1733.000000	63.734579 
1732.000000	63.743972 
1731.000000	63.754796 
1730.000000	63.766121 
1729.000000	63.776755 
1728.000000	63.785481 
1727.000000	63.791370 
1726.000000	63.794231 
1725.000000	63.794326 
1724.000000	63.792395 
1723.000000	63.789439 
1722.000000	63.786411 
1721.000000	63.784122 
1720.000000	63.783073 
1719.000000	63.783526 
1718.000000	63.785767 
1717.000000	63.789725 
1716.000000	63.795351 
1715.000000	63.802433 
1714.000000	63.810563 
1713.000000	63.819289 
1712.000000	63.827967 
1711.000000	63.835930 
1710.000000	63.842678 
1709.000000	63.847875 
1708.000000	63.851642 
1707.000000	63.854312 
1706.000000	63.856625 
1705.000000	63.859391 
1704.000000	63.863110 
1703.000000	63.867998 
1702.000000	63.873720 
1701.000000	63.879489 
1700.000000	63.884210 
1699.000000	63.886785 
1698.000000	63.886356 
1697.000000	63.882422 
1696.000000	63.875198 
1695.000000	63.865470 
1694.000000	63.854742 
1693.000000	63.844728 
1692.000000	63.837146 
1691.000000	63.833498 
1690.000000	63.834452 
1689.000000	63.839888 
1688.000000	63.848686 
1687.000000	63.859009 
1686.000000	63.868522 
1685.000000	63.874769 
1684.000000	63.875770 
1683.000000	63.870310 
1682.000000	63.858509 
1681.000000	63.841509 
1680.000000	63.821411 
1679.000000	63.800811 
1678.000000	63.782525 
1677.000000	63.768625 
1676.000000	63.760399 
1675.000000	63.758063 
1674.000000	63.760972 
1673.000000	63.767933 
1672.000000	63.777470 
1671.000000	63.788247 
1670.000000	63.799357 
1669.000000	63.810396 
1668.000000	63.821196 
1667.000000	63.831782 
1666.000000	63.842010 
1665.000000	63.851571 
1664.000000	63.859868 
1663.000000	63.866281 
1662.000000	63.870334 
1661.000000	63.871908 
1660.000000	63.871431 
1659.000000	63.869738 
1658.000000	63.867831 
1657.000000	63.866710 
1656.000000	63.866806 
1655.000000	63.868141 
1654.000000	63.870072 
1653.000000	63.871741 
1652.000000	63.871979 
1651.000000	63.870096 
1650.000000	63.865900 
1649.000000	63.859796 
1648.000000	63.852834 
1647.000000	63.846325 
1646.000000	63.841533 
1645.000000	63.839387 
1644.000000	63.840270 
1643.000000	63.843870 
1642.000000	63.849472 
1641.000000	63.856077 
1640.000000	63.862586 
1639.000000	63.867998 
1638.000000	63.871550 
1637.000000	63.872814 
1636.000000	63.871526 
1635.000000	63.867640 
1634.000000	63.861203 
1633.000000	63.852190 
1632.000000	63.840484 
1631.000000	63.826084 
1630.000000	63.809156 
1629.000000	63.790154 
1628.000000	63.770008 
1627.000000	63.750147 
1626.000000	63.732385 
1625.000000	63.718652 
1624.000000	63.710498 
1623.000000	63.708758 
1622.000000	63.713145 
1621.000000	63.722562 
1620.000000	63.734817 
1619.000000	63.747406 
1618.000000	63.757896 
1617.000000	63.764548 
1616.000000	63.766932 
1615.000000	63.765907 
1614.000000	63.763284 
1613.000000	63.761425 
1612.000000	63.762664 
1611.000000	63.768362 
1610.000000	63.778805 
1609.000000	63.793158 
1608.000000	63.809800 
1607.000000	63.826775 
1606.000000	63.842463 
1605.000000	63.855743 
1604.000000	63.866496 
1603.000000	63.875222 
1602.000000	63.882899 
1601.000000	63.890576 
1600.000000	63.898992 
1599.000000	63.908457 
1598.000000	63.918662 
1597.000000	63.928890 
1596.000000	63.937926 
1595.000000	63.944840 
1594.000000	63.948631 
1593.000000	63.948822 
1592.000000	63.945102 
1591.000000	63.937640 
1590.000000	63.926792 
1589.000000	63.913011 
1588.000000	63.896799 
1587.000000	63.878822 
1586.000000	63.859820 
1585.000000	63.840889 
1584.000000	63.823151 
1583.000000	63.807773 
1582.000000	63.795685 
1581.000000	63.787436 
1580.000000	63.783025 
1579.000000	63.781929 
1578.000000	63.783621 
1577.000000	63.787508 
1576.000000	63.793277 
1575.000000	63.800978 
1574.000000	63.810801 
1573.000000	63.822913 
1572.000000	63.837170 
1571.000000	63.852763 
1570.000000	63.868641 
1569.000000	63.883566 
1568.000000	63.896393 
1567.000000	63.906216 
1566.000000	63.912796 
1565.000000	63.916397 
1564.000000	63.917708 
1563.000000	63.917565 
1562.000000	63.916707 
1561.000000	63.915395 
1560.000000	63.913488 
1559.000000	63.910222 
1558.000000	63.904571 
1557.000000	63.895559 
1556.000000	63.882589 
1555.000000	63.865780 
1554.000000	63.846158 
1553.000000	63.825440 
1552.000000	63.805651 
1551.000000	63.788771 
1550.000000	63.776350 
1549.000000	63.768959 
1548.000000	63.766121 
1547.000000	63.766622 
1546.000000	63.768768 
1545.000000	63.770818 
1544.000000	63.771510 
1543.000000	63.770270 
1542.000000	63.767433 
1541.000000	63.763880 
1540.000000	63.760876 
1539.000000	63.759374 
1538.000000	63.759851 
1537.000000	63.762116 
1536.000000	63.765120 
1535.000000	63.767576 
1534.000000	63.767886 
1533.000000	63.764882 
1532.000000	63.757705 
1531.000000	63.746237 
1530.000000	63.730883 
1529.000000	63.712549 
1528.000000	63.692331 
1527.000000	63.671207 
1526.000000	63.650250 
1525.000000	63.630366 
1524.000000	63.612365 
1523.000000	63.597178 
1522.000000	63.585591 
1521.000000	63.578414 
1520.000000	63.576126 
1519.000000	63.578987 
1518.000000	63.586592 
1517.000000	63.598322 
1516.000000	63.613343 
1515.000000	63.630962 
1514.000000	63.650465 
1513.000000	63.671135 
1512.000000	63.692378 
1511.000000	63.713431 
1510.000000	63.733386 
1509.000000	63.751101 
1508.000000	63.765430 
1507.000000	63.775587 
1506.000000	63.781523 
1505.000000	63.784098 
1504.000000	63.784956 
1503.000000	63.786387 
1502.000000	63.790726 
1501.000000	63.799452 
1500.000000	63.812685 
1499.000000	63.828992 
1498.000000	63.845682 
1497.000000	63.859415 
1496.000000	63.867044 
1495.000000	63.866710 
1494.000000	63.857936 
1493.000000	63.841581 
1492.000000	63.819456 
1491.000000	63.793611 
1490.000000	63.766098 
1489.000000	63.738393 
1488.000000	63.711714 
1487.000000	63.686919 
1486.000000	63.664865 
1485.000000	63.646626 
1484.000000	63.633513 
1483.000000	63.626575 
1482.000000	63.626670 
1481.000000	63.633990 
1480.000000	63.648128 
1479.000000	63.667440 
1478.000000	63.689827 
1477.000000	63.712954 
1476.000000	63.734531 
1475.000000	63.752675 
1474.000000	63.766336 
1473.000000	63.775134 
1472.000000	63.779330 
1471.000000	63.779520 
1470.000000	63.776755 
1469.000000	63.772201 
1468.000000	63.767266 
1467.000000	63.763046 
1466.000000	63.760638 
1465.000000	63.760542 
1464.000000	63.762879 
1463.000000	63.767075 
1462.000000	63.771986 
1461.000000	63.776111 
1460.000000	63.777995 
1459.000000	63.776540 
1458.000000	63.771033 
1457.000000	63.761520 
1456.000000	63.748955 
1455.000000	63.734745 
1454.000000	63.720393 
1453.000000	63.707041 
1452.000000	63.695406 
1451.000000	63.685274 
1450.000000	63.675761 
1449.000000	63.665342 
1448.000000	63.652515 
1447.000000	63.635873 
1446.000000	63.614535 
1445.000000	63.588452 
1444.000000	63.558340 
1443.000000	63.525891 
1442.000000	63.493418 
1441.000000	63.463473 
1440.000000	63.438725 
1439.000000	63.421297 
1438.000000	63.412666 
1437.000000	63.413476 
1436.000000	63.423395 
1435.000000	63.441252 
1434.000000	63.465309 
1433.000000	63.493156 
1432.000000	63.522219 
1431.000000	63.550138 
1430.000000	63.574814 
1429.000000	63.594555 
1428.000000	63.608431 
1427.000000	63.616275 
1426.000000	63.618755 
1425.000000	63.617181 
1424.000000	63.613486 
1423.000000	63.609719 
1422.000000	63.607931 
1421.000000	63.609743 
1420.000000	63.616037 
1419.000000	63.626575 
1418.000000	63.640356 
1417.000000	63.655877 
1416.000000	63.671326 
1415.000000	63.684821 
1414.000000	63.695287 
1413.000000	63.702249 
1412.000000	63.705825 
1411.000000	63.706374 
1410.000000	63.704442 
1409.000000	63.699984 
1408.000000	63.692355 
1407.000000	63.680195 
1406.000000	63.662004 
1405.000000	63.636517 
1404.000000	63.603281 
1403.000000	63.563108 
1402.000000	63.518166 
1401.000000	63.471674 
1400.000000	63.427376 
1399.000000	63.388967 
1398.000000	63.359093 
1397.000000	63.339233 
1396.000000	63.329505 
1395.000000	63.328886 
1394.000000	63.335657 
1393.000000	63.348007 
1392.000000	63.364410 
1391.000000	63.383960 
1390.000000	63.406252 
1389.000000	63.431143 
1388.000000	63.458466 
1387.000000	63.487625 
1386.000000	63.517403 
1385.000000	63.546276 
1384.000000	63.572335 
1383.000000	63.594055 
1382.000000	63.610172 
1381.000000	63.620257 
1380.000000	63.624405 
1379.000000	63.623547 
1378.000000	63.618993 
1377.000000	63.612198 
1376.000000	63.604545 
1375.000000	63.597321 
1374.000000	63.591265 
1373.000000	63.586950 
1372.000000	63.584351 
1371.000000	63.583230 
1370.000000	63.583111 
1369.000000	63.583421 
1368.000000	63.583660 
1367.000000	63.583517 
1366.000000	63.582992 
1365.000000	63.582229 
1364.000000	63.581657 
1363.000000	63.581633 
1362.000000	63.582277 
1361.000000	63.583350 
1360.000000	63.584208 
1359.000000	63.583970 
1358.000000	63.581991 
1357.000000	63.578224 
1356.000000	63.573145 
1355.000000	63.567972 
1354.000000	63.564276 
1353.000000	63.563537 
1352.000000	63.566780 
1351.000000	63.573956 
1350.000000	63.584041 
1349.000000	63.594889 
1348.000000	63.603973 
1347.000000	63.608527 
1346.000000	63.606381 
1345.000000	63.596129 
1344.000000	63.577747 
1343.000000	63.552451 
1342.000000	63.522458 
1341.000000	63.490796 
1340.000000	63.460850 
1339.000000	63.436007 
1338.000000	63.419079 
1337.000000	63.411879 
1336.000000	63.415002 
1335.000000	63.427305 
1334.000000	63.446354 
1333.000000	63.468265 
1332.000000	63.488841 
1331.000000	63.504171 
1330.000000	63.511800 
1329.000000	63.511109 
1328.000000	63.503646 
1327.000000	63.492965 
1326.000000	63.483524 
1325.000000	63.479900 
1324.000000	63.485169 
1323.000000	63.500475 
1322.000000	63.524460 
1321.000000	63.553762 
1320.000000	63.583588 
1319.000000	63.609194 
1318.000000	63.626861 
1317.000000	63.634800 
1316.000000	63.633203 
1315.000000	63.624024 
1314.000000	63.610172 
1313.000000	63.594627 
1312.000000	63.579678 
1311.000000	63.566493 
1310.000000	63.555288 
1309.000000	63.545584 
1308.000000	63.536643 
1307.000000	63.528013 
1306.000000	63.519811 
1305.000000	63.512754 
1304.000000	63.507604 
1303.000000	63.504934 
1302.000000	63.504767 
1301.000000	63.506484 
1300.000000	63.508939 
1299.000000	63.510704 
1298.000000	63.510608 
1297.000000	63.507771 
1296.000000	63.501858 
1295.000000	63.493180 
1294.000000	63.482189 
1293.000000	63.469600 
1292.000000	63.455939 
1291.000000	63.441705 
1290.000000	63.427329 
1289.000000	63.413262 
1288.000000	63.400173 
1287.000000	63.388800 
1286.000000	63.379740 
1285.000000	63.373374 
1284.000000	63.369584 
1283.000000	63.367795 
1282.000000	63.367128 
1281.000000	63.366651 
1280.000000	63.365769 
1279.000000	63.364672 
1278.000000	63.364338 
1277.000000	63.366222 
1276.000000	63.371944 
1275.000000	63.382482 
1274.000000	63.398051 
1273.000000	63.417649 
1272.000000	63.439178 
1271.000000	63.459873 
1270.000000	63.476920 
1269.000000	63.488030 
1268.000000	63.492012 
1267.000000	63.488960 
1266.000000	63.480067 
1265.000000	63.467359 
1264.000000	63.453173 
1263.000000	63.439655 
1262.000000	63.428187 
1261.000000	63.419485 
1260.000000	63.413572 
1259.000000	63.410091 
1258.000000	63.408422 
1257.000000	63.408088 
1256.000000	63.408708 
1255.000000	63.410115 
1254.000000	63.412141 
1253.000000	63.414525 
1252.000000	63.416838 
1251.000000	63.418650 
1250.000000	63.419508 
1249.000000	63.419222 
1248.000000	63.418030 
1247.000000	63.416481 
1246.000000	63.415575 
1245.000000	63.416194 
1244.000000	63.419103 
1243.000000	63.424253 
1242.000000	63.431191 
1241.000000	63.438725 
1240.000000	63.445138 
1239.000000	63.448905 
1238.000000	63.448905 
1237.000000	63.444852 
1236.000000	63.437414 
1235.000000	63.428092 
1234.000000	63.418865 
1233.000000	63.411903 
1232.000000	63.408970 
1231.000000	63.411092 
1230.000000	63.418340 
1229.000000	63.430142 
1228.000000	63.445162 
1227.000000	63.461995 
1226.000000	63.479185 
1225.000000	63.495445 
1224.000000	63.509988 
1223.000000	63.522219 
1222.000000	63.531970 
1221.000000	63.539147 
1220.000000	63.543653 
1219.000000	63.545298 
1218.000000	63.543939 
1217.000000	63.539528 
1216.000000	63.531994 
1215.000000	63.521599 
1214.000000	63.508701 
1213.000000	63.493847 
1212.000000	63.477849 
1211.000000	63.461589 
1210.000000	63.446021 
1209.000000	63.432097 
1208.000000	63.420724 
1207.000000	63.412737 
1206.000000	63.408756 
1205.000000	63.409090 
1204.000000	63.413548 
1203.000000	63.421487 
1202.000000	63.431787 
1201.000000	63.443040 
1200.000000	63.453865 
1199.000000	63.462924 
1198.000000	63.469290 
1197.000000	63.472533 
1196.000000	63.472580 
1195.000000	63.469624 
1194.000000	63.464045 
1193.000000	63.456082 
1192.000000	63.445830 
1191.000000	63.433313 
1190.000000	63.418602 
1189.000000	63.401913 
1188.000000	63.383913 
1187.000000	63.365435 
1186.000000	63.347816 
1185.000000	63.332271 
1184.000000	63.319778 
1183.000000	63.310790 
1182.000000	63.305211 
1181.000000	63.302588 
1180.000000	63.302230 
1179.000000	63.303637 
1178.000000	63.306450 
1177.000000	63.310575 
1176.000000	63.315916 
1175.000000	63.322186 
1174.000000	63.328862 
1173.000000	63.335013 
1172.000000	63.339495 
1171.000000	63.341307 
1170.000000	63.339853 
1169.000000	63.335061 
1168.000000	63.327527 
1167.000000	63.318419 
1166.000000	63.309216 
1165.000000	63.301277 
1164.000000	63.295698 
1163.000000	63.292813 
1162.000000	63.292407 
1161.000000	63.293814 
1160.000000	63.296198 
1159.000000	63.298702 
1158.000000	63.300704 
1157.000000	63.301753 
1156.000000	63.301777 
1155.000000	63.300681 
1154.000000	63.298606 
1153.000000	63.295698 
1152.000000	63.292384 
1151.000000	63.289141 
1150.000000	63.286709 
1149.000000	63.285851 
1148.000000	63.287472 
1147.000000	63.292193 
1146.000000	63.300681 
1145.000000	63.313341 
1144.000000	63.330292 
1143.000000	63.350892 
1142.000000	63.373994 
1141.000000	63.397765 
1140.000000	63.419890 
1139.000000	63.437795 
1138.000000	63.449192 
1137.000000	63.452482 
1136.000000	63.446998 
1135.000000	63.433098 
1134.000000	63.412237 
1133.000000	63.386464 
1132.000000	63.358569 
1131.000000	63.331341 
1130.000000	63.307166 
1129.000000	63.287734 
1128.000000	63.274025 
1127.000000	63.266015 
1126.000000	63.262796 
1125.000000	63.262891 
1124.000000	63.264346 
1123.000000	63.264918 
1122.000000	63.262724 
1121.000000	63.256192 
1120.000000	63.244318 
1119.000000	63.227009 
1118.000000	63.205051 
1117.000000	63.179874 
1116.000000	63.153386 
1115.000000	63.127279 
1114.000000	63.102936 
1113.000000	63.081026 
1112.000000	63.061881 
1111.000000	63.045597 
1110.000000	63.032770 
1109.000000	63.023996 
1108.000000	63.020682 
1107.000000	63.024115 
1106.000000	63.035535 
1105.000000	63.055348 
1104.000000	63.083100 
1103.000000	63.117003 
1102.000000	63.154482 
1101.000000	63.192391 
1100.000000	63.227462 
1099.000000	63.256740 
1098.000000	63.277959 
1097.000000	63.289976 
1096.000000	63.292431 
1095.000000	63.285708 
1094.000000	63.270902 
1093.000000	63.249659 
1092.000000	63.224077 
1091.000000	63.196539 
1090.000000	63.169646 
1089.000000	63.145899 
1088.000000	63.127303 
1087.000000	63.114857 
1086.000000	63.108563 
1085.000000	63.107657 
1084.000000	63.110494 
1083.000000	63.115429 
1082.000000	63.121080 
1081.000000	63.126730 
1080.000000	63.132095 
1079.000000	63.137674 
1078.000000	63.143897 
1077.000000	63.151216 
1076.000000	63.159489 
1075.000000	63.168191 
1074.000000	63.176274 
1073.000000	63.182568 
1072.000000	63.186264 
1071.000000	63.186883 
1070.000000	63.184714 
1069.000000	63.180470 
1068.000000	63.175010 
1067.000000	63.169050 
1066.000000	63.162899 
1065.000000	63.156580 
1064.000000	63.149857 
1063.000000	63.142442 
1062.000000	63.134360 
1061.000000	63.125896 
1060.000000	63.117837 
1059.000000	63.111233 
1058.000000	63.107347 
1057.000000	63.107371 
1056.000000	63.112139 
1055.000000	63.122081 
1054.000000	63.136935 
1053.000000	63.155579 
1052.000000	63.176321 
1051.000000	63.196802 
1050.000000	63.214731 
1049.000000	63.228082 
1048.000000	63.235759 
1047.000000	63.237667 
1046.000000	63.234853 
1045.000000	63.229274 
1044.000000	63.223218 
1043.000000	63.218879 
1042.000000	63.217902 
1041.000000	63.220858 
1040.000000	63.227319 
1039.000000	63.235688 
1038.000000	63.243699 
1037.000000	63.248944 
1036.000000	63.249397 
1035.000000	63.243842 
1034.000000	63.232135 
1033.000000	63.215327 
1032.000000	63.195252 
1031.000000	63.174033 
1030.000000	63.153791 
1029.000000	63.136053 
1028.000000	63.121676 
1027.000000	63.110852 
1026.000000	63.103246 
1025.000000	63.098335 
1024.000000	63.095784 
1023.000000	63.095426 
1022.000000	63.097119 
1021.000000	63.100814 
1020.000000	63.105988 
1019.000000	63.111925 
1018.000000	63.117289 
1017.000000	63.120651 
1016.000000	63.120603 
1015.000000	63.116192 
1014.000000	63.107275 
1013.000000	63.094568 
1012.000000	63.079762 
1011.000000	63.064885 
1010.000000	63.052058 
1009.000000	63.042926 
1008.000000	63.038492 
1007.000000	63.038873 
1006.000000	63.043570 
1005.000000	63.051605 
1004.000000	63.061857 
1003.000000	63.073372 
1002.000000	63.085770 
1001.000000	63.098740 
1000.000000	63.112497 
999.000000	 63.127255 
998.000000	 63.143396 
997.000000	 63.160920 
996.000000	 63.179636 
995.000000	 63.199114 
994.000000	 63.218688 
993.000000	 63.237714 
992.000000	 63.255643 
991.000000	 63.272070 
990.000000	 63.286733 
989.000000	 63.299489 
988.000000	 63.310313 
987.000000	 63.319230 
986.000000	 63.326048 
985.000000	 63.330531 
984.000000	 63.332509 
983.000000	 63.331723 
982.000000	 63.328099 
981.000000	 63.321638 
980.000000	 63.312387 
979.000000	 63.300538 
978.000000	 63.286471 
977.000000	 63.270545 
976.000000	 63.253021 
975.000000	 63.234043 
974.000000	 63.213968 
973.000000	 63.193106 
972.000000	 63.172101 
971.000000	 63.151860 
970.000000	 63.133406 
969.000000	 63.118076 
968.000000	 63.107061 
967.000000	 63.101267 
966.000000	 63.100814 
965.000000	 63.105249 
964.000000	 63.113498 
963.000000	 63.123607 
962.000000	 63.133358 
961.000000	 63.140249 
960.000000	 63.141989 
959.000000	 63.136863 
958.000000	 63.124108 
957.000000	 63.104128 
956.000000	 63.078474 
955.000000	 63.049674 
954.000000	 63.020968 
953.000000	 62.995910 
952.000000	 62.977981 
951.000000	 62.969732 
950.000000	 62.972831 
949.000000	 62.987780 
948.000000	 63.014030 
947.000000	 63.050007 
946.000000	 63.093090 
945.000000	 63.140273 
944.000000	 63.187909 
943.000000	 63.232374 
942.000000	 63.270044 
941.000000	 63.297533 
940.000000	 63.312363 
939.000000	 63.313436 
938.000000	 63.301563 
937.000000	 63.279557 
936.000000	 63.252329 
935.000000	 63.225889 
934.000000	 63.206386 
933.000000	 63.198590 
932.000000	 63.204836 
931.000000	 63.224434 
930.000000	 63.253402 
929.000000	 63.285398 
928.000000	 63.313007 
927.000000	 63.329410 
926.000000	 63.329887 
925.000000	 63.312888 
924.000000	 63.280153 
923.000000	 63.236165 
922.000000	 63.186931 
921.000000	 63.138604 
920.000000	 63.096427 
919.000000	 63.063788 
918.000000	 63.042283 
917.000000	 63.031554 
916.000000	 63.030362 
915.000000	 63.036680 
914.000000	 63.048410 
913.000000	 63.063526 
912.000000	 63.079643 
911.000000	 63.095021 
910.000000	 63.108158 
909.000000	 63.118243 
908.000000	 63.124918 
907.000000	 63.128662 
906.000000	 63.130307 
905.000000	 63.131093 
904.000000	 63.132214 
903.000000	 63.134121 
902.000000	 63.136339 
901.000000	 63.137555 
900.000000	 63.136005 
899.000000	 63.130021 
898.000000	 63.118648 
897.000000	 63.102269 
896.000000	 63.082599 
895.000000	 63.062572 
894.000000	 63.045382 
893.000000	 63.033962 
892.000000	 63.030147 
891.000000	 63.034176 
890.000000	 63.044738 
889.000000	 63.059258 
888.000000	 63.074421 
887.000000	 63.086748 
886.000000	 63.093614 
885.000000	 63.093566 
884.000000	 63.087081 
883.000000	 63.076353 
882.000000	 63.064980 
881.000000	 63.056898 
880.000000	 63.055562 
879.000000	 63.062977 
878.000000	 63.079261 
877.000000	 63.102412 
876.000000	 63.128972 
875.000000	 63.154840 
874.000000	 63.176369 
873.000000	 63.191127 
872.000000	 63.198733 
871.000000	 63.200545 
870.000000	 63.199210 
869.000000	 63.197565 
868.000000	 63.198041 
867.000000	 63.201522 
866.000000	 63.207244 
865.000000	 63.212919 
864.000000	 63.215804 
863.000000	 63.213038 
862.000000	 63.203096 
861.000000	 63.185739 
860.000000	 63.162326 
859.000000	 63.135242 
858.000000	 63.107347 
857.000000	 63.081645 
856.000000	 63.060545 
855.000000	 63.045930 
854.000000	 63.038825 
853.000000	 63.039612 
852.000000	 63.048052 
851.000000	 63.063526 
850.000000	 63.084793 
849.000000	 63.110041 
848.000000	 63.136935 
847.000000	 63.162612 
846.000000	 63.184046 
845.000000	 63.198447 
844.000000	 63.204002 
843.000000	 63.199973 
842.000000	 63.187193 
841.000000	 63.167834 
840.000000	 63.145089 
839.000000	 63.122677 
838.000000	 63.103771 
837.000000	 63.091111 
836.000000	 63.085842 
835.000000	 63.087868 
834.000000	 63.095402 
833.000000	 63.105797 
832.000000	 63.116025 
831.000000	 63.123059 
830.000000	 63.125276 
829.000000	 63.122391 
828.000000	 63.116025 
827.000000	 63.109183 
826.000000	 63.105487 
825.000000	 63.107919 
824.000000	 63.118410 
823.000000	 63.137078 
822.000000	 63.162112 
821.000000	 63.190174 
820.000000	 63.217449 
819.000000	 63.240456 
818.000000	 63.256645 
817.000000	 63.264822 
816.000000	 63.265442 
815.000000	 63.259887 
814.000000	 63.250255 
813.000000	 63.237929 
812.000000	 63.223671 
811.000000	 63.206672 
810.000000	 63.185095 
809.000000	 63.156437 
808.000000	 63.118505 
807.000000	 63.070726 
806.000000	 63.014650 
805.000000	 62.954401 
804.000000	 62.895917 
803.000000	 62.846255 
802.000000	 62.811827 
801.000000	 62.797403 
800.000000	 62.804436 
799.000000	 62.831544 
798.000000	 62.874650 
797.000000	 62.928128 
796.000000	 62.985968 
795.000000	 63.043117 
794.000000	 63.096261 
793.000000	 63.143849 
792.000000	 63.185787 
791.000000	 63.222503 
790.000000	 63.254189 
789.000000	 63.280272 
788.000000	 63.299155 
787.000000	 63.309264 
786.000000	 63.309073 
785.000000	 63.298439 
784.000000	 63.278245 
783.000000	 63.250851 
782.000000	 63.219308 
781.000000	 63.187074 
780.000000	 63.157081 
779.000000	 63.131213 
778.000000	 63.110208 
777.000000	 63.094019 
776.000000	 63.081812 
775.000000	 63.072347 
774.000000	 63.064193 
773.000000	 63.056397 
772.000000	 63.048291 
771.000000	 63.039588 
770.000000	 63.030433 
769.000000	 63.021326 
768.000000	 63.013005 
767.000000	 63.006162 
766.000000	 63.001298 
765.000000	 62.998461 
764.000000	 62.997126 
763.000000	 62.995910 
762.000000	 62.992668 
761.000000	 62.984943 
760.000000	 62.970161 
759.000000	 62.946963 
758.000000	 62.915039 
757.000000	 62.876439 
756.000000	 62.835097 
755.000000	 62.796831 
754.000000	 62.767791 
753.000000	 62.753677 
752.000000	 62.758255 
751.000000	 62.782645 
750.000000	 62.824630 
749.000000	 62.879109 
748.000000	 62.938928 
747.000000	 62.996339 
746.000000	 63.044428 
745.000000	 63.078379 
744.000000	 63.096284 
743.000000	 63.099241 
742.000000	 63.090634 
741.000000	 63.075089 
740.000000	 63.057279 
739.000000	 63.041377 
738.000000	 63.030171 
737.000000	 63.025212 
736.000000	 63.026475 
735.000000	 63.033461 
734.000000	 63.044548 
733.000000	 63.057422 
732.000000	 63.068890 
731.000000	 63.075351 
730.000000	 63.073301 
729.000000	 63.060069 
728.000000	 63.034367 
727.000000	 62.996959 
726.000000	 62.950682 
725.000000	 62.899971 
724.000000	 62.849998 
723.000000	 62.805747 
722.000000	 62.770724 
721.000000	 62.746167 
720.000000	 62.731266 
719.000000	 62.723517 
718.000000	 62.720203 
717.000000	 62.719106 
716.000000	 62.719297 
715.000000	 62.721109 
714.000000	 62.725925 
713.000000	 62.735366 
712.000000	 62.749910 
711.000000	 62.768602 
710.000000	 62.789487 
709.000000	 62.809705 
708.000000	 62.826728 
707.000000	 62.838459 
706.000000	 62.843656 
705.000000	 62.841820 
704.000000	 62.832880 
703.000000	 62.817358 
702.000000	 62.795877 
701.000000	 62.769699 
700.000000	 62.740612 
699.000000	 62.711262 
698.000000	 62.684845 
697.000000	 62.665152 
696.000000	 62.655901 
695.000000	 62.660074 
694.000000	 62.678933 
693.000000	 62.711620 
692.000000	 62.755131 
691.000000	 62.804031 
690.000000	 62.851381 
689.000000	 62.889909 
688.000000	 62.913250 
687.000000	 62.917256 
686.000000	 62.900805 
685.000000	 62.865853 
684.000000	 62.816739 
683.000000	 62.759733 
682.000000	 62.701678 
681.000000	 62.648487 
680.000000	 62.604498 
679.000000	 62.572264 
678.000000	 62.552356 
677.000000	 62.543821 
676.000000	 62.544798 
675.000000	 62.552857 
674.000000	 62.565898 
673.000000	 62.581872 
672.000000	 62.599658 
671.000000	 62.618446 
670.000000	 62.638473 
669.000000	 62.660145 
668.000000	 62.683987 
667.000000	 62.710070 
666.000000	 62.737774 
665.000000	 62.765955 
664.000000	 62.792301 
663.000000	 62.813878 
662.000000	 62.827372 
661.000000	 62.829852 
660.000000	 62.818884 
659.000000	 62.793183 
658.000000	 62.752962 
657.000000	 62.700247 
656.000000	 62.639069 
655.000000	 62.575078 
654.000000	 62.514662 
653.000000	 62.464094 
652.000000	 62.428569 
651.000000	 62.411427 
650.000000	 62.413239 
649.000000	 62.431955 
648.000000	 62.463331 
647.000000	 62.502121 
646.000000	 62.542152 
645.000000	 62.578678 
644.000000	 62.608695 
643.000000	 62.631821 
642.000000	 62.649154 
641.000000	 62.663555 
640.000000	 62.678432 
639.000000	 62.697052 
638.000000	 62.721729 
637.000000	 62.753462 
636.000000	 62.791752 
635.000000	 62.834835 
634.000000	 62.879943 
633.000000	 62.923121 
632.000000	 62.959504 
631.000000	 62.984180 
630.000000	 62.992286 
629.000000	 62.979769 
628.000000	 62.943887 
627.000000	 62.884879 
626.000000	 62.805128 
625.000000	 62.709808 
624.000000	 62.604856 
623.000000	 62.497687 
622.000000	 62.393999 
621.000000	 62.297224 
620.000000	 62.208032 
619.000000	 62.124872 
618.000000	 62.045574 
617.000000	 61.968064 
616.000000	 61.893010 
615.000000	 61.822986 
614.000000	 61.763954 
613.000000	 61.722779 
612.000000	 61.706066 
611.000000	 61.717104 
610.000000	 61.755895 
609.000000	 61.818385 
608.000000	 61.897349 
607.000000	 61.983656 
606.000000	 62.069153 
605.000000	 62.148141 
604.000000	 62.218046 
603.000000	 62.279319 
602.000000	 62.333893 
601.000000	 62.384128 
600.000000	 62.431168 
599.000000	 62.474894 
598.000000	 62.513875 
597.000000	 62.546133 
596.000000	 62.571620 
595.000000	 62.591457 
594.000000	 62.608742 
593.000000	 62.626862 
592.000000	 62.649750 
591.000000	 62.679338 
590.000000	 62.714624 
589.000000	 62.751746 
588.000000	 62.785625 
587.000000	 62.809872 
586.000000	 62.818503 
585.000000	 62.807250 
584.000000	 62.775325 
583.000000	 62.724423 
582.000000	 62.658715 
581.000000	 62.583827 
580.000000	 62.505912 
579.000000	 62.430906 
578.000000	 62.364196 
577.000000	 62.310194 
576.000000	 62.272429 
575.000000	 62.254476 
574.000000	 62.259221 
573.000000	 62.287306 
572.000000	 62.336945 
571.000000	 62.404060 
570.000000	 62.482571 
569.000000	 62.562823 
568.000000	 62.635397 
567.000000	 62.692284 
566.000000	 62.729573 
565.000000	 62.747311 
564.000000	 62.750411 
563.000000	 62.747430 
562.000000	 62.748289 
561.000000	 62.761735 
560.000000	 62.792849 
559.000000	 62.842226 
558.000000	 62.905263 
557.000000	 62.974071 
556.000000	 63.039135 
555.000000	 63.092041 
554.000000	 63.127589 
553.000000	 63.144922 
552.000000	 63.146543 
551.000000	 63.136458 
550.000000	 63.118839 
549.000000	 63.095045 
548.000000	 63.062930 
547.000000	 63.016033 
546.000000	 62.945890 
545.000000	 62.844157 
544.000000	 62.705945 
543.000000	 62.532639 
542.000000	 62.332987 
541.000000	 62.122917 
540.000000	 61.922502 
539.000000	 61.752700 
538.000000	 61.630082 
537.000000	 61.564445 
536.000000	 61.557126 
535.000000	 61.600208 
534.000000	 61.676454 
533.000000	 61.765980 
532.000000	 61.850357 
531.000000	 61.916637 
530.000000	 61.957716 
529.000000	 61.976981 
528.000000	 61.985588 
527.000000	 61.999034 
526.000000	 62.031531 
525.000000	 62.089872 
524.000000	 62.170362 
523.000000	 62.259149 
522.000000	 62.335872 
521.000000	 62.377452 
520.000000	 62.365984 
519.000000	 62.296199 
518.000000	 62.177753 
517.000000	 62.032556 
516.000000	 61.889839 
515.000000	 61.780714 
514.000000	 61.727428 
513.000000	 61.739850 
512.000000	 61.807942 
511.000000	 61.908507 
510.000000	 62.002968 
509.000000	 62.048816 
508.000000	 62.005758 
507.000000	 61.846566 
506.000000	 61.562299 
505.000000	 61.164259 
504.000000	 60.684061 
503.000000	 60.166501 
502.000000	 59.665560 
501.000000	 59.234476 
500.000000	 58.918786 
499.000000	 58.749437 
498.000000	 58.741879 
497.000000	 58.895826 
496.000000	 59.196496 
495.000000	 59.618544 
494.000000	 60.128664 
493.000000	 60.689854 
492.000000	 61.262917 
491.000000	 61.810231 
490.000000	 62.295341 
489.000000	 62.687349 
488.000000	 62.963414 
487.000000	 63.111448 
486.000000	 63.132190 
485.000000	 63.038873 
484.000000	 62.861013 
483.000000	 62.634086 
482.000000	 62.398958 
481.000000	 62.188768 
480.000000	 62.029147 
479.000000	 61.927819 
478.000000	 61.878919 
477.000000	 61.861610 
476.000000	 61.848092 
475.000000	 61.811923 
474.000000	 61.736178 
473.000000	 61.619019 
472.000000	 61.474943 
471.000000	 61.330103 
470.000000	 61.215734 
469.000000	 61.161422 
468.000000	 61.187791 
467.000000	 61.300730 
466.000000	 61.491131 
465.000000	 61.736989 
464.000000	 62.010025 
463.000000	 62.283039 
462.000000	 62.535190 
461.000000	 62.753939 
460.000000	 62.935495 
459.000000	 63.084411 
458.000000	 63.205528 
457.000000	 63.302063 
456.000000	 63.368177 
455.000000	 63.393664 
454.000000	 63.359785 
453.000000	 63.248062 
452.000000	 63.043212 
451.000000	 62.742090 
450.000000	 62.356233 
449.000000	 61.912775 
448.000000	 61.455178 
447.000000	 61.037063 
446.000000	 60.711717 
445.000000	 60.521292 
444.000000	 60.492491 
443.000000	 60.630369 
442.000000	 60.914158 
441.000000	 61.301803 
440.000000	 61.735081 
439.000000	 62.153935 
438.000000	 62.505006 
437.000000	 62.755966 
436.000000	 62.897920 
435.000000	 62.946987 
434.000000	 62.941551 
433.000000	 62.924408 
432.000000	 62.929511 
431.000000	 62.968969 
430.000000	 63.034200 
429.000000	 63.093328 
428.000000	 63.108825 
427.000000	 63.040900 
426.000000	 62.869930 
425.000000	 62.587809 
424.000000	 62.204408 
423.000000	 61.736226 
422.000000	 61.203646 
421.000000	 60.621500 
420.000000	 59.998273 
419.000000	 59.338831 
418.000000	 58.650732 
417.000000	 57.949638 
416.000000	 57.265663 
415.000000	 56.641721 
414.000000	 56.133866 
413.000000	 55.794715 
412.000000	 55.672121 
411.000000	 55.796074 
410.000000	 56.178808 
409.000000	 56.803107 
408.000000	 57.629728 
407.000000	 58.599615 
406.000000	 59.641718 
405.000000	 60.675430 
404.000000	 61.623716 
403.000000	 62.422585 
402.000000	 63.026499 
401.000000	 63.402438 
400.000000	 63.548231 
399.000000	 63.497352 
398.000000	 63.307857 
397.000000	 63.061237 
396.000000	 62.828969 
395.000000	 62.657380 
394.000000	 62.568020 
393.000000	 62.570357 
392.000000	 62.619519 
391.000000	 62.634706 
390.000000	 62.557077 
389.000000	 62.374401 
388.000000	 62.145781 
387.000000	 61.992216 
386.000000	 62.037420 
385.000000	 62.384891 
384.000000	 63.091850 
383.000000	 64.154982 
382.000000	 65.491986 
381.000000	 66.976523 
380.000000	 68.473958 
379.000000	 69.877672 
378.000000	 71.108365 
377.000000	 72.166275 
376.000000	 73.079991 
375.000000	 73.952865 
374.000000	 74.994158 
373.000000	 76.352405 
372.000000	 78.179335 
371.000000	 80.311489 
370.000000	 82.304477 

