PE IR       SPECTRUM    SPECTRUM    ASCII       PEDS        1.60        
  -1
BZ68A3~1.ASC
17/04/07
17:22:08.00
17/04/07
17:22:08.00
tln
$BZ1503107-1_t0050$<tbV0>[0.0,-2.6,8.0,0.0,27,1,0]
370.000000
64









2002,4.07    
MIRTGS : RIGHTBACK : INTERNAL 2
MIR : ON : INTERNAL 2
OPTKBR

0.200000
8
8.000000
FILLER
RATIO
SPECTRUM
UNLOCKED 256

DOUBLE
64
COMBINED
1
0
0


1.000000
RATIO


1
0
TRUE
51149
0
LEFT NOT FITTED RIGHT NOT FITTED 0
NONE
NONE
15600
12.000000
4.427000
51148
TRUE
1 0 8 72 0 0 0 0 

15798.010000






#HDR
-1
-1
#GR
CM-1
%T
0.00002384185791015625
0.0
5000.000000
-1.000000
4631
8
66.921043
33.312702
#DATA
5000.000000	64.290523 
4999.000000	64.513039 
4998.000000	64.732599 
4997.000000	64.939260 
4996.000000	65.129375 
4995.000000	65.303206 
4994.000000	65.466403 
4993.000000	65.626764 
4992.000000	65.792202 
4991.000000	65.969204 
4990.000000	66.158461 
4989.000000	66.356182 
4988.000000	66.549968 
4987.000000	66.722679 
4986.000000	66.852951 
4985.000000	66.921043 
4984.000000	66.913223 
4983.000000	66.826510 
4982.000000	66.669750 
4981.000000	66.463041 
4980.000000	66.234755 
4979.000000	66.016387 
4978.000000	65.836548 
4977.000000	65.715885 
4976.000000	65.664863 
4975.000000	65.681886 
4974.000000	65.756273 
4973.000000	65.869450 
4972.000000	65.999794 
4971.000000	66.125035 
4970.000000	66.225028 
4969.000000	66.284179 
4968.000000	66.291666 
4967.000000	66.243410 
4966.000000	66.139864 
4965.000000	65.988826 
4964.000000	65.804886 
4963.000000	65.606284 
4962.000000	65.413379 
4961.000000	65.242958 
4960.000000	65.106892 
4959.000000	65.007472 
4958.000000	64.938092 
4957.000000	64.885973 
4956.000000	64.836812 
4955.000000	64.778161 
4954.000000	64.703917 
4953.000000	64.615964 
4952.000000	64.524507 
4951.000000	64.443659 
4950.000000	64.389204 
4949.000000	64.372420 
4948.000000	64.399576 
4947.000000	64.469981 
4946.000000	64.577603 
4945.000000	64.712572 
4944.000000	64.863562 
4943.000000	65.020751 
4942.000000	65.175104 
4941.000000	65.318751 
4940.000000	65.443849 
4939.000000	65.541625 
4938.000000	65.604090 
4937.000000	65.625619 
4936.000000	65.604138 
4935.000000	65.543842 
4934.000000	65.452837 
4933.000000	65.342879 
4932.000000	65.226292 
4931.000000	65.114903 
4930.000000	65.015840 
4929.000000	64.931368 
4928.000000	64.860320 
4927.000000	64.799952 
4926.000000	64.747858 
4925.000000	64.704108 
4924.000000	64.671778 
4923.000000	64.656758 
4922.000000	64.664983 
4921.000000	64.700794 
4920.000000	64.763355 
4919.000000	64.847040 
4918.000000	64.941716 
4917.000000	65.034627 
4916.000000	65.113377 
4915.000000	65.167808 
4914.000000	65.192174 
4913.000000	65.185594 
4912.000000	65.150880 
4911.000000	65.094828 
4910.000000	65.026807 
4909.000000	64.956998 
4908.000000	64.894509 
4907.000000	64.846730 
4906.000000	64.818668 
4905.000000	64.812231 
4904.000000	64.826583 
4903.000000	64.858746 
4902.000000	64.904236 
4901.000000	64.958214 
4900.000000	65.015983 
4899.000000	65.072822 
4898.000000	65.124225 
4897.000000	65.166497 
4896.000000	65.196442 
4895.000000	65.211391 
4894.000000	65.209245 
4893.000000	65.189361 
4892.000000	65.152835 
4891.000000	65.102839 
4890.000000	65.044474 
4889.000000	64.984536 
4888.000000	64.929914 
4887.000000	64.886903 
4886.000000	64.859032 
4885.000000	64.846563 
4884.000000	64.846086 
4883.000000	64.851927 
4882.000000	64.857053 
4881.000000	64.854621 
4880.000000	64.839792 
4879.000000	64.810132 
4878.000000	64.767098 
4877.000000	64.715051 
4876.000000	64.661026 
4875.000000	64.612913 
4874.000000	64.578199 
4873.000000	64.562177 
4872.000000	64.567136 
4871.000000	64.591836 
4870.000000	64.631581 
4869.000000	64.679288 
4868.000000	64.727640 
4867.000000	64.770293 
4866.000000	64.802670 
4865.000000	64.822745 
4864.000000	64.830708 
4863.000000	64.828300 
4862.000000	64.817833 
4861.000000	64.801239 
4860.000000	64.779400 
4859.000000	64.752793 
4858.000000	64.721846 
4857.000000	64.688062 
4856.000000	64.654660 
4855.000000	64.626312 
4854.000000	64.608955 
4853.000000	64.607477 
4852.000000	64.624428 
4851.000000	64.658951 
4850.000000	64.706277 
4849.000000	64.758729 
4848.000000	64.807224 
4847.000000	64.843583 
4846.000000	64.862322 
4845.000000	64.861083 
4844.000000	64.840769 
4843.000000	64.804887 
4842.000000	64.758658 
4841.000000	64.707183 
4840.000000	64.655089 
4839.000000	64.605998 
4838.000000	64.562869 
4837.000000	64.528656 
4836.000000	64.505958 
4835.000000	64.497041 
4834.000000	64.502906 
4833.000000	64.522790 
4832.000000	64.553713 
4831.000000	64.589762 
4830.000000	64.624214 
4829.000000	64.650225 
4828.000000	64.663314 
4827.000000	64.662313 
4826.000000	64.650154 
4825.000000	64.633083 
4824.000000	64.619350 
4823.000000	64.616990 
4822.000000	64.632010 
4821.000000	64.666891 
4820.000000	64.720416 
4819.000000	64.787888 
4818.000000	64.862632 
4817.000000	64.937114 
4816.000000	65.004968 
4815.000000	65.061402 
4814.000000	65.103292 
4813.000000	65.128970 
4812.000000	65.138101 
4811.000000	65.130877 
4810.000000	65.107822 
4809.000000	65.069818 
4808.000000	65.019321 
4807.000000	64.959621 
4806.000000	64.895439 
4805.000000	64.831686 
4804.000000	64.773535 
4803.000000	64.725160 
4802.000000	64.689421 
4801.000000	64.667153 
4800.000000	64.656925 
4799.000000	64.655947 
4798.000000	64.660668 
4797.000000	64.667677 
4796.000000	64.674162 
4795.000000	64.679002 
4794.000000	64.682841 
4793.000000	64.687633 
4792.000000	64.695978 
4791.000000	64.710974 
4790.000000	64.735698 
4789.000000	64.772057 
4788.000000	64.820766 
4787.000000	64.881443 
4786.000000	64.952516 
4785.000000	65.030932 
4784.000000	65.112328 
4783.000000	65.192317 
4782.000000	65.265631 
4781.000000	65.327286 
4780.000000	65.372371 
4779.000000	65.397047 
4778.000000	65.398812 
4777.000000	65.377545 
4776.000000	65.335297 
4775.000000	65.276479 
4774.000000	65.207314 
4773.000000	65.135908 
4772.000000	65.069866 
4771.000000	65.015387 
4770.000000	64.975786 
4769.000000	64.951610 
4768.000000	64.939713 
4767.000000	64.934372 
4766.000000	64.928603 
4765.000000	64.915895 
4764.000000	64.892077 
4763.000000	64.856457 
4762.000000	64.811348 
4761.000000	64.761519 
4760.000000	64.712667 
4759.000000	64.669775 
4758.000000	64.635181 
4757.000000	64.608502 
4756.000000	64.587187 
4755.000000	64.567518 
4754.000000	64.545845 
4753.000000	64.520382 
4752.000000	64.492154 
4751.000000	64.465117 
4750.000000	64.444565 
4749.000000	64.436697 
4748.000000	64.446234 
4747.000000	64.475941 
4746.000000	64.525032 
4745.000000	64.590048 
4744.000000	64.665365 
4743.000000	64.744448 
4742.000000	64.821004 
4741.000000	64.889216 
4740.000000	64.944362 
4739.000000	64.983105 
4738.000000	65.003752 
4737.000000	65.006542 
4736.000000	64.993071 
4735.000000	64.966773 
4734.000000	64.931726 
4733.000000	64.892363 
4732.000000	64.852190 
4731.000000	64.813923 
4730.000000	64.778971 
4729.000000	64.747357 
4728.000000	64.718723 
4727.000000	64.693164 
4726.000000	64.671850 
4725.000000	64.656758 
4724.000000	64.650678 
4723.000000	64.655947 
4722.000000	64.673614 
4721.000000	64.701747 
4720.000000	64.736318 
4719.000000	64.771056 
4718.000000	64.800167 
4717.000000	64.819669 
4716.000000	64.828586 
4715.000000	64.829254 
4714.000000	64.825344 
4713.000000	64.820456 
4712.000000	64.816045 
4711.000000	64.810800 
4710.000000	64.801096 
4709.000000	64.782786 
4708.000000	64.752984 
4707.000000	64.712047 
4706.000000	64.664745 
4705.000000	64.619445 
4704.000000	64.585924 
4703.000000	64.573216 
4702.000000	64.586400 
4701.000000	64.625835 
4700.000000	64.686059 
4699.000000	64.758062 
4698.000000	64.831829 
4697.000000	64.898109 
4696.000000	64.951276 
4695.000000	64.988756 
4694.000000	65.010690 
4693.000000	65.018939 
4692.000000	65.015125 
4691.000000	65.001392 
4690.000000	64.979672 
4689.000000	64.953255 
4688.000000	64.927124 
4687.000000	64.907169 
4686.000000	64.899349 
4685.000000	64.907908 
4684.000000	64.933991 
4683.000000	64.974474 
4682.000000	65.022230 
4681.000000	65.067362 
4680.000000	65.099287 
4679.000000	65.109610 
4678.000000	65.094041 
4677.000000	65.053892 
4676.000000	64.995145 
4675.000000	64.926838 
4674.000000	64.858484 
4673.000000	64.797735 
4672.000000	64.748406 
4671.000000	64.710068 
4670.000000	64.679074 
4669.000000	64.650774 
4668.000000	64.621496 
4667.000000	64.589786 
4666.000000	64.557886 
4665.000000	64.530372 
4664.000000	64.514374 
4663.000000	64.516925 
4662.000000	64.543080 
4661.000000	64.593791 
4660.000000	64.665365 
4659.000000	64.749431 
4658.000000	64.834618 
4657.000000	64.908742 
4656.000000	64.961528 
4655.000000	64.986777 
4654.000000	64.983272 
4653.000000	64.954757 
4652.000000	64.908480 
4651.000000	64.853715 
4650.000000	64.799094 
4649.000000	64.752006 
4648.000000	64.717841 
4647.000000	64.700269 
4646.000000	64.701509 
4645.000000	64.723038 
4644.000000	64.765977 
4643.000000	64.830660 
4642.000000	64.915943 
4641.000000	65.018320 
4640.000000	65.130925 
4639.000000	65.244340 
4638.000000	65.347504 
4637.000000	65.429687 
4636.000000	65.482354 
4635.000000	65.501308 
4634.000000	65.487599 
4633.000000	65.446662 
4632.000000	65.386843 
4631.000000	65.317654 
4630.000000	65.247535 
4629.000000	65.182709 
4628.000000	65.126204 
4627.000000	65.078711 
4626.000000	65.038752 
4625.000000	65.004324 
4624.000000	64.973187 
4623.000000	64.943861 
4622.000000	64.915466 
4621.000000	64.887166 
4620.000000	64.858698 
4619.000000	64.829015 
4618.000000	64.797854 
4617.000000	64.764857 
4616.000000	64.731144 
4615.000000	64.698696 
4614.000000	64.671111 
4613.000000	64.652681 
4612.000000	64.647722 
4611.000000	64.658784 
4610.000000	64.686870 
4609.000000	64.730668 
4608.000000	64.786529 
4607.000000	64.848875 
4606.000000	64.911341 
4605.000000	64.968156 
4604.000000	65.014839 
4603.000000	65.049123 
4602.000000	65.071463 
4601.000000	65.084743 
4600.000000	65.093779 
4599.000000	65.103936 
4598.000000	65.119457 
4597.000000	65.141940 
4596.000000	65.171074 
4595.000000	65.203642 
4594.000000	65.234971 
4593.000000	65.259408 
4592.000000	65.272784 
4591.000000	65.272355 
4590.000000	65.257501 
4589.000000	65.229749 
4588.000000	65.192508 
4587.000000	65.149831 
4586.000000	65.105652 
4585.000000	65.063214 
4584.000000	65.024805 
4583.000000	64.991831 
4582.000000	64.965081 
4581.000000	64.944934 
4580.000000	64.931583 
4579.000000	64.924883 
4578.000000	64.924788 
4577.000000	64.930391 
4576.000000	64.940142 
4575.000000	64.952874 
4574.000000	64.967918 
4573.000000	64.984583 
4572.000000	65.002584 
4571.000000	65.021800 
4570.000000	65.042304 
4569.000000	65.063548 
4568.000000	65.084886 
4567.000000	65.105605 
4566.000000	65.125465 
4565.000000	65.145158 
4564.000000	65.165877 
4563.000000	65.188837 
4562.000000	65.214920 
4561.000000	65.244364 
4560.000000	65.276265 
4559.000000	65.308666 
4558.000000	65.338587 
4557.000000	65.363144 
4556.000000	65.379190 
4555.000000	65.384244 
4554.000000	65.376639 
4553.000000	65.356087 
4552.000000	65.322709 
4551.000000	65.276956 
4550.000000	65.219783 
4549.000000	65.152740 
4548.000000	65.077710 
4547.000000	64.997315 
4546.000000	64.914941 
4545.000000	64.834928 
4544.000000	64.762043 
4543.000000	64.701437 
4542.000000	64.657378 
4541.000000	64.633822 
4540.000000	64.633440 
4539.000000	64.657711 
4538.000000	64.706063 
4537.000000	64.775848 
4536.000000	64.862370 
4535.000000	64.958930 
4534.000000	65.056657 
4533.000000	65.146350 
4532.000000	65.219259 
4531.000000	65.269398 
4530.000000	65.293836 
4529.000000	65.294575 
4528.000000	65.277886 
4527.000000	65.253639 
4526.000000	65.233016 
4525.000000	65.226435 
4524.000000	65.241098 
4523.000000	65.279221 
4522.000000	65.337777 
4521.000000	65.409016 
4520.000000	65.482616 
4519.000000	65.548181 
4518.000000	65.597677 
4517.000000	65.627050 
4516.000000	65.636467 
4515.000000	65.630388 
4514.000000	65.615367 
4513.000000	65.597414 
4512.000000	65.580201 
4511.000000	65.564656 
4510.000000	65.548777 
4509.000000	65.529632 
4508.000000	65.504169 
4507.000000	65.471410 
4506.000000	65.432500 
4505.000000	65.391278 
4504.000000	65.352463 
4503.000000	65.319943 
4502.000000	65.296578 
4501.000000	65.283083 
4500.000000	65.278053 
4499.000000	65.278601 
4498.000000	65.280270 
4497.000000	65.278458 
4496.000000	65.269255 
4495.000000	65.250682 
4494.000000	65.224099 
4493.000000	65.194201 
4492.000000	65.168190 
4491.000000	65.154361 
4490.000000	65.159559 
4489.000000	65.187382 
4488.000000	65.237712 
4487.000000	65.305805 
4486.000000	65.383148 
4485.000000	65.458536 
4484.000000	65.521121 
4483.000000	65.561246 
4482.000000	65.572619 
4481.000000	65.552997 
4480.000000	65.503525 
4479.000000	65.429782 
4478.000000	65.339589 
4477.000000	65.244340 
4476.000000	65.156745 
4475.000000	65.090751 
4474.000000	65.059638 
4473.000000	65.072536 
4472.000000	65.132427 
4471.000000	65.233945 
4470.000000	65.364599 
4469.000000	65.501546 
4468.000000	65.617537 
4467.000000	65.690469 
4466.000000	65.709972 
4465.000000	65.680813 
4464.000000	65.622305 
4463.000000	65.565586 
4462.000000	65.543913 
4461.000000	65.579915 
4460.000000	65.680217 
4459.000000	65.839934 
4458.000000	66.036558 
4457.000000	66.236066 
4456.000000	66.399097 
4455.000000	66.487383 
4454.000000	66.478157 
4453.000000	66.369414 
4452.000000	66.184329 
4451.000000	65.966773 
4450.000000	65.769004 
4449.000000	65.644240 
4448.000000	65.617060 
4447.000000	65.677022 
4446.000000	65.771770 
4445.000000	65.821647 
4444.000000	65.735626 
4443.000000	65.438580 
4442.000000	64.900755 
4441.000000	64.149498 
4440.000000	63.271641 
4439.000000	62.385964 
4438.000000	61.618328 
4437.000000	61.054873 
4436.000000	60.706543 
4435.000000	60.506319 
4434.000000	60.315680 
4433.000000	59.984207 
4432.000000	59.393644 
4431.000000	58.517026 
4430.000000	57.432723 
4429.000000	56.319594 
4428.000000	55.403113 
4427.000000	54.905390 
4426.000000	54.964995 
4425.000000	55.614733 
4424.000000	56.761360 
4423.000000	58.217859 
4422.000000	59.748744 
4421.000000	61.130547 
4420.000000	62.203073 
4419.000000	62.899708 
4418.000000	63.248896 
4417.000000	63.353347 
4416.000000	63.348031 
4415.000000	63.362193 
4414.000000	63.481903 
4413.000000	63.739538 
4412.000000	64.109396 
4411.000000	64.539647 
4410.000000	64.964818 
4409.000000	65.331721 
4408.000000	65.607357 
4407.000000	65.787148 
4406.000000	65.887475 
4405.000000	65.927958 
4404.000000	65.928697 
4403.000000	65.902829 
4402.000000	65.855574 
4401.000000	65.789842 
4400.000000	65.705609 
4399.000000	65.612792 
4398.000000	65.520739 
4397.000000	65.440273 
4396.000000	65.377235 
4395.000000	65.330862 
4394.000000	65.293979 
4393.000000	65.254807 
4392.000000	65.202140 
4391.000000	65.128779 
4390.000000	65.037083 
4389.000000	64.940166 
4388.000000	64.851403 
4387.000000	64.781236 
4386.000000	64.739298 
4385.000000	64.731788 
4384.000000	64.760088 
4383.000000	64.820671 
4382.000000	64.906215 
4381.000000	65.006709 
4380.000000	65.109395 
4379.000000	65.202379 
4378.000000	65.276741 
4377.000000	65.327858 
4376.000000	65.353322 
4375.000000	65.355253 
4374.000000	65.338945 
4373.000000	65.312623 
4372.000000	65.285611 
4371.000000	65.267372 
4370.000000	65.266489 
4369.000000	65.288901 
4368.000000	65.337562 
4367.000000	65.411019 
4366.000000	65.504026 
4365.000000	65.607833 
4364.000000	65.711975 
4363.000000	65.805149 
4362.000000	65.877246 
4361.000000	65.920853 
4360.000000	65.932440 
4359.000000	65.912580 
4358.000000	65.865921 
4357.000000	65.800428 
4356.000000	65.726017 
4355.000000	65.653061 
4354.000000	65.590167 
4353.000000	65.544128 
4352.000000	65.518045 
4351.000000	65.512132 
4350.000000	65.522909 
4349.000000	65.544652 
4348.000000	65.569925 
4347.000000	65.591311 
4346.000000	65.602540 
4345.000000	65.598797 
4344.000000	65.578150 
4343.000000	65.541481 
4342.000000	65.492105 
4341.000000	65.435004 
4340.000000	65.375590 
4339.000000	65.318965 
4338.000000	65.268683 
4337.000000	65.226578 
4336.000000	65.192937 
4335.000000	65.167236 
4334.000000	65.148615 
4333.000000	65.136647 
4332.000000	65.131545 
4331.000000	65.134358 
4330.000000	65.145826 
4329.000000	65.166211 
4328.000000	65.194249 
4327.000000	65.227365 
4326.000000	65.261411 
4325.000000	65.291905 
4324.000000	65.314579 
4323.000000	65.326976 
4322.000000	65.328955 
4321.000000	65.322780 
4320.000000	65.312600 
4319.000000	65.303063 
4318.000000	65.298414 
4317.000000	65.300536 
4316.000000	65.308809 
4315.000000	65.319800 
4314.000000	65.328335 
4313.000000	65.328955 
4312.000000	65.317606 
4311.000000	65.293264 
4310.000000	65.258502 
4309.000000	65.219211 
4308.000000	65.183115 
4307.000000	65.158414 
4306.000000	65.151739 
4305.000000	65.166544 
4304.000000	65.202140 
4303.000000	65.254020 
4302.000000	65.314483 
4301.000000	65.374422 
4300.000000	65.424823 
4299.000000	65.458345 
4298.000000	65.470695 
4297.000000	65.460968 
4296.000000	65.431499 
4295.000000	65.387034 
4294.000000	65.333604 
4293.000000	65.277338 
4292.000000	65.223622 
4291.000000	65.176606 
4290.000000	65.139007 
4289.000000	65.112066 
4288.000000	65.096092 
4287.000000	65.090727 
4286.000000	65.095353 
4285.000000	65.109205 
4284.000000	65.131139 
4283.000000	65.159249 
4282.000000	65.191006 
4281.000000	65.223121 
4280.000000	65.251898 
4279.000000	65.273594 
4278.000000	65.285539 
4277.000000	65.286564 
4276.000000	65.277385 
4275.000000	65.260338 
4274.000000	65.238833 
4273.000000	65.216565 
4272.000000	65.196514 
4271.000000	65.180969 
4270.000000	65.171360 
4269.000000	65.168571 
4268.000000	65.172863 
4267.000000	65.184402 
4266.000000	65.203762 
4265.000000	65.230989 
4264.000000	65.265464 
4263.000000	65.304851 
4262.000000	65.345454 
4261.000000	65.381932 
4260.000000	65.408539 
4259.000000	65.419864 
4258.000000	65.412378 
4257.000000	65.385365 
4256.000000	65.341424 
4255.000000	65.285825 
4254.000000	65.225458 
4253.000000	65.167331 
4252.000000	65.117120 
4251.000000	65.078449 
4250.000000	65.052390 
4249.000000	65.037798 
4248.000000	65.031814 
4247.000000	65.031027 
4246.000000	65.032172 
4245.000000	65.032458 
4244.000000	65.030264 
4243.000000	65.024352 
4242.000000	65.014171 
4241.000000	64.999198 
4240.000000	64.979124 
4239.000000	64.953398 
4238.000000	64.921879 
4237.000000	64.885067 
4236.000000	64.844536 
4235.000000	64.802980 
4234.000000	64.764237 
4233.000000	64.732360 
4232.000000	64.711117 
4231.000000	64.703059 
4230.000000	64.708757 
4229.000000	64.726495 
4228.000000	64.752817 
4227.000000	64.783120 
4226.000000	64.812350 
4225.000000	64.836215 
4224.000000	64.851951 
4223.000000	64.859104 
4222.000000	64.859056 
4221.000000	64.855217 
4220.000000	64.851927 
4219.000000	64.853596 
4218.000000	64.863801 
4217.000000	64.884328 
4216.000000	64.915204 
4215.000000	64.954185 
4214.000000	64.997673 
4213.000000	65.041136 
4212.000000	65.080142 
4211.000000	65.111303 
4210.000000	65.132880 
4209.000000	65.145230 
4208.000000	65.150499 
4207.000000	65.151858 
4206.000000	65.153169 
4205.000000	65.156984 
4204.000000	65.164327 
4203.000000	65.173840 
4202.000000	65.182662 
4201.000000	65.186810 
4200.000000	65.182566 
4199.000000	65.167403 
4198.000000	65.140819 
4197.000000	65.104079 
4196.000000	65.059781 
4195.000000	65.011143 
4194.000000	64.961004 
4193.000000	64.911460 
4192.000000	64.863610 
4191.000000	64.817810 
4190.000000	64.773964 
4189.000000	64.732265 
4188.000000	64.693689 
4187.000000	64.659833 
4186.000000	64.633011 
4185.000000	64.615368 
4184.000000	64.608788 
4183.000000	64.613580 
4182.000000	64.628744 
4181.000000	64.651584 
4180.000000	64.678120 
4179.000000	64.703583 
4178.000000	64.723324 
4177.000000	64.733529 
4176.000000	64.731955 
4175.000000	64.718222 
4174.000000	64.694333 
4173.000000	64.664244 
4172.000000	64.633369 
4171.000000	64.607334 
4170.000000	64.590978 
4169.000000	64.587235 
4168.000000	64.596581 
4167.000000	64.617013 
4166.000000	64.644432 
4165.000000	64.673805 
4164.000000	64.700102 
4163.000000	64.719653 
4162.000000	64.730477 
4161.000000	64.732837 
4160.000000	64.728832 
4159.000000	64.722061 
4158.000000	64.716124 
4157.000000	64.714360 
4156.000000	64.719438 
4155.000000	64.732527 
4154.000000	64.752984 
4153.000000	64.778709 
4152.000000	64.806938 
4151.000000	64.834141 
4150.000000	64.856815 
4149.000000	64.871668 
4148.000000	64.876365 
4147.000000	64.870071 
4146.000000	64.853715 
4145.000000	64.829850 
4144.000000	64.801955 
4143.000000	64.773988 
4142.000000	64.749169 
4141.000000	64.729452 
4140.000000	64.714813 
4139.000000	64.703321 
4138.000000	64.691805 
4137.000000	64.676475 
4136.000000	64.655137 
4135.000000	64.627265 
4134.000000	64.595675 
4133.000000	64.565443 
4132.000000	64.544177 
4131.000000	64.539766 
4130.000000	64.559125 
4129.000000	64.605808 
4128.000000	64.679050 
4127.000000	64.773273 
4126.000000	64.878392 
4125.000000	64.981937 
4124.000000	65.070676 
4123.000000	65.133571 
4122.000000	65.163445 
4121.000000	65.158438 
4120.000000	65.122318 
4119.000000	65.063095 
4118.000000	64.991569 
4117.000000	64.918756 
4116.000000	64.853572 
4115.000000	64.801383 
4114.000000	64.763903 
4113.000000	64.739346 
4112.000000	64.724111 
4111.000000	64.714288 
4110.000000	64.707231 
4109.000000	64.702177 
4108.000000	64.700031 
4107.000000	64.702939 
4106.000000	64.712285 
4105.000000	64.728593 
4104.000000	64.750027 
4103.000000	64.773249 
4102.000000	64.793729 
4101.000000	64.807176 
4100.000000	64.810872 
4099.000000	64.804148 
4098.000000	64.788889 
4097.000000	64.768695 
4096.000000	64.748048 
4095.000000	64.730858 
4094.000000	64.719319 
4093.000000	64.714527 
4092.000000	64.716100 
4091.000000	64.723038 
4090.000000	64.734172 
4089.000000	64.748644 
4088.000000	64.765810 
4087.000000	64.785361 
4086.000000	64.806652 
4085.000000	64.828586 
4084.000000	64.849448 
4083.000000	64.867305 
4082.000000	64.880180 
4081.000000	64.886641 
4080.000000	64.885973 
4079.000000	64.878845 
4078.000000	64.867210 
4077.000000	64.853858 
4076.000000	64.842033 
4075.000000	64.834713 
4074.000000	64.833855 
4073.000000	64.839911 
4072.000000	64.851689 
4071.000000	64.866876 
4070.000000	64.882230 
4069.000000	64.894318 
4068.000000	64.900517 
4067.000000	64.899706 
4066.000000	64.892578 
4065.000000	64.881253 
4064.000000	64.869093 
4063.000000	64.859533 
4062.000000	64.854812 
4061.000000	64.855289 
4060.000000	64.859366 
4059.000000	64.863753 
4058.000000	64.864921 
4057.000000	64.859890 
4056.000000	64.847636 
4055.000000	64.829063 
4054.000000	64.807200 
4053.000000	64.786005 
4052.000000	64.769005 
4051.000000	64.759039 
4050.000000	64.757084 
4049.000000	64.762735 
4048.000000	64.774155 
4047.000000	64.789509 
4046.000000	64.807510 
4045.000000	64.828133 
4044.000000	64.852356 
4043.000000	64.881515 
4042.000000	64.916515 
4041.000000	64.956974 
4040.000000	65.000844 
4039.000000	65.044617 
4038.000000	65.083813 
4037.000000	65.114283 
4036.000000	65.133166 
4035.000000	65.139460 
4034.000000	65.134286 
4033.000000	65.120506 
4032.000000	65.101766 
4031.000000	65.081763 
4030.000000	65.063214 
4029.000000	65.047740 
4028.000000	65.035319 
4027.000000	65.025091 
4026.000000	65.015459 
4025.000000	65.005016 
4024.000000	64.992976 
4023.000000	64.978957 
4022.000000	64.963459 
4021.000000	64.947104 
4020.000000	64.931011 
4019.000000	64.916086 
4018.000000	64.903545 
4017.000000	64.894485 
4016.000000	64.890217 
4015.000000	64.892363 
4014.000000	64.902305 
4013.000000	64.920926 
4012.000000	64.947915 
4011.000000	64.981818 
4010.000000	65.019655 
4009.000000	65.057420 
4008.000000	65.090894 
4007.000000	65.116405 
4006.000000	65.131807 
4005.000000	65.136909 
4004.000000	65.133428 
4003.000000	65.124702 
4002.000000	65.114736 
4001.000000	65.107226 
4000.000000	65.104889 
3999.000000	65.108489 
3998.000000	65.117573 
3997.000000	65.130066 
3996.000000	65.143775 
3995.000000	65.156364 
3994.000000	65.166187 
3993.000000	65.172386 
3992.000000	65.174865 
3991.000000	65.174055 
3990.000000	65.170335 
3989.000000	65.164446 
3988.000000	65.157198 
3987.000000	65.149664 
3986.000000	65.143132 
3985.000000	65.139102 
3984.000000	65.139174 
3983.000000	65.144467 
3982.000000	65.155386 
3981.000000	65.171837 
3980.000000	65.192985 
3979.000000	65.217232 
3978.000000	65.242648 
3977.000000	65.267276 
3976.000000	65.289092 
3975.000000	65.306591 
3974.000000	65.318298 
3973.000000	65.323233 
3972.000000	65.320372 
3971.000000	65.309238 
3970.000000	65.289473 
3969.000000	65.261268 
3968.000000	65.225410 
3967.000000	65.183711 
3966.000000	65.138602 
3965.000000	65.093088 
3964.000000	65.050220 
3963.000000	65.013003 
3962.000000	64.983630 
3961.000000	64.963293 
3960.000000	64.951848 
3959.000000	64.948010 
3958.000000	64.949083 
3957.000000	64.951610 
3956.000000	64.951944 
3955.000000	64.947390 
3954.000000	64.936757 
3953.000000	64.920926 
3952.000000	64.902901 
3951.000000	64.886879 
3950.000000	64.877271 
3949.000000	64.877343 
3948.000000	64.888167 
3947.000000	64.908456 
3946.000000	64.934825 
3945.000000	64.962911 
3944.000000	64.987945 
3943.000000	65.006899 
3942.000000	65.018820 
3941.000000	65.025401 
3940.000000	65.029883 
3939.000000	65.036582 
3938.000000	65.049099 
3937.000000	65.069603 
3936.000000	65.098118 
3935.000000	65.132761 
3934.000000	65.170288 
3933.000000	65.207266 
3932.000000	65.240955 
3931.000000	65.269708 
3930.000000	65.293264 
3929.000000	65.312409 
3928.000000	65.328836 
3927.000000	65.344762 
3926.000000	65.362310 
3925.000000	65.383505 
3924.000000	65.409398 
3923.000000	65.439915 
3922.000000	65.473031 
3921.000000	65.505719 
3920.000000	65.533518 
3919.000000	65.552020 
3918.000000	65.557360 
3917.000000	65.547490 
3916.000000	65.522456 
3915.000000	65.484905 
3914.000000	65.439510 
3913.000000	65.392136 
3912.000000	65.348553 
3911.000000	65.313577 
3910.000000	65.289568 
3909.000000	65.276503 
3908.000000	65.271639 
3907.000000	65.270519 
3906.000000	65.267992 
3905.000000	65.259456 
3904.000000	65.242075 
3903.000000	65.215253 
3902.000000	65.180706 
3901.000000	65.141916 
3900.000000	65.103912 
3899.000000	65.072059 
3898.000000	65.050625 
3897.000000	65.042042 
3896.000000	65.046477 
3895.000000	65.061759 
3894.000000	65.083694 
3893.000000	65.107131 
3892.000000	65.127134 
3891.000000	65.140104 
3890.000000	65.144038 
3889.000000	65.139126 
3888.000000	65.127038 
3887.000000	65.110778 
3886.000000	65.093374 
3885.000000	65.077757 
3884.000000	65.066123 
3883.000000	65.059971 
3882.000000	65.060281 
3881.000000	65.067291 
3880.000000	65.080595 
3879.000000	65.099215 
3878.000000	65.121650 
3877.000000	65.145730 
3876.000000	65.168642 
3875.000000	65.187263 
3874.000000	65.198683 
3873.000000	65.200734 
3872.000000	65.192437 
3871.000000	65.174651 
3870.000000	65.149617 
3869.000000	65.121006 
3868.000000	65.092897 
3867.000000	65.069150 
3866.000000	65.052676 
3865.000000	65.044856 
3864.000000	65.045547 
3863.000000	65.053009 
3862.000000	65.064740 
3861.000000	65.077900 
3860.000000	65.090179 
3859.000000	65.100026 
3858.000000	65.107035 
3857.000000	65.111827 
3856.000000	65.115571 
3855.000000	65.119481 
3854.000000	65.124225 
3853.000000	65.129446 
3852.000000	65.134072 
3851.000000	65.136480 
3850.000000	65.135312 
3849.000000	65.129923 
3848.000000	65.120911 
3847.000000	65.110087 
3846.000000	65.099930 
3845.000000	65.092873 
3844.000000	65.090298 
3843.000000	65.091872 
3842.000000	65.095210 
3841.000000	65.096497 
3840.000000	65.091276 
3839.000000	65.075874 
3838.000000	65.048789 
3837.000000	65.011358 
3836.000000	64.968109 
3835.000000	64.925360 
3834.000000	64.889883 
3833.000000	64.866876 
3832.000000	64.858865 
3831.000000	64.865016 
3830.000000	64.881253 
3829.000000	64.901614 
3828.000000	64.919590 
3827.000000	64.930391 
3826.000000	64.932036 
3825.000000	64.925765 
3824.000000	64.915132 
3823.000000	64.905333 
3822.000000	64.901399 
3821.000000	64.906692 
3820.000000	64.921808 
3819.000000	64.944553 
3818.000000	64.970254 
3817.000000	64.993381 
3816.000000	65.008854 
3815.000000	65.012621 
3814.000000	65.003037 
3813.000000	64.981102 
3812.000000	64.950513 
3811.000000	64.916539 
3810.000000	64.885473 
3809.000000	64.863300 
3808.000000	64.854454 
3807.000000	64.861226 
3806.000000	64.882922 
3805.000000	64.916491 
3804.000000	64.956116 
3803.000000	64.994883 
3802.000000	65.025377 
3801.000000	65.041446 
3800.000000	65.038943 
3799.000000	65.016341 
3798.000000	64.975118 
3797.000000	64.919209 
3796.000000	64.854454 
3795.000000	64.787793 
3794.000000	64.726209 
3793.000000	64.675903 
3792.000000	64.642119 
3791.000000	64.628672 
3790.000000	64.637660 
3789.000000	64.669084 
3788.000000	64.720392 
3787.000000	64.787077 
3786.000000	64.861965 
3785.000000	64.937186 
3784.000000	65.004444 
3783.000000	65.057206 
3782.000000	65.091323 
3781.000000	65.106034 
3780.000000	65.104031 
3779.000000	65.090632 
3778.000000	65.072846 
3777.000000	65.057349 
3776.000000	65.049242 
3775.000000	65.050888 
3774.000000	65.061879 
3773.000000	65.079283 
3772.000000	65.099215 
3771.000000	65.117454 
3770.000000	65.131115 
3769.000000	65.138626 
3768.000000	65.140199 
3767.000000	65.137124 
3766.000000	65.131163 
3765.000000	65.124011 
3764.000000	65.116763 
3763.000000	65.110182 
3762.000000	65.104460 
3761.000000	65.099668 
3760.000000	65.095710 
3759.000000	65.092730 
3758.000000	65.090894 
3757.000000	65.090680 
3756.000000	65.092229 
3755.000000	65.095138 
3754.000000	65.098333 
3753.000000	65.100479 
3752.000000	65.099883 
3751.000000	65.094780 
3750.000000	65.084052 
3749.000000	65.067434 
3748.000000	65.045738 
3747.000000	65.020847 
3746.000000	64.995265 
3745.000000	64.971446 
3744.000000	64.951586 
3743.000000	64.937138 
3742.000000	64.928269 
3741.000000	64.924073 
3740.000000	64.922857 
3739.000000	64.922523 
3738.000000	64.921402 
3737.000000	64.918470 
3736.000000	64.913535 
3735.000000	64.907240 
3734.000000	64.900350 
3733.000000	64.893460 
3732.000000	64.886856 
3731.000000	64.880275 
3730.000000	64.873194 
3729.000000	64.865040 
3728.000000	64.855837 
3727.000000	64.846420 
3726.000000	64.838123 
3725.000000	64.832782 
3724.000000	64.831924 
3723.000000	64.836859 
3722.000000	64.848041 
3721.000000	64.865159 
3720.000000	64.887118 
3719.000000	64.912557 
3718.000000	64.940118 
3717.000000	64.968800 
3716.000000	64.997887 
3715.000000	65.026879 
3714.000000	65.055084 
3713.000000	65.081596 
3712.000000	65.105152 
3711.000000	65.124273 
3710.000000	65.137696 
3709.000000	65.145063 
3708.000000	65.146899 
3707.000000	65.145039 
3706.000000	65.142059 
3705.000000	65.140962 
3704.000000	65.144348 
3703.000000	65.153765 
3702.000000	65.168976 
3701.000000	65.188288 
3700.000000	65.208411 
3699.000000	65.225267 
3698.000000	65.234684 
3697.000000	65.233659 
3696.000000	65.220928 
3695.000000	65.197420 
3694.000000	65.165972 
3693.000000	65.130925 
3692.000000	65.096807 
3691.000000	65.067672 
3690.000000	65.045785 
3689.000000	65.031647 
3688.000000	65.024018 
3687.000000	65.020704 
3686.000000	65.018939 
3685.000000	65.016412 
3684.000000	65.011668 
3683.000000	65.004634 
3682.000000	64.996027 
3681.000000	64.987254 
3680.000000	64.979982 
3679.000000	64.975929 
3678.000000	64.976239 
3677.000000	64.981460 
3676.000000	64.991569 
3675.000000	65.005970 
3674.000000	65.023803 
3673.000000	65.043926 
3672.000000	65.064907 
3671.000000	65.085482 
3670.000000	65.104651 
3669.000000	65.122008 
3668.000000	65.137624 
3667.000000	65.152049 
3666.000000	65.166211 
3665.000000	65.180683 
3664.000000	65.195345 
3663.000000	65.209007 
3662.000000	65.219569 
3661.000000	65.224504 
3660.000000	65.221333 
3659.000000	65.208506 
3658.000000	65.185952 
3657.000000	65.155100 
3656.000000	65.118646 
3655.000000	65.079975 
3654.000000	65.042471 
3653.000000	65.008854 
3652.000000	64.981055 
3651.000000	64.959812 
3650.000000	64.945173 
3649.000000	64.936900 
3648.000000	64.935088 
3647.000000	64.940142 
3646.000000	64.952945 
3645.000000	64.974260 
3644.000000	65.004491 
3643.000000	65.042638 
3642.000000	65.086507 
3641.000000	65.132546 
3640.000000	65.176367 
3639.000000	65.213346 
3638.000000	65.239667 
3637.000000	65.253162 
3636.000000	65.253543 
3635.000000	65.242409 
3634.000000	65.222883 
3633.000000	65.198826 
3632.000000	65.174102 
3631.000000	65.151619 
3630.000000	65.133047 
3629.000000	65.118575 
3628.000000	65.107440 
3627.000000	65.098214 
3626.000000	65.089440 
3625.000000	65.080308 
3624.000000	65.070581 
3623.000000	65.061044 
3622.000000	65.052819 
3621.000000	65.047192 
3620.000000	65.045166 
3619.000000	65.047264 
3618.000000	65.053200 
3617.000000	65.061974 
3616.000000	65.072083 
3615.000000	65.081620 
3614.000000	65.088677 
3613.000000	65.091538 
3612.000000	65.088796 
3611.000000	65.079951 
3610.000000	65.065550 
3609.000000	65.047049 
3608.000000	65.026736 
3607.000000	65.007400 
3606.000000	64.991831 
3605.000000	64.982438 
3604.000000	64.980745 
3603.000000	64.987182 
3602.000000	65.000844 
3601.000000	65.019893 
3600.000000	65.041518 
3599.000000	65.062403 
3598.000000	65.079140 
3597.000000	65.088891 
3596.000000	65.090084 
3595.000000	65.082526 
3594.000000	65.067791 
3593.000000	65.048813 
3592.000000	65.029597 
3591.000000	65.014410 
3590.000000	65.006589 
3589.000000	65.008378 
3588.000000	65.019631 
3587.000000	65.038180 
3586.000000	65.060329 
3585.000000	65.081453 
3584.000000	65.097427 
3583.000000	65.105843 
3582.000000	65.106320 
3581.000000	65.100622 
3580.000000	65.091943 
3579.000000	65.083813 
3578.000000	65.079140 
3577.000000	65.079402 
3576.000000	65.084457 
3575.000000	65.092635 
3574.000000	65.102005 
3573.000000	65.110683 
3572.000000	65.117645 
3571.000000	65.122723 
3570.000000	65.126562 
3569.000000	65.130281 
3568.000000	65.134549 
3567.000000	65.139365 
3566.000000	65.143871 
3565.000000	65.146660 
3564.000000	65.146636 
3563.000000	65.143179 
3562.000000	65.136742 
3561.000000	65.128684 
3560.000000	65.121126 
3559.000000	65.116047 
3558.000000	65.114784 
3557.000000	65.117835 
3556.000000	65.124559 
3555.000000	65.133690 
3554.000000	65.143561 
3553.000000	65.152621 
3552.000000	65.159940 
3551.000000	65.165281 
3550.000000	65.168976 
3549.000000	65.171909 
3548.000000	65.175151 
3547.000000	65.179753 
3546.000000	65.186357 
3545.000000	65.195226 
3544.000000	65.206241 
3543.000000	65.219044 
3542.000000	65.232801 
3541.000000	65.246534 
3540.000000	65.258765 
3539.000000	65.268039 
3538.000000	65.272688 
3537.000000	65.271329 
3536.000000	65.262889 
3535.000000	65.247106 
3534.000000	65.224289 
3533.000000	65.195441 
3532.000000	65.162277 
3531.000000	65.126824 
3530.000000	65.091466 
3529.000000	65.058660 
3528.000000	65.030884 
3527.000000	65.010404 
3526.000000	64.998984 
3525.000000	64.997744 
3524.000000	65.006947 
3523.000000	65.025711 
3522.000000	65.052080 
3521.000000	65.083312 
3520.000000	65.115904 
3519.000000	65.146493 
3518.000000	65.172433 
3517.000000	65.192198 
3516.000000	65.205621 
3515.000000	65.213704 
3514.000000	65.218210 
3513.000000	65.220832 
3512.000000	65.223121 
3511.000000	65.225529 
3510.000000	65.227866 
3509.000000	65.228962 
3508.000000	65.227723 
3507.000000	65.223217 
3506.000000	65.215373 
3505.000000	65.204858 
3504.000000	65.193223 
3503.000000	65.182280 
3502.000000	65.173721 
3501.000000	65.168809 
3500.000000	65.168023 
3499.000000	65.171265 
3498.000000	65.177702 
3497.000000	65.186214 
3496.000000	65.195512 
3495.000000	65.204095 
3494.000000	65.210294 
3493.000000	65.212416 
3492.000000	65.209031 
3491.000000	65.199327 
3490.000000	65.183401 
3489.000000	65.162515 
3488.000000	65.139079 
3487.000000	65.116548 
3486.000000	65.098595 
3485.000000	65.088415 
3484.000000	65.087819 
3483.000000	65.096807 
3482.000000	65.113449 
3481.000000	65.134215 
3480.000000	65.154981 
3479.000000	65.171861 
3478.000000	65.182304 
3477.000000	65.185356 
3476.000000	65.181684 
3475.000000	65.173029 
3474.000000	65.161442 
3473.000000	65.148758 
3472.000000	65.136265 
3471.000000	65.124535 
3470.000000	65.113759 
3469.000000	65.104007 
3468.000000	65.095329 
3467.000000	65.088033 
3466.000000	65.082335 
3465.000000	65.078496 
3464.000000	65.076684 
3463.000000	65.076828 
3462.000000	65.078592 
3461.000000	65.081524 
3460.000000	65.085196 
3459.000000	65.089297 
3458.000000	65.093684 
3457.000000	65.098142 
3456.000000	65.102052 
3455.000000	65.104556 
3454.000000	65.104603 
3453.000000	65.101242 
3452.000000	65.093731 
3451.000000	65.082240 
3450.000000	65.067815 
3449.000000	65.052223 
3448.000000	65.037608 
3447.000000	65.025877 
3446.000000	65.018248 
3445.000000	65.015006 
3444.000000	65.015578 
3443.000000	65.018749 
3442.000000	65.022993 
3441.000000	65.026640 
3440.000000	65.028333 
3439.000000	65.027093 
3438.000000	65.022516 
3437.000000	65.014767 
3436.000000	65.004467 
3435.000000	64.992380 
3434.000000	64.979624 
3433.000000	64.967346 
3432.000000	64.957022 
3431.000000	64.949965 
3430.000000	64.947414 
3429.000000	64.950323 
3428.000000	64.959144 
3427.000000	64.973545 
3426.000000	64.992213 
3425.000000	65.012764 
3424.000000	65.032148 
3423.000000	65.047097 
3422.000000	65.054798 
3421.000000	65.053343 
3420.000000	65.042614 
3419.000000	65.024375 
3418.000000	65.002250 
3417.000000	64.980936 
3416.000000	64.965486 
3415.000000	64.959883 
3414.000000	64.965987 
3413.000000	64.982652 
3412.000000	65.006041 
3411.000000	65.030288 
3410.000000	65.048623 
3409.000000	65.055298 
3408.000000	65.046668 
3407.000000	65.022325 
3406.000000	64.984917 
3405.000000	64.939808 
3404.000000	64.893579 
3403.000000	64.853167 
3402.000000	64.823842 
3401.000000	64.808940 
3400.000000	64.809298 
3399.000000	64.823532 
3398.000000	64.848780 
3397.000000	64.881372 
3396.000000	64.917683 
3395.000000	64.954566 
3394.000000	64.989542 
3393.000000	65.021014 
3392.000000	65.047526 
3391.000000	65.068221 
3390.000000	65.082550 
3389.000000	65.090298 
3388.000000	65.091514 
3387.000000	65.086674 
3386.000000	65.076732 
3385.000000	65.062975 
3384.000000	65.047121 
3383.000000	65.031218 
3382.000000	65.017557 
3381.000000	65.008378 
3380.000000	65.005779 
3379.000000	65.011620 
3378.000000	65.026855 
3377.000000	65.051341 
3376.000000	65.083408 
3375.000000	65.120077 
3374.000000	65.157175 
3373.000000	65.190029 
3372.000000	65.214300 
3371.000000	65.226769 
3370.000000	65.226101 
3369.000000	65.213394 
3368.000000	65.191555 
3367.000000	65.164828 
3366.000000	65.137600 
3365.000000	65.113639 
3364.000000	65.094947 
3363.000000	65.082001 
3362.000000	65.073466 
3361.000000	65.067076 
3360.000000	65.060472 
3359.000000	65.051865 
3358.000000	65.040755 
3357.000000	65.027904 
3356.000000	65.015149 
3355.000000	65.004587 
3354.000000	64.997911 
3353.000000	64.995884 
3352.000000	64.997959 
3351.000000	65.002489 
3350.000000	65.007066 
3349.000000	65.009212 
3348.000000	65.007114 
3347.000000	64.999985 
3346.000000	64.988160 
3345.000000	64.973211 
3344.000000	64.957284 
3343.000000	64.942717 
3342.000000	64.931201 
3341.000000	64.923858 
3340.000000	64.920830 
3339.000000	64.921689 
3338.000000	64.925765 
3337.000000	64.932489 
3336.000000	64.941716 
3335.000000	64.954018 
3334.000000	64.970254 
3333.000000	64.991426 
3332.000000	65.017819 
3331.000000	65.048980 
3330.000000	65.083146 
3329.000000	65.117740 
3328.000000	65.149307 
3327.000000	65.174317 
3326.000000	65.189647 
3325.000000	65.193080 
3324.000000	65.183711 
3323.000000	65.162229 
3322.000000	65.130567 
3321.000000	65.091848 
3320.000000	65.049815 
3319.000000	65.008521 
3318.000000	64.971899 
3317.000000	64.943289 
3316.000000	64.925217 
3315.000000	64.919114 
3314.000000	64.925432 
3313.000000	64.943528 
3312.000000	64.971756 
3311.000000	65.007495 
3310.000000	65.047407 
3309.000000	65.087747 
3308.000000	65.124583 
3307.000000	65.154147 
3306.000000	65.173435 
3305.000000	65.180420 
3304.000000	65.174269 
3303.000000	65.155529 
3302.000000	65.126323 
3301.000000	65.089774 
3300.000000	65.049743 
3299.000000	65.010118 
3298.000000	64.974498 
3297.000000	64.945554 
3296.000000	64.924764 
3295.000000	64.912462 
3294.000000	64.908075 
3293.000000	64.910578 
3292.000000	64.918732 
3291.000000	64.931297 
3290.000000	64.946913 
3289.000000	64.964461 
3288.000000	64.982676 
3287.000000	65.000152 
3286.000000	65.015363 
3285.000000	65.026760 
3284.000000	65.033149 
3283.000000	65.033721 
3282.000000	65.028333 
3281.000000	65.017724 
3280.000000	65.003037 
3279.000000	64.985966 
3278.000000	64.968204 
3277.000000	64.951181 
3276.000000	64.935851 
3275.000000	64.922571 
3274.000000	64.911389 
3273.000000	64.901947 
3272.000000	64.893984 
3271.000000	64.887452 
3270.000000	64.882636 
3269.000000	64.880013 
3268.000000	64.880251 
3267.000000	64.883780 
3266.000000	64.890694 
3265.000000	64.900493 
3264.000000	64.912295 
3263.000000	64.924860 
3262.000000	64.936828 
3261.000000	64.946961 
3260.000000	64.954400 
3259.000000	64.958882 
3258.000000	64.960718 
3257.000000	64.960503 
3256.000000	64.959263 
3255.000000	64.958143 
3254.000000	64.958143 
3253.000000	64.959931 
3252.000000	64.963960 
3251.000000	64.970207 
3250.000000	64.978218 
3249.000000	64.987206 
3248.000000	64.995884 
3247.000000	65.002655 
3246.000000	65.006136 
3245.000000	65.005087 
3244.000000	64.998865 
3243.000000	64.987277 
3242.000000	64.971184 
3241.000000	64.952087 
3240.000000	64.931488 
3239.000000	64.911103 
3238.000000	64.892339 
3237.000000	64.876365 
3236.000000	64.863753 
3235.000000	64.854717 
3234.000000	64.849424 
3233.000000	64.847922 
3232.000000	64.850187 
3231.000000	64.856004 
3230.000000	64.864850 
3229.000000	64.875817 
3228.000000	64.887571 
3227.000000	64.898419 
3226.000000	64.906668 
3225.000000	64.911079 
3224.000000	64.911174 
3223.000000	64.907479 
3222.000000	64.901447 
3221.000000	64.895248 
3220.000000	64.891338 
3219.000000	64.891719 
3218.000000	64.897775 
3217.000000	64.909934 
3216.000000	64.927840 
3215.000000	64.950251 
3214.000000	64.975762 
3213.000000	65.002918 
3212.000000	65.030741 
3211.000000	65.058684 
3210.000000	65.086436 
3209.000000	65.113878 
3208.000000	65.140748 
3207.000000	65.166449 
3206.000000	65.189981 
3205.000000	65.209960 
3204.000000	65.224838 
3203.000000	65.233397 
3202.000000	65.234851 
3201.000000	65.228962 
3200.000000	65.216279 
3199.000000	65.197896 
3198.000000	65.175533 
3197.000000	65.150928 
3196.000000	65.125823 
3195.000000	65.101599 
3194.000000	65.079164 
3193.000000	65.059065 
3192.000000	65.041399 
3191.000000	65.025925 
3190.000000	65.012621 
3189.000000	65.001773 
3188.000000	64.993691 
3187.000000	64.989042 
3186.000000	64.988327 
3185.000000	64.992094 
3184.000000	65.000224 
3183.000000	65.012288 
3182.000000	65.027379 
3181.000000	65.044546 
3180.000000	65.062475 
3179.000000	65.080094 
3178.000000	65.096473 
3177.000000	65.110969 
3176.000000	65.123081 
3175.000000	65.132403 
3174.000000	65.138697 
3173.000000	65.141797 
3172.000000	65.141558 
3171.000000	65.137958 
3170.000000	65.130996 
3169.000000	65.120840 
3168.000000	65.107727 
3167.000000	65.091753 
3166.000000	65.073060 
3165.000000	65.051817 
3164.000000	65.028381 
3163.000000	65.003371 
3162.000000	64.977931 
3161.000000	64.953613 
3160.000000	64.932322 
3159.000000	64.915943 
3158.000000	64.906001 
3157.000000	64.903426 
3156.000000	64.908432 
3155.000000	64.919877 
3154.000000	64.935874 
3153.000000	64.954090 
3152.000000	64.972019 
3151.000000	64.987516 
3150.000000	64.999127 
3149.000000	65.006256 
3148.000000	65.009355 
3147.000000	65.009427 
3146.000000	65.007758 
3145.000000	65.005493 
3144.000000	65.003204 
3143.000000	65.000700 
3142.000000	64.997220 
3141.000000	64.991331 
3140.000000	64.981436 
3139.000000	64.965915 
3138.000000	64.944005 
3137.000000	64.915966 
3136.000000	64.883065 
3135.000000	64.847993 
3134.000000	64.814329 
3133.000000	64.786195 
3132.000000	64.767289 
3131.000000	64.760708 
3130.000000	64.768075 
3129.000000	64.789462 
3128.000000	64.823222 
3127.000000	64.866185 
3126.000000	64.914178 
3125.000000	64.962410 
3124.000000	65.006303 
3123.000000	65.041756 
3122.000000	65.065622 
3121.000000	65.076017 
3120.000000	65.072536 
3119.000000	65.056228 
3118.000000	65.029454 
3117.000000	64.995694 
3116.000000	64.959287 
3115.000000	64.924883 
3114.000000	64.896726 
3113.000000	64.878249 
3112.000000	64.871454 
3111.000000	64.876627 
3110.000000	64.892816 
3109.000000	64.917659 
3108.000000	64.948391 
3107.000000	64.982008 
3106.000000	65.016078 
3105.000000	65.048742 
3104.000000	65.078687 
3103.000000	65.105104 
3102.000000	65.127134 
3101.000000	65.143728 
3100.000000	65.153551 
3099.000000	65.155220 
3098.000000	65.147590 
3097.000000	65.130591 
3096.000000	65.105175 
3095.000000	65.073633 
3094.000000	65.039062 
3093.000000	65.005159 
3092.000000	64.975094 
3091.000000	64.951229 
3090.000000	64.934539 
3089.000000	64.924907 
3088.000000	64.921259 
3087.000000	64.922189 
3086.000000	64.926338 
3085.000000	64.932799 
3084.000000	64.941310 
3083.000000	64.952182 
3082.000000	64.965605 
3081.000000	64.981269 
3080.000000	64.998316 
3079.000000	65.015006 
3078.000000	65.029168 
3077.000000	65.038561 
3076.000000	65.041136 
3075.000000	65.035629 
3074.000000	65.021777 
3073.000000	65.000510 
3072.000000	64.973640 
3071.000000	64.943861 
3070.000000	64.914250 
3069.000000	64.888095 
3068.000000	64.868354 
3067.000000	64.857363 
3066.000000	64.856171 
3065.000000	64.864778 
3064.000000	64.881968 
3063.000000	64.905428 
3062.000000	64.932250 
3061.000000	64.959263 
3060.000000	64.983773 
3059.000000	65.003967 
3058.000000	65.018987 
3057.000000	65.028834 
3056.000000	65.034151 
3055.000000	65.035676 
3054.000000	65.033793 
3053.000000	65.028333 
3052.000000	65.018701 
3051.000000	65.004301 
3050.000000	64.984917 
3049.000000	64.961314 
3048.000000	64.935469 
3047.000000	64.910340 
3046.000000	64.889621 
3045.000000	64.876818 
3044.000000	64.875006 
3043.000000	64.885687 
3042.000000	64.908862 
3041.000000	64.942884 
3040.000000	64.984726 
3039.000000	65.030384 
3038.000000	65.075635 
3037.000000	65.116620 
3036.000000	65.149879 
3035.000000	65.172719 
3034.000000	65.183472 
3033.000000	65.181398 
3032.000000	65.167117 
3031.000000	65.142321 
3030.000000	65.109634 
3029.000000	65.072369 
3028.000000	65.034484 
3027.000000	64.999747 
3026.000000	64.971303 
3025.000000	64.951300 
3024.000000	64.940810 
3023.000000	64.939880 
3022.000000	64.947605 
3021.000000	64.962458 
3020.000000	64.982604 
3019.000000	65.006136 
3018.000000	65.031147 
3017.000000	65.056085 
3016.000000	65.079331 
3015.000000	65.099668 
3014.000000	65.116119 
3013.000000	65.128421 
3012.000000	65.137147 
3011.000000	65.143465 
3010.000000	65.148901 
3009.000000	65.155005 
3008.000000	65.162420 
3007.000000	65.170764 
3006.000000	65.178036 
3005.000000	65.181374 
3004.000000	65.177488 
3003.000000	65.163636 
3002.000000	65.138530 
3001.000000	65.102839 
3000.000000	65.059685 
2999.000000	65.013861 
2998.000000	64.971446 
2997.000000	64.937996 
2996.000000	64.917922 
2995.000000	64.913392 
2994.000000	64.924144 
2993.000000	64.947462 
2992.000000	64.978790 
2991.000000	65.012788 
2990.000000	65.044021 
2989.000000	65.068006 
2988.000000	65.081596 
2987.000000	65.083146 
2986.000000	65.072631 
2985.000000	65.051460 
2984.000000	65.022087 
2983.000000	64.987373 
2982.000000	64.950370 
2981.000000	64.913630 
2980.000000	64.879226 
2979.000000	64.848470 
2978.000000	64.821958 
2977.000000	64.799809 
2976.000000	64.781785 
2975.000000	64.767765 
2974.000000	64.757585 
2973.000000	64.751505 
2972.000000	64.749741 
2971.000000	64.752435 
2970.000000	64.758968 
2969.000000	64.768338 
2968.000000	64.778804 
2967.000000	64.788389 
2966.000000	64.794826 
2965.000000	64.796662 
2964.000000	64.793348 
2963.000000	64.785528 
2962.000000	64.774823 
2961.000000	64.763593 
2960.000000	64.754438 
2959.000000	64.749836 
2958.000000	64.751482 
2957.000000	64.760065 
2956.000000	64.775204 
2955.000000	64.795565 
2954.000000	64.819192 
2953.000000	64.843702 
2952.000000	64.866709 
2951.000000	64.886021 
2950.000000	64.900112 
2949.000000	64.908075 
2948.000000	64.909958 
2947.000000	64.906477 
2946.000000	64.899325 
2945.000000	64.890789 
2944.000000	64.883518 
2943.000000	64.879631 
2942.000000	64.880728 
2941.000000	64.887523 
2940.000000	64.899778 
2939.000000	64.916515 
2938.000000	64.936256 
2937.000000	64.957475 
2936.000000	64.978814 
2935.000000	64.999508 
2934.000000	65.019106 
2933.000000	65.037417 
2932.000000	65.054082 
2931.000000	65.068483 
2930.000000	65.079569 
2929.000000	65.085816 
2928.000000	65.085482 
2927.000000	65.077161 
2926.000000	65.060186 
2925.000000	65.034937 
2924.000000	65.003013 
2923.000000	64.967179 
2922.000000	64.930891 
2921.000000	64.898157 
2920.000000	64.872717 
2919.000000	64.857602 
2918.000000	64.854431 
2917.000000	64.863181 
2916.000000	64.882087 
2915.000000	64.907789 
2914.000000	64.935994 
2913.000000	64.962124 
2912.000000	64.982151 
2911.000000	64.993333 
2910.000000	64.994454 
2909.000000	64.986133 
2908.000000	64.970088 
2907.000000	64.948821 
2906.000000	64.924883 
2905.000000	64.900422 
2904.000000	64.876866 
2903.000000	64.854931 
2902.000000	64.835000 
2901.000000	64.817357 
2900.000000	64.802694 
2899.000000	64.792013 
2898.000000	64.786672 
2897.000000	64.787817 
2896.000000	64.796113 
2895.000000	64.811205 
2894.000000	64.831852 
2893.000000	64.855980 
2892.000000	64.881157 
2891.000000	64.905166 
2890.000000	64.926242 
2889.000000	64.943337 
2888.000000	64.955878 
2887.000000	64.963960 
2886.000000	64.967727 
2885.000000	64.967393 
2884.000000	64.962887 
2883.000000	64.954304 
2882.000000	64.941740 
2881.000000	64.925813 
2880.000000	64.907550 
2879.000000	64.888477 
2878.000000	64.870500 
2877.000000	64.855790 
2876.000000	64.846301 
2875.000000	64.843416 
2874.000000	64.847779 
2873.000000	64.859223 
2872.000000	64.876937 
2871.000000	64.899706 
2870.000000	64.926099 
2869.000000	64.954710 
2868.000000	64.984083 
2867.000000	65.012645 
2866.000000	65.038681 
2865.000000	65.060377 
2864.000000	65.075683 
2863.000000	65.083003 
2862.000000	65.081524 
2861.000000	65.071606 
2860.000000	65.055060 
2859.000000	65.034890 
2858.000000	65.014958 
2857.000000	64.998817 
2856.000000	64.989471 
2855.000000	64.988160 
2854.000000	64.994311 
2853.000000	65.005731 
2852.000000	65.019059 
2851.000000	65.030837 
2850.000000	65.038299 
2849.000000	65.040040 
2848.000000	65.036153 
2847.000000	65.027904 
2846.000000	65.017127 
2845.000000	65.005397 
2844.000000	64.993691 
2843.000000	64.982080 
2842.000000	64.969849 
2841.000000	64.956116 
2840.000000	64.940261 
2839.000000	64.922237 
2838.000000	64.903068 
2837.000000	64.884424 
2836.000000	64.868497 
2835.000000	64.857673 
2834.000000	64.853930 
2833.000000	64.858317 
2832.000000	64.870834 
2831.000000	64.890456 
2830.000000	64.915275 
2829.000000	64.942574 
2828.000000	64.969515 
2827.000000	64.993238 
2826.000000	65.011286 
2825.000000	65.021824 
2824.000000	65.023851 
2823.000000	65.017127 
2822.000000	65.002417 
2821.000000	64.981389 
2820.000000	64.956355 
2819.000000	64.930105 
2818.000000	64.905667 
2817.000000	64.885830 
2816.000000	64.873123 
2815.000000	64.869308 
2814.000000	64.875292 
2813.000000	64.890789 
2812.000000	64.914512 
2811.000000	64.943957 
2810.000000	64.975929 
2809.000000	65.007138 
2808.000000	65.034198 
2807.000000	65.054607 
2806.000000	65.066790 
2805.000000	65.070247 
2804.000000	65.065598 
2803.000000	65.054249 
2802.000000	65.038132 
2801.000000	65.019297 
2800.000000	64.999723 
2799.000000	64.981007 
2798.000000	64.964175 
2797.000000	64.949798 
2796.000000	64.938163 
2795.000000	64.929056 
2794.000000	64.922094 
2793.000000	64.916872 
2792.000000	64.912962 
2791.000000	64.910030 
2790.000000	64.907884 
2789.000000	64.906501 
2788.000000	64.906001 
2787.000000	64.906668 
2786.000000	64.908814 
2785.000000	64.912533 
2784.000000	64.917850 
2783.000000	64.924550 
2782.000000	64.932227 
2781.000000	64.940381 
2780.000000	64.948415 
2779.000000	64.955806 
2778.000000	64.962053 
2777.000000	64.966726 
2776.000000	64.969420 
2775.000000	64.969849 
2774.000000	64.967823 
2773.000000	64.963221 
2772.000000	64.956283 
2771.000000	64.947485 
2770.000000	64.937400 
2769.000000	64.926671 
2768.000000	64.915895 
2767.000000	64.905595 
2766.000000	64.895915 
2765.000000	64.886808 
2764.000000	64.878082 
2763.000000	64.869499 
2762.000000	64.860916 
2761.000000	64.852643 
2760.000000	64.845252 
2759.000000	64.839625 
2758.000000	64.836812 
2757.000000	64.837884 
2756.000000	64.843416 
2755.000000	64.853501 
2754.000000	64.867782 
2753.000000	64.885449 
2752.000000	64.905214 
2751.000000	64.925837 
2750.000000	64.946222 
2749.000000	64.965534 
2748.000000	64.983344 
2747.000000	64.999508 
2746.000000	65.013957 
2745.000000	65.026497 
2744.000000	65.036821 
2743.000000	65.044283 
2742.000000	65.047979 
2741.000000	65.047121 
2740.000000	65.041208 
2739.000000	65.030384 
2738.000000	65.015506 
2737.000000	64.998340 
2736.000000	64.981126 
2735.000000	64.966225 
2734.000000	64.955568 
2733.000000	64.950418 
2732.000000	64.950656 
2731.000000	64.955115 
2730.000000	64.961624 
2729.000000	64.967536 
2728.000000	64.970564 
2727.000000	64.969062 
2726.000000	64.962720 
2725.000000	64.952445 
2724.000000	64.940404 
2723.000000	64.929270 
2722.000000	64.921641 
2721.000000	64.919471 
2720.000000	64.923357 
2719.000000	64.932584 
2718.000000	64.945125 
2717.000000	64.958333 
2716.000000	64.969444 
2715.000000	64.976406 
2714.000000	64.978075 
2713.000000	64.974665 
2712.000000	64.967370 
2711.000000	64.958000 
2710.000000	64.948487 
2709.000000	64.940524 
2708.000000	64.935255 
2707.000000	64.933085 
2706.000000	64.933967 
2705.000000	64.937400 
2704.000000	64.942789 
2703.000000	64.949464 
2702.000000	64.956831 
2701.000000	64.964389 
2700.000000	64.971709 
2699.000000	64.978432 
2698.000000	64.984059 
2697.000000	64.988327 
2696.000000	64.990997 
2695.000000	64.991974 
2694.000000	64.991474 
2693.000000	64.989781 
2692.000000	64.987134 
2691.000000	64.983892 
2690.000000	64.980435 
2689.000000	64.977097 
2688.000000	64.974236 
2687.000000	64.972329 
2686.000000	64.971733 
2685.000000	64.972686 
2684.000000	64.975023 
2683.000000	64.978146 
2682.000000	64.981126 
2681.000000	64.982724 
2680.000000	64.981818 
2679.000000	64.977669 
2678.000000	64.970159 
2677.000000	64.959907 
2676.000000	64.948248 
2675.000000	64.936900 
2674.000000	64.927673 
2673.000000	64.922022 
2672.000000	64.920783 
2671.000000	64.923834 
2670.000000	64.930558 
2669.000000	64.940047 
2668.000000	64.951205 
2667.000000	64.963102 
2666.000000	64.974880 
2665.000000	64.985942 
2664.000000	64.995622 
2663.000000	65.003252 
2662.000000	65.008115 
2661.000000	65.009570 
2660.000000	65.007305 
2659.000000	65.001463 
2658.000000	64.992785 
2657.000000	64.982461 
2656.000000	64.971971 
2655.000000	64.962744 
2654.000000	64.955949 
2653.000000	64.952182 
2652.000000	64.951515 
2651.000000	64.953422 
2650.000000	64.957070 
2649.000000	64.961647 
2648.000000	64.966440 
2647.000000	64.971041 
2646.000000	64.974904 
2645.000000	64.977526 
2644.000000	64.978241 
2643.000000	64.976406 
2642.000000	64.971494 
2641.000000	64.963340 
2640.000000	64.952206 
2639.000000	64.938926 
2638.000000	64.924955 
2637.000000	64.912056 
2636.000000	64.901852 
2635.000000	64.895677 
2634.000000	64.894175 
2633.000000	64.897179 
2632.000000	64.903855 
2631.000000	64.912462 
2630.000000	64.920949 
2629.000000	64.927244 
2628.000000	64.929771 
2627.000000	64.927554 
2626.000000	64.920997 
2625.000000	64.911270 
2624.000000	64.900660 
2623.000000	64.891934 
2622.000000	64.887666 
2621.000000	64.890074 
2620.000000	64.899778 
2619.000000	64.916133 
2618.000000	64.936637 
2617.000000	64.957571 
2616.000000	64.974594 
2615.000000	64.983677 
2614.000000	64.982080 
2613.000000	64.968800 
2612.000000	64.945316 
2611.000000	64.915084 
2610.000000	64.882993 
2609.000000	64.854526 
2608.000000	64.834475 
2607.000000	64.825987 
2606.000000	64.829874 
2605.000000	64.844679 
2604.000000	64.867115 
2603.000000	64.892864 
2602.000000	64.917564 
2601.000000	64.937806 
2600.000000	64.951658 
2599.000000	64.959096 
2598.000000	64.961385 
2597.000000	64.960622 
2596.000000	64.959216 
2595.000000	64.959001 
2594.000000	64.961028 
2593.000000	64.964842 
2592.000000	64.969277 
2591.000000	64.972257 
2590.000000	64.971923 
2589.000000	64.966917 
2588.000000	64.957046 
2587.000000	64.943242 
2586.000000	64.927577 
2585.000000	64.912819 
2584.000000	64.901757 
2583.000000	64.896464 
2582.000000	64.897823 
2581.000000	64.905357 
2580.000000	64.917135 
2579.000000	64.930343 
2578.000000	64.941883 
2577.000000	64.948987 
2576.000000	64.949917 
2575.000000	64.944171 
2574.000000	64.932489 
2573.000000	64.916491 
2572.000000	64.897990 
2571.000000	64.878463 
2570.000000	64.858794 
2569.000000	64.839243 
2568.000000	64.819741 
2567.000000	64.799928 
2566.000000	64.779877 
2565.000000	64.760327 
2564.000000	64.742970 
2563.000000	64.729738 
2562.000000	64.722847 
2561.000000	64.723658 
2560.000000	64.732813 
2559.000000	64.749455 
2558.000000	64.771771 
2557.000000	64.797115 
2556.000000	64.822649 
2555.000000	64.845967 
2554.000000	64.865398 
2553.000000	64.880180 
2552.000000	64.890480 
2551.000000	64.897155 
2550.000000	64.901375 
2549.000000	64.904212 
2548.000000	64.906716 
2547.000000	64.909338 
2546.000000	64.912080 
2545.000000	64.914107 
2544.000000	64.914369 
2543.000000	64.911413 
2542.000000	64.903831 
2541.000000	64.890646 
2540.000000	64.871501 
2539.000000	64.847350 
2538.000000	64.820027 
2537.000000	64.792752 
2536.000000	64.769172 
2535.000000	64.753103 
2534.000000	64.747405 
2533.000000	64.753460 
2532.000000	64.770746 
2531.000000	64.796829 
2530.000000	64.827966 
2529.000000	64.859747 
2528.000000	64.887952 
2527.000000	64.909672 
2526.000000	64.923810 
2525.000000	64.930939 
2524.000000	64.933037 
2523.000000	64.932894 
2522.000000	64.933347 
2521.000000	64.936470 
2520.000000	64.943146 
2519.000000	64.953136 
2518.000000	64.965009 
2517.000000	64.977097 
2516.000000	64.987516 
2515.000000	64.994788 
2514.000000	64.997935 
2513.000000	64.996647 
2512.000000	64.991116 
2511.000000	64.981985 
2510.000000	64.970135 
2509.000000	64.956688 
2508.000000	64.942908 
2507.000000	64.930152 
2506.000000	64.919638 
2505.000000	64.912438 
2504.000000	64.908933 
2503.000000	64.908981 
2502.000000	64.911365 
2501.000000	64.914298 
2500.000000	64.915513 
2499.000000	64.913034 
2498.000000	64.905571 
2497.000000	64.892768 
2496.000000	64.875602 
2495.000000	64.856290 
2494.000000	64.837646 
2493.000000	64.822459 
2492.000000	64.812898 
2491.000000	64.810228 
2490.000000	64.814233 
2489.000000	64.823698 
2488.000000	64.836692 
2487.000000	64.851045 
2486.000000	64.864706 
2485.000000	64.876341 
2484.000000	64.885258 
2483.000000	64.891433 
2482.000000	64.895009 
2481.000000	64.896225 
2480.000000	64.895153 
2479.000000	64.891719 
2478.000000	64.885735 
2477.000000	64.877104 
2476.000000	64.865899 
2475.000000	64.852571 
2474.000000	64.838051 
2473.000000	64.823508 
2472.000000	64.810156 
2471.000000	64.798998 
2470.000000	64.790892 
2469.000000	64.786076 
2468.000000	64.784455 
2467.000000	64.785504 
2466.000000	64.788722 
2465.000000	64.793348 
2464.000000	64.798688 
2463.000000	64.804244 
2462.000000	64.809393 
2461.000000	64.813494 
2460.000000	64.815807 
2459.000000	64.815592 
2458.000000	64.812231 
2457.000000	64.805293 
2456.000000	64.794898 
2455.000000	64.781570 
2454.000000	64.766335 
2453.000000	64.750862 
2452.000000	64.736866 
2451.000000	64.725947 
2450.000000	64.719343 
2449.000000	64.717745 
2448.000000	64.721107 
2447.000000	64.728760 
2446.000000	64.739584 
2445.000000	64.752388 
2444.000000	64.766097 
2443.000000	64.780068 
2442.000000	64.794039 
2441.000000	64.808201 
2440.000000	64.822888 
2439.000000	64.838457 
2438.000000	64.854931 
2437.000000	64.871811 
2436.000000	64.888191 
2435.000000	64.902615 
2434.000000	64.913821 
2433.000000	64.920568 
2432.000000	64.922308 
2431.000000	64.919137 
2430.000000	64.912033 
2429.000000	64.902472 
2428.000000	64.892268 
2427.000000	64.882898 
2426.000000	64.875125 
2425.000000	64.868998 
2424.000000	64.863872 
2423.000000	64.858627 
2422.000000	64.852118 
2421.000000	64.843916 
2420.000000	64.834117 
2419.000000	64.823770 
2418.000000	64.814329 
2417.000000	64.807200 
2416.000000	64.803361 
2415.000000	64.802980 
2414.000000	64.805197 
2413.000000	64.808440 
2412.000000	64.810562 
2411.000000	64.809679 
2410.000000	64.804553 
2409.000000	64.794850 
2408.000000	64.781379 
2407.000000	64.765787 
2406.000000	64.750313 
2405.000000	64.736938 
2404.000000	64.727187 
2403.000000	64.721989 
2402.000000	64.721369 
2401.000000	64.724802 
2400.000000	64.731216 
2399.000000	64.739465 
2398.000000	64.748549 
2397.000000	64.757609 
2396.000000	64.766311 
2395.000000	64.774513 
2394.000000	64.782261 
2393.000000	64.789724 
2392.000000	64.796853 
2391.000000	64.803314 
2390.000000	64.808607 
2389.000000	64.812183 
2388.000000	64.813542 
2387.000000	64.812517 
2386.000000	64.809441 
2385.000000	64.804935 
2384.000000	64.799904 
2383.000000	64.795136 
2382.000000	64.791226 
2381.000000	64.788341 
2380.000000	64.786267 
2379.000000	64.784312 
2378.000000	64.781689 
2377.000000	64.777517 
2376.000000	64.771175 
2375.000000	64.762258 
2374.000000	64.750885 
2373.000000	64.737796 
2372.000000	64.723992 
2371.000000	64.711117 
2370.000000	64.700961 
2369.000000	64.695453 
2368.000000	64.696264 
2367.000000	64.704489 
2366.000000	64.720320 
2365.000000	64.742755 
2364.000000	64.769816 
2363.000000	64.798521 
2362.000000	64.825630 
2361.000000	64.848208 
2360.000000	64.864206 
2359.000000	64.872932 
2358.000000	64.875006 
2357.000000	64.872169 
2356.000000	64.866566 
2355.000000	64.860463 
2354.000000	64.855313 
2353.000000	64.851880 
2352.000000	64.849972 
2351.000000	64.848971 
2350.000000	64.847946 
2349.000000	64.846062 
2348.000000	64.842867 
2347.000000	64.838433 
2346.000000	64.833283 
2345.000000	64.828157 
2344.000000	64.823818 
2343.000000	64.820742 
2342.000000	64.819264 
2341.000000	64.819288 
2340.000000	64.820742 
2339.000000	64.823222 
2338.000000	64.826273 
2337.000000	64.829468 
2336.000000	64.832305 
2335.000000	64.834284 
2334.000000	64.834952 
2333.000000	64.833807 
2332.000000	64.830517 
2331.000000	64.824938 
2330.000000	64.817023 
2329.000000	64.806962 
2328.000000	64.795088 
2327.000000	64.782047 
2326.000000	64.768719 
2325.000000	64.756441 
2324.000000	64.746737 
2323.000000	64.741015 
2322.000000	64.740610 
2321.000000	64.746165 
2320.000000	64.757490 
2319.000000	64.773488 
2318.000000	64.792037 
2317.000000	64.810276 
2316.000000	64.825057 
2315.000000	64.833593 
2314.000000	64.833784 
2313.000000	64.824914 
2312.000000	64.807677 
2311.000000	64.784479 
2310.000000	64.758872 
2309.000000	64.734935 
2308.000000	64.716625 
2307.000000	64.707207 
2306.000000	64.708399 
2305.000000	64.720249 
2304.000000	64.740943 
2303.000000	64.766979 
2302.000000	64.793968 
2301.000000	64.817309 
2300.000000	64.833021 
2299.000000	64.838647 
2298.000000	64.833736 
2297.000000	64.819574 
2296.000000	64.799332 
2295.000000	64.776873 
2294.000000	64.756131 
2293.000000	64.740490 
2292.000000	64.732003 
2291.000000	64.731431 
2290.000000	64.738035 
2289.000000	64.750337 
2288.000000	64.766168 
2287.000000	64.783143 
2286.000000	64.798927 
2285.000000	64.811635 
2284.000000	64.819812 
2283.000000	64.822554 
2282.000000	64.819645 
2281.000000	64.811396 
2280.000000	64.798784 
2279.000000	64.783406 
2278.000000	64.767265 
2277.000000	64.752411 
2276.000000	64.740514 
2275.000000	64.732646 
2274.000000	64.729022 
2273.000000	64.729189 
2272.000000	64.732432 
2271.000000	64.738011 
2270.000000	64.745283 
2269.000000	64.754199 
2268.000000	64.764761 
2267.000000	64.777326 
2266.000000	64.791774 
2265.000000	64.807677 
2264.000000	64.824151 
2263.000000	64.840054 
2262.000000	64.854168 
2261.000000	64.865398 
2260.000000	64.872932 
2259.000000	64.876484 
2258.000000	64.876055 
2257.000000	64.871883 
2256.000000	64.864206 
2255.000000	64.853167 
2254.000000	64.838790 
2253.000000	64.821386 
2252.000000	64.801454 
2251.000000	64.780020 
2250.000000	64.758563 
2249.000000	64.738607 
2248.000000	64.721703 
2247.000000	64.708876 
2246.000000	64.700555 
2245.000000	64.696335 
2244.000000	64.695358 
2243.000000	64.696502 
2242.000000	64.698696 
2241.000000	64.700984 
2240.000000	64.702963 
2239.000000	64.704418 
2238.000000	64.705753 
2237.000000	64.707446 
2236.000000	64.710140 
2235.000000	64.714360 
2234.000000	64.720511 
2233.000000	64.728832 
2232.000000	64.739298 
2231.000000	64.751648 
2230.000000	64.765310 
2229.000000	64.779472 
2228.000000	64.793014 
2227.000000	64.804720 
2226.000000	64.813375 
2225.000000	64.818143 
2224.000000	64.818668 
2223.000000	64.815092 
2222.000000	64.808082 
2221.000000	64.798808 
2220.000000	64.788532 
2219.000000	64.778494 
2218.000000	64.769625 
2217.000000	64.762663 
2216.000000	64.757871 
2215.000000	64.755392 
2214.000000	64.755225 
2213.000000	64.757490 
2212.000000	64.762330 
2211.000000	64.769840 
2210.000000	64.779996 
2209.000000	64.792537 
2208.000000	64.806771 
2207.000000	64.821648 
2206.000000	64.835786 
2205.000000	64.847755 
2204.000000	64.856100 
2203.000000	64.859795 
2202.000000	64.858365 
2201.000000	64.851999 
2200.000000	64.841413 
2199.000000	64.827942 
2198.000000	64.813351 
2197.000000	64.799499 
2196.000000	64.787817 
2195.000000	64.779639 
2194.000000	64.775252 
2193.000000	64.774322 
2192.000000	64.775609 
2191.000000	64.777159 
2190.000000	64.776825 
2189.000000	64.772605 
2188.000000	64.763665 
2187.000000	64.749956 
2186.000000	64.732980 
2185.000000	64.715313 
2184.000000	64.700102 
2183.000000	64.690518 
2182.000000	64.688611 
2181.000000	64.694929 
2180.000000	64.708137 
2179.000000	64.725279 
2178.000000	64.742279 
2177.000000	64.754843 
2176.000000	64.759445 
2175.000000	64.754056 
2174.000000	64.738607 
2173.000000	64.714932 
2172.000000	64.686346 
2171.000000	64.656925 
2170.000000	64.630722 
2169.000000	64.610958 
2168.000000	64.599823 
2167.000000	64.598107 
2166.000000	64.605426 
2165.000000	64.620471 
2164.000000	64.641356 
2163.000000	64.665913 
2162.000000	64.691853 
2161.000000	64.716935 
2160.000000	64.739131 
2159.000000	64.756727 
2158.000000	64.768457 
2157.000000	64.773654 
2156.000000	64.772462 
2155.000000	64.765834 
2154.000000	64.755392 
2153.000000	64.743161 
2152.000000	64.731359 
2151.000000	64.721846 
2150.000000	64.715790 
2149.000000	64.713597 
2148.000000	64.714932 
2147.000000	64.718747 
2146.000000	64.723896 
2145.000000	64.729118 
2144.000000	64.733648 
2143.000000	64.737129 
2142.000000	64.739537 
2141.000000	64.741182 
2140.000000	64.742255 
2139.000000	64.742970 
2138.000000	64.743399 
2137.000000	64.743542 
2136.000000	64.743304 
2135.000000	64.742970 
2134.000000	64.742898 
2133.000000	64.743781 
2132.000000	64.746117 
2131.000000	64.750242 
2130.000000	64.755773 
2129.000000	64.761900 
2128.000000	64.767050 
2127.000000	64.769506 
2126.000000	64.767479 
2125.000000	64.759778 
2124.000000	64.746189 
2123.000000	64.727616 
2122.000000	64.706015 
2121.000000	64.684224 
2120.000000	64.665269 
2119.000000	64.651870 
2118.000000	64.645814 
2117.000000	64.647579 
2116.000000	64.656233 
2115.000000	64.669728 
2114.000000	64.685273 
2113.000000	64.699959 
2112.000000	64.711332 
2111.000000	64.717960 
2110.000000	64.719343 
2109.000000	64.716291 
2108.000000	64.710116 
2107.000000	64.702701 
2106.000000	64.695906 
2105.000000	64.691185 
2104.000000	64.689517 
2103.000000	64.691090 
2102.000000	64.695715 
2101.000000	64.702677 
2100.000000	64.711189 
2099.000000	64.720177 
2098.000000	64.728736 
2097.000000	64.735889 
2096.000000	64.740967 
2095.000000	64.743518 
2094.000000	64.743423 
2093.000000	64.741063 
2092.000000	64.737200 
2091.000000	64.733004 
2090.000000	64.729785 
2089.000000	64.728927 
2088.000000	64.731526 
2087.000000	64.738154 
2086.000000	64.748549 
2085.000000	64.761734 
2084.000000	64.775991 
2083.000000	64.789009 
2082.000000	64.798426 
2081.000000	64.801883 
2080.000000	64.797902 
2079.000000	64.786076 
2078.000000	64.767336 
2077.000000	64.743924 
2076.000000	64.719104 
2075.000000	64.696717 
2074.000000	64.680504 
2073.000000	64.673423 
2072.000000	64.677095 
2071.000000	64.691472 
2070.000000	64.714646 
2069.000000	64.743280 
2068.000000	64.773154 
2067.000000	64.799690 
2066.000000	64.819073 
2065.000000	64.828610 
2064.000000	64.827251 
2063.000000	64.815783 
2062.000000	64.796423 
2061.000000	64.772319 
2060.000000	64.746975 
2059.000000	64.723396 
2058.000000	64.703583 
2057.000000	64.688420 
2056.000000	64.677619 
2055.000000	64.670038 
2054.000000	64.664220 
2053.000000	64.658737 
2052.000000	64.652800 
2051.000000	64.646315 
2050.000000	64.639663 
2049.000000	64.633750 
2048.000000	64.629292 
2047.000000	64.626765 
2046.000000	64.626073 
2045.000000	64.626812 
2044.000000	64.628171 
2043.000000	64.629530 
2042.000000	64.630722 
2041.000000	64.632153 
2040.000000	64.634585 
2039.000000	64.639019 
2038.000000	64.646315 
2037.000000	64.656901 
2036.000000	64.670276 
2035.000000	64.685201 
2034.000000	64.699530 
2033.000000	64.710736 
2032.000000	64.716196 
2031.000000	64.713859 
2030.000000	64.702868 
2029.000000	64.683580 
2028.000000	64.657902 
2027.000000	64.628815 
2026.000000	64.599967 
2025.000000	64.575028 
2024.000000	64.557075 
2023.000000	64.547824 
2022.000000	64.547681 
2021.000000	64.555740 
2020.000000	64.570188 
2019.000000	64.588618 
2018.000000	64.608764 
2017.000000	64.628815 
2016.000000	64.647889 
2015.000000	64.665555 
2014.000000	64.681959 
2013.000000	64.697313 
2012.000000	64.711809 
2011.000000	64.725112 
2010.000000	64.736890 
2009.000000	64.746499 
2008.000000	64.753603 
2007.000000	64.757943 
2006.000000	64.759659 
2005.000000	64.758944 
2004.000000	64.756107 
2003.000000	64.751243 
2002.000000	64.744329 
2001.000000	64.735007 
2000.000000	64.723062 
1999.000000	64.708399 
1998.000000	64.691329 
1997.000000	64.672493 
1996.000000	64.653015 
1995.000000	64.634060 
1994.000000	64.616894 
1993.000000	64.602398 
1992.000000	64.591002 
1991.000000	64.582657 
1990.000000	64.576888 
1989.000000	64.573001 
1988.000000	64.570212 
1987.000000	64.567971 
1986.000000	64.566087 
1985.000000	64.564538 
1984.000000	64.563393 
1983.000000	64.562797 
1982.000000	64.562845 
1981.000000	64.563465 
1980.000000	64.564490 
1979.000000	64.565753 
1978.000000	64.567208 
1977.000000	64.569044 
1976.000000	64.571380 
1975.000000	64.574646 
1974.000000	64.578866 
1973.000000	64.583992 
1972.000000	64.589381 
1971.000000	64.594125 
1970.000000	64.596748 
1969.000000	64.595961 
1968.000000	64.590620 
1967.000000	64.580225 
1966.000000	64.565062 
1965.000000	64.546227 
1964.000000	64.525580 
1963.000000	64.505100 
1962.000000	64.486765 
1961.000000	64.472103 
1960.000000	64.461898 
1959.000000	64.456176 
1958.000000	64.454269 
1957.000000	64.455199 
1956.000000	64.457917 
1955.000000	64.461636 
1954.000000	64.465999 
1953.000000	64.471173 
1952.000000	64.477562 
1951.000000	64.485764 
1950.000000	64.496350 
1949.000000	64.509463 
1948.000000	64.524936 
1947.000000	64.542126 
1946.000000	64.560055 
1945.000000	64.577507 
1944.000000	64.593172 
1943.000000	64.605855 
1942.000000	64.614582 
1941.000000	64.618897 
1940.000000	64.618706 
1939.000000	64.614534 
1938.000000	64.607501 
1937.000000	64.599013 
1936.000000	64.590525 
1935.000000	64.583301 
1934.000000	64.578390 
1933.000000	64.576268 
1932.000000	64.576673 
1931.000000	64.578962 
1930.000000	64.582180 
1929.000000	64.585399 
1928.000000	64.587688 
1927.000000	64.588546 
1926.000000	64.587807 
1925.000000	64.585614 
1924.000000	64.582276 
1923.000000	64.577984 
1922.000000	64.572882 
1921.000000	64.567065 
1920.000000	64.560675 
1919.000000	64.553809 
1918.000000	64.546895 
1917.000000	64.540696 
1916.000000	64.536094 
1915.000000	64.534091 
1914.000000	64.535355 
1913.000000	64.540362 
1912.000000	64.548993 
1911.000000	64.560484 
1910.000000	64.573574 
1909.000000	64.586806 
1908.000000	64.598679 
1907.000000	64.607977 
1906.000000	64.613866 
1905.000000	64.616131 
1904.000000	64.614868 
1903.000000	64.610600 
1902.000000	64.604043 
1901.000000	64.595866 
1900.000000	64.586830 
1899.000000	64.577531 
1898.000000	64.568471 
1897.000000	64.559984 
1896.000000	64.552235 
1895.000000	64.545321 
1894.000000	64.539313 
1893.000000	64.534163 
1892.000000	64.529728 
1891.000000	64.525794 
1890.000000	64.522099 
1889.000000	64.518356 
1888.000000	64.514374 
1887.000000	64.510154 
1886.000000	64.505910 
1885.000000	64.502000 
1884.000000	64.498972 
1883.000000	64.497232 
1882.000000	64.496898 
1881.000000	64.497566 
1880.000000	64.498710 
1879.000000	64.499497 
1878.000000	64.499258 
1877.000000	64.497756 
1876.000000	64.495229 
1875.000000	64.492511 
1874.000000	64.490890 
1873.000000	64.491796 
1872.000000	64.496111 
1871.000000	64.504003 
1870.000000	64.514541 
1869.000000	64.526033 
1868.000000	64.536237 
1867.000000	64.542913 
1866.000000	64.544582 
1865.000000	64.540863 
1864.000000	64.532518 
1863.000000	64.521336 
1862.000000	64.509677 
1861.000000	64.499783 
1860.000000	64.493513 
1859.000000	64.491820 
1858.000000	64.494776 
1857.000000	64.501667 
1856.000000	64.511251 
1855.000000	64.522123 
1854.000000	64.532852 
1853.000000	64.542317 
1852.000000	64.549589 
1851.000000	64.554071 
1850.000000	64.555287 
1849.000000	64.553046 
1848.000000	64.547443 
1847.000000	64.539051 
1846.000000	64.528775 
1845.000000	64.518022 
1844.000000	64.508390 
1843.000000	64.501523 
1842.000000	64.498519 
1841.000000	64.499926 
1840.000000	64.505410 
1839.000000	64.513874 
1838.000000	64.523673 
1837.000000	64.532804 
1836.000000	64.539599 
1835.000000	64.542889 
1834.000000	64.542150 
1833.000000	64.537715 
1832.000000	64.530420 
1831.000000	64.521431 
1830.000000	64.511990 
1829.000000	64.503049 
1828.000000	64.494943 
1827.000000	64.487743 
1826.000000	64.481258 
1825.000000	64.475202 
1824.000000	64.469504 
1823.000000	64.464259 
1822.000000	64.459943 
1821.000000	64.457225 
1820.000000	64.456653 
1819.000000	64.458584 
1818.000000	64.462804 
1817.000000	64.468479 
1816.000000	64.474391 
1815.000000	64.478945 
1814.000000	64.480710 
1813.000000	64.478540 
1812.000000	64.472007 
1811.000000	64.461612 
1810.000000	64.448666 
1809.000000	64.434981 
1808.000000	64.422607 
1807.000000	64.413452 
1806.000000	64.408874 
1805.000000	64.409446 
1804.000000	64.415025 
1803.000000	64.424777 
1802.000000	64.437341 
1801.000000	64.451432 
1800.000000	64.466047 
1799.000000	64.480400 
1798.000000	64.494156 
1797.000000	64.507269 
1796.000000	64.519667 
1795.000000	64.531230 
1794.000000	64.541554 
1793.000000	64.549946 
1792.000000	64.555597 
1791.000000	64.557671 
1790.000000	64.555621 
1789.000000	64.549207 
1788.000000	64.538741 
1787.000000	64.524960 
1786.000000	64.509248 
1785.000000	64.493179 
1784.000000	64.478278 
1783.000000	64.465928 
1782.000000	64.457178 
1781.000000	64.452600 
1780.000000	64.452147 
1779.000000	64.455223 
1778.000000	64.460682 
1777.000000	64.467048 
1776.000000	64.472699 
1775.000000	64.476275 
1774.000000	64.476585 
1773.000000	64.473199 
1772.000000	64.466142 
1771.000000	64.456105 
1770.000000	64.444160 
1769.000000	64.431548 
1768.000000	64.419269 
1767.000000	64.408302 
1766.000000	64.399099 
1765.000000	64.391779 
1764.000000	64.386081 
1763.000000	64.381456 
1762.000000	64.377284 
1761.000000	64.372992 
1760.000000	64.368057 
1759.000000	64.362001 
1758.000000	64.354634 
1757.000000	64.345860 
1756.000000	64.335823 
1755.000000	64.324808 
1754.000000	64.313435 
1753.000000	64.302444 
1752.000000	64.292812 
1751.000000	64.285421 
1750.000000	64.281201 
1749.000000	64.280748 
1748.000000	64.284443 
1747.000000	64.292120 
1746.000000	64.303064 
1745.000000	64.316201 
1744.000000	64.330172 
1743.000000	64.343476 
1742.000000	64.354681 
1741.000000	64.362645 
1740.000000	64.366674 
1739.000000	64.366459 
1738.000000	64.362215 
1737.000000	64.354658 
1736.000000	64.345026 
1735.000000	64.334583 
1734.000000	64.324855 
1733.000000	64.316821 
1732.000000	64.311170 
1731.000000	64.307880 
1730.000000	64.306426 
1729.000000	64.305877 
1728.000000	64.305377 
1727.000000	64.304447 
1726.000000	64.302897 
1725.000000	64.301490 
1724.000000	64.301228 
1723.000000	64.303493 
1722.000000	64.309430 
1721.000000	64.319586 
1720.000000	64.333510 
1719.000000	64.350056 
1718.000000	64.367341 
1717.000000	64.383316 
1716.000000	64.396166 
1715.000000	64.404845 
1714.000000	64.409065 
1713.000000	64.409351 
1712.000000	64.406633 
1711.000000	64.401960 
1710.000000	64.396071 
1709.000000	64.389371 
1708.000000	64.381790 
1707.000000	64.373111 
1706.000000	64.362883 
1705.000000	64.350676 
1704.000000	64.336228 
1703.000000	64.319515 
1702.000000	64.300751 
1701.000000	64.280509 
1700.000000	64.259696 
1699.000000	64.239335 
1698.000000	64.220595 
1697.000000	64.204645 
1696.000000	64.192676 
1695.000000	64.185380 
1694.000000	64.183211 
1693.000000	64.186096 
1692.000000	64.193606 
1691.000000	64.204692 
1690.000000	64.218163 
1689.000000	64.232754 
1688.000000	64.247274 
1687.000000	64.260840 
1686.000000	64.272880 
1685.000000	64.283132 
1684.000000	64.291715 
1683.000000	64.298939 
1682.000000	64.305377 
1681.000000	64.311575 
1680.000000	64.318251 
1679.000000	64.325809 
1678.000000	64.334297 
1677.000000	64.343094 
1676.000000	64.351367 
1675.000000	64.358043 
1674.000000	64.362072 
1673.000000	64.362716 
1672.000000	64.359831 
1671.000000	64.353775 
1670.000000	64.345431 
1669.000000	64.335918 
1668.000000	64.326119 
1667.000000	64.316773 
1666.000000	64.308333 
1665.000000	64.300942 
1664.000000	64.294552 
1663.000000	64.289379 
1662.000000	64.285993 
1661.000000	64.285302 
1660.000000	64.288234 
1659.000000	64.295673 
1658.000000	64.308238 
1657.000000	64.325571 
1656.000000	64.346647 
1655.000000	64.369893 
1654.000000	64.393544 
1653.000000	64.416003 
1652.000000	64.436006 
1651.000000	64.452981 
1650.000000	64.466738 
1649.000000	64.477586 
1648.000000	64.485502 
1647.000000	64.490389 
1646.000000	64.491581 
1645.000000	64.488267 
1644.000000	64.479565 
1643.000000	64.464831 
1642.000000	64.444065 
1641.000000	64.418315 
1640.000000	64.389443 
1639.000000	64.360022 
1638.000000	64.332723 
1637.000000	64.309978 
1636.000000	64.293336 
1635.000000	64.283108 
1634.000000	64.278388 
1633.000000	64.277362 
1632.000000	64.277672 
1631.000000	64.277052 
1630.000000	64.273738 
1629.000000	64.267015 
1628.000000	64.257216 
1627.000000	64.245796 
1626.000000	64.234399 
1625.000000	64.225053 
1624.000000	64.219307 
1623.000000	64.218020 
1622.000000	64.221286 
1621.000000	64.228415 
1620.000000	64.238381 
1619.000000	64.250040 
1618.000000	64.262413 
1617.000000	64.274764 
1616.000000	64.286684 
1615.000000	64.298105 
1614.000000	64.308929 
1613.000000	64.319109 
1612.000000	64.328598 
1611.000000	64.337348 
1610.000000	64.345312 
1609.000000	64.352488 
1608.000000	64.359021 
1607.000000	64.365077 
1606.000000	64.370560 
1605.000000	64.374876 
1604.000000	64.376878 
1603.000000	64.374971 
1602.000000	64.367604 
1601.000000	64.353609 
1600.000000	64.332699 
1599.000000	64.305782 
1598.000000	64.274883 
1597.000000	64.242935 
1596.000000	64.213228 
1595.000000	64.188694 
1594.000000	64.171457 
1593.000000	64.162445 
1592.000000	64.161205 
1591.000000	64.166259 
1590.000000	64.175343 
1589.000000	64.186000 
1588.000000	64.195775 
1587.000000	64.202594 
1586.000000	64.205145 
1585.000000	64.202594 
1584.000000	64.194989 
1583.000000	64.182639 
1582.000000	64.166784 
1581.000000	64.149212 
1580.000000	64.132118 
1579.000000	64.117884 
1578.000000	64.108514 
1577.000000	64.105343 
1576.000000	64.108705 
1575.000000	64.117717 
1574.000000	64.130330 
1573.000000	64.144062 
1572.000000	64.156079 
1571.000000	64.164185 
1570.000000	64.166808 
1569.000000	64.163589 
1568.000000	64.155220 
1567.000000	64.143371 
1566.000000	64.130139 
1565.000000	64.117741 
1564.000000	64.108252 
1563.000000	64.103102 
1562.000000	64.102816 
1561.000000	64.107012 
1560.000000	64.114642 
1559.000000	64.124369 
1558.000000	64.134669 
1557.000000	64.144158 
1556.000000	64.151787 
1555.000000	64.156961 
1554.000000	64.159584 
1553.000000	64.160013 
1552.000000	64.158821 
1551.000000	64.156770 
1550.000000	64.154648 
1549.000000	64.153218 
1548.000000	64.153194 
1547.000000	64.155077 
1546.000000	64.159059 
1545.000000	64.165163 
1544.000000	64.172983 
1543.000000	64.181971 
1542.000000	64.191317 
1541.000000	64.200067 
1540.000000	64.207410 
1539.000000	64.212870 
1538.000000	64.216423 
1537.000000	64.218473 
1536.000000	64.219546 
1535.000000	64.220285 
1534.000000	64.221024 
1533.000000	64.221763 
1532.000000	64.222145 
1531.000000	64.221620 
1530.000000	64.219641 
1529.000000	64.215922 
1528.000000	64.210700 
1527.000000	64.204668 
1526.000000	64.199090 
1525.000000	64.195203 
1524.000000	64.194154 
1523.000000	64.196681 
1522.000000	64.203023 
1521.000000	64.212656 
1520.000000	64.224505 
1519.000000	64.237070 
1518.000000	64.248728 
1517.000000	64.258027 
1516.000000	64.263844 
1515.000000	64.265537 
1514.000000	64.263057 
1513.000000	64.257049 
1512.000000	64.248442 
1511.000000	64.238572 
1510.000000	64.228630 
1509.000000	64.219570 
1508.000000	64.212083 
1507.000000	64.206194 
1506.000000	64.201498 
1505.000000	64.197206 
1504.000000	64.192271 
1503.000000	64.185881 
1502.000000	64.177560 
1501.000000	64.167571 
1500.000000	64.156985 
1499.000000	64.147329 
1498.000000	64.140391 
1497.000000	64.137554 
1496.000000	64.139819 
1495.000000	64.147138 
1494.000000	64.158797 
1493.000000	64.173531 
1492.000000	64.189958 
1491.000000	64.207148 
1490.000000	64.224314 
1489.000000	64.241147 
1488.000000	64.257192 
1487.000000	64.271640 
1486.000000	64.283251 
1485.000000	64.290475 
1484.000000	64.291524 
1483.000000	64.285016 
1482.000000	64.270639 
1481.000000	64.249324 
1480.000000	64.223384 
1479.000000	64.196276 
1478.000000	64.171814 
1477.000000	64.153409 
1476.000000	64.143085 
1475.000000	64.141106 
1474.000000	64.145755 
1473.000000	64.153981 
1472.000000	64.161920 
1471.000000	64.166140 
1470.000000	64.164352 
1469.000000	64.156198 
1468.000000	64.143204 
1467.000000	64.128470 
1466.000000	64.115715 
1465.000000	64.108467 
1464.000000	64.109158 
1463.000000	64.118528 
1462.000000	64.135456 
1461.000000	64.157295 
1460.000000	64.180517 
1459.000000	64.201426 
1458.000000	64.216995 
1457.000000	64.225268 
1456.000000	64.225554 
1455.000000	64.218378 
1454.000000	64.204955 
1453.000000	64.186859 
1452.000000	64.165687 
1451.000000	64.142799 
1450.000000	64.119267 
1449.000000	64.095950 
1448.000000	64.073586 
1447.000000	64.053034 
1446.000000	64.035344 
1445.000000	64.021468 
1444.000000	64.012217 
1443.000000	64.008164 
1442.000000	64.009523 
1441.000000	64.015960 
1440.000000	64.026784 
1439.000000	64.040970 
1438.000000	64.057564 
1437.000000	64.075422 
1436.000000	64.093589 
1435.000000	64.111065 
1434.000000	64.127111 
1433.000000	64.140987 
1432.000000	64.152455 
1431.000000	64.161467 
1430.000000	64.168524 
1429.000000	64.174652 
1428.000000	64.180850 
1427.000000	64.188337 
1426.000000	64.197611 
1425.000000	64.208531 
1424.000000	64.219832 
1423.000000	64.229583 
1422.000000	64.235115 
1421.000000	64.234042 
1420.000000	64.224672 
1419.000000	64.206695 
1418.000000	64.181423 
1417.000000	64.151692 
1416.000000	64.121198 
1415.000000	64.093875 
1414.000000	64.073014 
1413.000000	64.060592 
1412.000000	64.057064 
1411.000000	64.060926 
1410.000000	64.069676 
1409.000000	64.080166 
1408.000000	64.089322 
1407.000000	64.094853 
1406.000000	64.095544 
1405.000000	64.091372 
1404.000000	64.083242 
1403.000000	64.072775 
1402.000000	64.061689 
1401.000000	64.051675 
1400.000000	64.043998 
1399.000000	64.039301 
1398.000000	64.037632 
1397.000000	64.038491 
1396.000000	64.041090 
1395.000000	64.044284 
1394.000000	64.046812 
1393.000000	64.047813 
1392.000000	64.046788 
1391.000000	64.043760 
1390.000000	64.039325 
1389.000000	64.034414 
1388.000000	64.030313 
1387.000000	64.028215 
1386.000000	64.028954 
1385.000000	64.032864 
1384.000000	64.039850 
1383.000000	64.049363 
1382.000000	64.060902 
1381.000000	64.074134 
1380.000000	64.089107 
1379.000000	64.106249 
1378.000000	64.125919 
1377.000000	64.148378 
1376.000000	64.173078 
1375.000000	64.198732 
1374.000000	64.223074 
1373.000000	64.243555 
1372.000000	64.257526 
1371.000000	64.263248 
1370.000000	64.260053 
1369.000000	64.248418 
1368.000000	64.229989 
1367.000000	64.207315 
1366.000000	64.183020 
1365.000000	64.159250 
1364.000000	64.137339 
1363.000000	64.117860 
1362.000000	64.100646 
1361.000000	64.085054 
1360.000000	64.070367 
1359.000000	64.056324 
1358.000000	64.042901 
1357.000000	64.030313 
1356.000000	64.018869 
1355.000000	64.008665 
1354.000000	63.999176 
1353.000000	63.989686 
1352.000000	63.979148 
1351.000000	63.966822 
1350.000000	63.952350 
1349.000000	63.936424 
1348.000000	63.920307 
1347.000000	63.906121 
1346.000000	63.896250 
1345.000000	63.893055 
1344.000000	63.898015 
1343.000000	63.911700 
1342.000000	63.933610 
1341.000000	63.962197 
1340.000000	63.995051 
1339.000000	64.029264 
1338.000000	64.061927 
1337.000000	64.090371 
1336.000000	64.112615 
1335.000000	64.127326 
1334.000000	64.133977 
1333.000000	64.132952 
1332.000000	64.125466 
1331.000000	64.113450 
1330.000000	64.099001 
1329.000000	64.084768 
1328.000000	64.072871 
1327.000000	64.064884 
1326.000000	64.061498 
1325.000000	64.062571 
1324.000000	64.067220 
1323.000000	64.074110 
1322.000000	64.081692 
1321.000000	64.088749 
1320.000000	64.094257 
1319.000000	64.097595 
1318.000000	64.098525 
1317.000000	64.097023 
1316.000000	64.093255 
1315.000000	64.087557 
1314.000000	64.080595 
1313.000000	64.073228 
1312.000000	64.066600 
1311.000000	64.061856 
1310.000000	64.059996 
1309.000000	64.061474 
1308.000000	64.066076 
1307.000000	64.072990 
1306.000000	64.080691 
1305.000000	64.087343 
1304.000000	64.091444 
1303.000000	64.091897 
1302.000000	64.088582 
1301.000000	64.081883 
1300.000000	64.072871 
1299.000000	64.062666 
1298.000000	64.052104 
1297.000000	64.041519 
1296.000000	64.030575 
1295.000000	64.018487 
1294.000000	64.004611 
1293.000000	63.988780 
1292.000000	63.971614 
1291.000000	63.954591 
1290.000000	63.939738 
1289.000000	63.929247 
1288.000000	63.924670 
1287.000000	63.926720 
1286.000000	63.934659 
1285.000000	63.946866 
1284.000000	63.961124 
1283.000000	63.975095 
1282.000000	63.986968 
1281.000000	63.995623 
1280.000000	64.000797 
1279.000000	64.002633 
1278.000000	64.001417 
1277.000000	63.997459 
1276.000000	63.990879 
1275.000000	63.981842 
1274.000000	63.970494 
1273.000000	63.957667 
1272.000000	63.944745 
1271.000000	63.933587 
1270.000000	63.926315 
1269.000000	63.924860 
1268.000000	63.930201 
1267.000000	63.942289 
1266.000000	63.959670 
1265.000000	63.979697 
1264.000000	63.999319 
1263.000000	64.015483 
1262.000000	64.025926 
1261.000000	64.029574 
1260.000000	64.026641 
1259.000000	64.018464 
1258.000000	64.006900 
1257.000000	63.993883 
1256.000000	63.980770 
1255.000000	63.968372 
1254.000000	63.956999 
1253.000000	63.946461 
1252.000000	63.936710 
1251.000000	63.927769 
1250.000000	63.920235 
1249.000000	63.914799 
1248.000000	63.911986 
1247.000000	63.912010 
1246.000000	63.914227 
1245.000000	63.917374 
1244.000000	63.919782 
1243.000000	63.919758 
1242.000000	63.916110 
1241.000000	63.908600 
1240.000000	63.898158 
1239.000000	63.886713 
1238.000000	63.876748 
1237.000000	63.870620 
1236.000000	63.869929 
1235.000000	63.875150 
1234.000000	63.885188 
1233.000000	63.897848 
1232.000000	63.910293 
1231.000000	63.919711 
1230.000000	63.924098 
1229.000000	63.922619 
1228.000000	63.915824 
1227.000000	63.905358 
1226.000000	63.893651 
1225.000000	63.883113 
1224.000000	63.875555 
1223.000000	63.871622 
1222.000000	63.870787 
1221.000000	63.871693 
1220.000000	63.872623 
1219.000000	63.871979 
1218.000000	63.869118 
1217.000000	63.864326 
1216.000000	63.859057 
1215.000000	63.855051 
1214.000000	63.854408 
1213.000000	63.858461 
1212.000000	63.867878 
1211.000000	63.882231 
1210.000000	63.900327 
1209.000000	63.920450 
1208.000000	63.940715 
1207.000000	63.959670 
1206.000000	63.976097 
1205.000000	63.989353 
1204.000000	63.998842 
1203.000000	64.003968 
1202.000000	64.003968 
1201.000000	63.998150 
1200.000000	63.986206 
1199.000000	63.968563 
1198.000000	63.946604 
1197.000000	63.922667 
1196.000000	63.899683 
1195.000000	63.880825 
1194.000000	63.868665 
1193.000000	63.864874 
1192.000000	63.869810 
1191.000000	63.882637 
1190.000000	63.901448 
1189.000000	63.923549 
1188.000000	63.946104 
1187.000000	63.966345 
1186.000000	63.981842 
1185.000000	63.990712 
1184.000000	63.991761 
1183.000000	63.984584 
1182.000000	63.969516 
1181.000000	63.947939 
1180.000000	63.922238 
1179.000000	63.895297 
1178.000000	63.870453 
1177.000000	63.850593 
1176.000000	63.837766 
1175.000000	63.832592 
1174.000000	63.834166 
1173.000000	63.840460 
1172.000000	63.848853 
1171.000000	63.856792 
1170.000000	63.862419 
1169.000000	63.864517 
1168.000000	63.862729 
1167.000000	63.857293 
1166.000000	63.848972 
1165.000000	63.838577 
1164.000000	63.826990 
1163.000000	63.815283 
1162.000000	63.804364 
1161.000000	63.795018 
1160.000000	63.787794 
1159.000000	63.782954 
1158.000000	63.780593 
1157.000000	63.780784 
1156.000000	63.783240 
1155.000000	63.787531 
1154.000000	63.792538 
1153.000000	63.796710 
1152.000000	63.798069 
1151.000000	63.794708 
1150.000000	63.785481 
1149.000000	63.770532 
1148.000000	63.751411 
1147.000000	63.730835 
1146.000000	63.712048 
1145.000000	63.698053 
1144.000000	63.690805 
1143.000000	63.690996 
1142.000000	63.698005 
1141.000000	63.710331 
1140.000000	63.726162 
1139.000000	63.743925 
1138.000000	63.761973 
1137.000000	63.778948 
1136.000000	63.793683 
1135.000000	63.805031 
1134.000000	63.812017 
1133.000000	63.814091 
1132.000000	63.811302 
1131.000000	63.804292 
1130.000000	63.794445 
1129.000000	63.783526 
1128.000000	63.773655 
1127.000000	63.766622 
1126.000000	63.763761 
1125.000000	63.765335 
1124.000000	63.770627 
1123.000000	63.777780 
1122.000000	63.784384 
1121.000000	63.787984 
1120.000000	63.786554 
1119.000000	63.779401 
1118.000000	63.767385 
1117.000000	63.753032 
1116.000000	63.740086 
1115.000000	63.732886 
1114.000000	63.735127 
1113.000000	63.749527 
1112.000000	63.776612 
1111.000000	63.814592 
1110.000000	63.859319 
1109.000000	63.905239 
1108.000000	63.946318 
1107.000000	63.977193 
1106.000000	63.994407 
1105.000000	63.996624 
1104.000000	63.985133 
1103.000000	63.963365 
1102.000000	63.935708 
1101.000000	63.906979 
1100.000000	63.880801 
1099.000000	63.859224 
1098.000000	63.842415 
1097.000000	63.828969 
1096.000000	63.816571 
1095.000000	63.803052 
1094.000000	63.787078 
1093.000000	63.769006 
1092.000000	63.750624 
1091.000000	63.735270 
1090.000000	63.726615 
1089.000000	63.727951 
1088.000000	63.741540 
1087.000000	63.767886 
1086.000000	63.805532 
1085.000000	63.850975 
1084.000000	63.899278 
1083.000000	63.944816 
1082.000000	63.982248 
1081.000000	64.007306 
1080.000000	64.017629 
1079.000000	64.012789 
1078.000000	63.994455 
1077.000000	63.965749 
1076.000000	63.930797 
1075.000000	63.893556 
1074.000000	63.857483 
1073.000000	63.825130 
1072.000000	63.798046 
1071.000000	63.776946 
1070.000000	63.762140 
1069.000000	63.753437 
1068.000000	63.750433 
1067.000000	63.752317 
1066.000000	63.758039 
1065.000000	63.765859 
1064.000000	63.773751 
1063.000000	63.779211 
1062.000000	63.779973 
1061.000000	63.774394 
1060.000000	63.761973 
1059.000000	63.743591 
1058.000000	63.721561 
1057.000000	63.699078 
1056.000000	63.679742 
1055.000000	63.666701 
1054.000000	63.662147 
1053.000000	63.666939 
1052.000000	63.680195 
1051.000000	63.699841 
1050.000000	63.723015 
1049.000000	63.746762 
1048.000000	63.768720 
1047.000000	63.787317 
1046.000000	63.801884 
1045.000000	63.812398 
1044.000000	63.819193 
1043.000000	63.822984 
1042.000000	63.824057 
1041.000000	63.822197 
1040.000000	63.816928 
1039.000000	63.807606 
1038.000000	63.793396 
1037.000000	63.773632 
1036.000000	63.748073 
1035.000000	63.717365 
1034.000000	63.683319 
1033.000000	63.648939 
1032.000000	63.617777 
1031.000000	63.593745 
1030.000000	63.580155 
1029.000000	63.579177 
1028.000000	63.590931 
1027.000000	63.613843 
1026.000000	63.644433 
1025.000000	63.678646 
1024.000000	63.711977 
1023.000000	63.741159 
1022.000000	63.764214 
1021.000000	63.781189 
1020.000000	63.793516 
1019.000000	63.803863 
1018.000000	63.814830 
1017.000000	63.828516 
1016.000000	63.845872 
1015.000000	63.866472 
1014.000000	63.888835 
1013.000000	63.910841 
1012.000000	63.930273 
1011.000000	63.945126 
1010.000000	63.953781 
1009.000000	63.955283 
1008.000000	63.949346 
1007.000000	63.936495 
1006.000000	63.917660 
1005.000000	63.894534 
1004.000000	63.869023 
1003.000000	63.843345 
1002.000000	63.819527 
1001.000000	63.799142 
1000.000000	63.783073 
999.000000	 63.771367 
998.000000	 63.763546 
997.000000	 63.758349 
996.000000	 63.754773 
995.000000	 63.752102 
994.000000	 63.750624 
993.000000	 63.750982 
992.000000	 63.754653 
991.000000	 63.763189 
990.000000	 63.777685 
989.000000	 63.798213 
988.000000	 63.823938 
987.000000	 63.852882 
986.000000	 63.882589 
985.000000	 63.910317 
984.000000	 63.933587 
983.000000	 63.950514 
982.000000	 63.960099 
981.000000	 63.962078 
980.000000	 63.957071 
979.000000	 63.946104 
978.000000	 63.930678 
977.000000	 63.911986 
976.000000	 63.890981 
975.000000	 63.867998 
974.000000	 63.843417 
973.000000	 63.817262 
972.000000	 63.789701 
971.000000	 63.761377 
970.000000	 63.733339 
969.000000	 63.707256 
968.000000	 63.685011 
967.000000	 63.668537 
966.000000	 63.659167 
965.000000	 63.657498 
964.000000	 63.662958 
963.000000	 63.673925 
962.000000	 63.687968 
961.000000	 63.702321 
960.000000	 63.714337 
959.000000	 63.722205 
958.000000	 63.725161 
957.000000	 63.723182 
956.000000	 63.717079 
955.000000	 63.708019 
954.000000	 63.697338 
953.000000	 63.686275 
952.000000	 63.675808 
951.000000	 63.666796 
950.000000	 63.659834 
949.000000	 63.655304 
948.000000	 63.653278 
947.000000	 63.653516 
946.000000	 63.655567 
945.000000	 63.658666 
944.000000	 63.662004 
943.000000	 63.664746 
942.000000	 63.666462 
941.000000	 63.666749 
940.000000	 63.665747 
939.000000	 63.663840 
938.000000	 63.661789 
937.000000	 63.660550 
936.000000	 63.661170 
935.000000	 63.664531 
934.000000	 63.671207 
933.000000	 63.681221 
932.000000	 63.694214 
931.000000	 63.709330 
930.000000	 63.725709 
929.000000	 63.742637 
928.000000	 63.759565 
927.000000	 63.776278 
926.000000	 63.792634 
925.000000	 63.808584 
924.000000	 63.824081 
923.000000	 63.838601 
922.000000	 63.851284 
921.000000	 63.860940 
920.000000	 63.866424 
919.000000	 63.866782 
918.000000	 63.861536 
917.000000	 63.850641 
916.000000	 63.834810 
915.000000	 63.815045 
914.000000	 63.792562 
913.000000	 63.768625 
912.000000	 63.744449 
911.000000	 63.721156 
910.000000	 63.699936 
909.000000	 63.681960 
908.000000	 63.668465 
907.000000	 63.660264 
906.000000	 63.657402 
905.000000	 63.658976 
904.000000	 63.663196 
903.000000	 63.668012 
902.000000	 63.671422 
901.000000	 63.672065 
900.000000	 63.669633 
899.000000	 63.665127 
898.000000	 63.660621 
897.000000	 63.658428 
896.000000	 63.660526 
895.000000	 63.668060 
894.000000	 63.680720 
893.000000	 63.696789 
892.000000	 63.713717 
891.000000	 63.728547 
890.000000	 63.738870 
889.000000	 63.743329 
888.000000	 63.742256 
887.000000	 63.737511 
886.000000	 63.732171 
885.000000	 63.729548 
884.000000	 63.732695 
883.000000	 63.743734 
882.000000	 63.763284 
881.000000	 63.790416 
880.000000	 63.822460 
879.000000	 63.855671 
878.000000	 63.885569 
877.000000	 63.908076 
876.000000	 63.919758 
875.000000	 63.918495 
874.000000	 63.904070 
873.000000	 63.878083 
872.000000	 63.843750 
871.000000	 63.805341 
870.000000	 63.767623 
869.000000	 63.735246 
868.000000	 63.712167 
867.000000	 63.700795 
866.000000	 63.701915 
865.000000	 63.714170 
864.000000	 63.734483 
863.000000	 63.758277 
862.000000	 63.780188 
861.000000	 63.794970 
860.000000	 63.798522 
859.000000	 63.788795 
858.000000	 63.765859 
857.000000	 63.732194 
856.000000	 63.692021 
855.000000	 63.650798 
854.000000	 63.613986 
853.000000	 63.586378 
852.000000	 63.571357 
851.000000	 63.570570 
850.000000	 63.583803 
849.000000	 63.609385 
848.000000	 63.644599 
847.000000	 63.686203 
846.000000	 63.730621 
845.000000	 63.774347 
844.000000	 63.814187 
843.000000	 63.847160 
842.000000	 63.870811 
841.000000	 63.883328 
840.000000	 63.883566 
839.000000	 63.871908 
838.000000	 63.849782 
837.000000	 63.819599 
836.000000	 63.784790 
835.000000	 63.749408 
834.000000	 63.717603 
833.000000	 63.693547 
832.000000	 63.680362 
831.000000	 63.680028 
830.000000	 63.692402 
829.000000	 63.715362 
828.000000	 63.744759 
827.000000	 63.775205 
826.000000	 63.801097 
825.000000	 63.817930 
824.000000	 63.823318 
823.000000	 63.817334 
822.000000	 63.802146 
821.000000	 63.781619 
820.000000	 63.759970 
819.000000	 63.740897 
818.000000	 63.727211 
817.000000	 63.720107 
816.000000	 63.719582 
815.000000	 63.724470 
814.000000	 63.733243 
813.000000	 63.743972 
812.000000	 63.755202 
811.000000	 63.765501 
810.000000	 63.773941 
809.000000	 63.779830 
808.000000	 63.782572 
807.000000	 63.781714 
806.000000	 63.776922 
805.000000	 63.768196 
804.000000	 63.756108 
803.000000	 63.741660 
802.000000	 63.726258 
801.000000	 63.711333 
800.000000	 63.698339 
799.000000	 63.687992 
798.000000	 63.680315 
797.000000	 63.674354 
796.000000	 63.668489 
795.000000	 63.660740 
794.000000	 63.649439 
793.000000	 63.633680 
792.000000	 63.613605 
791.000000	 63.590669 
790.000000	 63.567614 
789.000000	 63.547873 
788.000000	 63.534808 
787.000000	 63.530874 
786.000000	 63.537216 
785.000000	 63.553118 
784.000000	 63.576364 
783.000000	 63.603806 
782.000000	 63.631725 
781.000000	 63.656949 
780.000000	 63.677072 
779.000000	 63.691043 
778.000000	 63.698959 
777.000000	 63.701844 
776.000000	 63.701152 
775.000000	 63.698458 
774.000000	 63.694882 
773.000000	 63.691115 
772.000000	 63.686990 
771.000000	 63.681960 
770.000000	 63.675355 
769.000000	 63.666725 
768.000000	 63.656568 
767.000000	 63.646316 
766.000000	 63.638186 
765.000000	 63.634967 
764.000000	 63.639354 
763.000000	 63.653326 
762.000000	 63.677334 
761.000000	 63.709878 
760.000000	 63.747811 
759.000000	 63.786578 
758.000000	 63.821196 
757.000000	 63.847351 
756.000000	 63.862156 
755.000000	 63.864636 
754.000000	 63.856124 
753.000000	 63.839626 
752.000000	 63.819026 
751.000000	 63.798189 
750.000000	 63.779997 
749.000000	 63.766121 
748.000000	 63.757061 
747.000000	 63.752222 
746.000000	 63.750314 
745.000000	 63.749861 
744.000000	 63.749694 
743.000000	 63.748764 
742.000000	 63.746166 
741.000000	 63.741016 
740.000000	 63.732481 
739.000000	 63.719606 
738.000000	 63.701796 
737.000000	 63.678932 
736.000000	 63.651847 
735.000000	 63.622355 
734.000000	 63.593220 
733.000000	 63.567972 
732.000000	 63.550233 
731.000000	 63.543009 
730.000000	 63.547801 
729.000000	 63.564348 
728.000000	 63.590097 
727.000000	 63.620877 
726.000000	 63.651132 
725.000000	 63.675189 
724.000000	 63.687801 
723.000000	 63.685369 
722.000000	 63.666057 
721.000000	 63.630008 
720.000000	 63.579416 
719.000000	 63.518166 
718.000000	 63.451480 
717.000000	 63.384962 
716.000000	 63.324165 
715.000000	 63.273978 
714.000000	 63.237762 
713.000000	 63.217091 
712.000000	 63.211274 
711.000000	 63.217806 
710.000000	 63.232207 
709.000000	 63.249468 
708.000000	 63.264679 
707.000000	 63.274550 
706.000000	 63.277935 
705.000000	 63.276314 
704.000000	 63.272953 
703.000000	 63.272309 
702.000000	 63.278341 
701.000000	 63.293981 
700.000000	 63.319611 
699.000000	 63.353705 
698.000000	 63.393497 
697.000000	 63.435554 
696.000000	 63.477134 
695.000000	 63.515996 
694.000000	 63.551044 
693.000000	 63.581371 
692.000000	 63.606357 
691.000000	 63.624525 
690.000000	 63.633656 
689.000000	 63.631796 
688.000000	 63.618135 
687.000000	 63.593769 
686.000000	 63.562035 
685.000000	 63.529038 
684.000000	 63.502049 
683.000000	 63.487768 
682.000000	 63.490414 
681.000000	 63.510417 
680.000000	 63.543868 
679.000000	 63.583564 
678.000000	 63.620138 
677.000000	 63.644313 
676.000000	 63.649034 
675.000000	 63.631367 
674.000000	 63.592624 
673.000000	 63.537287 
672.000000	 63.472485 
671.000000	 63.405370 
670.000000	 63.342952 
669.000000	 63.290691 
668.000000	 63.252902 
667.000000	 63.232350 
666.000000	 63.231205 
665.000000	 63.250899 
664.000000	 63.291883 
663.000000	 63.353466 
662.000000	 63.432312 
661.000000	 63.521909 
660.000000	 63.613820 
659.000000	 63.698387 
658.000000	 63.766884 
657.000000	 63.812613 
656.000000	 63.832855 
655.000000	 63.828063 
654.000000	 63.802742 
653.000000	 63.762235 
652.000000	 63.710904 
651.000000	 63.650631 
650.000000	 63.581061 
649.000000	 63.501071 
648.000000	 63.409852 
647.000000	 63.310599 
646.000000	 63.210844 
645.000000	 63.123464 
644.000000	 63.064670 
643.000000	 63.049721 
642.000000	 63.088607 
641.000000	 63.181734 
640.000000	 63.318443 
639.000000	 63.477540 
638.000000	 63.631129 
637.000000	 63.750457 
636.000000	 63.812446 
635.000000	 63.805031 
634.000000	 63.730120 
633.000000	 63.602757 
632.000000	 63.447594 
631.000000	 63.293313 
630.000000	 63.166618 
629.000000	 63.087105 
628.000000	 63.064265 
627.000000	 63.097834 
626.000000	 63.179135 
625.000000	 63.295674 
624.000000	 63.432884 
623.000000	 63.577985 
622.000000	 63.719439 
621.000000	 63.846635 
620.000000	 63.950085 
619.000000	 64.020276 
618.000000	 64.049458 
617.000000	 64.032292 
616.000000	 63.967943 
615.000000	 63.862514 
614.000000	 63.727259 
613.000000	 63.578152 
612.000000	 63.432407 
611.000000	 63.305974 
610.000000	 63.211178 
609.000000	 63.155341 
608.000000	 63.140463 
607.000000	 63.164043 
606.000000	 63.221359 
605.000000	 63.306689 
604.000000	 63.413214 
603.000000	 63.533663 
602.000000	 63.659977 
601.000000	 63.783597 
600.000000	 63.893961 
599.000000	 63.981246 
598.000000	 64.037799 
597.000000	 64.060473 
596.000000	 64.052009 
595.000000	 64.020466 
594.000000	 63.978958 
593.000000	 63.941144 
592.000000	 63.919353 
591.000000	 63.920187 
590.000000	 63.944149 
589.000000	 63.984537 
588.000000	 64.030408 
587.000000	 64.068794 
586.000000	 64.088344 
585.000000	 64.082360 
584.000000	 64.050483 
583.000000	 63.998770 
582.000000	 63.937449 
581.000000	 63.878297 
580.000000	 63.831090 
579.000000	 63.800024 
578.000000	 63.781690 
577.000000	 63.766384 
576.000000	 63.739728 
575.000000	 63.686394 
574.000000	 63.594031 
573.000000	 63.455891 
572.000000	 63.274049 
571.000000	 63.058876 
570.000000	 62.829184 
569.000000	 62.606263 
568.000000	 62.413382 
567.000000	 62.270760 
566.000000	 62.193822 
565.000000	 62.189698 
564.000000	 62.257313 
563.000000	 62.386822 
562.000000	 62.562012 
561.000000	 62.761902 
560.000000	 62.964296 
559.000000	 63.147497 
558.000000	 63.294720 
557.000000	 63.394761 
556.000000	 63.444161 
555.000000	 63.446450 
554.000000	 63.411140 
553.000000	 63.351178 
552.000000	 63.280987 
551.000000	 63.213205 
550.000000	 63.157200 
549.000000	 63.117170 
548.000000	 63.092541 
547.000000	 63.078093 
546.000000	 63.066792 
545.000000	 63.051319 
544.000000	 63.025212 
543.000000	 62.985348 
542.000000	 62.932085 
541.000000	 62.870740 
540.000000	 62.808704 
539.000000	 62.756156 
538.000000	 62.723445 
537.000000	 62.719869 
536.000000	 62.750339 
535.000000	 62.815809 
534.000000	 62.912440 
533.000000	 63.032317 
532.000000	 63.164782 
531.000000	 63.297176 
530.000000	 63.416934 
529.000000	 63.511919 
528.000000	 63.572096 
527.000000	 63.589572 
526.000000	 63.559460 
525.000000	 63.481116 
524.000000	 63.358855 
523.000000	 63.202190 
522.000000	 63.025403 
521.000000	 62.846231 
520.000000	 62.683820 
519.000000	 62.556266 
518.000000	 62.478089 
517.000000	 62.457346 
516.000000	 62.494969 
515.000000	 62.584042 
514.000000	 62.711691 
513.000000	 62.860608 
512.000000	 63.012933 
511.000000	 63.151574 
510.000000	 63.264250 
509.000000	 63.343358 
508.000000	 63.388204 
507.000000	 63.403034 
506.000000	 63.396286 
505.000000	 63.377475 
504.000000	 63.356208 
503.000000	 63.340854 
502.000000	 63.336467 
501.000000	 63.344788 
500.000000	 63.363671 
499.000000	 63.388347 
498.000000	 63.412594 
497.000000	 63.430571 
496.000000	 63.437628 
495.000000	 63.431525 
494.000000	 63.412618 
493.000000	 63.383841 
492.000000	 63.350296 
491.000000	 63.317751 
490.000000	 63.291716 
489.000000	 63.275599 
488.000000	 63.269805 
487.000000	 63.271760 
486.000000	 63.276171 
485.000000	 63.277864 
484.000000	 63.271141 
483.000000	 63.255572 
482.000000	 63.236021 
481.000000	 63.223481 
480.000000	 63.232064 
479.000000	 63.275337 
478.000000	 63.362240 
477.000000	 63.492798 
476.000000	 63.656783 
475.000000	 63.833975 
474.000000	 63.998150 
473.000000	 64.123296 
472.000000	 64.189791 
471.000000	 64.189481 
470.000000	 64.127230 
469.000000	 64.021420 
468.000000	 63.897848 
467.000000	 63.783168 
466.000000	 63.696479 
465.000000	 63.646578 
464.000000	 63.627743 
463.000000	 63.624167 
462.000000	 63.612627 
461.000000	 63.570427 
460.000000	 63.480997 
459.000000	 63.338017 
458.000000	 63.149023 
457.000000	 62.930250 
456.000000	 62.708616 
455.000000	 62.513041 
454.000000	 62.372255 
453.000000	 62.307953 
452.000000	 62.331199 
451.000000	 62.439298 
450.000000	 62.617373 
449.000000	 62.840867 
448.000000	 63.081097 
447.000000	 63.310432 
446.000000	 63.507580 
445.000000	 63.660335 
444.000000	 63.769245 
443.000000	 63.845062 
442.000000	 63.905215 
441.000000	 63.966536 
440.000000	 64.041471 
439.000000	 64.131689 
438.000000	 64.228129 
437.000000	 64.310979 
436.000000	 64.359784 
435.000000	 64.355158 
434.000000	 64.282917 
433.000000	 64.139962 
432.000000	 63.936924 
431.000000	 63.698172 
430.000000	 63.453412 
429.000000	 63.238358 
428.000000	 63.086128 
427.000000	 63.024425 
426.000000	 63.071632 
425.000000	 63.230943 
424.000000	 63.490295 
423.000000	 63.820314 
422.000000	 64.180541 
421.000000	 64.519691 
420.000000	 64.784240 
419.000000	 64.931225 
418.000000	 64.936614 
417.000000	 64.806246 
416.000000	 64.572024 
415.000000	 64.288234 
414.000000	 64.010119 
413.000000	 63.784599 
412.000000	 63.625836 
411.000000	 63.505816 
410.000000	 63.356471 
409.000000	 63.095355 
408.000000	 62.646842 
407.000000	 61.955904 
406.000000	 61.022114 
405.000000	 59.915947 
404.000000	 58.763480 
403.000000	 57.708430 
402.000000	 56.892442 
401.000000	 56.416440 
400.000000	 56.324100 
399.000000	 56.588983 
398.000000	 57.129740 
397.000000	 57.820200 
396.000000	 58.544945 
395.000000	 59.231305 
394.000000	 59.842610 
393.000000	 60.365271 
392.000000	 60.827302 
391.000000	 61.274957 
390.000000	 61.714887 
389.000000	 62.097144 
388.000000	 62.338733 
387.000000	 62.330913 
386.000000	 61.982727 
385.000000	 61.223435 
384.000000	 60.062456 
383.000000	 58.536458 
382.000000	 56.708788 
381.000000	 54.629302 
380.000000	 52.256441 
379.000000	 49.549436 
378.000000	 46.552562 
377.000000	 43.392801 
376.000000	 40.279340 
375.000000	 37.488126 
374.000000	 35.262703 
373.000000	 33.847832 
372.000000	 33.312702 
371.000000	 33.781099 
370.000000	 35.391902 

