PE IR       SPECTRUM    SPECTRUM    ASCII       PEDS        1.60        
  -1
BZ6A22~1.ASC
17/04/07
13:25:07.00
17/04/07
13:25:07.00
tln
$BZ1503107-1_t0002$<tbV0>[10.4,-13.0,8.0,0.0,27,1,0]
370.000000
64









2002,4.07    
MIRTGS : RIGHTBACK : INTERNAL 2
MIR : ON : INTERNAL 2
OPTKBR

0.200000
8
8.000000
FILLER
RATIO
SPECTRUM
UNLOCKED 256

DOUBLE
64
COMBINED
1
0
0


1.000000
RATIO


1
0
TRUE
51149
0
LEFT NOT FITTED RIGHT NOT FITTED 0
NONE
NONE
15600
12.000000
4.427000
51148
TRUE
1 0 8 72 0 0 0 0 

15798.010000






#HDR
-1
-1
#GR
CM-1
%T
0.00002384185791015625
0.0
5000.000000
-1.000000
4631
8
69.716334
7.017636
#DATA
5000.000000	65.186429 
4999.000000	65.179324 
4998.000000	65.172982 
4997.000000	65.164804 
4996.000000	65.150523 
4995.000000	65.125513 
4994.000000	65.086245 
4993.000000	65.031456 
4992.000000	64.963293 
4991.000000	64.887142 
4990.000000	64.811491 
4989.000000	64.745807 
4988.000000	64.699220 
4987.000000	64.678144 
4986.000000	64.684987 
4985.000000	64.717292 
4984.000000	64.768481 
4983.000000	64.829301 
4982.000000	64.889574 
4981.000000	64.940071 
4980.000000	64.973640 
4979.000000	64.986228 
4978.000000	64.976644 
4977.000000	64.946460 
4976.000000	64.898920 
4975.000000	64.838671 
4974.000000	64.770889 
4973.000000	64.701652 
4972.000000	64.637064 
4971.000000	64.583706 
4970.000000	64.548206 
4969.000000	64.536428 
4968.000000	64.552187 
4967.000000	64.596343 
4966.000000	64.666390 
4965.000000	64.755702 
4964.000000	64.854192 
4963.000000	64.949655 
4962.000000	65.029549 
4961.000000	65.083360 
4960.000000	65.104556 
4959.000000	65.091657 
4958.000000	65.048456 
4957.000000	64.983177 
4956.000000	64.906549 
4955.000000	64.829921 
4954.000000	64.763116 
4953.000000	64.713072 
4952.000000	64.683318 
4951.000000	64.673376 
4950.000000	64.680194 
4949.000000	64.699840 
4948.000000	64.728999 
4947.000000	64.764595 
4946.000000	64.805817 
4945.000000	64.853072 
4944.000000	64.908146 
4943.000000	64.972209 
4942.000000	65.045237 
4941.000000	65.125298 
4940.000000	65.207457 
4939.000000	65.285491 
4938.000000	65.350890 
4937.000000	65.395259 
4936.000000	65.410923 
4935.000000	65.393376 
4934.000000	65.341973 
4933.000000	65.261006 
4932.000000	65.158891 
4931.000000	65.047097 
4930.000000	64.937567 
4929.000000	64.840531 
4928.000000	64.762687 
4927.000000	64.706134 
4926.000000	64.667463 
4925.000000	64.638876 
4924.000000	64.610648 
4923.000000	64.573550 
4922.000000	64.520716 
4921.000000	64.449906 
4920.000000	64.362716 
4919.000000	64.265489 
4918.000000	64.166855 
4917.000000	64.076924 
4916.000000	64.003372 
4915.000000	63.952088 
4914.000000	63.926577 
4913.000000	63.927221 
4912.000000	63.951706 
4911.000000	63.994765 
4910.000000	64.048504 
4909.000000	64.104056 
4908.000000	64.151692 
4907.000000	64.185428 
4906.000000	64.203739 
4905.000000	64.210534 
4904.000000	64.213371 
4903.000000	64.223885 
4902.000000	64.254570 
4901.000000	64.314818 
4900.000000	64.407730 
4899.000000	64.528918 
4898.000000	64.666128 
4897.000000	64.803385 
4896.000000	64.922547 
4895.000000	65.006685 
4894.000000	65.041995 
4893.000000	65.022921 
4892.000000	64.950346 
4891.000000	64.828944 
4890.000000	64.668178 
4889.000000	64.480733 
4888.000000	64.282941 
4887.000000	64.093422 
4886.000000	63.931417 
4885.000000	63.817834 
4884.000000	63.766288 
4883.000000	63.782119 
4882.000000	63.855361 
4881.000000	63.963222 
4880.000000	64.069104 
4879.000000	64.130091 
4878.000000	64.105296 
4877.000000	63.965892 
4876.000000	63.703703 
4875.000000	63.335323 
4874.000000	62.900328 
4873.000000	62.454771 
4872.000000	62.061595 
4871.000000	61.779284 
4870.000000	61.648702 
4869.000000	61.687803 
4868.000000	61.891222 
4867.000000	62.233304 
4866.000000	62.673044 
4865.000000	63.163733 
4864.000000	63.659763 
4863.000000	64.124274 
4862.000000	64.528274 
4861.000000	64.855599 
4860.000000	65.097355 
4859.000000	65.254807 
4858.000000	65.336275 
4857.000000	65.355634 
4856.000000	65.331172 
4855.000000	65.282559 
4854.000000	65.232849 
4853.000000	65.199637 
4852.000000	65.195465 
4851.000000	65.222573 
4850.000000	65.275144 
4849.000000	65.337419 
4848.000000	65.388345 
4847.000000	65.405607 
4846.000000	65.370821 
4845.000000	65.271663 
4844.000000	65.104603 
4843.000000	64.875054 
4842.000000	64.597129 
4841.000000	64.289212 
4840.000000	63.973617 
4839.000000	63.672733 
4838.000000	63.408994 
4837.000000	63.202118 
4836.000000	63.068795 
4835.000000	63.019704 
4834.000000	63.059020 
4833.000000	63.183212 
4832.000000	63.379979 
4831.000000	63.625621 
4830.000000	63.891005 
4829.000000	64.144039 
4828.000000	64.355802 
4827.000000	64.503049 
4826.000000	64.574623 
4825.000000	64.571475 
4824.000000	64.508104 
4823.000000	64.408183 
4822.000000	64.300918 
4821.000000	64.214205 
4820.000000	64.170002 
4819.000000	64.179468 
4818.000000	64.240145 
4817.000000	64.337062 
4816.000000	64.446163 
4815.000000	64.540934 
4814.000000	64.597773 
4813.000000	64.603662 
4812.000000	64.557647 
4811.000000	64.473628 
4810.000000	64.375090 
4809.000000	64.291119 
4808.000000	64.248871 
4807.000000	64.266896 
4806.000000	64.349985 
4805.000000	64.488935 
4804.000000	64.663600 
4803.000000	64.848232 
4802.000000	65.018630 
4801.000000	65.156960 
4800.000000	65.255188 
4799.000000	65.314984 
4798.000000	65.345692 
4797.000000	65.358352 
4796.000000	65.360951 
4795.000000	65.356826 
4794.000000	65.343856 
4793.000000	65.317440 
4792.000000	65.273189 
4791.000000	65.210199 
4790.000000	65.131807 
4789.000000	65.046834 
4788.000000	64.965939 
4787.000000	64.897227 
4786.000000	64.844036 
4785.000000	64.802360 
4784.000000	64.763689 
4783.000000	64.718389 
4782.000000	64.659976 
4781.000000	64.588570 
4780.000000	64.511132 
4779.000000	64.440512 
4778.000000	64.390420 
4777.000000	64.370751 
4776.000000	64.383339 
4775.000000	64.420032 
4774.000000	64.464807 
4773.000000	64.497089 
4772.000000	64.499568 
4771.000000	64.463138 
4770.000000	64.390492 
4769.000000	64.295387 
4768.000000	64.200925 
4767.000000	64.133548 
4766.000000	64.115810 
4765.000000	64.160084 
4764.000000	64.266061 
4763.000000	64.420390 
4762.000000	64.601016 
4761.000000	64.781880 
4760.000000	64.938473 
4759.000000	65.052938 
4758.000000	65.116786 
4757.000000	65.131545 
4756.000000	65.105938 
4755.000000	65.053701 
4754.000000	64.989638 
4753.000000	64.926338 
4752.000000	64.873027 
4751.000000	64.833545 
4750.000000	64.809441 
4749.000000	64.797997 
4748.000000	64.795732 
4747.000000	64.797425 
4746.000000	64.798521 
4745.000000	64.793777 
4744.000000	64.777684 
4743.000000	64.745569 
4742.000000	64.694094 
4741.000000	64.623236 
4740.000000	64.536619 
4739.000000	64.441895 
4738.000000	64.349746 
4737.000000	64.272165 
4736.000000	64.220094 
4735.000000	64.201188 
4734.000000	64.217805 
4733.000000	64.266037 
4732.000000	64.336299 
4731.000000	64.414954 
4730.000000	64.487433 
4729.000000	64.541411 
4728.000000	64.568996 
4727.000000	64.566874 
4726.000000	64.537668 
4725.000000	64.487552 
4724.000000	64.426350 
4723.000000	64.364194 
4722.000000	64.311480 
4721.000000	64.276933 
4720.000000	64.266943 
4719.000000	64.285683 
4718.000000	64.332866 
4717.000000	64.404273 
4716.000000	64.491438 
4715.000000	64.583301 
4714.000000	64.667963 
4713.000000	64.734840 
4712.000000	64.777708 
4711.000000	64.795637 
4710.000000	64.793348 
4709.000000	64.779329 
4708.000000	64.764237 
4707.000000	64.757394 
4706.000000	64.764094 
4705.000000	64.783954 
4704.000000	64.811968 
4703.000000	64.839649 
4702.000000	64.858579 
4701.000000	64.862489 
4700.000000	64.849805 
4699.000000	64.823293 
4698.000000	64.789056 
4697.000000	64.754581 
4696.000000	64.725279 
4695.000000	64.704418 
4694.000000	64.692139 
4693.000000	64.686894 
4692.000000	64.686536 
4691.000000	64.689922 
4690.000000	64.697599 
4689.000000	64.711856 
4688.000000	64.735746 
4687.000000	64.772319 
4686.000000	64.823150 
4685.000000	64.886784 
4684.000000	64.958357 
4683.000000	65.030884 
4682.000000	65.096449 
4681.000000	65.147757 
4680.000000	65.179872 
4679.000000	65.191483 
4678.000000	65.184879 
4677.000000	65.165638 
4676.000000	65.140795 
4675.000000	65.117073 
4674.000000	65.098881 
4673.000000	65.088510 
4672.000000	65.084695 
4671.000000	65.084195 
4670.000000	65.082383 
4669.000000	65.075182 
4668.000000	65.060710 
4667.000000	65.040349 
4666.000000	65.018081 
4665.000000	64.999341 
4664.000000	64.988684 
4663.000000	64.988112 
4662.000000	64.995574 
4661.000000	65.004968 
4660.000000	65.007996 
4659.000000	64.996457 
4658.000000	64.964652 
4657.000000	64.911746 
4656.000000	64.842009 
4655.000000	64.764976 
4654.000000	64.692616 
4653.000000	64.637351 
4652.000000	64.610004 
4651.000000	64.617586 
4650.000000	64.661717 
4649.000000	64.738392 
4648.000000	64.839482 
4647.000000	64.953589 
4646.000000	65.068125 
4645.000000	65.170836 
4644.000000	65.251302 
4643.000000	65.302109 
4642.000000	65.319442 
4641.000000	65.303015 
4640.000000	65.255928 
4639.000000	65.183830 
4638.000000	65.094971 
4637.000000	64.998054 
4636.000000	64.901494 
4635.000000	64.812946 
4634.000000	64.739084 
4633.000000	64.684700 
4632.000000	64.652585 
4631.000000	64.643597 
4630.000000	64.656329 
4629.000000	64.686369 
4628.000000	64.726996 
4627.000000	64.768886 
4626.000000	64.802265 
4625.000000	64.818453 
4624.000000	64.812254 
4623.000000	64.782762 
4622.000000	64.733910 
4621.000000	64.673280 
4620.000000	64.610290 
4619.000000	64.554429 
4618.000000	64.512920 
4617.000000	64.489459 
4616.000000	64.484381 
4615.000000	64.494466 
4614.000000	64.515709 
4613.000000	64.544606 
4612.000000	64.579868 
4611.000000	64.622163 
4610.000000	64.674592 
4609.000000	64.740800 
4608.000000	64.823317 
4607.000000	64.921593 
4606.000000	65.030884 
4605.000000	65.142035 
4604.000000	65.243482 
4603.000000	65.323209 
4602.000000	65.371155 
4601.000000	65.381312 
4600.000000	65.353369 
4599.000000	65.293049 
4598.000000	65.210914 
4597.000000	65.120482 
4596.000000	65.035510 
4595.000000	64.967489 
4594.000000	64.924240 
4593.000000	64.908576 
4592.000000	64.918804 
4591.000000	64.949274 
4590.000000	64.992499 
4589.000000	65.040040 
4588.000000	65.084481 
4587.000000	65.119886 
4586.000000	65.141773 
4585.000000	65.147781 
4584.000000	65.136694 
4583.000000	65.109920 
4582.000000	65.071153 
4581.000000	65.025973 
4580.000000	64.981079 
4579.000000	64.943099 
4578.000000	64.917397 
4577.000000	64.906501 
4576.000000	64.909386 
4575.000000	64.922356 
4574.000000	64.939522 
4573.000000	64.953970 
4572.000000	64.959478 
4571.000000	64.951324 
4570.000000	64.927959 
4569.000000	64.890122 
4568.000000	64.841938 
4567.000000	64.789748 
4566.000000	64.741230 
4565.000000	64.704632 
4564.000000	64.685893 
4563.000000	64.687657 
4562.000000	64.707827 
4561.000000	64.740514 
4560.000000	64.776134 
4559.000000	64.803647 
4558.000000	64.813089 
4557.000000	64.797759 
4556.000000	64.756178 
4555.000000	64.692282 
4554.000000	64.614772 
4553.000000	64.534926 
4552.000000	64.463853 
4551.000000	64.409804 
4550.000000	64.376378 
4549.000000	64.362192 
4548.000000	64.361715 
4547.000000	64.367389 
4546.000000	64.372086 
4545.000000	64.371085 
4544.000000	64.362764 
4543.000000	64.348959 
4542.000000	64.333367 
4541.000000	64.320993 
4540.000000	64.315557 
4539.000000	64.319539 
4538.000000	64.333224 
4537.000000	64.355444 
4536.000000	64.383649 
4535.000000	64.415287 
4534.000000	64.448380 
4533.000000	64.482164 
4532.000000	64.517092 
4531.000000	64.554381 
4530.000000	64.595508 
4529.000000	64.640259 
4528.000000	64.686059 
4527.000000	64.728188 
4526.000000	64.760828 
4525.000000	64.777994 
4524.000000	64.775013 
4523.000000	64.751410 
4522.000000	64.711284 
4521.000000	64.659547 
4520.000000	64.602041 
4519.000000	64.544677 
4518.000000	64.493775 
4517.000000	64.456701 
4516.000000	64.440798 
4515.000000	64.455032 
4514.000000	64.505362 
4513.000000	64.589977 
4512.000000	64.700317 
4511.000000	64.821243 
4510.000000	64.935207 
4509.000000	65.025496 
4508.000000	65.080952 
4507.000000	65.098261 
4506.000000	65.082430 
4505.000000	65.045452 
4504.000000	65.002346 
4503.000000	64.965748 
4502.000000	64.946365 
4501.000000	64.950489 
4500.000000	64.983773 
4499.000000	65.050745 
4498.000000	65.162634 
4497.000000	65.335369 
4496.000000	65.580797 
4495.000000	65.900301 
4494.000000	66.279458 
4493.000000	66.689705 
4492.000000	67.079353 
4491.000000	67.394375 
4490.000000	67.603158 
4489.000000	67.705535 
4488.000000	67.737126 
4487.000000	67.756223 
4486.000000	67.830753 
4485.000000	68.009829 
4484.000000	68.312716 
4483.000000	68.712735 
4482.000000	69.138741 
4481.000000	69.497609 
4480.000000	69.707751 
4479.000000	69.716334 
4478.000000	69.518280 
4477.000000	69.155597 
4476.000000	68.711638 
4475.000000	68.276596 
4474.000000	67.923092 
4473.000000	67.682218 
4472.000000	67.535948 
4471.000000	67.420578 
4470.000000	67.244100 
4469.000000	66.910076 
4468.000000	66.339325 
4467.000000	65.473985 
4466.000000	64.291477 
4465.000000	62.793779 
4464.000000	61.024117 
4463.000000	59.054183 
4462.000000	57.005858 
4461.000000	55.026412 
4460.000000	53.302526 
4459.000000	52.028512 
4458.000000	51.390290 
4457.000000	51.514863 
4456.000000	52.453756 
4455.000000	54.152345 
4454.000000	56.458020 
4453.000000	59.121060 
4452.000000	61.851835 
4451.000000	64.357662 
4450.000000	66.403603 
4449.000000	67.840218 
4448.000000	68.628835 
4447.000000	68.829965 
4446.000000	68.581008 
4445.000000	68.056702 
4444.000000	67.427515 
4443.000000	66.825962 
4442.000000	66.338419 
4441.000000	66.000890 
4440.000000	65.808105 
4439.000000	65.727615 
4438.000000	65.725016 
4437.000000	65.772485 
4436.000000	65.847349 
4435.000000	65.936708 
4434.000000	66.027235 
4433.000000	66.109895 
4432.000000	66.168832 
4431.000000	66.190838 
4430.000000	66.172432 
4429.000000	66.115307 
4428.000000	66.024994 
4427.000000	65.909337 
4426.000000	65.776681 
4425.000000	65.634369 
4424.000000	65.489363 
4423.000000	65.346670 
4422.000000	65.207648 
4421.000000	65.077042 
4420.000000	64.967656 
4419.000000	64.888763 
4418.000000	64.841866 
4417.000000	64.827418 
4416.000000	64.844584 
4415.000000	64.886879 
4414.000000	64.944124 
4413.000000	65.005445 
4412.000000	65.061283 
4411.000000	65.108108 
4410.000000	65.147089 
4409.000000	65.180468 
4408.000000	65.210103 
4407.000000	65.235447 
4406.000000	65.253591 
4405.000000	65.259909 
4404.000000	65.250325 
4403.000000	65.224313 
4402.000000	65.184831 
4401.000000	65.138959 
4400.000000	65.095400 
4399.000000	65.062689 
4398.000000	65.046501 
4397.000000	65.047836 
4396.000000	65.062904 
4395.000000	65.084719 
4394.000000	65.103697 
4393.000000	65.110087 
4392.000000	65.096378 
4391.000000	65.059471 
4390.000000	65.000128 
4389.000000	64.922714 
4388.000000	64.834141 
4387.000000	64.742565 
4386.000000	64.655566 
4385.000000	64.579558 
4384.000000	64.519095 
4383.000000	64.477229 
4382.000000	64.455604 
4381.000000	64.454698 
4380.000000	64.473295 
4379.000000	64.509344 
4378.000000	64.559245 
4377.000000	64.619278 
4376.000000	64.684462 
4375.000000	64.750504 
4374.000000	64.813590 
4373.000000	64.871549 
4372.000000	64.923429 
4371.000000	64.969801 
4370.000000	65.011930 
4369.000000	65.051174 
4368.000000	65.088558 
4367.000000	65.124034 
4366.000000	65.156817 
4365.000000	65.185427 
4364.000000	65.208554 
4363.000000	65.225219 
4362.000000	65.235233 
4361.000000	65.239191 
4360.000000	65.238213 
4359.000000	65.233469 
4358.000000	65.225720 
4357.000000	65.215516 
4356.000000	65.203022 
4355.000000	65.187788 
4354.000000	65.169262 
4353.000000	65.147709 
4352.000000	65.124297 
4351.000000	65.101289 
4350.000000	65.081596 
4349.000000	65.068173 
4348.000000	65.062928 
4347.000000	65.066432 
4346.000000	65.077257 
4345.000000	65.092086 
4344.000000	65.106320 
4343.000000	65.115332 
4342.000000	65.115070 
4341.000000	65.103077 
4340.000000	65.078759 
4339.000000	65.043210 
4338.000000	64.998912 
4337.000000	64.949178 
4336.000000	64.897942 
4335.000000	64.849519 
4334.000000	64.808368 
4333.000000	64.778733 
4332.000000	64.764881 
4331.000000	64.770150 
4330.000000	64.795994 
4329.000000	64.841127 
4328.000000	64.900875 
4327.000000	64.967393 
4326.000000	65.030312 
4325.000000	65.079236 
4324.000000	65.105605 
4323.000000	65.105485 
4322.000000	65.080022 
4321.000000	65.036082 
4320.000000	64.984083 
4319.000000	64.936161 
4318.000000	64.903378 
4317.000000	64.893245 
4316.000000	64.908599 
4315.000000	64.947223 
4314.000000	65.003371 
4313.000000	65.068888 
4312.000000	65.135455 
4311.000000	65.195989 
4310.000000	65.245652 
4309.000000	65.281772 
4308.000000	65.303421 
4307.000000	65.310883 
4306.000000	65.304708 
4305.000000	65.285491 
4304.000000	65.253686 
4303.000000	65.210533 
4302.000000	65.157914 
4301.000000	65.098762 
4300.000000	65.036535 
4299.000000	64.975166 
4298.000000	64.918446 
4297.000000	64.869809 
4296.000000	64.831900 
4295.000000	64.805674 
4294.000000	64.791226 
4293.000000	64.787840 
4292.000000	64.794111 
4291.000000	64.807796 
4290.000000	64.826393 
4289.000000	64.847064 
4288.000000	64.867210 
4287.000000	64.884424 
4286.000000	64.897108 
4285.000000	64.904046 
4284.000000	64.905428 
4283.000000	64.902520 
4282.000000	64.897608 
4281.000000	64.893269 
4280.000000	64.892053 
4279.000000	64.895892 
4278.000000	64.905667 
4277.000000	64.920830 
4276.000000	64.939808 
4275.000000	64.960002 
4274.000000	64.978289 
4273.000000	64.991259 
4272.000000	64.996266 
4271.000000	64.991426 
4270.000000	64.975619 
4269.000000	64.948892 
4268.000000	64.912390 
4267.000000	64.868593 
4266.000000	64.820432 
4265.000000	64.771986 
4264.000000	64.727592 
4263.000000	64.691829 
4262.000000	64.668536 
4261.000000	64.660835 
4260.000000	64.670157 
4259.000000	64.696836 
4258.000000	64.739632 
4257.000000	64.796137 
4256.000000	64.862537 
4255.000000	64.934682 
4254.000000	65.008473 
4253.000000	65.079951 
4252.000000	65.145587 
4251.000000	65.202832 
4250.000000	65.249896 
4249.000000	65.286159 
4248.000000	65.311789 
4247.000000	65.327763 
4246.000000	65.335202 
4245.000000	65.335774 
4244.000000	65.330815 
4243.000000	65.321683 
4242.000000	65.309143 
4241.000000	65.294170 
4240.000000	65.277695 
4239.000000	65.261077 
4238.000000	65.245890 
4237.000000	65.234184 
4236.000000	65.227484 
4235.000000	65.226626 
4234.000000	65.230917 
4233.000000	65.238189 
4232.000000	65.244579 
4231.000000	65.245175 
4230.000000	65.235209 
4229.000000	65.211248 
4228.000000	65.172743 
4227.000000	65.122699 
4226.000000	65.067076 
4225.000000	65.013551 
4224.000000	64.970421 
4223.000000	64.944553 
4222.000000	64.939284 
4221.000000	64.953827 
4220.000000	64.983630 
4219.000000	65.021514 
4218.000000	65.059542 
4217.000000	65.090727 
4216.000000	65.110826 
4215.000000	65.118741 
4214.000000	65.116405 
4213.000000	65.107727 
4212.000000	65.096235 
4211.000000	65.084862 
4210.000000	65.075063 
4209.000000	65.066862 
4208.000000	65.059828 
4207.000000	65.053248 
4206.000000	65.047764 
4205.000000	65.043950 
4204.000000	65.042352 
4203.000000	65.041995 
4202.000000	65.040302 
4201.000000	65.032911 
4200.000000	65.014934 
4199.000000	64.982056 
4198.000000	64.932298 
4197.000000	64.867234 
4196.000000	64.792490 
4195.000000	64.716911 
4194.000000	64.650964 
4193.000000	64.604043 
4192.000000	64.583110 
4191.000000	64.590382 
4190.000000	64.624047 
4189.000000	64.678740 
4188.000000	64.747428 
4187.000000	64.822816 
4186.000000	64.899349 
4185.000000	64.973473 
4184.000000	65.043973 
4183.000000	65.110468 
4182.000000	65.172910 
4181.000000	65.230512 
4180.000000	65.281152 
4179.000000	65.321969 
4178.000000	65.348815 
4177.000000	65.357947 
4176.000000	65.346240 
4175.000000	65.313172 
4174.000000	65.260267 
4173.000000	65.191674 
4172.000000	65.113806 
4171.000000	65.034747 
4170.000000	64.962840 
4169.000000	64.905500 
4168.000000	64.868426 
4167.000000	64.854383 
4166.000000	64.862704 
4165.000000	64.889383 
4164.000000	64.928007 
4163.000000	64.970946 
4162.000000	65.010285 
4161.000000	65.039753 
4160.000000	65.055489 
4159.000000	65.056633 
4158.000000	65.044879 
4157.000000	65.023827 
4156.000000	64.997434 
4155.000000	64.969444 
4154.000000	64.942479 
4153.000000	64.917969 
4152.000000	64.896082 
4151.000000	64.876818 
4150.000000	64.860773 
4149.000000	64.849209 
4148.000000	64.844202 
4147.000000	64.847731 
4146.000000	64.861202 
4145.000000	64.884471 
4144.000000	64.915585 
4143.000000	64.951157 
4142.000000	64.987039 
4141.000000	65.019631 
4140.000000	65.046715 
4139.000000	65.067839 
4138.000000	65.084123 
4137.000000	65.098166 
4136.000000	65.112495 
4135.000000	65.128540 
4134.000000	65.146040 
4133.000000	65.163326 
4132.000000	65.177750 
4131.000000	65.186929 
4130.000000	65.189480 
4129.000000	65.185880 
4128.000000	65.178012 
4127.000000	65.169095 
4126.000000	65.162253 
4125.000000	65.159606 
4124.000000	65.161895 
4123.000000	65.168404 
4122.000000	65.177416 
4121.000000	65.187120 
4120.000000	65.196204 
4119.000000	65.204358 
4118.000000	65.212154 
4117.000000	65.220952 
4116.000000	65.231823 
4115.000000	65.245509 
4114.000000	65.261650 
4113.000000	65.279293 
4112.000000	65.297293 
4111.000000	65.314960 
4110.000000	65.332555 
4109.000000	65.351223 
4108.000000	65.372896 
4107.000000	65.399050 
4106.000000	65.430307 
4105.000000	65.465354 
4104.000000	65.501284 
4103.000000	65.533566 
4102.000000	65.557360 
4101.000000	65.568304 
4100.000000	65.563988 
4099.000000	65.544271 
4098.000000	65.511465 
4097.000000	65.469813 
4096.000000	65.424942 
4095.000000	65.382242 
4094.000000	65.345954 
4093.000000	65.318441 
4092.000000	65.300083 
4091.000000	65.289545 
4090.000000	65.284514 
4089.000000	65.282821 
4088.000000	65.283131 
4087.000000	65.284872 
4086.000000	65.288662 
4085.000000	65.295481 
4084.000000	65.306258 
4083.000000	65.321230 
4082.000000	65.339946 
4081.000000	65.361285 
4080.000000	65.383577 
4079.000000	65.405440 
4078.000000	65.425205 
4077.000000	65.441727 
4076.000000	65.453386 
4075.000000	65.458559 
4074.000000	65.455198 
4073.000000	65.441465 
4072.000000	65.415954 
4071.000000	65.378379 
4070.000000	65.329813 
4069.000000	65.273070 
4068.000000	65.212368 
4067.000000	65.152978 
4066.000000	65.099930 
4065.000000	65.057134 
4064.000000	65.026569 
4063.000000	65.008282 
4062.000000	65.000104 
4061.000000	64.998745 
4060.000000	65.000510 
4059.000000	65.002822 
4058.000000	65.004563 
4057.000000	65.006804 
4056.000000	65.011906 
4055.000000	65.022706 
4054.000000	65.041542 
4053.000000	65.068960 
4052.000000	65.103340 
4051.000000	65.140676 
4050.000000	65.175676 
4049.000000	65.202617 
4048.000000	65.216922 
4047.000000	65.216064 
4046.000000	65.200209 
4045.000000	65.172410 
4044.000000	65.137791 
4043.000000	65.102529 
4042.000000	65.072655 
4041.000000	65.052962 
4040.000000	65.046429 
4039.000000	65.053558 
4038.000000	65.072584 
4037.000000	65.100193 
4036.000000	65.132141 
4035.000000	65.163993 
4034.000000	65.191841 
4033.000000	65.212774 
4032.000000	65.225267 
4031.000000	65.229105 
4030.000000	65.225338 
4029.000000	65.215873 
4028.000000	65.203046 
4027.000000	65.189313 
4026.000000	65.176820 
4025.000000	65.167164 
4024.000000	65.161347 
4023.000000	65.159797 
4022.000000	65.162420 
4021.000000	65.168666 
4020.000000	65.177726 
4019.000000	65.188694 
4018.000000	65.200924 
4017.000000	65.213322 
4016.000000	65.225458 
4015.000000	65.237307 
4014.000000	65.249300 
4013.000000	65.261912 
4012.000000	65.275549 
4011.000000	65.290141 
4010.000000	65.304780 
4009.000000	65.317726 
4008.000000	65.326571 
4007.000000	65.328693 
4006.000000	65.322017 
4005.000000	65.305638 
4004.000000	65.280294 
4003.000000	65.248584 
4002.000000	65.214848 
4001.000000	65.184116 
4000.000000	65.161252 
3999.000000	65.149378 
3998.000000	65.149641 
3997.000000	65.160369 
3996.000000	65.177679 
3995.000000	65.195965 
3994.000000	65.209174 
3993.000000	65.212154 
3992.000000	65.202116 
3991.000000	65.178847 
3990.000000	65.144634 
3989.000000	65.103960 
3988.000000	65.062165 
3987.000000	65.024423 
3986.000000	64.994263 
3985.000000	64.973258 
3984.000000	64.960765 
3983.000000	64.954710 
3982.000000	64.952516 
3981.000000	64.952039 
3980.000000	64.952874 
3979.000000	64.956355 
3978.000000	64.965558 
3977.000000	64.984250 
3976.000000	65.015697 
3975.000000	65.061545 
3974.000000	65.120482 
3973.000000	65.188527 
3972.000000	65.258502 
3971.000000	65.322279 
3970.000000	65.371108 
3969.000000	65.398049 
3968.000000	65.398573 
3967.000000	65.372037 
3966.000000	65.321326 
3965.000000	65.252518 
3964.000000	65.173673 
3963.000000	65.093541 
3962.000000	65.020322 
3961.000000	64.960718 
3960.000000	64.919018 
3959.000000	64.897084 
3958.000000	64.894485 
3957.000000	64.909076 
3956.000000	64.937281 
3955.000000	64.975047 
3954.000000	65.018391 
3953.000000	65.063953 
3952.000000	65.108990 
3951.000000	65.151691 
3950.000000	65.191125 
3949.000000	65.227007 
3948.000000	65.259337 
3947.000000	65.287971 
3946.000000	65.312695 
3945.000000	65.332579 
3944.000000	65.346813 
3943.000000	65.354061 
3942.000000	65.353584 
3941.000000	65.345048 
3940.000000	65.329051 
3939.000000	65.307116 
3938.000000	65.281701 
3937.000000	65.255427 
3936.000000	65.231204 
3935.000000	65.210819 
3934.000000	65.194940 
3933.000000	65.182852 
3932.000000	65.172982 
3931.000000	65.162777 
3930.000000	65.149378 
3929.000000	65.130782 
3928.000000	65.106105 
3927.000000	65.076065 
3926.000000	65.042924 
3925.000000	65.009927 
3924.000000	64.980721 
3923.000000	64.958643 
3922.000000	64.946174 
3921.000000	64.944195 
3920.000000	64.952087 
3919.000000	64.967799 
3918.000000	64.988517 
3917.000000	65.011119 
3916.000000	65.033006 
3915.000000	65.052366 
3914.000000	65.068721 
3913.000000	65.082168 
3912.000000	65.093874 
3911.000000	65.105199 
3910.000000	65.117573 
3909.000000	65.131878 
3908.000000	65.148448 
3907.000000	65.167117 
3906.000000	65.187168 
3905.000000	65.207719 
3904.000000	65.227508 
3903.000000	65.245127 
3902.000000	65.259075 
3901.000000	65.267944 
3900.000000	65.270209 
3899.000000	65.264964 
3898.000000	65.251970 
3897.000000	65.232253 
3896.000000	65.208315 
3895.000000	65.183997 
3894.000000	65.164160 
3893.000000	65.153503 
3892.000000	65.155768 
3891.000000	65.172505 
3890.000000	65.202832 
3889.000000	65.243029 
3888.000000	65.287089 
3887.000000	65.327954 
3886.000000	65.358853 
3885.000000	65.374779 
3884.000000	65.373587 
3883.000000	65.356063 
3882.000000	65.325713 
3881.000000	65.287470 
3880.000000	65.246820 
3879.000000	65.208315 
3878.000000	65.174841 
3877.000000	65.147542 
3876.000000	65.126132 
3875.000000	65.109515 
3874.000000	65.096378 
3873.000000	65.085792 
3872.000000	65.077495 
3871.000000	65.071177 
3870.000000	65.066742 
3869.000000	65.063381 
3868.000000	65.060257 
3867.000000	65.056037 
3866.000000	65.050244 
3865.000000	65.043234 
3864.000000	65.036892 
3863.000000	65.034222 
3862.000000	65.038776 
3861.000000	65.053606 
3860.000000	65.079927 
3859.000000	65.116739 
3858.000000	65.160322 
3857.000000	65.204954 
3856.000000	65.244054 
3855.000000	65.271687 
3854.000000	65.283918 
3853.000000	65.279531 
3852.000000	65.260195 
3851.000000	65.230178 
3850.000000	65.194654 
3849.000000	65.158700 
3848.000000	65.126514 
3847.000000	65.100860 
3846.000000	65.083312 
3845.000000	65.074396 
3844.000000	65.074539 
3843.000000	65.083861 
3842.000000	65.102219 
3841.000000	65.128684 
3840.000000	65.161085 
3839.000000	65.195941 
3838.000000	65.228796 
3837.000000	65.255379 
3836.000000	65.272021 
3835.000000	65.277194 
3834.000000	65.271711 
3833.000000	65.259218 
3832.000000	65.244865 
3831.000000	65.234565 
3830.000000	65.233874 
3829.000000	65.246367 
3828.000000	65.272688 
3827.000000	65.310835 
3826.000000	65.356802 
3825.000000	65.405201 
3824.000000	65.450477 
3823.000000	65.488147 
3822.000000	65.515542 
3821.000000	65.531873 
3820.000000	65.538144 
3819.000000	65.536355 
3818.000000	65.528774 
3817.000000	65.518021 
3816.000000	65.505957 
3815.000000	65.493583 
3814.000000	65.480899 
3813.000000	65.467596 
3812.000000	65.453171 
3811.000000	65.437531 
3810.000000	65.420818 
3809.000000	65.403747 
3808.000000	65.386652 
3807.000000	65.370130 
3806.000000	65.353727 
3805.000000	65.336275 
3804.000000	65.315651 
3803.000000	65.289616 
3802.000000	65.255999 
3801.000000	65.213489 
3800.000000	65.162014 
3799.000000	65.103340 
3798.000000	65.040826 
3797.000000	64.978957 
3796.000000	64.923000 
3795.000000	64.878034 
3794.000000	64.848303 
3793.000000	64.836525 
3792.000000	64.843940 
3791.000000	64.870119 
3790.000000	64.913010 
3789.000000	64.969062 
3788.000000	65.033316 
3787.000000	65.099978 
3786.000000	65.163087 
3785.000000	65.217018 
3784.000000	65.256929 
3783.000000	65.279531 
3782.000000	65.284037 
3781.000000	65.271759 
3780.000000	65.245962 
3779.000000	65.211153 
3778.000000	65.172863 
3777.000000	65.136051 
3776.000000	65.104746 
3775.000000	65.081167 
3774.000000	65.066289 
3773.000000	65.059471 
3772.000000	65.059113 
3771.000000	65.063095 
3770.000000	65.069484 
3769.000000	65.076494 
3768.000000	65.082740 
3767.000000	65.087413 
3766.000000	65.090417 
3765.000000	65.092349 
3764.000000	65.094685 
3763.000000	65.099716 
3762.000000	65.110230 
3761.000000	65.129089 
3760.000000	65.158629 
3759.000000	65.199756 
3758.000000	65.251326 
3757.000000	65.310454 
3756.000000	65.372228 
3755.000000	65.430951 
3754.000000	65.480589 
3753.000000	65.516710 
3752.000000	65.536761 
3751.000000	65.540790 
3750.000000	65.530967 
3749.000000	65.511012 
3748.000000	65.485191 
3747.000000	65.457630 
3746.000000	65.431308 
3745.000000	65.407967 
3744.000000	65.388250 
3743.000000	65.372347 
3742.000000	65.360045 
3741.000000	65.351152 
3740.000000	65.345430 
3739.000000	65.342593 
3738.000000	65.341877 
3737.000000	65.342140 
3736.000000	65.341520 
3735.000000	65.338039 
3734.000000	65.330076 
3733.000000	65.316796 
3732.000000	65.298652 
3731.000000	65.277266 
3730.000000	65.255284 
3729.000000	65.235352 
3728.000000	65.219902 
3727.000000	65.210127 
3726.000000	65.205931 
3725.000000	65.206050 
3724.000000	65.208101 
3723.000000	65.209698 
3722.000000	65.208864 
3721.000000	65.204739 
3720.000000	65.197467 
3719.000000	65.188407 
3718.000000	65.179514 
3717.000000	65.172958 
3716.000000	65.170383 
3715.000000	65.172529 
3714.000000	65.178918 
3713.000000	65.188288 
3712.000000	65.198683 
3711.000000	65.208077 
3710.000000	65.214705 
3709.000000	65.217638 
3708.000000	65.216851 
3707.000000	65.213012 
3706.000000	65.207386 
3705.000000	65.201282 
3704.000000	65.196204 
3703.000000	65.193438 
3702.000000	65.193915 
3701.000000	65.197968 
3700.000000	65.205764 
3699.000000	65.217137 
3698.000000	65.231609 
3697.000000	65.248465 
3696.000000	65.266799 
3695.000000	65.285611 
3694.000000	65.303802 
3693.000000	65.320277 
3692.000000	65.333914 
3691.000000	65.343713 
3690.000000	65.348911 
3689.000000	65.349102 
3688.000000	65.344595 
3687.000000	65.336394 
3686.000000	65.326428 
3685.000000	65.317368 
3684.000000	65.312361 
3683.000000	65.314292 
3682.000000	65.325498 
3681.000000	65.346813 
3680.000000	65.377283 
3679.000000	65.413641 
3678.000000	65.451097 
3677.000000	65.483617 
3676.000000	65.505075 
3675.000000	65.510201 
3674.000000	65.495896 
3673.000000	65.461659 
3672.000000	65.409922 
3671.000000	65.345668 
3670.000000	65.275549 
3669.000000	65.206813 
3668.000000	65.146136 
3667.000000	65.098595 
3666.000000	65.066909 
3665.000000	65.051436 
3664.000000	65.050435 
3663.000000	65.060496 
3662.000000	65.077567 
3661.000000	65.097665 
3660.000000	65.117883 
3659.000000	65.136432 
3658.000000	65.152835 
3657.000000	65.167927 
3656.000000	65.183353 
3655.000000	65.200996 
3654.000000	65.222024 
3653.000000	65.246915 
3652.000000	65.274763 
3651.000000	65.303540 
3650.000000	65.330481 
3649.000000	65.352797 
3648.000000	65.368199 
3647.000000	65.375566 
3646.000000	65.375232 
3645.000000	65.368819 
3644.000000	65.358948 
3643.000000	65.348815 
3642.000000	65.340971 
3641.000000	65.337300 
3640.000000	65.338349 
3639.000000	65.343594 
3638.000000	65.351486 
3637.000000	65.359878 
3636.000000	65.366578 
3635.000000	65.370202 
3634.000000	65.370082 
3633.000000	65.366291 
3632.000000	65.359544 
3631.000000	65.350866 
3630.000000	65.341138 
3629.000000	65.330719 
3628.000000	65.319252 
3627.000000	65.305662 
3626.000000	65.288901 
3625.000000	65.267992 
3624.000000	65.242624 
3623.000000	65.213418 
3622.000000	65.182065 
3621.000000	65.151238 
3620.000000	65.123844 
3619.000000	65.103006 
3618.000000	65.091180 
3617.000000	65.089821 
3616.000000	65.098857 
3615.000000	65.116596 
3614.000000	65.140008 
3613.000000	65.165305 
3612.000000	65.188503 
3611.000000	65.206527 
3610.000000	65.217709 
3609.000000	65.222477 
3608.000000	65.222883 
3607.000000	65.221977 
3606.000000	65.222740 
3605.000000	65.227198 
3604.000000	65.235781 
3603.000000	65.246939 
3602.000000	65.257692 
3601.000000	65.264368 
3600.000000	65.263915 
3599.000000	65.254783 
3598.000000	65.237617 
3597.000000	65.215134 
3596.000000	65.191578 
3595.000000	65.171313 
3594.000000	65.157961 
3593.000000	65.153145 
3592.000000	65.156555 
3591.000000	65.165948 
3590.000000	65.177893 
3589.000000	65.188980 
3588.000000	65.196466 
3587.000000	65.198922 
3586.000000	65.196275 
3585.000000	65.189766 
3584.000000	65.181517 
3583.000000	65.173745 
3582.000000	65.168428 
3581.000000	65.166902 
3580.000000	65.169715 
3579.000000	65.176582 
3578.000000	65.186452 
3577.000000	65.197896 
3576.000000	65.208888 
3575.000000	65.217232 
3574.000000	65.220904 
3573.000000	65.218329 
3572.000000	65.208840 
3571.000000	65.192937 
3570.000000	65.172195 
3569.000000	65.149116 
3568.000000	65.126442 
3567.000000	65.106678 
3566.000000	65.091609 
3565.000000	65.081906 
3564.000000	65.077662 
3563.000000	65.078163 
3562.000000	65.082502 
3561.000000	65.089678 
3560.000000	65.098929 
3559.000000	65.109658 
3558.000000	65.121197 
3557.000000	65.133047 
3556.000000	65.144872 
3555.000000	65.156531 
3554.000000	65.167856 
3553.000000	65.179324 
3552.000000	65.191674 
3551.000000	65.205860 
3550.000000	65.222668 
3549.000000	65.242218 
3548.000000	65.263772 
3547.000000	65.285515 
3546.000000	65.304780 
3545.000000	65.318942 
3544.000000	65.325832 
3543.000000	65.324616 
3542.000000	65.315389 
3541.000000	65.299272 
3540.000000	65.277862 
3539.000000	65.252995 
3538.000000	65.226268 
3537.000000	65.199017 
3536.000000	65.172290 
3535.000000	65.147161 
3534.000000	65.124487 
3533.000000	65.104889 
3532.000000	65.088725 
3531.000000	65.075993 
3530.000000	65.066576 
3529.000000	65.060162 
3528.000000	65.056467 
3527.000000	65.055108 
3526.000000	65.055751 
3525.000000	65.057921 
3524.000000	65.060758 
3523.000000	65.062880 
3522.000000	65.062618 
3521.000000	65.058398 
3520.000000	65.048718 
3519.000000	65.033006 
3518.000000	65.012073 
3517.000000	64.988207 
3516.000000	64.964866 
3515.000000	64.946031 
3514.000000	64.935111 
3513.000000	64.934253 
3512.000000	64.943432 
3511.000000	64.960813 
3510.000000	64.983105 
3509.000000	65.006661 
3508.000000	65.028285 
3507.000000	65.046191 
3506.000000	65.059924 
3505.000000	65.070414 
3504.000000	65.079498 
3503.000000	65.088868 
3502.000000	65.099215 
3501.000000	65.109968 
3500.000000	65.119314 
3499.000000	65.124177 
3498.000000	65.121388 
3497.000000	65.108227 
3496.000000	65.083575 
3495.000000	65.048193 
3494.000000	65.004873 
3493.000000	64.957952 
3492.000000	64.912819 
3491.000000	64.874744 
3490.000000	64.848232 
3489.000000	64.836001 
3488.000000	64.838790 
3487.000000	64.855146 
3486.000000	64.882087 
3485.000000	64.915227 
3484.000000	64.950227 
3483.000000	64.983105 
3482.000000	65.011382 
3481.000000	65.033864 
3480.000000	65.050959 
3479.000000	65.064144 
3478.000000	65.075254 
3477.000000	65.085935 
3476.000000	65.097117 
3475.000000	65.108680 
3474.000000	65.119576 
3473.000000	65.128350 
3472.000000	65.133357 
3471.000000	65.133404 
3470.000000	65.128302 
3469.000000	65.118861 
3468.000000	65.106916 
3467.000000	65.094637 
3466.000000	65.084266 
3465.000000	65.077304 
3464.000000	65.073895 
3463.000000	65.072822 
3462.000000	65.071868 
3461.000000	65.068483 
3460.000000	65.060210 
3459.000000	65.045428 
3458.000000	65.024042 
3457.000000	64.997625 
3456.000000	64.968872 
3455.000000	64.941334 
3454.000000	64.918088 
3453.000000	64.901781 
3452.000000	64.893937 
3451.000000	64.895009 
3450.000000	64.904236 
3449.000000	64.920401 
3448.000000	64.942073 
3447.000000	64.968085 
3446.000000	64.997315 
3445.000000	65.028762 
3444.000000	65.061259 
3443.000000	65.093469 
3442.000000	65.123605 
3441.000000	65.150046 
3440.000000	65.171837 
3439.000000	65.188789 
3438.000000	65.201711 
3437.000000	65.212583 
3436.000000	65.223670 
3435.000000	65.237402 
3434.000000	65.255236 
3433.000000	65.277409 
3432.000000	65.302324 
3431.000000	65.327167 
3430.000000	65.348267 
3429.000000	65.361928 
3428.000000	65.365195 
3427.000000	65.356969 
3426.000000	65.338015 
3425.000000	65.310931 
3424.000000	65.279936 
3423.000000	65.249824 
3422.000000	65.224933 
3421.000000	65.208411 
3420.000000	65.201568 
3419.000000	65.203833 
3418.000000	65.212869 
3417.000000	65.225315 
3416.000000	65.237379 
3415.000000	65.245747 
3414.000000	65.248227 
3413.000000	65.244221 
3412.000000	65.234327 
3411.000000	65.220212 
3410.000000	65.204167 
3409.000000	65.188503 
3408.000000	65.174961 
3407.000000	65.164613 
3406.000000	65.157938 
3405.000000	65.154767 
3404.000000	65.154743 
3403.000000	65.157127 
3402.000000	65.161204 
3401.000000	65.166187 
3400.000000	65.171217 
3399.000000	65.175461 
3398.000000	65.177965 
3397.000000	65.178084 
3396.000000	65.175437 
3395.000000	65.170311 
3394.000000	65.163516 
3393.000000	65.156459 
3392.000000	65.150856 
3391.000000	65.148186 
3390.000000	65.149307 
3389.000000	65.154051 
3388.000000	65.161395 
3387.000000	65.169453 
3386.000000	65.176129 
3385.000000	65.179395 
3384.000000	65.177798 
3383.000000	65.170884 
3382.000000	65.159344 
3381.000000	65.144276 
3380.000000	65.127706 
3379.000000	65.111446 
3378.000000	65.097332 
3377.000000	65.086817 
3376.000000	65.080785 
3375.000000	65.079855 
3374.000000	65.084433 
3373.000000	65.094614 
3372.000000	65.110206 
3371.000000	65.130615 
3370.000000	65.154910 
3369.000000	65.181589 
3368.000000	65.208768 
3367.000000	65.234231 
3366.000000	65.255856 
3365.000000	65.271806 
3364.000000	65.280675 
3363.000000	65.281581 
3362.000000	65.274381 
3361.000000	65.259552 
3360.000000	65.237784 
3359.000000	65.210032 
3358.000000	65.177583 
3357.000000	65.141773 
3356.000000	65.104103 
3355.000000	65.065932 
3354.000000	65.028762 
3353.000000	64.994049 
3352.000000	64.962887 
3351.000000	64.936161 
3350.000000	64.914131 
3349.000000	64.897227 
3348.000000	64.885497 
3347.000000	64.879441 
3346.000000	64.879274 
3345.000000	64.885544 
3344.000000	64.898586 
3343.000000	64.918565 
3342.000000	64.944672 
3341.000000	64.975523 
3340.000000	65.009260 
3339.000000	65.043640 
3338.000000	65.076184 
3337.000000	65.105009 
3336.000000	65.129017 
3335.000000	65.148067 
3334.000000	65.162801 
3333.000000	65.174245 
3332.000000	65.183496 
3331.000000	65.191555 
3330.000000	65.199112 
3329.000000	65.206646 
3328.000000	65.214347 
3327.000000	65.222787 
3326.000000	65.232276 
3325.000000	65.243077 
3324.000000	65.254735 
3323.000000	65.266489 
3322.000000	65.276694 
3321.000000	65.283298 
3320.000000	65.283942 
3319.000000	65.276861 
3318.000000	65.260767 
3317.000000	65.235543 
3316.000000	65.202331 
3315.000000	65.163278 
3314.000000	65.121459 
3313.000000	65.080213 
3312.000000	65.042996 
3311.000000	65.012454 
3310.000000	64.990806 
3309.000000	64.979505 
3308.000000	64.979028 
3307.000000	64.988756 
3306.000000	65.007352 
3305.000000	65.032911 
3304.000000	65.062761 
3303.000000	65.093970 
3302.000000	65.123677 
3301.000000	65.149617 
3300.000000	65.170168 
3299.000000	65.184688 
3298.000000	65.193486 
3297.000000	65.197515 
3296.000000	65.198135 
3295.000000	65.196633 
3294.000000	65.194201 
3293.000000	65.191507 
3292.000000	65.188932 
3291.000000	65.186548 
3290.000000	65.184450 
3289.000000	65.182852 
3288.000000	65.182232 
3287.000000	65.182876 
3286.000000	65.184783 
3285.000000	65.187454 
3284.000000	65.189862 
3283.000000	65.190482 
3282.000000	65.187573 
3281.000000	65.179872 
3280.000000	65.166831 
3279.000000	65.148925 
3278.000000	65.127611 
3277.000000	65.105175 
3276.000000	65.084338 
3275.000000	65.067577 
3274.000000	65.056467 
3273.000000	65.051627 
3272.000000	65.052294 
3271.000000	65.056848 
3270.000000	65.062975 
3269.000000	65.068030 
3268.000000	65.069890 
3267.000000	65.066933 
3266.000000	65.058827 
3265.000000	65.046119 
3264.000000	65.030670 
3263.000000	65.015125 
3262.000000	65.002608 
3261.000000	64.996147 
3260.000000	64.997673 
3259.000000	65.007662 
3258.000000	65.024733 
3257.000000	65.046143 
3256.000000	65.067815 
3255.000000	65.085482 
3254.000000	65.095806 
3253.000000	65.097093 
3252.000000	65.089964 
3251.000000	65.076923 
3250.000000	65.061926 
3249.000000	65.049147 
3248.000000	65.041828 
3247.000000	65.041446 
3246.000000	65.047311 
3245.000000	65.057015 
3244.000000	65.067315 
3243.000000	65.075159 
3242.000000	65.078854 
3241.000000	65.078306 
3240.000000	65.074896 
3239.000000	65.070962 
3238.000000	65.068769 
3237.000000	65.070056 
3236.000000	65.075182 
3235.000000	65.083551 
3234.000000	65.093803 
3233.000000	65.104556 
3232.000000	65.114927 
3231.000000	65.125060 
3230.000000	65.135931 
3229.000000	65.148973 
3228.000000	65.165448 
3227.000000	65.185809 
3226.000000	65.209221 
3225.000000	65.233683 
3224.000000	65.256547 
3223.000000	65.275001 
3222.000000	65.286827 
3221.000000	65.290832 
3220.000000	65.287327 
3219.000000	65.277600 
3218.000000	65.263986 
3217.000000	65.249276 
3216.000000	65.235877 
3215.000000	65.225887 
3214.000000	65.220141 
3213.000000	65.218615 
3212.000000	65.220212 
3211.000000	65.223169 
3210.000000	65.225768 
3209.000000	65.226531 
3208.000000	65.224695 
3207.000000	65.220332 
3206.000000	65.214395 
3205.000000	65.208053 
3204.000000	65.202736 
3203.000000	65.199637 
3202.000000	65.199494 
3201.000000	65.202307 
3200.000000	65.207600 
3199.000000	65.214204 
3198.000000	65.220785 
3197.000000	65.225744 
3196.000000	65.227746 
3195.000000	65.225744 
3194.000000	65.219020 
3193.000000	65.207386 
3192.000000	65.191197 
3191.000000	65.171289 
3190.000000	65.148949 
3189.000000	65.125679 
3188.000000	65.103054 
3187.000000	65.082550 
3186.000000	65.065169 
3185.000000	65.051651 
3184.000000	65.042209 
3183.000000	65.037322 
3182.000000	65.037250 
3181.000000	65.042757 
3180.000000	65.054488 
3179.000000	65.073060 
3178.000000	65.098524 
3177.000000	65.129899 
3176.000000	65.164995 
3175.000000	65.200757 
3174.000000	65.233778 
3173.000000	65.260934 
3172.000000	65.279936 
3171.000000	65.290164 
3170.000000	65.292572 
3169.000000	65.289902 
3168.000000	65.285682 
3167.000000	65.283465 
3166.000000	65.285873 
3165.000000	65.294146 
3164.000000	65.307736 
3163.000000	65.324401 
3162.000000	65.340852 
3161.000000	65.353679 
3160.000000	65.360283 
3159.000000	65.359163 
3158.000000	65.350723 
3157.000000	65.336918 
3156.000000	65.320587 
3155.000000	65.305018 
3154.000000	65.292739 
3153.000000	65.285325 
3152.000000	65.282416 
3151.000000	65.282201 
3150.000000	65.281510 
3149.000000	65.276741 
3148.000000	65.265035 
3147.000000	65.244913 
3146.000000	65.216851 
3145.000000	65.183043 
3144.000000	65.147328 
3143.000000	65.114498 
3142.000000	65.088987 
3141.000000	65.074133 
3140.000000	65.071749 
3139.000000	65.081596 
3138.000000	65.101671 
3137.000000	65.128564 
3136.000000	65.157866 
3135.000000	65.185189 
3134.000000	65.206527 
3133.000000	65.219330 
3132.000000	65.222454 
3131.000000	65.216541 
3130.000000	65.203666 
3129.000000	65.186953 
3128.000000	65.170264 
3127.000000	65.157055 
3126.000000	65.149903 
3125.000000	65.149593 
3124.000000	65.155005 
3123.000000	65.163302 
3122.000000	65.170836 
3121.000000	65.173816 
3120.000000	65.169167 
3119.000000	65.155577 
3118.000000	65.133810 
3117.000000	65.106749 
3116.000000	65.078639 
3115.000000	65.054178 
3114.000000	65.037465 
3113.000000	65.031123 
3112.000000	65.035438 
3111.000000	65.049076 
3110.000000	65.068912 
3109.000000	65.091133 
3108.000000	65.111756 
3107.000000	65.127611 
3106.000000	65.136456 
3105.000000	65.137028 
3104.000000	65.129256 
3103.000000	65.113520 
3102.000000	65.091204 
3101.000000	65.064430 
3100.000000	65.036273 
3099.000000	65.010333 
3098.000000	64.990448 
3097.000000	64.980053 
3096.000000	64.981341 
3095.000000	64.994812 
3094.000000	65.018701 
3093.000000	65.049338 
3092.000000	65.081787 
3091.000000	65.110945 
3090.000000	65.132665 
3089.000000	65.144968 
3088.000000	65.148162 
3087.000000	65.144872 
3086.000000	65.138983 
3085.000000	65.134453 
3084.000000	65.134406 
3083.000000	65.140104 
3082.000000	65.150570 
3081.000000	65.163016 
3080.000000	65.174221 
3079.000000	65.180802 
3078.000000	65.180563 
3077.000000	65.172672 
3076.000000	65.157938 
3075.000000	65.138483 
3074.000000	65.116977 
3073.000000	65.096020 
3072.000000	65.077590 
3071.000000	65.062642 
3070.000000	65.051102 
3069.000000	65.042281 
3068.000000	65.035319 
3067.000000	65.029478 
3066.000000	65.024352 
3065.000000	65.019917 
3064.000000	65.016412 
3063.000000	65.014171 
3062.000000	65.013480 
3061.000000	65.014243 
3060.000000	65.016222 
3059.000000	65.019321 
3058.000000	65.023779 
3057.000000	65.030121 
3056.000000	65.039229 
3055.000000	65.052199 
3054.000000	65.069794 
3053.000000	65.092372 
3052.000000	65.119147 
3051.000000	65.148234 
3050.000000	65.176796 
3049.000000	65.201640 
3048.000000	65.219712 
3047.000000	65.229034 
3046.000000	65.229082 
3045.000000	65.220904 
3044.000000	65.207052 
3043.000000	65.190672 
3042.000000	65.174937 
3041.000000	65.162491 
3040.000000	65.154528 
3039.000000	65.151023 
3038.000000	65.150737 
3037.000000	65.151858 
3036.000000	65.152430 
3035.000000	65.151119 
3034.000000	65.147137 
3033.000000	65.140771 
3032.000000	65.133047 
3031.000000	65.125703 
3030.000000	65.120410 
3029.000000	65.118741 
3028.000000	65.121865 
3027.000000	65.130472 
3026.000000	65.144515 
3025.000000	65.163302 
3024.000000	65.185666 
3023.000000	65.209865 
3022.000000	65.233850 
3021.000000	65.255594 
3020.000000	65.273284 
3019.000000	65.285587 
3018.000000	65.291810 
3017.000000	65.291976 
3016.000000	65.286874 
3015.000000	65.277671 
3014.000000	65.265798 
3013.000000	65.252566 
3012.000000	65.238785 
3011.000000	65.224957 
3010.000000	65.211105 
3009.000000	65.196895 
3008.000000	65.181684 
3007.000000	65.164971 
3006.000000	65.146422 
3005.000000	65.126156 
3004.000000	65.104699 
3003.000000	65.082764 
3002.000000	65.061473 
3001.000000	65.042018 
3000.000000	65.025591 
2999.000000	65.013122 
2998.000000	65.005350 
2997.000000	65.002512 
2996.000000	65.004444 
2995.000000	65.010237 
2994.000000	65.018725 
2993.000000	65.028452 
2992.000000	65.038132 
2991.000000	65.046429 
2990.000000	65.052914 
2989.000000	65.057849 
2988.000000	65.062165 
2987.000000	65.067195 
2986.000000	65.074205 
2985.000000	65.084052 
2984.000000	65.096759 
2983.000000	65.111327 
2982.000000	65.125799 
2981.000000	65.137577 
2980.000000	65.144324 
2979.000000	65.144371 
2978.000000	65.137267 
2977.000000	65.123796 
2976.000000	65.106225 
2975.000000	65.087366 
2974.000000	65.070080 
2973.000000	65.056490 
2972.000000	65.047764 
2971.000000	65.043663 
2970.000000	65.042948 
2969.000000	65.043759 
2968.000000	65.044355 
2967.000000	65.043425 
2966.000000	65.040588 
2965.000000	65.036296 
2964.000000	65.031456 
2963.000000	65.027403 
2962.000000	65.025258 
2961.000000	65.025591 
2960.000000	65.028452 
2959.000000	65.033245 
2958.000000	65.039157 
2957.000000	65.045547 
2956.000000	65.051960 
2955.000000	65.058374 
2954.000000	65.065217 
2953.000000	65.073013 
2952.000000	65.082359 
2951.000000	65.093564 
2950.000000	65.106534 
2949.000000	65.120744 
2948.000000	65.135192 
2947.000000	65.148568 
2946.000000	65.159487 
2945.000000	65.166664 
2944.000000	65.169048 
2943.000000	65.166282 
2942.000000	65.158414 
2941.000000	65.146231 
2940.000000	65.130758 
2939.000000	65.113139 
2938.000000	65.094685 
2937.000000	65.076518 
2936.000000	65.059709 
2935.000000	65.045213 
2934.000000	65.034079 
2933.000000	65.027141 
2932.000000	65.025067 
2931.000000	65.028190 
2930.000000	65.036416 
2929.000000	65.048956 
2928.000000	65.064597 
2927.000000	65.081691 
2926.000000	65.098381 
2925.000000	65.112948 
2924.000000	65.124225 
2923.000000	65.131616 
2922.000000	65.135049 
2921.000000	65.134859 
2920.000000	65.131378 
2919.000000	65.124797 
2918.000000	65.114998 
2917.000000	65.101909 
2916.000000	65.085768 
2915.000000	65.067362 
2914.000000	65.048122 
2913.000000	65.029811 
2912.000000	65.014195 
2911.000000	65.002727 
2910.000000	64.995980 
2909.000000	64.993643 
2908.000000	64.994430 
2907.000000	64.996790 
2906.000000	64.999175 
2905.000000	65.000557 
2904.000000	65.000557 
2903.000000	64.999485 
2902.000000	64.998078 
2901.000000	64.997243 
2900.000000	64.997744 
2899.000000	64.999747 
2898.000000	65.003037 
2897.000000	65.007448 
2896.000000	65.012812 
2895.000000	65.019297 
2894.000000	65.027046 
2893.000000	65.036296 
2892.000000	65.046954 
2891.000000	65.058255 
2890.000000	65.068960 
2889.000000	65.077352 
2888.000000	65.082001 
2887.000000	65.082073 
2886.000000	65.077900 
2885.000000	65.070915 
2884.000000	65.063571 
2883.000000	65.058803 
2882.000000	65.059280 
2881.000000	65.066695 
2880.000000	65.081191 
2879.000000	65.101337 
2878.000000	65.124368 
2877.000000	65.146613 
2876.000000	65.164327 
2875.000000	65.174412 
2874.000000	65.174436 
2873.000000	65.163326 
2872.000000	65.141034 
2871.000000	65.108680 
2870.000000	65.068316 
2869.000000	65.022778 
2868.000000	64.975666 
2867.000000	64.930939 
2866.000000	64.892578 
2865.000000	64.864110 
2864.000000	64.848303 
2863.000000	64.846539 
2862.000000	64.858746 
2861.000000	64.883089 
2860.000000	64.916324 
2859.000000	64.954423 
2858.000000	64.992976 
2857.000000	65.027976 
2856.000000	65.056228 
2855.000000	65.075707 
2854.000000	65.085792 
2853.000000	65.087127 
2852.000000	65.081262 
2851.000000	65.070581 
2850.000000	65.057969 
2849.000000	65.046477 
2848.000000	65.038776 
2847.000000	65.036845 
2846.000000	65.041446 
2845.000000	65.052294 
2844.000000	65.067958 
2843.000000	65.086340 
2842.000000	65.105175 
2841.000000	65.122556 
2840.000000	65.137434 
2839.000000	65.149378 
2838.000000	65.159130 
2837.000000	65.167856 
2836.000000	65.176892 
2835.000000	65.187382 
2834.000000	65.199422 
2833.000000	65.212655 
2832.000000	65.225481 
2831.000000	65.235900 
2830.000000	65.241241 
2829.000000	65.239477 
2828.000000	65.229177 
2827.000000	65.210199 
2826.000000	65.183758 
2825.000000	65.152192 
2824.000000	65.119051 
2823.000000	65.088343 
2822.000000	65.063977 
2821.000000	65.049147 
2820.000000	65.045499 
2819.000000	65.053153 
2818.000000	65.070462 
2817.000000	65.094470 
2816.000000	65.121173 
2815.000000	65.146589 
2814.000000	65.167236 
2813.000000	65.180683 
2812.000000	65.185832 
2811.000000	65.182948 
2810.000000	65.173292 
2809.000000	65.158867 
2808.000000	65.142035 
2807.000000	65.125012 
2806.000000	65.109753 
2805.000000	65.097403 
2804.000000	65.088820 
2803.000000	65.084028 
2802.000000	65.082645 
2801.000000	65.083837 
2800.000000	65.086603 
2799.000000	65.089702 
2798.000000	65.091991 
2797.000000	65.092492 
2796.000000	65.090465 
2795.000000	65.085840 
2794.000000	65.078949 
2793.000000	65.070819 
2792.000000	65.062952 
2791.000000	65.057086 
2790.000000	65.055036 
2789.000000	65.057921 
2788.000000	65.066385 
2787.000000	65.079951 
2786.000000	65.097570 
2785.000000	65.117669 
2784.000000	65.138292 
2783.000000	65.157532 
2782.000000	65.173673 
2781.000000	65.185236 
2780.000000	65.191078 
2779.000000	65.190362 
2778.000000	65.182566 
2777.000000	65.167450 
2776.000000	65.145444 
2775.000000	65.117907 
2774.000000	65.086984 
2773.000000	65.055608 
2772.000000	65.027165 
2771.000000	65.005087 
2770.000000	64.991760 
2769.000000	64.988255 
2768.000000	64.993810 
2767.000000	65.006160 
2766.000000	65.022039 
2765.000000	65.037894 
2764.000000	65.050768 
2763.000000	65.058708 
2762.000000	65.060925 
2761.000000	65.057873 
2760.000000	65.050458 
2759.000000	65.040040 
2758.000000	65.027880 
2757.000000	65.015172 
2756.000000	65.002989 
2755.000000	64.992308 
2754.000000	64.984369 
2753.000000	64.980411 
2752.000000	64.981603 
2751.000000	64.988732 
2750.000000	65.001893 
2749.000000	65.020394 
2748.000000	65.042567 
2747.000000	65.066242 
2746.000000	65.089106 
2745.000000	65.109300 
2744.000000	65.125679 
2743.000000	65.137767 
2742.000000	65.145683 
2741.000000	65.150070 
2740.000000	65.151572 
2739.000000	65.150880 
2738.000000	65.148472 
2737.000000	65.144968 
2736.000000	65.140676 
2735.000000	65.136170 
2734.000000	65.131735 
2733.000000	65.127730 
2732.000000	65.124106 
2731.000000	65.120792 
2730.000000	65.117478 
2729.000000	65.113806 
2728.000000	65.109515 
2727.000000	65.104436 
2726.000000	65.098643 
2725.000000	65.092587 
2724.000000	65.086889 
2723.000000	65.082073 
2722.000000	65.078473 
2721.000000	65.076041 
2720.000000	65.074539 
2719.000000	65.073466 
2718.000000	65.072107 
2717.000000	65.069890 
2716.000000	65.066289 
2715.000000	65.061020 
2714.000000	65.053868 
2713.000000	65.044879 
2712.000000	65.034461 
2711.000000	65.023231 
2710.000000	65.012097 
2709.000000	65.002226 
2708.000000	64.994716 
2707.000000	64.990544 
2706.000000	64.990425 
2705.000000	64.994597 
2704.000000	65.002799 
2703.000000	65.014481 
2702.000000	65.028548 
2701.000000	65.043854 
2700.000000	65.059161 
2699.000000	65.073251 
2698.000000	65.085053 
2697.000000	65.093922 
2696.000000	65.099406 
2695.000000	65.101480 
2694.000000	65.100359 
2693.000000	65.096592 
2692.000000	65.090918 
2691.000000	65.084099 
2690.000000	65.076899 
2689.000000	65.069842 
2688.000000	65.063381 
2687.000000	65.057611 
2686.000000	65.052509 
2685.000000	65.048098 
2684.000000	65.044569 
2683.000000	65.042304 
2682.000000	65.041875 
2681.000000	65.043973 
2680.000000	65.049290 
2679.000000	65.058183 
2678.000000	65.070462 
2677.000000	65.085291 
2676.000000	65.101504 
2675.000000	65.117597 
2674.000000	65.132117 
2673.000000	65.144038 
2672.000000	65.152788 
2671.000000	65.158510 
2670.000000	65.161824 
2669.000000	65.163588 
2668.000000	65.164470 
2667.000000	65.164923 
2666.000000	65.164923 
2665.000000	65.164041 
2664.000000	65.161585 
2663.000000	65.157055 
2662.000000	65.150094 
2661.000000	65.140867 
2660.000000	65.129733 
2659.000000	65.117239 
2658.000000	65.103721 
2657.000000	65.089106 
2656.000000	65.072965 
2655.000000	65.054631 
2654.000000	65.033626 
2653.000000	65.010118 
2652.000000	64.985132 
2651.000000	64.960598 
2650.000000	64.938974 
2649.000000	64.922976 
2648.000000	64.914655 
2647.000000	64.915084 
2646.000000	64.924073 
2645.000000	64.940333 
2644.000000	64.961314 
2643.000000	64.984273 
2642.000000	65.006399 
2641.000000	65.025663 
2640.000000	65.040755 
2639.000000	65.051269 
2638.000000	65.057110 
2637.000000	65.058541 
2636.000000	65.055823 
2635.000000	65.049028 
2634.000000	65.038204 
2633.000000	65.023636 
2632.000000	65.006041 
2631.000000	64.986634 
2630.000000	64.967036 
2629.000000	64.949369 
2628.000000	64.935636 
2627.000000	64.927268 
2626.000000	64.924788 
2625.000000	64.927864 
2624.000000	64.934992 
2623.000000	64.943838 
2622.000000	64.951682 
2621.000000	64.955973 
2620.000000	64.955163 
2619.000000	64.948678 
2618.000000	64.937710 
2617.000000	64.924430 
2616.000000	64.912223 
2615.000000	64.904642 
2614.000000	64.904761 
2613.000000	64.914631 
2612.000000	64.934444 
2611.000000	64.962768 
2610.000000	64.996385 
2609.000000	65.031051 
2608.000000	65.062332 
2607.000000	65.086555 
2606.000000	65.101575 
2605.000000	65.107131 
2604.000000	65.104889 
2603.000000	65.098071 
2602.000000	65.090727 
2601.000000	65.086722 
2600.000000	65.088891 
2599.000000	65.098309 
2598.000000	65.114355 
2597.000000	65.134453 
2596.000000	65.155029 
2595.000000	65.171909 
2594.000000	65.181589 
2593.000000	65.181708 
2592.000000	65.171718 
2591.000000	65.152978 
2590.000000	65.128159 
2589.000000	65.101075 
2588.000000	65.075588 
2587.000000	65.055060 
2586.000000	65.041780 
2585.000000	65.036606 
2584.000000	65.039181 
2583.000000	65.047979 
2582.000000	65.060997 
2581.000000	65.075969 
2580.000000	65.090894 
2579.000000	65.104079 
2578.000000	65.114188 
2577.000000	65.120577 
2576.000000	65.123081 
2575.000000	65.121793 
2574.000000	65.117049 
2573.000000	65.109610 
2572.000000	65.100455 
2571.000000	65.090823 
2570.000000	65.081906 
2569.000000	65.074849 
2568.000000	65.070557 
2567.000000	65.069389 
2566.000000	65.071201 
2565.000000	65.075182 
2564.000000	65.080332 
2563.000000	65.085268 
2562.000000	65.089082 
2561.000000	65.091276 
2560.000000	65.092110 
2559.000000	65.092587 
2558.000000	65.094113 
2557.000000	65.098023 
2556.000000	65.105271 
2555.000000	65.116047 
2554.000000	65.129399 
2553.000000	65.143561 
2552.000000	65.155982 
2551.000000	65.163993 
2550.000000	65.165209 
2549.000000	65.158200 
2548.000000	65.142703 
2547.000000	65.119814 
2546.000000	65.091800 
2545.000000	65.061855 
2544.000000	65.033507 
2543.000000	65.010142 
2542.000000	64.994168 
2541.000000	64.986944 
2540.000000	64.988541 
2539.000000	64.997744 
2538.000000	65.012598 
2537.000000	65.030550 
2536.000000	65.049028 
2535.000000	65.065431 
2534.000000	65.077948 
2533.000000	65.085220 
2532.000000	65.086388 
2531.000000	65.081381 
2530.000000	65.070796 
2529.000000	65.055894 
2528.000000	65.038347 
2527.000000	65.020227 
2526.000000	65.003538 
2525.000000	64.990043 
2524.000000	64.980936 
2523.000000	64.976811 
2522.000000	64.977645 
2521.000000	64.982986 
2520.000000	64.992070 
2519.000000	65.004110 
2518.000000	65.018439 
2517.000000	65.034604 
2516.000000	65.052103 
2515.000000	65.070247 
2514.000000	65.087723 
2513.000000	65.102887 
2512.000000	65.113687 
2511.000000	65.117883 
2510.000000	65.113449 
2509.000000	65.099501 
2508.000000	65.076112 
2507.000000	65.045046 
2506.000000	65.009188 
2505.000000	64.972400 
2504.000000	64.938449 
2503.000000	64.910578 
2502.000000	64.890646 
2501.000000	64.878916 
2500.000000	64.874005 
2499.000000	64.873552 
2498.000000	64.874815 
2497.000000	64.875435 
2496.000000	64.874148 
2495.000000	64.871239 
2494.000000	64.868235 
2493.000000	64.867711 
2492.000000	64.872455 
2491.000000	64.884757 
2490.000000	64.905714 
2489.000000	64.934682 
2488.000000	64.969444 
2487.000000	65.006470 
2486.000000	65.041470 
2485.000000	65.070319 
2484.000000	65.089797 
2483.000000	65.098190 
2482.000000	65.095520 
2481.000000	65.083718 
2480.000000	65.065932 
2479.000000	65.046000 
2478.000000	65.027952 
2477.000000	65.014743 
2476.000000	65.007972 
2475.000000	65.007615 
2474.000000	65.012383 
2473.000000	65.019845 
2472.000000	65.027070 
2471.000000	65.031409 
2470.000000	65.030980 
2469.000000	65.025067 
2468.000000	65.014052 
2467.000000	64.999175 
2466.000000	64.982318 
2465.000000	64.965581 
2464.000000	64.950871 
2463.000000	64.939522 
2462.000000	64.932274 
2461.000000	64.929556 
2460.000000	64.931321 
2459.000000	64.937210 
2458.000000	64.946579 
2457.000000	64.958739 
2456.000000	64.973044 
2455.000000	64.988493 
2454.000000	65.004348 
2453.000000	65.019845 
2452.000000	65.034532 
2451.000000	65.048241 
2450.000000	65.060925 
2449.000000	65.072560 
2448.000000	65.083122 
2447.000000	65.092492 
2446.000000	65.100359 
2445.000000	65.106320 
2444.000000	65.110087 
2443.000000	65.111541 
2442.000000	65.110969 
2441.000000	65.108895 
2440.000000	65.106129 
2439.000000	65.103197 
2438.000000	65.100359 
2437.000000	65.097188 
2436.000000	65.092635 
2435.000000	65.085172 
2434.000000	65.073275 
2433.000000	65.056061 
2432.000000	65.033507 
2431.000000	65.007042 
2430.000000	64.979362 
2429.000000	64.954161 
2428.000000	64.935374 
2427.000000	64.926409 
2426.000000	64.929366 
2425.000000	64.944338 
2424.000000	64.969420 
2423.000000	65.000915 
2422.000000	65.034031 
2421.000000	65.063810 
2420.000000	65.086030 
2419.000000	65.097975 
2418.000000	65.098738 
2417.000000	65.089344 
2416.000000	65.072202 
2415.000000	65.050315 
2414.000000	65.026426 
2413.000000	65.002751 
2412.000000	64.980316 
2411.000000	64.959049 
2410.000000	64.938163 
2409.000000	64.916610 
2408.000000	64.893794 
2407.000000	64.869689 
2406.000000	64.845418 
2405.000000	64.822649 
2404.000000	64.803910 
2403.000000	64.791393 
2402.000000	64.786839 
2401.000000	64.791011 
2400.000000	64.803409 
2399.000000	64.822292 
2398.000000	64.844965 
2397.000000	64.868402 
2396.000000	64.889812 
2395.000000	64.906907 
2394.000000	64.918565 
2393.000000	64.924931 
2392.000000	64.927148 
2391.000000	64.927124 
2390.000000	64.927053 
2389.000000	64.928865 
2388.000000	64.933919 
2387.000000	64.942741 
2386.000000	64.954996 
2385.000000	64.969468 
2384.000000	64.984583 
2383.000000	64.998388 
2382.000000	65.009260 
2381.000000	65.016102 
2380.000000	65.018367 
2379.000000	65.016388 
2378.000000	65.011191 
2377.000000	65.004396 
2376.000000	64.997887 
2375.000000	64.993548 
2374.000000	64.993071 
2373.000000	64.997482 
2372.000000	65.007185 
2371.000000	65.021729 
2370.000000	65.039801 
2369.000000	65.059733 
2368.000000	65.079569 
2367.000000	65.097284 
2366.000000	65.111303 
2365.000000	65.120768 
2364.000000	65.125703 
2363.000000	65.126872 
2362.000000	65.125489 
2361.000000	65.123009 
2360.000000	65.120887 
2359.000000	65.120100 
2358.000000	65.120935 
2357.000000	65.123176 
2356.000000	65.125870 
2355.000000	65.127873 
2354.000000	65.128135 
2353.000000	65.125989 
2352.000000	65.121245 
2351.000000	65.114212 
2350.000000	65.105366 
2349.000000	65.095257 
2348.000000	65.084290 
2347.000000	65.072512 
2346.000000	65.059733 
2345.000000	65.045952 
2344.000000	65.031242 
2343.000000	65.016150 
2342.000000	65.001606 
2341.000000	64.988636 
2340.000000	64.977931 
2339.000000	64.969682 
2338.000000	64.963483 
2337.000000	64.958381 
2336.000000	64.953041 
2335.000000	64.946317 
2334.000000	64.937663 
2333.000000	64.927697 
2332.000000	64.917850 
2331.000000	64.910244 
2330.000000	64.906978 
2329.000000	64.909601 
2328.000000	64.918541 
2327.000000	64.932966 
2326.000000	64.951038 
2325.000000	64.970374 
2324.000000	64.988756 
2323.000000	65.004634 
2322.000000	65.017461 
2321.000000	65.027642 
2320.000000	65.036201 
2319.000000	65.044260 
2318.000000	65.052580 
2317.000000	65.061163 
2316.000000	65.069150 
2315.000000	65.075135 
2314.000000	65.077376 
2313.000000	65.074443 
2312.000000	65.065860 
2311.000000	65.051889 
2310.000000	65.033650 
2309.000000	65.012884 
2308.000000	64.991712 
2307.000000	64.971780 
2306.000000	64.954209 
2305.000000	64.939451 
2304.000000	64.927625 
2303.000000	64.918446 
2302.000000	64.911770 
2301.000000	64.907598 
2300.000000	64.906239 
2299.000000	64.907979 
2298.000000	64.913105 
2297.000000	64.921307 
2296.000000	64.931941 
2295.000000	64.943766 
2294.000000	64.955377 
2293.000000	64.965343 
2292.000000	64.972519 
2291.000000	64.976263 
2290.000000	64.976572 
2289.000000	64.973974 
2288.000000	64.969277 
2287.000000	64.963483 
2286.000000	64.957571 
2285.000000	64.952325 
2284.000000	64.948391 
2283.000000	64.946222 
2282.000000	64.945983 
2281.000000	64.947795 
2280.000000	64.951324 
2279.000000	64.955830 
2278.000000	64.960289 
2277.000000	64.963483 
2276.000000	64.964222 
2275.000000	64.961695 
2274.000000	64.955615 
2273.000000	64.946603 
2272.000000	64.935779 
2271.000000	64.924931 
2270.000000	64.915823 
2269.000000	64.910125 
2268.000000	64.909052 
2267.000000	64.913177 
2266.000000	64.922118 
2265.000000	64.934825 
2264.000000	64.949750 
2263.000000	64.965057 
2262.000000	64.978814 
2261.000000	64.989590 
2260.000000	64.996528 
2259.000000	64.999604 
2258.000000	64.999413 
2257.000000	64.997434 
2256.000000	64.995527 
2255.000000	64.995598 
2254.000000	64.999103 
2253.000000	65.006875 
2252.000000	65.018606 
2251.000000	65.033149 
2250.000000	65.048527 
2249.000000	65.062499 
2248.000000	65.072917 
2247.000000	65.078306 
2246.000000	65.078043 
2245.000000	65.072178 
2244.000000	65.061497 
2243.000000	65.047001 
2242.000000	65.029764 
2241.000000	65.010738 
2240.000000	64.990758 
2239.000000	64.970636 
2238.000000	64.951395 
2237.000000	64.934229 
2236.000000	64.920639 
2235.000000	64.912176 
2234.000000	64.909958 
2233.000000	64.914488 
2232.000000	64.925193 
2231.000000	64.940190 
2230.000000	64.956879 
2229.000000	64.972257 
2228.000000	64.983606 
2227.000000	64.989137 
2226.000000	64.988470 
2225.000000	64.982771 
2224.000000	64.974355 
2223.000000	64.966154 
2222.000000	64.961028 
2221.000000	64.960789 
2220.000000	64.965915 
2219.000000	64.975237 
2218.000000	64.986634 
2217.000000	64.997315 
2216.000000	65.004777 
2215.000000	65.007472 
2214.000000	65.005064 
2213.000000	64.998698 
2212.000000	64.990448 
2211.000000	64.982938 
2210.000000	64.978551 
2209.000000	64.978957 
2208.000000	64.984750 
2207.000000	64.995193 
2206.000000	65.008592 
2205.000000	65.022683 
2204.000000	65.035390 
2203.000000	65.045070 
2202.000000	65.050816 
2201.000000	65.052533 
2200.000000	65.050792 
2199.000000	65.046525 
2198.000000	65.040564 
2197.000000	65.033292 
2196.000000	65.024662 
2195.000000	65.014243 
2194.000000	65.001344 
2193.000000	64.985537 
2192.000000	64.966726 
2191.000000	64.945769 
2190.000000	64.923906 
2189.000000	64.902830 
2188.000000	64.884185 
2187.000000	64.868807 
2186.000000	64.856839 
2185.000000	64.847230 
2184.000000	64.838695 
2183.000000	64.829874 
2182.000000	64.820146 
2181.000000	64.809799 
2180.000000	64.800548 
2179.000000	64.794802 
2178.000000	64.795351 
2177.000000	64.804244 
2176.000000	64.822411 
2175.000000	64.848971 
2174.000000	64.881539 
2173.000000	64.916300 
2172.000000	64.949154 
2171.000000	64.976572 
2170.000000	64.996051 
2169.000000	65.006709 
2168.000000	65.008974 
2167.000000	65.004467 
2166.000000	64.995312 
2165.000000	64.983749 
2164.000000	64.971756 
2163.000000	64.960741 
2162.000000	64.952039 
2161.000000	64.946389 
2160.000000	64.944291 
2159.000000	64.945650 
2158.000000	64.950013 
2157.000000	64.956283 
2156.000000	64.962816 
2155.000000	64.967823 
2154.000000	64.969396 
2153.000000	64.966201 
2152.000000	64.957571 
2151.000000	64.943885 
2150.000000	64.926505 
2149.000000	64.907121 
2148.000000	64.887642 
2147.000000	64.869499 
2146.000000	64.853525 
2145.000000	64.839863 
2144.000000	64.828419 
2143.000000	64.819025 
2142.000000	64.811801 
2141.000000	64.807462 
2140.000000	64.807248 
2139.000000	64.812302 
2138.000000	64.823532 
2137.000000	64.841055 
2136.000000	64.864134 
2135.000000	64.890813 
2134.000000	64.918351 
2133.000000	64.943671 
2132.000000	64.963912 
2131.000000	64.977169 
2130.000000	64.982819 
2129.000000	64.981675 
2128.000000	64.975762 
2127.000000	64.967966 
2126.000000	64.961314 
2125.000000	64.958262 
2124.000000	64.960265 
2123.000000	64.967441 
2122.000000	64.978718 
2121.000000	64.991974 
2120.000000	65.004730 
2119.000000	65.014648 
2118.000000	65.020108 
2117.000000	65.020394 
2116.000000	65.015983 
2115.000000	65.008139 
2114.000000	64.998650 
2113.000000	64.989233 
2112.000000	64.981174 
2111.000000	64.975094 
2110.000000	64.970707 
2109.000000	64.967226 
2108.000000	64.963555 
2107.000000	64.958691 
2106.000000	64.952301 
2105.000000	64.944648 
2104.000000	64.936494 
2103.000000	64.929246 
2102.000000	64.924287 
2101.000000	64.922738 
2100.000000	64.924860 
2099.000000	64.930319 
2098.000000	64.938259 
2097.000000	64.947366 
2096.000000	64.956331 
2095.000000	64.964056 
2094.000000	64.969873 
2093.000000	64.973640 
2092.000000	64.975523 
2091.000000	64.975857 
2090.000000	64.974927 
2089.000000	64.972925 
2088.000000	64.969897 
2087.000000	64.965820 
2086.000000	64.960813 
2085.000000	64.955234 
2084.000000	64.949679 
2083.000000	64.945006 
2082.000000	64.941906 
2081.000000	64.941000 
2080.000000	64.942359 
2079.000000	64.945387 
2078.000000	64.948868 
2077.000000	64.951419 
2076.000000	64.951443 
2075.000000	64.947748 
2074.000000	64.939570 
2073.000000	64.926934 
2072.000000	64.910459 
2071.000000	64.891386 
2070.000000	64.871144 
2069.000000	64.851164 
2068.000000	64.832639 
2067.000000	64.816498 
2066.000000	64.803242 
2065.000000	64.793181 
2064.000000	64.786458 
2063.000000	64.783143 
2062.000000	64.783406 
2061.000000	64.787244 
2060.000000	64.794349 
2059.000000	64.804387 
2058.000000	64.816617 
2057.000000	64.830160 
2056.000000	64.844131 
2055.000000	64.857935 
2054.000000	64.871191 
2053.000000	64.884042 
2052.000000	64.896702 
2051.000000	64.909386 
2050.000000	64.922165 
2049.000000	64.934635 
2048.000000	64.946103 
2047.000000	64.955472 
2046.000000	64.961791 
2045.000000	64.964175 
2044.000000	64.962387 
2043.000000	64.956784 
2042.000000	64.948582 
2041.000000	64.939355 
2040.000000	64.930701 
2039.000000	64.924073 
2038.000000	64.920377 
2037.000000	64.919877 
2036.000000	64.922142 
2035.000000	64.926290 
2034.000000	64.931178 
2033.000000	64.935779 
2032.000000	64.939308 
2031.000000	64.941239 
2030.000000	64.941477 
2029.000000	64.940237 
2028.000000	64.937901 
2027.000000	64.934802 
2026.000000	64.930772 
2025.000000	64.925432 
2024.000000	64.918065 
2023.000000	64.907765 
2022.000000	64.894199 
2021.000000	64.877653 
2020.000000	64.859628 
2019.000000	64.842414 
2018.000000	64.828991 
2017.000000	64.822220 
2016.000000	64.824342 
2015.000000	64.836168 
2014.000000	64.857125 
2013.000000	64.884877 
2012.000000	64.916014 
2011.000000	64.946675 
2010.000000	64.973187 
2009.000000	64.992785 
2008.000000	65.004038 
2007.000000	65.006852 
2006.000000	65.002012 
2005.000000	64.990758 
2004.000000	64.974617 
2003.000000	64.954876 
2002.000000	64.932751 
2001.000000	64.909172 
2000.000000	64.885425 
1999.000000	64.862847 
1998.000000	64.842820 
1997.000000	64.826798 
1996.000000	64.815807 
1995.000000	64.810657 
1994.000000	64.811420 
1993.000000	64.817810 
1992.000000	64.828824 
1991.000000	64.843106 
1990.000000	64.858961 
1989.000000	64.874410 
1988.000000	64.887619 
1987.000000	64.897060 
1986.000000	64.901781 
1985.000000	64.901494 
1984.000000	64.896678 
1983.000000	64.888668 
1982.000000	64.879345 
1981.000000	64.870762 
1980.000000	64.864778 
1979.000000	64.862775 
1978.000000	64.865469 
1977.000000	64.872670 
1976.000000	64.883351 
1975.000000	64.896106 
1974.000000	64.909625 
1973.000000	64.922666 
1972.000000	64.934611 
1971.000000	64.945197 
1970.000000	64.954519 
1969.000000	64.962911 
1968.000000	64.970564 
1967.000000	64.977526 
1966.000000	64.983463 
1965.000000	64.988040 
1964.000000	64.990520 
1963.000000	64.990401 
1962.000000	64.987182 
1961.000000	64.980840 
1960.000000	64.971590 
1959.000000	64.960145 
1958.000000	64.947319 
1957.000000	64.933967 
1956.000000	64.920926 
1955.000000	64.908814 
1954.000000	64.897799 
1953.000000	64.887857 
1952.000000	64.878749 
1951.000000	64.870262 
1950.000000	64.862394 
1949.000000	64.855337 
1948.000000	64.849591 
1947.000000	64.845705 
1946.000000	64.844179 
1945.000000	64.845228 
1944.000000	64.848685 
1943.000000	64.853811 
1942.000000	64.859414 
1941.000000	64.864039 
1940.000000	64.866447 
1939.000000	64.865875 
1938.000000	64.862108 
1937.000000	64.855623 
1936.000000	64.847469 
1935.000000	64.838933 
1934.000000	64.831328 
1933.000000	64.825582 
1932.000000	64.822077 
1931.000000	64.820551 
1930.000000	64.820384 
1929.000000	64.820623 
1928.000000	64.820528 
1927.000000	64.819645 
1926.000000	64.818191 
1925.000000	64.816999 
1924.000000	64.817142 
1923.000000	64.819979 
1922.000000	64.826631 
1921.000000	64.837574 
1920.000000	64.852428 
1919.000000	64.869952 
1918.000000	64.888191 
1917.000000	64.904808 
1916.000000	64.917397 
1915.000000	64.924001 
1914.000000	64.923596 
1913.000000	64.916276 
1912.000000	64.903116 
1911.000000	64.886069 
1910.000000	64.867544 
1909.000000	64.849781 
1908.000000	64.834451 
1907.000000	64.822483 
1906.000000	64.814066 
1905.000000	64.808845 
1904.000000	64.806318 
1903.000000	64.806008 
1902.000000	64.807724 
1901.000000	64.811730 
1900.000000	64.818477 
1899.000000	64.828443 
1898.000000	64.841914 
1897.000000	64.858651 
1896.000000	64.877843 
1895.000000	64.898061 
1894.000000	64.917445 
1893.000000	64.933872 
1892.000000	64.945602 
1891.000000	64.951086 
1890.000000	64.949369 
1889.000000	64.940214 
1888.000000	64.924240 
1887.000000	64.902663 
1886.000000	64.877247 
1885.000000	64.850115 
1884.000000	64.823341 
1883.000000	64.798736 
1882.000000	64.777660 
1881.000000	64.760756 
1880.000000	64.748001 
1879.000000	64.739084 
1878.000000	64.733624 
1877.000000	64.731359 
1876.000000	64.732241 
1875.000000	64.736700 
1874.000000	64.745306 
1873.000000	64.758586 
1872.000000	64.776563 
1871.000000	64.798665 
1870.000000	64.823627 
1869.000000	64.849686 
1868.000000	64.874792 
1867.000000	64.897084 
1866.000000	64.915060 
1865.000000	64.928030 
1864.000000	64.936113 
1863.000000	64.940237 
1862.000000	64.941501 
1861.000000	64.941096 
1860.000000	64.939832 
1859.000000	64.938116 
1858.000000	64.935922 
1857.000000	64.932823 
1856.000000	64.928126 
1855.000000	64.921283 
1854.000000	64.911890 
1853.000000	64.899992 
1852.000000	64.885711 
1851.000000	64.869236 
1850.000000	64.850878 
1849.000000	64.831089 
1848.000000	64.810442 
1847.000000	64.789676 
1846.000000	64.769840 
1845.000000	64.752483 
1844.000000	64.739346 
1843.000000	64.732336 
1842.000000	64.732909 
1841.000000	64.741754 
1840.000000	64.758706 
1839.000000	64.782333 
1838.000000	64.810156 
1837.000000	64.838790 
1836.000000	64.864730 
1835.000000	64.884614 
1834.000000	64.895820 
1833.000000	64.896869 
1832.000000	64.887762 
1831.000000	64.869880 
1830.000000	64.845633 
1829.000000	64.818191 
1828.000000	64.790940 
1827.000000	64.767074 
1826.000000	64.749121 
1825.000000	64.738750 
1824.000000	64.736676 
1823.000000	64.742660 
1822.000000	64.755582 
1821.000000	64.773631 
1820.000000	64.794516 
1819.000000	64.815688 
1818.000000	64.834856 
1817.000000	64.849948 
1816.000000	64.859580 
1815.000000	64.863157 
1814.000000	64.860844 
1813.000000	64.853739 
1812.000000	64.843249 
1811.000000	64.831137 
1810.000000	64.818859 
1809.000000	64.807486 
1808.000000	64.797329 
1807.000000	64.788174 
1806.000000	64.779376 
1805.000000	64.770388 
1804.000000	64.760899 
1803.000000	64.751029 
1802.000000	64.741110 
1801.000000	64.731621 
1800.000000	64.723062 
1799.000000	64.715600 
1798.000000	64.709329 
1797.000000	64.704108 
1796.000000	64.700150 
1795.000000	64.697885 
1794.000000	64.698052 
1793.000000	64.701414 
1792.000000	64.708638 
1791.000000	64.719724 
1790.000000	64.733958 
1789.000000	64.749646 
1788.000000	64.764547 
1787.000000	64.776134 
1786.000000	64.782238 
1785.000000	64.781665 
1784.000000	64.774465 
1783.000000	64.761662 
1782.000000	64.745187 
1781.000000	64.727354 
1780.000000	64.710211 
1779.000000	64.695382 
1778.000000	64.683675 
1777.000000	64.675283 
1776.000000	64.669895 
1775.000000	64.667034 
1774.000000	64.666152 
1773.000000	64.666843 
1772.000000	64.668774 
1771.000000	64.671897 
1770.000000	64.676332 
1769.000000	64.682245 
1768.000000	64.689517 
1767.000000	64.698052 
1766.000000	64.707493 
1765.000000	64.717388 
1764.000000	64.727091 
1763.000000	64.736127 
1762.000000	64.744257 
1761.000000	64.751458 
1760.000000	64.757847 
1759.000000	64.763832 
1758.000000	64.769721 
1757.000000	64.775633 
1756.000000	64.781379 
1755.000000	64.786386 
1754.000000	64.789724 
1753.000000	64.790463 
1752.000000	64.787817 
1751.000000	64.781475 
1750.000000	64.771723 
1749.000000	64.759540 
1748.000000	64.746212 
1747.000000	64.733004 
1746.000000	64.720797 
1745.000000	64.709973 
1744.000000	64.700293 
1743.000000	64.691185 
1742.000000	64.681839 
1741.000000	64.671587 
1740.000000	64.660120 
1739.000000	64.647507 
1738.000000	64.634156 
1737.000000	64.620780 
1736.000000	64.607858 
1735.000000	64.595890 
1734.000000	64.584970 
1733.000000	64.575147 
1732.000000	64.566302 
1731.000000	64.558386 
1730.000000	64.551568 
1729.000000	64.546442 
1728.000000	64.543533 
1727.000000	64.543724 
1726.000000	64.547348 
1725.000000	64.554715 
1724.000000	64.565539 
1723.000000	64.579105 
1722.000000	64.594268 
1721.000000	64.609408 
1720.000000	64.622735 
1719.000000	64.632582 
1718.000000	64.637708 
1717.000000	64.637517 
1716.000000	64.632105 
1715.000000	64.622378 
1714.000000	64.610099 
1713.000000	64.597272 
1712.000000	64.586186 
1711.000000	64.578676 
1710.000000	64.576411 
1709.000000	64.580440 
1708.000000	64.591383 
1707.000000	64.609479 
1706.000000	64.634537 
1705.000000	64.665865 
1704.000000	64.702177 
1703.000000	64.741563 
1702.000000	64.781045 
1701.000000	64.817023 
1700.000000	64.845585 
1699.000000	64.863061 
1698.000000	64.867019 
1697.000000	64.856934 
1696.000000	64.834642 
1695.000000	64.804434 
1694.000000	64.772200 
1693.000000	64.744520 
1692.000000	64.727139 
1691.000000	64.723777 
1690.000000	64.735317 
1689.000000	64.759516 
1688.000000	64.791631 
1687.000000	64.825367 
1686.000000	64.854383 
1685.000000	64.873790 
1684.000000	64.880990 
1683.000000	64.875888 
1682.000000	64.860892 
1681.000000	64.840149 
1680.000000	64.818143 
1679.000000	64.798855 
1678.000000	64.785170 
1677.000000	64.778208 
1676.000000	64.777731 
1675.000000	64.782118 
1674.000000	64.789533 
1673.000000	64.797782 
1672.000000	64.805126 
1671.000000	64.810466 
1670.000000	64.813303 
1669.000000	64.813590 
1668.000000	64.811515 
1667.000000	64.807438 
1666.000000	64.801597 
1665.000000	64.794254 
1664.000000	64.785742 
1663.000000	64.776182 
1662.000000	64.765882 
1661.000000	64.754939 
1660.000000	64.743566 
1659.000000	64.731645 
1658.000000	64.719057 
1657.000000	64.705348 
1656.000000	64.690256 
1655.000000	64.673638 
1654.000000	64.655923 
1653.000000	64.637732 
1652.000000	64.620256 
1651.000000	64.604783 
1650.000000	64.592814 
1649.000000	64.585542 
1648.000000	64.583730 
1647.000000	64.587545 
1646.000000	64.596748 
1645.000000	64.610528 
1644.000000	64.627766 
1643.000000	64.647126 
1642.000000	64.667272 
1641.000000	64.686894 
1640.000000	64.704918 
1639.000000	64.720320 
1638.000000	64.732575 
1637.000000	64.741253 
1636.000000	64.746332 
1635.000000	64.748096 
1634.000000	64.746999 
1633.000000	64.743852 
1632.000000	64.739441 
1631.000000	64.734506 
1630.000000	64.729642 
1629.000000	64.725232 
1628.000000	64.721226 
1627.000000	64.717340 
1626.000000	64.713144 
1625.000000	64.708232 
1624.000000	64.702033 
1623.000000	64.694237 
1622.000000	64.684748 
1621.000000	64.674043 
1620.000000	64.662766 
1619.000000	64.651989 
1618.000000	64.642882 
1617.000000	64.636707 
1616.000000	64.634299 
1615.000000	64.635992 
1614.000000	64.641451 
1613.000000	64.649844 
1612.000000	64.659976 
1611.000000	64.670300 
1610.000000	64.679551 
1609.000000	64.686703 
1608.000000	64.691185 
1607.000000	64.692878 
1606.000000	64.692091 
1605.000000	64.689421 
1604.000000	64.685630 
1603.000000	64.681267 
1602.000000	64.676737 
1601.000000	64.672350 
1600.000000	64.668416 
1599.000000	64.665222 
1598.000000	64.663052 
1597.000000	64.662241 
1596.000000	64.663124 
1595.000000	64.665913 
1594.000000	64.670848 
1593.000000	64.677977 
1592.000000	64.687204 
1591.000000	64.698433 
1590.000000	64.711308 
1589.000000	64.725208 
1588.000000	64.739537 
1587.000000	64.753484 
1586.000000	64.766454 
1585.000000	64.778447 
1584.000000	64.789843 
1583.000000	64.801263 
1582.000000	64.813065 
1581.000000	64.825201 
1580.000000	64.836740 
1579.000000	64.845919 
1578.000000	64.850616 
1577.000000	64.848685 
1576.000000	64.838600 
1575.000000	64.820003 
1574.000000	64.793705 
1573.000000	64.761924 
1572.000000	64.727568 
1571.000000	64.694237 
1570.000000	64.665794 
1569.000000	64.645695 
1568.000000	64.636635 
1567.000000	64.639997 
1566.000000	64.655828 
1565.000000	64.682149 
1564.000000	64.715743 
1563.000000	64.752030 
1562.000000	64.785861 
1561.000000	64.812302 
1560.000000	64.827346 
1559.000000	64.828824 
1558.000000	64.816641 
1557.000000	64.793133 
1556.000000	64.762306 
1555.000000	64.729523 
1554.000000	64.700269 
1553.000000	64.679098 
1552.000000	64.668917 
1551.000000	64.670467 
1550.000000	64.682197 
1549.000000	64.700841 
1548.000000	64.721918 
1547.000000	64.740514 
1546.000000	64.752316 
1545.000000	64.754223 
1544.000000	64.745068 
1543.000000	64.725899 
1542.000000	64.699625 
1541.000000	64.670634 
1540.000000	64.643883 
1539.000000	64.623546 
1538.000000	64.612674 
1537.000000	64.612388 
1536.000000	64.621806 
1535.000000	64.638495 
1534.000000	64.658927 
1533.000000	64.679360 
1532.000000	64.696621 
1531.000000	64.708423 
1530.000000	64.713835 
1529.000000	64.712858 
1528.000000	64.706540 
1527.000000	64.696383 
1526.000000	64.684271 
1525.000000	64.672040 
1524.000000	64.661288 
1523.000000	64.653134 
1522.000000	64.648413 
1521.000000	64.647412 
1520.000000	64.649963 
1519.000000	64.655542 
1518.000000	64.663100 
1517.000000	64.671373 
1516.000000	64.678883 
1515.000000	64.684391 
1514.000000	64.687013 
1513.000000	64.686417 
1512.000000	64.682960 
1511.000000	64.677500 
1510.000000	64.671397 
1509.000000	64.665889 
1508.000000	64.661669 
1507.000000	64.658904 
1506.000000	64.657425 
1505.000000	64.656591 
1504.000000	64.655876 
1503.000000	64.654994 
1502.000000	64.654064 
1501.000000	64.653515 
1500.000000	64.653921 
1499.000000	64.655351 
1498.000000	64.657282 
1497.000000	64.658355 
1496.000000	64.656758 
1495.000000	64.650726 
1494.000000	64.638948 
1493.000000	64.621400 
1492.000000	64.599370 
1491.000000	64.575505 
1490.000000	64.553213 
1489.000000	64.535641 
1488.000000	64.525341 
1487.000000	64.523243 
1486.000000	64.528918 
1485.000000	64.541006 
1484.000000	64.557743 
1483.000000	64.577531 
1482.000000	64.599323 
1481.000000	64.622616 
1480.000000	64.647126 
1479.000000	64.672279 
1478.000000	64.697003 
1477.000000	64.719438 
1476.000000	64.737272 
1475.000000	64.748048 
1474.000000	64.749765 
1473.000000	64.741325 
1472.000000	64.722990 
1471.000000	64.696645 
1470.000000	64.665317 
1469.000000	64.632606 
1468.000000	64.602255 
1467.000000	64.577174 
1466.000000	64.559078 
1465.000000	64.548254 
1464.000000	64.543581 
1463.000000	64.543271 
1462.000000	64.544844 
1461.000000	64.546370 
1460.000000	64.546179 
1459.000000	64.543747 
1458.000000	64.539432 
1457.000000	64.534258 
1456.000000	64.529395 
1455.000000	64.525890 
1454.000000	64.524221 
1453.000000	64.524197 
1452.000000	64.524888 
1451.000000	64.525437 
1450.000000	64.525318 
1449.000000	64.524626 
1448.000000	64.524340 
1447.000000	64.526200 
1446.000000	64.532089 
1445.000000	64.543485 
1444.000000	64.560985 
1443.000000	64.583992 
1442.000000	64.610743 
1441.000000	64.638876 
1440.000000	64.665579 
1439.000000	64.688539 
1438.000000	64.706087 
1437.000000	64.717745 
1436.000000	64.723777 
1435.000000	64.725017 
1434.000000	64.722180 
1433.000000	64.715886 
1432.000000	64.706277 
1431.000000	64.693140 
1430.000000	64.676451 
1429.000000	64.656567 
1428.000000	64.634490 
1427.000000	64.612126 
1426.000000	64.591979 
1425.000000	64.576530 
1424.000000	64.567828 
1423.000000	64.566755 
1422.000000	64.572787 
1421.000000	64.584088 
1420.000000	64.597773 
1419.000000	64.610552 
1418.000000	64.619541 
1417.000000	64.622640 
1416.000000	64.619040 
1415.000000	64.609265 
1414.000000	64.594745 
1413.000000	64.577627 
1412.000000	64.560198 
1411.000000	64.544510 
1410.000000	64.532136 
1409.000000	64.523649 
1408.000000	64.519023 
1407.000000	64.517569 
1406.000000	64.517903 
1405.000000	64.518475 
1404.000000	64.517736 
1403.000000	64.514589 
1402.000000	64.508366 
1401.000000	64.499282 
1400.000000	64.488124 
1399.000000	64.476346 
1398.000000	64.465761 
1397.000000	64.457941 
1396.000000	64.453935 
1395.000000	64.454007 
1394.000000	64.457678 
1393.000000	64.463782 
1392.000000	64.470767 
1391.000000	64.477109 
1390.000000	64.481854 
1389.000000	64.484381 
1388.000000	64.484786 
1387.000000	64.483547 
1386.000000	64.481258 
1385.000000	64.478468 
1384.000000	64.475274 
1383.000000	64.471626 
1382.000000	64.467120 
1381.000000	64.461398 
1380.000000	64.454317 
1379.000000	64.446020 
1378.000000	64.437127 
1377.000000	64.428472 
1376.000000	64.421200 
1375.000000	64.416241 
1374.000000	64.414596 
1373.000000	64.416885 
1372.000000	64.423513 
1371.000000	64.434480 
1370.000000	64.449477 
1369.000000	64.467763 
1368.000000	64.488148 
1367.000000	64.509177 
1366.000000	64.529156 
1365.000000	64.546465 
1364.000000	64.559817 
1363.000000	64.568591 
1362.000000	64.572906 
1361.000000	64.573502 
1360.000000	64.571619 
1359.000000	64.568638 
1358.000000	64.565563 
1357.000000	64.562892 
1356.000000	64.560270 
1355.000000	64.556860 
1354.000000	64.551734 
1353.000000	64.544391 
1352.000000	64.534926 
1351.000000	64.524412 
1350.000000	64.514589 
1349.000000	64.507484 
1348.000000	64.504694 
1347.000000	64.506888 
1346.000000	64.513635 
1345.000000	64.523148 
1344.000000	64.532780 
1343.000000	64.539790 
1342.000000	64.541935 
1341.000000	64.538145 
1340.000000	64.528727 
1339.000000	64.515495 
1338.000000	64.501070 
1337.000000	64.488506 
1336.000000	64.480185 
1335.000000	64.477586 
1334.000000	64.480733 
1333.000000	64.488482 
1332.000000	64.498686 
1331.000000	64.508748 
1330.000000	64.516162 
1329.000000	64.519119 
1328.000000	64.516782 
1327.000000	64.509320 
1326.000000	64.497756 
1325.000000	64.483833 
1324.000000	64.469313 
1323.000000	64.455604 
1322.000000	64.443731 
1321.000000	64.433979 
1320.000000	64.426040 
1319.000000	64.419221 
1318.000000	64.412808 
1317.000000	64.406108 
1316.000000	64.398837 
1315.000000	64.391183 
1314.000000	64.383554 
1313.000000	64.376592 
1312.000000	64.370870 
1311.000000	64.366912 
1310.000000	64.364933 
1309.000000	64.364886 
1308.000000	64.366602 
1307.000000	64.369988 
1306.000000	64.375066 
1305.000000	64.381933 
1304.000000	64.390707 
1303.000000	64.401435 
1302.000000	64.413905 
1301.000000	64.427590 
1300.000000	64.441728 
1299.000000	64.455366 
1298.000000	64.467620 
1297.000000	64.477634 
1296.000000	64.484882 
1295.000000	64.489173 
1294.000000	64.490652 
1293.000000	64.489626 
1292.000000	64.486360 
1291.000000	64.481019 
1290.000000	64.473795 
1289.000000	64.464807 
1288.000000	64.454364 
1287.000000	64.442849 
1286.000000	64.431023 
1285.000000	64.419794 
1284.000000	64.410066 
1283.000000	64.402461 
1282.000000	64.397382 
1281.000000	64.394593 
1280.000000	64.393305 
1279.000000	64.392280 
1278.000000	64.390063 
1277.000000	64.385366 
1276.000000	64.377379 
1275.000000	64.365673 
1274.000000	64.350533 
1273.000000	64.332842 
1272.000000	64.313960 
1271.000000	64.295434 
1270.000000	64.278912 
1269.000000	64.265871 
1268.000000	64.257574 
1267.000000	64.254856 
1266.000000	64.257979 
1265.000000	64.266395 
1264.000000	64.278984 
1263.000000	64.293932 
1262.000000	64.309263 
1261.000000	64.322996 
1260.000000	64.333796 
1259.000000	64.341139 
1258.000000	64.345479 
1257.000000	64.347982 
1256.000000	64.350247 
1255.000000	64.353656 
1254.000000	64.358878 
1253.000000	64.365482 
1252.000000	64.372014 
1251.000000	64.376139 
1250.000000	64.375424 
1249.000000	64.367938 
1248.000000	64.352989 
1247.000000	64.331650 
1246.000000	64.306235 
1245.000000	64.280176 
1244.000000	64.257335 
1243.000000	64.240956 
1242.000000	64.233112 
1241.000000	64.234209 
1240.000000	64.243268 
1239.000000	64.258003 
1238.000000	64.275383 
1237.000000	64.292526 
1236.000000	64.307069 
1235.000000	64.317703 
1234.000000	64.324116 
1233.000000	64.326715 
1232.000000	64.326214 
1231.000000	64.323496 
1230.000000	64.319181 
1229.000000	64.313530 
1228.000000	64.306688 
1227.000000	64.298892 
1226.000000	64.290857 
1225.000000	64.283728 
1224.000000	64.279222 
1223.000000	64.279127 
1222.000000	64.284968 
1221.000000	64.297485 
1220.000000	64.316463 
1219.000000	64.340591 
1218.000000	64.367747 
1217.000000	64.395308 
1216.000000	64.420795 
1215.000000	64.442300 
1214.000000	64.458799 
1213.000000	64.470219 
1212.000000	64.477086 
1211.000000	64.480257 
1210.000000	64.480447 
1209.000000	64.478063 
1208.000000	64.473176 
1207.000000	64.465618 
1206.000000	64.455318 
1205.000000	64.442539 
1204.000000	64.427900 
1203.000000	64.412569 
1202.000000	64.397931 
1201.000000	64.385509 
1200.000000	64.376568 
1199.000000	64.371991 
1198.000000	64.372110 
1197.000000	64.376688 
1196.000000	64.385032 
1195.000000	64.395809 
1194.000000	64.407277 
1193.000000	64.417481 
1192.000000	64.424395 
1191.000000	64.426136 
1190.000000	64.421224 
1189.000000	64.408898 
1188.000000	64.389204 
1187.000000	64.363074 
1186.000000	64.332199 
1185.000000	64.298796 
1184.000000	64.265227 
1183.000000	64.233708 
1182.000000	64.206027 
1181.000000	64.183282 
1180.000000	64.166116 
1179.000000	64.154958 
1178.000000	64.149999 
1177.000000	64.151644 
1176.000000	64.160299 
1175.000000	64.176273 
1174.000000	64.199399 
1173.000000	64.228701 
1172.000000	64.262175 
1171.000000	64.296841 
1170.000000	64.329147 
1169.000000	64.355468 
1168.000000	64.372897 
1167.000000	64.379906 
1166.000000	64.376664 
1165.000000	64.365077 
1164.000000	64.348220 
1163.000000	64.329981 
1162.000000	64.313793 
1161.000000	64.302372 
1160.000000	64.296817 
1159.000000	64.297127 
1158.000000	64.302086 
1157.000000	64.310121 
1156.000000	64.319467 
1155.000000	64.329051 
1154.000000	64.337992 
1153.000000	64.345598 
1152.000000	64.351129 
1151.000000	64.353895 
1150.000000	64.353036 
1149.000000	64.347696 
1148.000000	64.337682 
1147.000000	64.323568 
1146.000000	64.306569 
1145.000000	64.288568 
1144.000000	64.271616 
1143.000000	64.257669 
1142.000000	64.248418 
1141.000000	64.245080 
1140.000000	64.248013 
1139.000000	64.256906 
1138.000000	64.271163 
1137.000000	64.289665 
1136.000000	64.311003 
1135.000000	64.333486 
1134.000000	64.355373 
1133.000000	64.374947 
1132.000000	64.390563 
1131.000000	64.400839 
1130.000000	64.404726 
1129.000000	64.401769 
1128.000000	64.392471 
1127.000000	64.378404 
1126.000000	64.362263 
1125.000000	64.347410 
1124.000000	64.337491 
1123.000000	64.335393 
1122.000000	64.342665 
1121.000000	64.359045 
1120.000000	64.382433 
1119.000000	64.409470 
1118.000000	64.436244 
1117.000000	64.459085 
1116.000000	64.475059 
1115.000000	64.482140 
1114.000000	64.479446 
1113.000000	64.466977 
1112.000000	64.445614 
1111.000000	64.417171 
1110.000000	64.384007 
1109.000000	64.349293 
1108.000000	64.316368 
1107.000000	64.288234 
1106.000000	64.267110 
1105.000000	64.254021 
1104.000000	64.249253 
1103.000000	64.252257 
1102.000000	64.262294 
1101.000000	64.278221 
1100.000000	64.299297 
1099.000000	64.324998 
1098.000000	64.354801 
1097.000000	64.387679 
1096.000000	64.421939 
1095.000000	64.455151 
1094.000000	64.484405 
1093.000000	64.506673 
1092.000000	64.519667 
1091.000000	64.522290 
1090.000000	64.515185 
1089.000000	64.500665 
1088.000000	64.482474 
1087.000000	64.464902 
1086.000000	64.451861 
1085.000000	64.446258 
1084.000000	64.449524 
1083.000000	64.461255 
1082.000000	64.479947 
1081.000000	64.502525 
1080.000000	64.525628 
1079.000000	64.545488 
1078.000000	64.558768 
1077.000000	64.562487 
1076.000000	64.554190 
1075.000000	64.532399 
1074.000000	64.496636 
1073.000000	64.448118 
1072.000000	64.389753 
1071.000000	64.326214 
1070.000000	64.263439 
1069.000000	64.207625 
1068.000000	64.164257 
1067.000000	64.136934 
1066.000000	64.126610 
1065.000000	64.131760 
1064.000000	64.148736 
1063.000000	64.172315 
1062.000000	64.196991 
1061.000000	64.218044 
1060.000000	64.232277 
1059.000000	64.238214 
1058.000000	64.236378 
1057.000000	64.228558 
1056.000000	64.217543 
1055.000000	64.206075 
1054.000000	64.196228 
1053.000000	64.188814 
1052.000000	64.183306 
1051.000000	64.178252 
1050.000000	64.171504 
1049.000000	64.161252 
1048.000000	64.146518 
1047.000000	64.127540 
1046.000000	64.106154 
1045.000000	64.085292 
1044.000000	64.068508 
1043.000000	64.058971 
1042.000000	64.058661 
1041.000000	64.067697 
1040.000000	64.084410 
1039.000000	64.105749 
1038.000000	64.127850 
1037.000000	64.147162 
1036.000000	64.161396 
1035.000000	64.169955 
1034.000000	64.173769 
1033.000000	64.174818 
1032.000000	64.175415 
1031.000000	64.177370 
1030.000000	64.181518 
1029.000000	64.187598 
1028.000000	64.194464 
1027.000000	64.200544 
1026.000000	64.204716 
1025.000000	64.206433 
1024.000000	64.206314 
1023.000000	64.205527 
1022.000000	64.205431 
1021.000000	64.206933 
1020.000000	64.210152 
1019.000000	64.214253 
1018.000000	64.217662 
1017.000000	64.218592 
1016.000000	64.215564 
1015.000000	64.207839 
1014.000000	64.195799 
1013.000000	64.180612 
1012.000000	64.164280 
1011.000000	64.149165 
1010.000000	64.137554 
1009.000000	64.131283 
1008.000000	64.131379 
1007.000000	64.138150 
1006.000000	64.151120 
1005.000000	64.168977 
1004.000000	64.190101 
1003.000000	64.212799 
1002.000000	64.235687 
1001.000000	64.257454 
1000.000000	64.277315 
999.000000	 64.294600 
998.000000	 64.308953 
997.000000	 64.320206 
996.000000	 64.328217 
995.000000	 64.333033 
994.000000	 64.334511 
993.000000	 64.332795 
992.000000	 64.327883 
991.000000	 64.319801 
990.000000	 64.308285 
989.000000	 64.293074 
988.000000	 64.273691 
987.000000	 64.249682 
986.000000	 64.220905 
985.000000	 64.187574 
984.000000	 64.150643 
983.000000	 64.111804 
982.000000	 64.073514 
981.000000	 64.038705 
980.000000	 64.010167 
979.000000	 63.990187 
978.000000	 63.980031 
977.000000	 63.980078 
976.000000	 63.989305 
975.000000	 64.006090 
974.000000	 64.028096 
973.000000	 64.053082 
972.000000	 64.079046 
971.000000	 64.104938 
970.000000	 64.130020 
969.000000	 64.154171 
968.000000	 64.177632 
967.000000	 64.200472 
966.000000	 64.222550 
965.000000	 64.242887 
964.000000	 64.260053 
963.000000	 64.272189 
962.000000	 64.277672 
961.000000	 64.275455 
960.000000	 64.265561 
959.000000	 64.249587 
958.000000	 64.230585 
957.000000	 64.212679 
956.000000	 64.200186 
955.000000	 64.197015 
954.000000	 64.205622 
953.000000	 64.226245 
952.000000	 64.256787 
951.000000	 64.293169 
950.000000	 64.330172 
949.000000	 64.362406 
948.000000	 64.385390 
947.000000	 64.396810 
946.000000	 64.396548 
945.000000	 64.386558 
944.000000	 64.370179 
943.000000	 64.351367 
942.000000	 64.333653 
941.000000	 64.319682 
940.000000	 64.310669 
939.000000	 64.306616 
938.000000	 64.306521 
937.000000	 64.309358 
936.000000	 64.314174 
935.000000	 64.320468 
934.000000	 64.328074 
933.000000	 64.337253 
932.000000	 64.347934 
931.000000	 64.359498 
930.000000	 64.370751 
929.000000	 64.380002 
928.000000	 64.385366 
927.000000	 64.385437 
926.000000	 64.379858 
925.000000	 64.369535 
924.000000	 64.356780 
923.000000	 64.344739 
922.000000	 64.337205 
921.000000	 64.337515 
920.000000	 64.347839 
919.000000	 64.368462 
918.000000	 64.397764 
917.000000	 64.432215 
916.000000	 64.467191 
915.000000	 64.497470 
914.000000	 64.518690 
913.000000	 64.527869 
912.000000	 64.523911 
911.000000	 64.507627 
910.000000	 64.481401 
909.000000	 64.448666 
908.000000	 64.413261 
907.000000	 64.378714 
906.000000	 64.347958 
905.000000	 64.322972 
904.000000	 64.304828 
903.000000	 64.293789 
902.000000	 64.289617 
901.000000	 64.291405 
900.000000	 64.297652 
899.000000	 64.306330 
898.000000	 64.315152 
897.000000	 64.321470 
896.000000	 64.323210 
895.000000	 64.318871 
894.000000	 64.308309 
893.000000	 64.292597 
892.000000	 64.273691 
891.000000	 64.254236 
890.000000	 64.236617 
889.000000	 64.222669 
888.000000	 64.213466 
887.000000	 64.208912 
886.000000	 64.208388 
885.000000	 64.211034 
884.000000	 64.216017 
883.000000	 64.222645 
882.000000	 64.230465 
881.000000	 64.239192 
880.000000	 64.248180 
879.000000	 64.256286 
878.000000	 64.262008 
877.000000	 64.263916 
876.000000	 64.260768 
875.000000	 64.252114 
874.000000	 64.238548 
873.000000	 64.221668 
872.000000	 64.203786 
871.000000	 64.187240 
870.000000	 64.173722 
869.000000	 64.163923 
868.000000	 64.157772 
867.000000	 64.154481 
866.000000	 64.152741 
865.000000	 64.151334 
864.000000	 64.149403 
863.000000	 64.146828 
862.000000	 64.144015 
861.000000	 64.142417 
860.000000	 64.143800 
859.000000	 64.150691 
858.000000	 64.165115 
857.000000	 64.188861 
856.000000	 64.222526 
855.000000	 64.265441 
854.000000	 64.315629 
853.000000	 64.369940 
852.000000	 64.424371 
851.000000	 64.474892 
850.000000	 64.517807 
849.000000	 64.550042 
848.000000	 64.569401 
847.000000	 64.574766 
846.000000	 64.565873 
845.000000	 64.543056 
844.000000	 64.506983 
843.000000	 64.459133 
842.000000	 64.401531 
841.000000	 64.337062 
840.000000	 64.269161 
839.000000	 64.202308 
838.000000	 64.140963 
837.000000	 64.089298 
836.000000	 64.050054 
835.000000	 64.024281 
834.000000	 64.011192 
833.000000	 64.008235 
832.000000	 64.012122 
831.000000	 64.018964 
830.000000	 64.025688 
829.000000	 64.030361 
828.000000	 64.032745 
827.000000	 64.033675 
826.000000	 64.034986 
825.000000	 64.038634 
824.000000	 64.046120 
823.000000	 64.057850 
822.000000	 64.073443 
821.000000	 64.091992 
820.000000	 64.112329 
819.000000	 64.133405 
818.000000	 64.154958 
817.000000	 64.177370 
816.000000	 64.201498 
815.000000	 64.228296 
814.000000	 64.258503 
813.000000	 64.291763 
812.000000	 64.327096 
811.000000	 64.361882 
810.000000	 64.392662 
809.000000	 64.415216 
808.000000	 64.426183 
807.000000	 64.423537 
806.000000	 64.407300 
805.000000	 64.379978 
804.000000	 64.346599 
803.000000	 64.313173 
802.000000	 64.285564 
801.000000	 64.268136 
800.000000	 64.262819 
799.000000	 64.268636 
798.000000	 64.282131 
797.000000	 64.298200 
796.000000	 64.311456 
795.000000	 64.317560 
794.000000	 64.314460 
793.000000	 64.302182 
792.000000	 64.282870 
791.000000	 64.260005 
790.000000	 64.237380 
789.000000	 64.217805 
788.000000	 64.202928 
787.000000	 64.193224 
786.000000	 64.188361 
785.000000	 64.187312 
784.000000	 64.189052 
783.000000	 64.192938 
782.000000	 64.198923 
781.000000	 64.206933 
780.000000	 64.217400 
779.000000	 64.230966 
778.000000	 64.248323 
777.000000	 64.269924 
776.000000	 64.295554 
775.000000	 64.324259 
774.000000	 64.353966 
773.000000	 64.382123 
772.000000	 64.405179 
771.000000	 64.419317 
770.000000	 64.421463 
769.000000	 64.409923 
768.000000	 64.384603 
767.000000	 64.347195 
766.000000	 64.301133 
765.000000	 64.250850 
764.000000	 64.200806 
763.000000	 64.154505 
762.000000	 64.114332 
761.000000	 64.080786 
760.000000	 64.053058 
759.000000	 64.029455 
758.000000	 64.008355 
757.000000	 63.988447 
756.000000	 63.968801 
755.000000	 63.949298 
754.000000	 63.929700 
753.000000	 63.910984 
752.000000	 63.893771 
751.000000	 63.879656 
750.000000	 63.870120 
749.000000	 63.867306 
748.000000	 63.873314 
747.000000	 63.890194 
746.000000	 63.918852 
745.000000	 63.959217 
744.000000	 64.009547 
743.000000	 64.066505 
742.000000	 64.125370 
741.000000	 64.180612 
740.000000	 64.226794 
739.000000	 64.259672 
738.000000	 64.277172 
737.000000	 64.279866 
736.000000	 64.270901 
735.000000	 64.255619 
734.000000	 64.240074 
733.000000	 64.230060 
732.000000	 64.229512 
731.000000	 64.240241 
730.000000	 64.261102 
729.000000	 64.288997 
728.000000	 64.319109 
727.000000	 64.346623 
726.000000	 64.367198 
725.000000	 64.378118 
724.000000	 64.378452 
723.000000	 64.368796 
722.000000	 64.350986 
721.000000	 64.327168 
720.000000	 64.299774 
719.000000	 64.271187 
718.000000	 64.243865 
717.000000	 64.220380 
716.000000	 64.203214 
715.000000	 64.194583 
714.000000	 64.195609 
713.000000	 64.206004 
712.000000	 64.223146 
711.000000	 64.242696 
710.000000	 64.259433 
709.000000	 64.268422 
708.000000	 64.265966 
707.000000	 64.250373 
706.000000	 64.222455 
705.000000	 64.185023 
704.000000	 64.142060 
703.000000	 64.097619 
702.000000	 64.054727 
701.000000	 64.015340 
700.000000	 63.979959 
699.000000	 63.948845 
698.000000	 63.922381 
697.000000	 63.901972 
696.000000	 63.890027 
695.000000	 63.889789 
694.000000	 63.904261 
693.000000	 63.935136 
692.000000	 63.981580 
691.000000	 64.039921 
690.000000	 64.103746 
689.000000	 64.165234 
688.000000	 64.216375 
687.000000	 64.251041 
686.000000	 64.265799 
685.000000	 64.260625 
684.000000	 64.238691 
683.000000	 64.205288 
682.000000	 64.166712 
681.000000	 64.128899 
680.000000	 64.096498 
679.000000	 64.072656 
678.000000	 64.058589 
677.000000	 64.054679 
676.000000	 64.060091 
675.000000	 64.073586 
674.000000	 64.093565 
673.000000	 64.117860 
672.000000	 64.144420 
671.000000	 64.170885 
670.000000	 64.195799 
669.000000	 64.218163 
668.000000	 64.238286 
667.000000	 64.257621 
666.000000	 64.278006 
665.000000	 64.301371 
664.000000	 64.328002 
663.000000	 64.356231 
662.000000	 64.382052 
661.000000	 64.399957 
660.000000	 64.403986 
659.000000	 64.389681 
658.000000	 64.355421 
657.000000	 64.303493 
656.000000	 64.240002 
655.000000	 64.174056 
654.000000	 64.115500 
653.000000	 64.072847 
652.000000	 64.051675 
651.000000	 64.053201 
650.000000	 64.074420 
649.000000	 64.108610 
648.000000	 64.147186 
647.000000	 64.181494 
646.000000	 64.204549 
645.000000	 64.212346 
644.000000	 64.203906 
643.000000	 64.181399 
642.000000	 64.148712 
641.000000	 64.111113 
640.000000	 64.074063 
639.000000	 64.042568 
638.000000	 64.020323 
637.000000	 64.009928 
636.000000	 64.012932 
635.000000	 64.029359 
634.000000	 64.057898 
633.000000	 64.095807 
632.000000	 64.139366 
631.000000	 64.183855 
630.000000	 64.224314 
629.000000	 64.256119 
628.000000	 64.275789 
627.000000	 64.281439 
626.000000	 64.273285 
625.000000	 64.253163 
624.000000	 64.224386 
623.000000	 64.191412 
622.000000	 64.158964 
621.000000	 64.131283 
620.000000	 64.111447 
619.000000	 64.101862 
618.000000	 64.102792 
617.000000	 64.113235 
616.000000	 64.130043 
615.000000	 64.149165 
614.000000	 64.165186 
613.000000	 64.172482 
612.000000	 64.166116 
611.000000	 64.142870 
610.000000	 64.102125 
609.000000	 64.045953 
608.000000	 63.979482 
607.000000	 63.910174 
606.000000	 63.846278 
605.000000	 63.795638 
604.000000	 63.763737 
603.000000	 63.752913 
602.000000	 63.762402 
601.000000	 63.788628 
600.000000	 63.825392 
599.000000	 63.865876 
598.000000	 63.904023 
597.000000	 63.935923 
596.000000	 63.959360 
595.000000	 63.974881 
594.000000	 63.984417 
593.000000	 63.991546 
592.000000	 63.999819 
591.000000	 64.012956 
590.000000	 64.033603 
589.000000	 64.063549 
588.000000	 64.103960 
587.000000	 64.154553 
586.000000	 64.213895 
585.000000	 64.279246 
584.000000	 64.347171 
583.000000	 64.413857 
582.000000	 64.475417 
581.000000	 64.528250 
580.000000	 64.569234 
579.000000	 64.595293 
578.000000	 64.603424 
577.000000	 64.591073 
576.000000	 64.556312 
575.000000	 64.498043 
574.000000	 64.416742 
573.000000	 64.315629 
572.000000	 64.200878 
571.000000	 64.080858 
570.000000	 63.965725 
569.000000	 63.866114 
568.000000	 63.791775 
567.000000	 63.749432 
566.000000	 63.742542 
565.000000	 63.769364 
564.000000	 63.825321 
563.000000	 63.903403 
562.000000	 63.995552 
561.000000	 64.093446 
560.000000	 64.189195 
559.000000	 64.275336 
558.000000	 64.345335 
557.000000	 64.393329 
556.000000	 64.415574 
555.000000	 64.410948 
554.000000	 64.381504 
553.000000	 64.332389 
552.000000	 64.271187 
551.000000	 64.207005 
550.000000	 64.148592 
549.000000	 64.103722 
548.000000	 64.078640 
547.000000	 64.078021 
546.000000	 64.104723 
545.000000	 64.159297 
544.000000	 64.239978 
543.000000	 64.341807 
542.000000	 64.457082 
541.000000	 64.575409 
540.000000	 64.684581 
539.000000	 64.772725 
538.000000	 64.830088 
537.000000	 64.851498 
536.000000	 64.836907 
535.000000	 64.792323 
534.000000	 64.728975 
533.000000	 64.660573 
532.000000	 64.600968 
531.000000	 64.560461 
530.000000	 64.544224 
529.000000	 64.550518 
528.000000	 64.572143 
527.000000	 64.597702 
526.000000	 64.615297 
525.000000	 64.615988 
524.000000	 64.596462 
523.000000	 64.559197 
522.000000	 64.511775 
521.000000	 64.464235 
520.000000	 64.426207 
519.000000	 64.403557 
518.000000	 64.397406 
517.000000	 64.404654 
516.000000	 64.418673 
515.000000	 64.432334 
514.000000	 64.439105 
513.000000	 64.435005 
512.000000	 64.419198 
511.000000	 64.393019 
510.000000	 64.360928 
509.000000	 64.328455 
508.000000	 64.302420 
507.000000	 64.289498 
506.000000	 64.294528 
505.000000	 64.319539 
504.000000	 64.363098 
503.000000	 64.420628 
502.000000	 64.485049 
501.000000	 64.548110 
500.000000	 64.601612 
499.000000	 64.638447 
498.000000	 64.653015 
497.000000	 64.641880 
496.000000	 64.604330 
495.000000	 64.542388 
494.000000	 64.460659 
493.000000	 64.365649 
492.000000	 64.265346 
491.000000	 64.167571 
490.000000	 64.079141 
489.000000	 64.005351 
488.000000	 63.947963 
487.000000	 63.908267 
486.000000	 63.886237 
485.000000	 63.884449 
484.000000	 63.906168 
483.000000	 63.957524 
482.000000	 64.045286 
481.000000	 64.174389 
480.000000	 64.345383 
479.000000	 64.550733 
478.000000	 64.774608 
477.000000	 64.992976 
476.000000	 65.177202 
475.000000	 65.300917 
474.000000	 65.346264 
473.000000	 65.309500 
472.000000	 65.202665 
471.000000	 65.051364 
470.000000	 64.888906 
469.000000	 64.748263 
468.000000	 64.653730 
467.000000	 64.618229 
466.000000	 64.638590 
465.000000	 64.698386 
464.000000	 64.770746 
463.000000	 64.823651 
462.000000	 64.830088 
461.000000	 64.772391 
460.000000	 64.651036 
459.000000	 64.485144 
458.000000	 64.307737 
457.000000	 64.157962 
456.000000	 64.068150 
455.000000	 64.056658 
454.000000	 64.118528 
453.000000	 64.223885 
452.000000	 64.330220 
451.000000	 64.394903 
450.000000	 64.388251 
449.000000	 64.303684 
448.000000	 64.156770 
447.000000	 63.979148 
446.000000	 63.809728 
445.000000	 63.682556 
444.000000	 63.611078 
443.000000	 63.584494 
442.000000	 63.573122 
441.000000	 63.538837 
440.000000	 63.449883 
439.000000	 63.292765 
438.000000	 63.077497 
437.000000	 62.835884 
436.000000	 62.617826 
435.000000	 62.470626 
434.000000	 62.423753 
433.000000	 62.473702 
432.000000	 62.588047 
431.000000	 62.703561 
430.000000	 62.741851 
429.000000	 62.628769 
428.000000	 62.316131 
427.000000	 61.797475 
426.000000	 61.104655 
425.000000	 60.318994 
424.000000	 59.550094 
423.000000	 58.924770 
422.000000	 58.551883 
421.000000	 58.523082 
420.000000	 58.893370 
419.000000	 59.667921 
418.000000	 60.795044 
417.000000	 62.173676 
416.000000	 63.663387 
415.000000	 65.090966 
414.000000	 66.274952 
413.000000	 67.066574 
412.000000	 67.366552 
411.000000	 67.128753 
410.000000	 66.367912 
409.000000	 65.176272 
408.000000	 63.687705 
407.000000	 62.058138 
406.000000	 60.430717 
405.000000	 58.922314 
404.000000	 57.602477 
403.000000	 56.529045 
402.000000	 55.706286 
401.000000	 55.092263 
400.000000	 54.611992 
399.000000	 54.184889 
398.000000	 53.728961 
397.000000	 53.173160 
396.000000	 52.470707 
395.000000	 51.601624 
394.000000	 50.570201 
393.000000	 49.398541 
392.000000	 48.114752 
391.000000	 46.733713 
390.000000	 45.301771 
389.000000	 43.861126 
388.000000	 42.409873 
387.000000	 40.891218 
386.000000	 39.081549 
385.000000	 36.702394 
384.000000	 33.638215 
383.000000	 29.900002 
382.000000	 25.787329 
381.000000	 21.785163 
380.000000	 17.666172 
379.000000	 13.432860 
378.000000	 9.594941  
377.000000	 7.017636  
376.000000	 7.825207  
375.000000	 13.333940 
374.000000	 23.106646 
373.000000	 35.208773 
372.000000	 45.022773 
371.000000	 49.298167 
370.000000	 47.553443 

