PE IR       SPECTRUM    SPECTRUM    ASCII       PEDS        1.60        
  -1
BZ6BA3~1.ASC
17/04/07
17:36:00.00
17/04/07
17:36:00.00
tln
$BZ1503107-1_t0053$<tbV0>[-7.8,-2.6,8.0,0.0,27,1,0]
370.000000
64









2002,4.07    
MIRTGS : RIGHTBACK : INTERNAL 2
MIR : ON : INTERNAL 2
OPTKBR

0.200000
8
8.000000
FILLER
RATIO
SPECTRUM
UNLOCKED 256

DOUBLE
64
COMBINED
1
0
0


1.000000
RATIO


1
0
TRUE
51149
0
LEFT NOT FITTED RIGHT NOT FITTED 0
NONE
NONE
15600
12.000000
4.427000
51148
TRUE
1 0 8 72 0 0 0 0 

15798.010000






#HDR
-1
-1
#GR
CM-1
%T
0.00002384185791015625
0.0
5000.000000
-1.000000
4631
8
81.593704
48.880791
#DATA
5000.000000	65.580058 
4999.000000	65.865612 
4998.000000	66.117548 
4997.000000	66.320776 
4996.000000	66.464614 
4995.000000	66.543197 
4994.000000	66.556119 
4993.000000	66.510510 
4992.000000	66.417908 
4991.000000	66.296362 
4990.000000	66.162419 
4989.000000	66.032743 
4988.000000	65.913510 
4987.000000	65.802097 
4986.000000	65.684390 
4985.000000	65.541005 
4984.000000	65.351343 
4983.000000	65.101766 
4982.000000	64.792108 
4981.000000	64.439606 
4980.000000	64.075469 
4979.000000	63.741397 
4978.000000	63.479757 
4977.000000	63.326978 
4976.000000	63.304758 
4975.000000	63.417434 
4974.000000	63.649988 
4973.000000	63.972520 
4972.000000	64.346051 
4971.000000	64.729404 
4970.000000	65.083599 
4969.000000	65.378165 
4968.000000	65.593194 
4967.000000	65.719723 
4966.000000	65.757203 
4965.000000	65.712070 
4964.000000	65.596294 
4963.000000	65.424609 
4962.000000	65.215611 
4961.000000	64.987993 
4960.000000	64.761257 
4959.000000	64.553117 
4958.000000	64.379954 
4957.000000	64.252471 
4956.000000	64.175152 
4955.000000	64.145660 
4954.000000	64.155817 
4953.000000	64.191436 
4952.000000	64.235663 
4951.000000	64.272069 
4950.000000	64.288330 
4949.000000	64.276528 
4948.000000	64.235854 
4947.000000	64.171481 
4946.000000	64.093708 
4945.000000	64.013481 
4944.000000	63.941335 
4943.000000	63.884878 
4942.000000	63.848447 
4941.000000	63.833498 
4940.000000	63.838768 
4939.000000	63.860726 
4938.000000	63.895344 
4937.000000	63.939738 
4936.000000	63.990855 
4935.000000	64.044809 
4934.000000	64.097261 
4933.000000	64.142799 
4932.000000	64.176583 
4931.000000	64.194822 
4930.000000	64.196777 
4929.000000	64.184975 
4928.000000	64.166331 
4927.000000	64.150619 
4926.000000	64.147162 
4925.000000	64.162755 
4924.000000	64.199686 
4923.000000	64.255571 
4922.000000	64.324164 
4921.000000	64.397215 
4920.000000	64.467167 
4919.000000	64.528822 
4918.000000	64.580869 
4917.000000	64.625048 
4916.000000	64.664936 
4915.000000	64.703822 
4914.000000	64.742732 
4913.000000	64.780020 
4912.000000	64.811635 
4911.000000	64.832663 
4910.000000	64.839696 
4909.000000	64.831423 
4908.000000	64.810347 
4907.000000	64.780926 
4906.000000	64.748811 
4905.000000	64.718627 
4904.000000	64.692807 
4903.000000	64.672183 
4902.000000	64.656209 
4901.000000	64.644408 
4900.000000	64.636540 
4899.000000	64.632558 
4898.000000	64.632225 
4897.000000	64.633870 
4896.000000	64.634799 
4895.000000	64.631080 
4894.000000	64.619159 
4893.000000	64.596962 
4892.000000	64.565086 
4891.000000	64.527177 
4890.000000	64.488935 
4889.000000	64.457416 
4888.000000	64.438033 
4887.000000	64.433526 
4886.000000	64.442110 
4885.000000	64.457488 
4884.000000	64.470672 
4883.000000	64.472413 
4882.000000	64.456200 
4881.000000	64.420151 
4880.000000	64.368200 
4879.000000	64.309024 
4878.000000	64.254236 
4877.000000	64.214849 
4876.000000	64.199352 
4875.000000	64.211368 
4874.000000	64.249181 
4873.000000	64.306116 
4872.000000	64.372587 
4871.000000	64.438676 
4870.000000	64.495992 
4869.000000	64.540004 
4868.000000	64.571022 
4867.000000	64.593958 
4866.000000	64.615845 
4865.000000	64.643836 
4864.000000	64.682698 
4863.000000	64.733123 
4862.000000	64.791846 
4861.000000	64.851713 
4860.000000	64.904403 
4859.000000	64.941692 
4858.000000	64.959168 
4857.000000	64.955830 
4856.000000	64.934659 
4855.000000	64.901232 
4854.000000	64.862298 
4853.000000	64.823770 
4852.000000	64.789581 
4851.000000	64.760756 
4850.000000	64.735960 
4849.000000	64.712119 
4848.000000	64.685702 
4847.000000	64.653658 
4846.000000	64.614295 
4845.000000	64.566802 
4844.000000	64.511418 
4843.000000	64.448475 
4842.000000	64.379048 
4841.000000	64.304757 
4840.000000	64.228892 
4839.000000	64.155507 
4838.000000	64.090538 
4837.000000	64.040756 
4836.000000	64.013314 
4835.000000	64.013361 
4834.000000	64.043545 
4833.000000	64.102768 
4832.000000	64.186167 
4831.000000	64.285230 
4830.000000	64.389252 
4829.000000	64.486622 
4828.000000	64.567184 
4827.000000	64.623498 
4826.000000	64.652419 
4825.000000	64.655256 
4824.000000	64.637136 
4823.000000	64.605832 
4822.000000	64.569473 
4821.000000	64.534807 
4820.000000	64.506292 
4819.000000	64.485406 
4818.000000	64.471101 
4817.000000	64.460587 
4816.000000	64.450979 
4815.000000	64.440274 
4814.000000	64.427566 
4813.000000	64.413499 
4812.000000	64.399433 
4811.000000	64.387488 
4810.000000	64.378905 
4809.000000	64.374613 
4808.000000	64.374566 
4807.000000	64.378881 
4806.000000	64.387464 
4805.000000	64.400792 
4804.000000	64.419960 
4803.000000	64.445924 
4802.000000	64.479160 
4801.000000	64.518523 
4800.000000	64.561247 
4799.000000	64.602780 
4798.000000	64.637684 
4797.000000	64.660549 
4796.000000	64.667248 
4795.000000	64.656043 
4794.000000	64.628243 
4793.000000	64.588046 
4792.000000	64.541769 
4791.000000	64.496803 
4790.000000	64.460015 
4789.000000	64.436650 
4788.000000	64.429140 
4787.000000	64.436912 
4786.000000	64.456653 
4785.000000	64.483094 
4784.000000	64.510560 
4783.000000	64.534139 
4782.000000	64.551019 
4781.000000	64.560222 
4780.000000	64.563441 
4779.000000	64.563751 
4778.000000	64.565372 
4777.000000	64.571785 
4776.000000	64.585828 
4775.000000	64.608955 
4774.000000	64.641094 
4773.000000	64.681029 
4772.000000	64.726185 
4771.000000	64.773392 
4770.000000	64.819073 
4769.000000	64.859914 
4768.000000	64.892625 
4767.000000	64.914059 
4766.000000	64.921736 
4765.000000	64.914035 
4764.000000	64.890336 
4763.000000	64.851069 
4762.000000	64.798116 
4761.000000	64.733982 
4760.000000	64.662027 
4759.000000	64.585471 
4758.000000	64.507651 
4757.000000	64.431524 
4756.000000	64.359617 
4755.000000	64.294028 
4754.000000	64.236211 
4753.000000	64.187145 
4752.000000	64.146995 
4751.000000	64.115977 
4750.000000	64.093136 
4749.000000	64.078307 
4748.000000	64.071464 
4747.000000	64.074206 
4746.000000	64.088320 
4745.000000	64.116597 
4744.000000	64.161300 
4743.000000	64.223504 
4742.000000	64.301681 
4741.000000	64.391708 
4740.000000	64.486575 
4739.000000	64.577364 
4738.000000	64.654636 
4737.000000	64.710378 
4736.000000	64.739632 
4735.000000	64.741516 
4734.000000	64.719033 
4733.000000	64.678454 
4732.000000	64.627504 
4731.000000	64.574170 
4730.000000	64.524793 
4729.000000	64.483141 
4728.000000	64.450120 
4727.000000	64.425587 
4726.000000	64.408349 
4725.000000	64.396834 
4724.000000	64.390325 
4723.000000	64.389204 
4722.000000	64.394521 
4721.000000	64.406824 
4720.000000	64.426040 
4719.000000	64.450573 
4718.000000	64.477705 
4717.000000	64.503979 
4716.000000	64.525818 
4715.000000	64.540529 
4714.000000	64.546656 
4713.000000	64.544248 
4712.000000	64.534568 
4711.000000	64.519476 
4710.000000	64.500808 
4709.000000	64.480113 
4708.000000	64.457988 
4707.000000	64.434862 
4706.000000	64.411425 
4705.000000	64.389705 
4704.000000	64.372348 
4703.000000	64.363551 
4702.000000	64.368343 
4701.000000	64.391970 
4700.000000	64.438176 
4699.000000	64.508104 
4698.000000	64.599514 
4697.000000	64.706230 
4696.000000	64.819049 
4695.000000	64.926767 
4694.000000	65.018200 
4693.000000	65.083861 
4692.000000	65.117645 
4691.000000	65.118169 
4690.000000	65.088725 
4689.000000	65.037131 
4688.000000	64.974141 
4687.000000	64.911699 
4686.000000	64.860725 
4685.000000	64.829635 
4684.000000	64.822602 
4683.000000	64.839029 
4682.000000	64.873480 
4681.000000	64.917135 
4680.000000	64.959359 
4679.000000	64.989519 
4678.000000	64.999341 
4677.000000	64.984345 
4676.000000	64.944744 
4675.000000	64.885187 
4674.000000	64.813661 
4673.000000	64.739894 
4672.000000	64.672517 
4671.000000	64.617896 
4670.000000	64.578247 
4669.000000	64.552140 
4668.000000	64.535164 
4667.000000	64.521932 
4666.000000	64.507913 
4665.000000	64.490485 
4664.000000	64.470481 
4663.000000	64.451718 
4662.000000	64.439702 
4661.000000	64.439535 
4660.000000	64.454698 
4659.000000	64.485692 
4658.000000	64.529943 
4657.000000	64.582252 
4656.000000	64.636301 
4655.000000	64.686250 
4654.000000	64.728188 
4653.000000	64.760899 
4652.000000	64.785337 
4651.000000	64.804124 
4650.000000	64.820122 
4649.000000	64.836096 
4648.000000	64.854025 
4647.000000	64.874386 
4646.000000	64.897489 
4645.000000	64.922308 
4644.000000	64.947676 
4643.000000	64.971947 
4642.000000	64.993715 
4641.000000	65.011572 
4640.000000	65.023970 
4639.000000	65.030050 
4638.000000	65.029692 
4637.000000	65.023756 
4636.000000	65.014243 
4635.000000	65.003871 
4634.000000	64.995813 
4633.000000	64.992594 
4632.000000	64.995598 
4631.000000	65.004587 
4630.000000	65.017819 
4629.000000	65.032911 
4628.000000	65.047240 
4627.000000	65.058779 
4626.000000	65.066361 
4625.000000	65.069580 
4624.000000	65.068769 
4623.000000	65.064167 
4622.000000	65.056586 
4621.000000	65.047192 
4620.000000	65.037918 
4619.000000	65.031528 
4618.000000	65.030789 
4617.000000	65.038228 
4616.000000	65.054821 
4615.000000	65.079832 
4614.000000	65.110254 
4613.000000	65.141463 
4612.000000	65.168166 
4611.000000	65.185475 
4610.000000	65.190720 
4609.000000	65.184187 
4608.000000	65.169191 
4607.000000	65.151429 
4606.000000	65.136933 
4605.000000	65.130662 
4604.000000	65.134692 
4603.000000	65.148067 
4602.000000	65.167021 
4601.000000	65.186452 
4600.000000	65.201497 
4599.000000	65.209078 
4598.000000	65.208649 
4597.000000	65.202426 
4596.000000	65.194058 
4595.000000	65.187954 
4594.000000	65.188097 
4593.000000	65.196990 
4592.000000	65.215063 
4591.000000	65.240573 
4590.000000	65.270280 
4589.000000	65.300035 
4588.000000	65.325975 
4587.000000	65.345144 
4586.000000	65.355873 
4585.000000	65.358519 
4584.000000	65.354681 
4583.000000	65.347528 
4582.000000	65.340948 
4581.000000	65.338802 
4580.000000	65.343952 
4579.000000	65.357875 
4578.000000	65.380048 
4577.000000	65.407943 
4576.000000	65.437579 
4575.000000	65.464472 
4574.000000	65.484571 
4573.000000	65.495419 
4572.000000	65.496492 
4571.000000	65.488862 
4570.000000	65.474748 
4569.000000	65.456962 
4568.000000	65.438246 
4567.000000	65.420866 
4566.000000	65.406441 
4565.000000	65.396165 
4564.000000	65.390682 
4563.000000	65.390396 
4562.000000	65.395355 
4561.000000	65.405678 
4560.000000	65.421009 
4559.000000	65.440201 
4558.000000	65.461301 
4557.000000	65.481400 
4556.000000	65.497231 
4555.000000	65.505766 
4554.000000	65.504527 
4553.000000	65.492153 
4552.000000	65.468859 
4551.000000	65.436530 
4550.000000	65.398502 
4549.000000	65.359401 
4548.000000	65.324735 
4547.000000	65.300202 
4546.000000	65.290594 
4545.000000	65.298938 
4544.000000	65.325689 
4543.000000	65.368604 
4542.000000	65.422344 
4541.000000	65.480470 
4540.000000	65.536427 
4539.000000	65.585756 
4538.000000	65.626621 
4537.000000	65.660381 
4536.000000	65.690422 
4535.000000	65.720868 
4534.000000	65.755558 
4533.000000	65.795588 
4532.000000	65.839147 
4531.000000	65.881037 
4530.000000	65.914702 
4529.000000	65.933394 
4528.000000	65.932464 
4527.000000	65.910530 
4526.000000	65.870404 
4525.000000	65.818238 
4524.000000	65.762162 
4523.000000	65.710449 
4522.000000	65.669631 
4521.000000	65.643119 
4520.000000	65.630531 
4519.000000	65.628504 
4518.000000	65.631890 
4517.000000	65.634822 
4516.000000	65.632963 
4515.000000	65.623784 
4514.000000	65.608239 
4513.000000	65.589714 
4512.000000	65.574240 
4511.000000	65.568137 
4510.000000	65.577340 
4509.000000	65.605926 
4508.000000	65.654945 
4507.000000	65.721797 
4506.000000	65.800356 
4505.000000	65.882253 
4504.000000	65.957903 
4503.000000	66.018176 
4502.000000	66.056513 
4501.000000	66.070318 
4500.000000	66.061639 
4499.000000	66.036367 
4498.000000	66.003632 
4497.000000	65.973520 
4496.000000	65.954995 
4495.000000	65.953707 
4494.000000	65.971112 
4493.000000	66.004252 
4492.000000	66.046357 
4491.000000	66.088771 
4490.000000	66.123557 
4489.000000	66.145205 
4488.000000	66.151142 
4487.000000	66.142511 
4486.000000	66.123890 
4485.000000	66.101264 
4484.000000	66.080880 
4483.000000	66.066622 
4482.000000	66.059565 
4481.000000	66.057109 
4480.000000	66.054725 
4479.000000	66.046428 
4478.000000	66.028022 
4477.000000	65.996551 
4476.000000	65.950250 
4475.000000	65.891432 
4474.000000	65.828585 
4473.000000	65.767669 
4472.000000	65.708780 
4471.000000	65.654563 
4470.000000	65.609955 
4469.000000	65.577888 
4468.000000	65.558457 
4467.000000	65.544152 
4466.000000	65.521693 
4465.000000	65.478754 
4464.000000	65.406036 
4463.000000	65.298485 
4462.000000	65.158486 
4461.000000	64.990663 
4460.000000	64.806580 
4459.000000	64.628911 
4458.000000	64.483642 
4457.000000	64.389801 
4456.000000	64.358973 
4455.000000	64.394426 
4454.000000	64.486670 
4453.000000	64.624452 
4452.000000	64.778304 
4451.000000	64.916896 
4450.000000	64.982604 
4449.000000	64.914560 
4448.000000	64.622473 
4447.000000	64.004874 
4446.000000	62.977266 
4445.000000	61.501431 
4444.000000	59.630107 
4443.000000	57.516479 
4442.000000	55.423927 
4441.000000	53.675770 
4440.000000	52.595806 
4439.000000	52.415060 
4438.000000	53.211975 
4437.000000	54.860019 
4436.000000	57.025361 
4435.000000	59.235215 
4434.000000	60.965919 
4433.000000	61.786365 
4432.000000	61.452603 
4431.000000	59.985136 
4430.000000	57.657003 
4429.000000	54.929018 
4428.000000	52.314305 
4427.000000	50.275516 
4426.000000	49.101138 
4425.000000	48.880791 
4424.000000	49.515247 
4423.000000	50.772166 
4422.000000	52.385473 
4421.000000	54.104161 
4420.000000	55.750727 
4419.000000	57.230257 
4418.000000	58.511924 
4417.000000	59.621000 
4416.000000	60.595846 
4415.000000	61.479163 
4414.000000	62.292408 
4413.000000	63.038349 
4412.000000	63.697624 
4411.000000	64.256072 
4410.000000	64.702939 
4409.000000	65.040373 
4408.000000	65.278244 
4407.000000	65.440559 
4406.000000	65.552830 
4405.000000	65.637612 
4404.000000	65.710210 
4403.000000	65.779590 
4402.000000	65.849208 
4401.000000	65.930700 
4400.000000	66.032719 
4399.000000	66.165876 
4398.000000	66.332268 
4397.000000	66.522502 
4396.000000	66.718173 
4395.000000	66.899466 
4394.000000	67.042016 
4393.000000	67.121958 
4392.000000	67.122817 
4391.000000	67.039537 
4390.000000	66.881084 
4389.000000	66.670441 
4388.000000	66.430521 
4387.000000	66.180062 
4386.000000	65.937972 
4385.000000	65.720486 
4384.000000	65.537500 
4383.000000	65.393400 
4382.000000	65.291833 
4381.000000	65.234589 
4380.000000	65.217113 
4379.000000	65.232253 
4378.000000	65.272164 
4377.000000	65.329194 
4376.000000	65.392756 
4375.000000	65.454220 
4374.000000	65.505886 
4373.000000	65.544438 
4372.000000	65.567779 
4371.000000	65.579700 
4370.000000	65.587925 
4369.000000	65.603709 
4368.000000	65.638589 
4367.000000	65.702128 
4366.000000	65.799021 
4365.000000	65.927076 
4364.000000	66.077184 
4363.000000	66.234803 
4362.000000	66.382932 
4361.000000	66.505312 
4360.000000	66.589140 
4359.000000	66.626524 
4358.000000	66.615104 
4357.000000	66.558670 
4356.000000	66.465115 
4355.000000	66.344380 
4354.000000	66.206264 
4353.000000	66.061234 
4352.000000	65.917778 
4351.000000	65.782856 
4350.000000	65.661025 
4349.000000	65.555620 
4348.000000	65.468502 
4347.000000	65.400385 
4346.000000	65.351676 
4345.000000	65.320968 
4344.000000	65.307331 
4343.000000	65.309214 
4342.000000	65.325546 
4341.000000	65.354037 
4340.000000	65.392494 
4339.000000	65.438127 
4338.000000	65.487718 
4337.000000	65.537285 
4336.000000	65.583682 
4335.000000	65.624547 
4334.000000	65.659189 
4333.000000	65.688014 
4332.000000	65.712881 
4331.000000	65.735864 
4330.000000	65.758252 
4329.000000	65.779590 
4328.000000	65.797924 
4327.000000	65.809702 
4326.000000	65.811014 
4325.000000	65.798449 
4324.000000	65.770339 
4323.000000	65.727663 
4322.000000	65.674734 
4321.000000	65.618133 
4320.000000	65.565109 
4319.000000	65.522408 
4318.000000	65.495109 
4317.000000	65.485382 
4316.000000	65.492248 
4315.000000	65.512108 
4314.000000	65.539884 
4313.000000	65.570044 
4312.000000	65.597915 
4311.000000	65.620279 
4310.000000	65.635538 
4309.000000	65.644335 
4308.000000	65.648531 
4307.000000	65.650606 
4306.000000	65.652322 
4305.000000	65.654778 
4304.000000	65.657544 
4303.000000	65.658879 
4302.000000	65.656185 
4301.000000	65.646767 
4300.000000	65.628337 
4299.000000	65.600180 
4298.000000	65.563297 
4297.000000	65.520215 
4296.000000	65.474534 
4295.000000	65.430331 
4294.000000	65.391182 
4293.000000	65.359544 
4292.000000	65.336179 
4291.000000	65.320301 
4290.000000	65.309858 
4289.000000	65.302228 
4288.000000	65.294694 
4287.000000	65.285110 
4286.000000	65.272068 
4285.000000	65.254688 
4284.000000	65.232658 
4283.000000	65.205931 
4282.000000	65.175080 
4281.000000	65.141081 
4280.000000	65.105795 
4279.000000	65.071868 
4278.000000	65.042877 
4277.000000	65.022826 
4276.000000	65.015697 
4275.000000	65.024304 
4274.000000	65.049743 
4273.000000	65.090847 
4272.000000	65.144062 
4271.000000	65.203833 
4270.000000	65.263557 
4269.000000	65.316605 
4268.000000	65.357589 
4267.000000	65.382909 
4266.000000	65.391039 
4265.000000	65.382432 
4264.000000	65.359520 
4263.000000	65.325570 
4262.000000	65.284252 
4261.000000	65.238976 
4260.000000	65.193057 
4259.000000	65.149211 
4258.000000	65.109872 
4257.000000	65.077233 
4256.000000	65.053248 
4255.000000	65.039658 
4254.000000	65.037679 
4253.000000	65.047645 
4252.000000	65.068602 
4251.000000	65.098261 
4250.000000	65.133094 
4249.000000	65.168428 
4248.000000	65.199565 
4247.000000	65.222287 
4246.000000	65.233850 
4245.000000	65.233397 
4244.000000	65.221953 
4243.000000	65.202713 
4242.000000	65.179944 
4241.000000	65.158271 
4240.000000	65.141415 
4239.000000	65.132045 
4238.000000	65.130472 
4237.000000	65.135288 
4236.000000	65.143489 
4235.000000	65.151596 
4234.000000	65.156316 
4233.000000	65.155267 
4232.000000	65.147399 
4231.000000	65.132761 
4230.000000	65.112638 
4229.000000	65.088772 
4228.000000	65.063238 
4227.000000	65.037846 
4226.000000	65.014076 
4225.000000	64.992737 
4224.000000	64.973688 
4223.000000	64.956212 
4222.000000	64.938879 
4221.000000	64.920473 
4220.000000	64.900183 
4219.000000	64.878201 
4218.000000	64.855742 
4217.000000	64.835047 
4216.000000	64.818739 
4215.000000	64.809489 
4214.000000	64.809226 
4213.000000	64.818692 
4212.000000	64.837241 
4211.000000	64.863038 
4210.000000	64.893317 
4209.000000	64.925122 
4208.000000	64.955782 
4207.000000	64.983129 
4206.000000	65.006017 
4205.000000	65.023636 
4204.000000	65.035510 
4203.000000	65.041184 
4202.000000	65.040206 
4201.000000	65.032672 
4200.000000	65.019369 
4199.000000	65.001749 
4198.000000	64.982104 
4197.000000	64.962744 
4196.000000	64.945769 
4195.000000	64.932465 
4194.000000	64.923667 
4193.000000	64.919805 
4192.000000	64.921522 
4191.000000	64.929819 
4190.000000	64.946103 
4189.000000	64.971423 
4188.000000	65.005660 
4187.000000	65.047264 
4186.000000	65.092539 
4185.000000	65.136146 
4184.000000	65.171766 
4183.000000	65.193414 
4182.000000	65.197062 
4181.000000	65.182185 
4180.000000	65.151333 
4179.000000	65.110087 
4178.000000	65.064883 
4177.000000	65.021872 
4176.000000	64.984679 
4175.000000	64.954042 
4174.000000	64.927935 
4173.000000	64.903140 
4172.000000	64.876532 
4171.000000	64.846587 
4170.000000	64.813899 
4169.000000	64.781355 
4168.000000	64.752960 
4167.000000	64.733147 
4166.000000	64.725375 
4165.000000	64.731812 
4164.000000	64.752650 
4163.000000	64.786171 
4162.000000	64.829063 
4161.000000	64.876723 
4160.000000	64.924216 
4159.000000	64.966249 
4158.000000	64.997673 
4157.000000	65.014076 
4156.000000	65.012264 
4155.000000	64.991092 
4154.000000	64.951682 
4153.000000	64.897727 
4152.000000	64.835238 
4151.000000	64.771199 
4150.000000	64.712691 
4149.000000	64.665150 
4148.000000	64.631652 
4147.000000	64.612650 
4146.000000	64.606237 
4145.000000	64.608860 
4144.000000	64.616489 
4143.000000	64.625358 
4142.000000	64.632916 
4141.000000	64.637589 
4140.000000	64.639282 
4139.000000	64.638733 
4138.000000	64.637517 
4137.000000	64.637017 
4136.000000	64.638781 
4135.000000	64.643931 
4134.000000	64.653301 
4133.000000	64.667654 
4132.000000	64.687323 
4131.000000	64.712452 
4130.000000	64.742875 
4129.000000	64.777708 
4128.000000	64.815664 
4127.000000	64.855146 
4126.000000	64.893865 
4125.000000	64.929437 
4124.000000	64.958977 
4123.000000	64.979577 
4122.000000	64.988350 
4121.000000	64.983272 
4120.000000	64.962959 
4119.000000	64.927291 
4118.000000	64.877867 
4117.000000	64.818120 
4116.000000	64.752459 
4115.000000	64.686083 
4114.000000	64.624190 
4113.000000	64.571452 
4112.000000	64.531230 
4111.000000	64.505219 
4110.000000	64.493441 
4109.000000	64.494776 
4108.000000	64.507269 
4107.000000	64.528822 
4106.000000	64.556860 
4105.000000	64.589190 
4104.000000	64.623379 
4103.000000	64.657211 
4102.000000	64.687919 
4101.000000	64.713191 
4100.000000	64.731144 
4099.000000	64.740705 
4098.000000	64.741969 
4097.000000	64.736080 
4096.000000	64.725208 
4095.000000	64.711928 
4094.000000	64.698863 
4093.000000	64.688158 
4092.000000	64.681339 
4091.000000	64.679360 
4090.000000	64.682745 
4089.000000	64.691925 
4088.000000	64.707255 
4087.000000	64.729094 
4086.000000	64.757299 
4085.000000	64.790892 
4084.000000	64.827728 
4083.000000	64.864492 
4082.000000	64.897108 
4081.000000	64.921188 
4080.000000	64.933204 
4079.000000	64.931654 
4078.000000	64.917254 
4077.000000	64.892721 
4076.000000	64.862298 
4075.000000	64.830970 
4074.000000	64.802908 
4073.000000	64.780974 
4072.000000	64.765834 
4071.000000	64.756393 
4070.000000	64.750480 
4069.000000	64.745879 
4068.000000	64.741301 
4067.000000	64.736819 
4066.000000	64.733910 
4065.000000	64.734673 
4064.000000	64.740967 
4063.000000	64.753317 
4062.000000	64.770126 
4061.000000	64.787602 
4060.000000	64.800667 
4059.000000	64.804053 
4058.000000	64.794135 
4057.000000	64.770412 
4056.000000	64.735627 
4055.000000	64.696002 
4054.000000	64.659976 
4053.000000	64.636349 
4052.000000	64.632081 
4051.000000	64.650225 
4050.000000	64.689421 
4049.000000	64.743638 
4048.000000	64.803647 
4047.000000	64.859032 
4046.000000	64.900493 
4045.000000	64.922165 
4044.000000	64.922618 
4043.000000	64.905667 
4042.000000	64.878559 
4041.000000	64.850831 
4040.000000	64.831829 
4039.000000	64.828681 
4038.000000	64.844751 
4037.000000	64.879107 
4036.000000	64.926981 
4035.000000	64.980792 
4034.000000	65.031695 
4033.000000	65.071511 
4032.000000	65.094065 
4031.000000	65.096163 
4030.000000	65.077805 
4029.000000	65.041851 
4028.000000	64.993643 
4027.000000	64.939761 
4026.000000	64.887070 
4025.000000	64.841961 
4024.000000	64.809322 
4023.000000	64.791893 
4022.000000	64.790177 
4021.000000	64.802646 
4020.000000	64.826130 
4019.000000	64.856314 
4018.000000	64.888691 
4017.000000	64.918828 
4016.000000	64.943718 
4015.000000	64.961791 
4014.000000	64.973092 
4013.000000	64.978575 
4012.000000	64.980435 
4011.000000	64.981198 
4010.000000	64.983320 
4009.000000	64.988398 
4008.000000	64.997124 
4007.000000	65.009164 
4006.000000	65.023207 
4005.000000	65.037512 
4004.000000	65.050411 
4003.000000	65.060877 
4002.000000	65.068531 
4001.000000	65.074110 
4000.000000	65.079379 
3999.000000	65.086817 
3998.000000	65.098929 
3997.000000	65.117526 
3996.000000	65.143108 
3995.000000	65.174531 
3994.000000	65.209531 
3993.000000	65.244436 
3992.000000	65.275287 
3991.000000	65.298271 
3990.000000	65.310931 
3989.000000	65.312147 
3988.000000	65.302348 
3987.000000	65.283250 
3986.000000	65.257287 
3985.000000	65.227174 
3984.000000	65.195441 
3983.000000	65.164017 
3982.000000	65.134239 
3981.000000	65.106892 
3980.000000	65.082144 
3979.000000	65.060210 
3978.000000	65.041232 
3977.000000	65.025329 
3976.000000	65.012526 
3975.000000	65.002608 
3974.000000	64.995169 
3973.000000	64.989328 
3972.000000	64.984130 
3971.000000	64.978170 
3970.000000	64.970421 
3969.000000	64.960432 
3968.000000	64.948439 
3967.000000	64.935183 
3966.000000	64.922213 
3965.000000	64.911174 
3964.000000	64.903664 
3963.000000	64.900636 
3962.000000	64.902639 
3961.000000	64.909768 
3960.000000	64.921665 
3959.000000	64.937448 
3958.000000	64.956402 
3957.000000	64.978170 
3956.000000	65.002584 
3955.000000	65.029835 
3954.000000	65.060186 
3953.000000	65.093660 
3952.000000	65.130209 
3951.000000	65.169048 
3950.000000	65.208768 
3949.000000	65.246820 
3948.000000	65.280413 
3947.000000	65.306162 
3946.000000	65.320968 
3945.000000	65.322542 
3944.000000	65.310144 
3943.000000	65.284776 
3942.000000	65.249776 
3941.000000	65.209603 
3940.000000	65.170216 
3939.000000	65.136599 
3938.000000	65.112519 
3937.000000	65.098810 
3936.000000	65.093755 
3935.000000	65.092968 
3934.000000	65.090703 
3933.000000	65.081524 
3932.000000	65.061950 
3931.000000	65.031695 
3930.000000	64.994001 
3929.000000	64.955306 
3928.000000	64.923548 
3927.000000	64.906334 
3926.000000	64.909052 
3925.000000	64.933323 
3924.000000	64.976382 
3923.000000	65.031695 
3922.000000	65.090608 
3921.000000	65.144038 
3920.000000	65.184783 
3919.000000	65.208840 
3918.000000	65.216255 
3917.000000	65.209984 
3916.000000	65.195488 
3915.000000	65.178632 
3914.000000	65.164399 
3913.000000	65.155673 
3912.000000	65.153074 
3911.000000	65.155577 
3910.000000	65.161132 
3909.000000	65.167975 
3908.000000	65.175151 
3907.000000	65.183043 
3906.000000	65.192699 
3905.000000	65.205383 
3904.000000	65.221881 
3903.000000	65.242028 
3902.000000	65.264534 
3901.000000	65.287232 
3900.000000	65.307950 
3899.000000	65.325117 
3898.000000	65.338444 
3897.000000	65.348768 
3896.000000	65.357708 
3895.000000	65.366959 
3894.000000	65.377449 
3893.000000	65.388941 
3892.000000	65.400195 
3891.000000	65.408873 
3890.000000	65.412616 
3889.000000	65.409278 
3888.000000	65.398240 
3887.000000	65.380144 
3886.000000	65.356993 
3885.000000	65.331053 
3884.000000	65.304422 
3883.000000	65.278339 
3882.000000	65.253090 
3881.000000	65.227723 
3880.000000	65.200495 
3879.000000	65.169906 
3878.000000	65.135288 
3877.000000	65.097594 
3876.000000	65.059161 
3875.000000	65.023589 
3874.000000	64.994668 
3873.000000	64.975810 
3872.000000	64.968919 
3871.000000	64.973926 
3870.000000	64.988470 
3869.000000	65.008759 
3868.000000	65.030002 
3867.000000	65.047359 
3866.000000	65.057063 
3865.000000	65.056729 
3864.000000	65.046429 
3863.000000	65.027642 
3862.000000	65.003967 
3861.000000	64.979815 
3860.000000	64.960145 
3859.000000	64.949369 
3858.000000	64.950942 
3857.000000	64.966797 
3856.000000	64.997005 
3855.000000	65.039777 
3854.000000	65.091705 
3853.000000	65.148115 
3852.000000	65.204000 
3851.000000	65.254569 
3850.000000	65.296030 
3849.000000	65.325856 
3848.000000	65.343379 
3847.000000	65.349483 
3846.000000	65.346193 
3845.000000	65.335845 
3844.000000	65.321063 
3843.000000	65.304017 
3842.000000	65.286564 
3841.000000	65.269780 
3840.000000	65.254688 
3839.000000	65.242052 
3838.000000	65.232801 
3837.000000	65.227627 
3836.000000	65.226840 
3835.000000	65.230131 
3834.000000	65.236377 
3833.000000	65.243577 
3832.000000	65.249109 
3831.000000	65.250134 
3830.000000	65.244221 
3829.000000	65.230059 
3828.000000	65.207743 
3827.000000	65.179157 
3826.000000	65.147662 
3825.000000	65.117454 
3824.000000	65.092515 
3823.000000	65.075850 
3822.000000	65.068840 
3821.000000	65.070748 
3820.000000	65.078902 
3819.000000	65.089154 
3818.000000	65.096974 
3817.000000	65.098357 
3816.000000	65.090918 
3815.000000	65.073609 
3814.000000	65.047526 
3813.000000	65.015268 
3812.000000	64.980745 
3811.000000	64.947986 
3810.000000	64.920902 
3809.000000	64.902591 
3808.000000	64.894986 
3807.000000	64.898729 
3806.000000	64.913058 
3805.000000	64.935994 
3804.000000	64.964294 
3803.000000	64.993953 
3802.000000	65.020275 
3801.000000	65.038657 
3800.000000	65.045046 
3799.000000	65.036797 
3798.000000	65.013289 
3797.000000	64.976239 
3796.000000	64.929723 
3795.000000	64.879703 
3794.000000	64.833498 
3793.000000	64.798784 
3792.000000	64.782524 
3791.000000	64.789867 
3790.000000	64.823269 
3789.000000	64.881753 
3788.000000	64.960932 
3787.000000	65.053319 
3786.000000	65.149235 
3785.000000	65.238237 
3784.000000	65.311288 
3783.000000	65.361618 
3782.000000	65.386295 
3781.000000	65.385794 
3780.000000	65.364050 
3779.000000	65.326976 
3778.000000	65.281820 
3777.000000	65.234971 
3776.000000	65.191435 
3775.000000	65.154075 
3774.000000	65.124130 
3773.000000	65.101456 
3772.000000	65.085625 
3771.000000	65.076088 
3770.000000	65.072631 
3769.000000	65.075135 
3768.000000	65.083479 
3767.000000	65.096712 
3766.000000	65.112948 
3765.000000	65.129446 
3764.000000	65.142893 
3763.000000	65.150308 
3762.000000	65.149426 
3761.000000	65.138936 
3760.000000	65.118646 
3759.000000	65.089464 
3758.000000	65.053176 
3757.000000	65.012240 
3756.000000	64.969515 
3755.000000	64.927816 
3754.000000	64.890003 
3753.000000	64.858722 
3752.000000	64.836359 
3751.000000	64.824414 
3750.000000	64.823555 
3749.000000	64.833140 
3748.000000	64.851403 
3747.000000	64.875173 
3746.000000	64.900493 
3745.000000	64.922761 
3744.000000	64.937973 
3743.000000	64.943265 
3742.000000	64.937829 
3741.000000	64.922761 
3740.000000	64.901256 
3739.000000	64.877963 
3738.000000	64.858007 
3737.000000	64.845848 
3736.000000	64.844489 
3735.000000	64.854693 
3734.000000	64.874911 
3733.000000	64.901661 
3732.000000	64.930295 
3731.000000	64.956378 
3730.000000	64.976644 
3729.000000	64.989781 
3728.000000	64.996576 
3727.000000	64.999270 
3726.000000	65.000581 
3725.000000	65.002894 
3724.000000	65.007591 
3723.000000	65.014576 
3722.000000	65.022516 
3721.000000	65.029215 
3720.000000	65.033030 
3719.000000	65.032863 
3718.000000	65.028715 
3717.000000	65.021753 
3716.000000	65.013861 
3715.000000	65.007519 
3714.000000	65.004944 
3713.000000	65.007638 
3712.000000	65.016031 
3711.000000	65.029668 
3710.000000	65.046977 
3709.000000	65.065789 
3708.000000	65.083289 
3707.000000	65.096616 
3706.000000	65.103197 
3705.000000	65.101242 
3704.000000	65.090394 
3703.000000	65.071916 
3702.000000	65.048646 
3701.000000	65.024542 
3700.000000	65.003919 
3699.000000	64.990639 
3698.000000	64.986944 
3697.000000	64.993119 
3696.000000	65.007376 
3695.000000	65.026545 
3694.000000	65.046930 
3693.000000	65.065193 
3692.000000	65.079092 
3691.000000	65.087699 
3690.000000	65.091156 
3689.000000	65.090465 
3688.000000	65.086555 
3687.000000	65.079855 
3686.000000	65.070295 
3685.000000	65.057301 
3684.000000	65.040612 
3683.000000	65.020608 
3682.000000	64.998888 
3681.000000	64.977955 
3680.000000	64.960718 
3679.000000	64.949703 
3678.000000	64.946269 
3677.000000	64.950180 
3676.000000	64.959692 
3675.000000	64.972305 
3674.000000	64.985036 
3673.000000	64.995551 
3672.000000	65.002703 
3671.000000	65.006709 
3670.000000	65.008854 
3669.000000	65.011167 
3668.000000	65.015339 
3667.000000	65.022492 
3666.000000	65.032720 
3665.000000	65.045309 
3664.000000	65.058827 
3663.000000	65.071582 
3662.000000	65.082287 
3661.000000	65.090060 
3660.000000	65.094709 
3659.000000	65.096497 
3658.000000	65.096044 
3657.000000	65.094065 
3656.000000	65.091300 
3655.000000	65.088415 
3654.000000	65.085864 
3653.000000	65.083861 
3652.000000	65.082263 
3651.000000	65.080428 
3650.000000	65.077424 
3649.000000	65.072250 
3648.000000	65.064048 
3647.000000	65.052342 
3646.000000	65.037631 
3645.000000	65.021514 
3644.000000	65.006494 
3643.000000	64.995574 
3642.000000	64.991617 
3641.000000	64.996600 
3640.000000	65.010905 
3639.000000	65.033102 
3638.000000	65.060400 
3637.000000	65.089249 
3636.000000	65.116143 
3635.000000	65.138483 
3634.000000	65.155053 
3633.000000	65.166091 
3632.000000	65.173029 
3631.000000	65.177416 
3630.000000	65.180563 
3629.000000	65.182685 
3628.000000	65.182876 
3627.000000	65.179204 
3626.000000	65.169477 
3625.000000	65.151929 
3624.000000	65.126228 
3623.000000	65.093493 
3622.000000	65.056204 
3621.000000	65.017819 
3620.000000	64.981985 
3619.000000	64.952063 
3618.000000	64.930248 
3617.000000	64.917516 
3616.000000	64.913487 
3615.000000	64.916658 
3614.000000	64.924955 
3613.000000	64.935898 
3612.000000	64.947199 
3611.000000	64.957141 
3610.000000	64.964604 
3609.000000	64.969229 
3608.000000	64.971184 
3607.000000	64.971089 
3606.000000	64.969849 
3605.000000	64.968299 
3604.000000	64.967083 
3603.000000	64.966559 
3602.000000	64.966726 
3601.000000	64.967560 
3600.000000	64.969015 
3599.000000	64.971232 
3598.000000	64.974665 
3597.000000	64.980196 
3596.000000	64.988660 
3595.000000	65.000510 
3594.000000	65.015554 
3593.000000	65.032863 
3592.000000	65.050768 
3591.000000	65.067124 
3590.000000	65.079903 
3589.000000	65.087580 
3588.000000	65.089511 
3587.000000	65.086054 
3586.000000	65.078353 
3585.000000	65.068197 
3584.000000	65.057349 
3583.000000	65.047097 
3582.000000	65.038228 
3581.000000	65.030837 
3580.000000	65.024709 
3579.000000	65.019702 
3578.000000	65.015912 
3577.000000	65.013909 
3576.000000	65.014481 
3575.000000	65.018701 
3574.000000	65.027141 
3573.000000	65.040063 
3572.000000	65.057206 
3571.000000	65.077900 
3570.000000	65.101242 
3569.000000	65.126085 
3568.000000	65.151262 
3567.000000	65.175223 
3566.000000	65.196490 
3565.000000	65.213322 
3564.000000	65.223979 
3563.000000	65.227079 
3562.000000	65.221643 
3561.000000	65.207719 
3560.000000	65.186619 
3559.000000	65.160894 
3558.000000	65.134119 
3557.000000	65.110278 
3556.000000	65.092945 
3555.000000	65.084695 
3554.000000	65.086460 
3553.000000	65.097451 
3552.000000	65.115165 
3551.000000	65.136098 
3550.000000	65.156269 
3549.000000	65.171957 
3548.000000	65.180253 
3547.000000	65.179657 
3546.000000	65.170001 
3545.000000	65.152835 
3544.000000	65.130639 
3543.000000	65.106701 
3542.000000	65.084123 
3541.000000	65.065264 
3540.000000	65.051221 
3539.000000	65.041613 
3538.000000	65.035057 
3537.000000	65.029406 
3536.000000	65.022659 
3535.000000	65.013170 
3534.000000	65.000724 
3533.000000	64.986133 
3532.000000	64.971446 
3531.000000	64.959168 
3530.000000	64.951586 
3529.000000	64.950299 
3528.000000	64.955615 
3527.000000	64.966654 
3526.000000	64.981579 
3525.000000	64.997982 
3524.000000	65.013813 
3523.000000	65.027737 
3522.000000	65.039205 
3521.000000	65.048623 
3520.000000	65.056991 
3519.000000	65.065598 
3518.000000	65.075564 
3517.000000	65.087676 
3516.000000	65.102219 
3515.000000	65.118741 
3514.000000	65.136170 
3513.000000	65.153002 
3512.000000	65.167641 
3511.000000	65.178680 
3510.000000	65.185117 
3509.000000	65.186619 
3508.000000	65.183591 
3507.000000	65.177226 
3506.000000	65.168952 
3505.000000	65.160298 
3504.000000	65.152621 
3503.000000	65.146732 
3502.000000	65.143013 
3501.000000	65.141320 
3500.000000	65.141153 
3499.000000	65.141820 
3498.000000	65.142822 
3497.000000	65.143728 
3496.000000	65.144491 
3495.000000	65.145325 
3494.000000	65.146756 
3493.000000	65.149402 
3492.000000	65.153694 
3491.000000	65.159916 
3490.000000	65.168142 
3489.000000	65.177893 
3488.000000	65.188407 
3487.000000	65.198588 
3486.000000	65.207195 
3485.000000	65.212988 
3484.000000	65.214991 
3483.000000	65.212821 
3482.000000	65.206646 
3481.000000	65.197348 
3480.000000	65.186238 
3479.000000	65.174865 
3478.000000	65.164589 
3477.000000	65.156364 
3476.000000	65.150570 
3475.000000	65.146970 
3474.000000	65.144968 
3473.000000	65.143704 
3472.000000	65.142369 
3471.000000	65.140366 
3470.000000	65.137577 
3469.000000	65.134096 
3468.000000	65.130519 
3467.000000	65.127587 
3466.000000	65.125894 
3465.000000	65.125775 
3464.000000	65.126991 
3463.000000	65.129089 
3462.000000	65.131187 
3461.000000	65.132594 
3460.000000	65.132880 
3459.000000	65.132451 
3458.000000	65.132141 
3457.000000	65.133142 
3456.000000	65.136718 
3455.000000	65.143799 
3454.000000	65.154528 
3453.000000	65.168190 
3452.000000	65.183234 
3451.000000	65.197563 
3450.000000	65.209126 
3449.000000	65.216183 
3448.000000	65.217924 
3447.000000	65.214204 
3446.000000	65.205645 
3445.000000	65.193200 
3444.000000	65.177798 
3443.000000	65.160179 
3442.000000	65.140986 
3441.000000	65.120887 
3440.000000	65.100836 
3439.000000	65.082216 
3438.000000	65.066528 
3437.000000	65.055108 
3436.000000	65.048718 
3435.000000	65.046954 
3434.000000	65.048360 
3433.000000	65.050697 
3432.000000	65.051865 
3431.000000	65.050101 
3430.000000	65.044999 
3429.000000	65.037584 
3428.000000	65.030145 
3427.000000	65.025544 
3426.000000	65.026092 
3425.000000	65.032982 
3424.000000	65.045309 
3423.000000	65.060400 
3422.000000	65.074467 
3421.000000	65.083718 
3420.000000	65.085363 
3419.000000	65.078544 
3418.000000	65.064764 
3417.000000	65.047359 
3416.000000	65.030765 
3415.000000	65.019226 
3414.000000	65.015792 
3413.000000	65.021538 
3412.000000	65.035462 
3411.000000	65.054678 
3410.000000	65.075159 
3409.000000	65.092730 
3408.000000	65.104007 
3407.000000	65.107226 
3406.000000	65.102171 
3405.000000	65.090417 
3404.000000	65.074610 
3403.000000	65.058088 
3402.000000	65.043902 
3401.000000	65.034079 
3400.000000	65.029907 
3399.000000	65.030956 
3398.000000	65.035939 
3397.000000	65.042710 
3396.000000	65.048742 
3395.000000	65.051937 
3394.000000	65.050840 
3393.000000	65.045022 
3392.000000	65.035080 
3391.000000	65.022659 
3390.000000	65.009927 
3389.000000	64.999198 
3388.000000	64.992260 
3387.000000	64.990139 
3386.000000	64.993143 
3385.000000	65.000796 
3384.000000	65.012025 
3383.000000	65.025591 
3382.000000	65.040516 
3381.000000	65.056324 
3380.000000	65.073156 
3379.000000	65.091609 
3378.000000	65.112161 
3377.000000	65.135097 
3376.000000	65.159654 
3375.000000	65.184187 
3374.000000	65.206098 
3373.000000	65.222382 
3372.000000	65.230202 
3371.000000	65.227651 
3370.000000	65.214347 
3369.000000	65.191864 
3368.000000	65.163111 
3367.000000	65.131998 
3366.000000	65.102481 
3365.000000	65.077805 
3364.000000	65.059447 
3363.000000	65.047287 
3362.000000	65.039491 
3361.000000	65.033459 
3360.000000	65.026426 
3359.000000	65.016484 
3358.000000	65.003132 
3357.000000	64.987587 
3356.000000	64.972519 
3355.000000	64.961338 
3354.000000	64.956951 
3353.000000	64.961028 
3352.000000	64.973664 
3351.000000	64.992904 
3350.000000	65.015125 
3349.000000	65.035796 
3348.000000	65.050768 
3347.000000	65.057086 
3346.000000	65.053534 
3345.000000	65.041089 
3344.000000	65.022492 
3343.000000	65.001654 
3342.000000	64.982795 
3341.000000	64.969396 
3340.000000	64.963436 
3339.000000	64.965224 
3338.000000	64.973688 
3337.000000	64.986681 
3336.000000	65.001797 
3335.000000	65.016889 
3334.000000	65.030741 
3333.000000	65.042710 
3332.000000	65.052604 
3331.000000	65.060353 
3330.000000	65.065622 
3329.000000	65.067720 
3328.000000	65.065455 
3327.000000	65.057611 
3326.000000	65.043258 
3325.000000	65.022110 
3324.000000	64.994859 
3323.000000	64.963173 
3322.000000	64.929890 
3321.000000	64.898252 
3320.000000	64.871907 
3319.000000	64.853906 
3318.000000	64.846706 
3317.000000	64.851474 
3316.000000	64.868116 
3315.000000	64.895129 
3314.000000	64.930105 
3313.000000	64.969706 
3312.000000	65.010428 
3311.000000	65.048837 
3310.000000	65.081954 
3309.000000	65.107250 
3308.000000	65.123200 
3307.000000	65.128898 
3306.000000	65.124177 
3305.000000	65.109324 
3304.000000	65.085124 
3303.000000	65.052962 
3302.000000	65.014910 
3301.000000	64.973783 
3300.000000	64.932942 
3299.000000	64.896106 
3298.000000	64.866828 
3297.000000	64.848184 
3296.000000	64.841890 
3295.000000	64.848279 
3294.000000	64.866304 
3293.000000	64.893627 
3292.000000	64.926838 
3291.000000	64.962458 
3290.000000	64.996910 
3289.000000	65.027427 
3288.000000	65.052247 
3287.000000	65.070819 
3286.000000	65.083527 
3285.000000	65.091300 
3284.000000	65.095567 
3283.000000	65.097546 
3282.000000	65.097928 
3281.000000	65.096831 
3280.000000	65.093684 
3279.000000	65.087628 
3278.000000	65.077829 
3277.000000	65.064001 
3276.000000	65.046381 
3275.000000	65.025997 
3274.000000	65.004396 
3273.000000	64.983415 
3272.000000	64.964580 
3271.000000	64.948439 
3270.000000	64.934515 
3269.000000	64.921522 
3268.000000	64.907813 
3267.000000	64.891934 
3266.000000	64.873433 
3265.000000	64.853215 
3264.000000	64.833521 
3263.000000	64.817452 
3262.000000	64.808416 
3261.000000	64.808726 
3260.000000	64.819383 
3259.000000	64.839291 
3258.000000	64.865589 
3257.000000	64.894151 
3256.000000	64.920592 
3255.000000	64.941239 
3254.000000	64.954018 
3253.000000	64.958643 
3252.000000	64.956641 
3251.000000	64.950609 
3250.000000	64.943766 
3249.000000	64.938831 
3248.000000	64.937663 
3247.000000	64.940810 
3246.000000	64.947938 
3245.000000	64.957618 
3244.000000	64.968085 
3243.000000	64.977240 
3242.000000	64.983463 
3241.000000	64.985418 
3240.000000	64.982199 
3239.000000	64.973807 
3238.000000	64.960670 
3237.000000	64.944052 
3236.000000	64.925789 
3235.000000	64.908075 
3234.000000	64.893388 
3233.000000	64.883637 
3232.000000	64.880156 
3231.000000	64.883017 
3230.000000	64.891266 
3229.000000	64.902830 
3228.000000	64.915156 
3227.000000	64.925694 
3226.000000	64.932608 
3225.000000	64.935135 
3224.000000	64.933681 
3223.000000	64.929723 
3222.000000	64.925408 
3221.000000	64.922785 
3220.000000	64.923262 
3219.000000	64.927530 
3218.000000	64.935135 
3217.000000	64.944767 
3216.000000	64.954590 
3215.000000	64.962863 
3214.000000	64.968347 
3213.000000	64.970541 
3212.000000	64.969825 
3211.000000	64.967083 
3210.000000	64.963626 
3209.000000	64.960598 
3208.000000	64.958763 
3207.000000	64.958262 
3206.000000	64.958786 
3205.000000	64.959549 
3204.000000	64.959716 
3203.000000	64.958691 
3202.000000	64.956307 
3201.000000	64.952898 
3200.000000	64.949464 
3199.000000	64.947414 
3198.000000	64.948296 
3197.000000	64.953565 
3196.000000	64.964199 
3195.000000	64.980626 
3194.000000	65.002226 
3193.000000	65.027713 
3192.000000	65.054988 
3191.000000	65.081572 
3190.000000	65.105080 
3189.000000	65.123772 
3188.000000	65.136504 
3187.000000	65.143179 
3186.000000	65.144538 
3185.000000	65.141868 
3184.000000	65.136528 
3183.000000	65.129494 
3182.000000	65.121245 
3181.000000	65.111732 
3180.000000	65.100383 
3179.000000	65.086627 
3178.000000	65.070438 
3177.000000	65.052556 
3176.000000	65.034747 
3175.000000	65.019607 
3174.000000	65.010213 
3173.000000	65.009379 
3172.000000	65.018916 
3171.000000	65.039515 
3170.000000	65.070152 
3169.000000	65.108251 
3168.000000	65.149879 
3167.000000	65.190601 
3166.000000	65.225911 
3165.000000	65.252113 
3164.000000	65.266656 
3163.000000	65.268588 
3162.000000	65.258288 
3161.000000	65.237450 
3160.000000	65.208530 
3159.000000	65.174269 
3158.000000	65.137195 
3157.000000	65.099573 
3156.000000	65.063333 
3155.000000	65.030050 
3154.000000	65.001106 
3153.000000	64.978027 
3152.000000	64.962363 
3151.000000	64.955377 
3150.000000	64.958071 
3149.000000	64.970493 
3148.000000	64.991402 
3147.000000	65.018081 
3146.000000	65.046620 
3145.000000	65.072417 
3144.000000	65.091133 
3143.000000	65.099573 
3142.000000	65.096354 
3141.000000	65.082263 
3140.000000	65.059900 
3139.000000	65.033078 
3138.000000	65.006184 
3137.000000	64.983177 
3136.000000	64.967012 
3135.000000	64.959311 
3134.000000	64.960312 
3133.000000	64.969086 
3132.000000	64.984059 
3131.000000	65.003204 
3130.000000	65.024352 
3129.000000	65.045619 
3128.000000	65.065169 
3127.000000	65.081572 
3126.000000	65.093588 
3125.000000	65.100693 
3124.000000	65.102910 
3123.000000	65.100884 
3122.000000	65.095758 
3121.000000	65.088891 
3120.000000	65.081501 
3119.000000	65.074253 
3118.000000	65.067362 
3117.000000	65.060687 
3116.000000	65.053915 
3115.000000	65.046834 
3114.000000	65.039563 
3113.000000	65.032815 
3112.000000	65.027332 
3111.000000	65.023922 
3110.000000	65.023207 
3109.000000	65.025281 
3108.000000	65.029835 
3107.000000	65.036225 
3106.000000	65.043520 
3105.000000	65.050721 
3104.000000	65.056991 
3103.000000	65.061736 
3102.000000	65.064501 
3101.000000	65.065026 
3100.000000	65.062928 
3099.000000	65.057778 
3098.000000	65.049099 
3097.000000	65.036702 
3096.000000	65.020632 
3095.000000	65.001487 
3094.000000	64.980340 
3093.000000	64.958667 
3092.000000	64.938116 
3091.000000	64.920210 
3090.000000	64.906191 
3089.000000	64.896678 
3088.000000	64.891695 
3087.000000	64.890980 
3086.000000	64.893794 
3085.000000	64.899587 
3084.000000	64.907765 
3083.000000	64.918255 
3082.000000	64.931035 
3081.000000	64.946413 
3080.000000	64.964461 
3079.000000	64.984798 
3078.000000	65.006542 
3077.000000	65.028214 
3076.000000	65.048003 
3075.000000	65.064096 
3074.000000	65.075087 
3073.000000	65.080285 
3072.000000	65.080261 
3071.000000	65.076470 
3070.000000	65.071177 
3069.000000	65.066790 
3068.000000	65.065574 
3067.000000	65.068793 
3066.000000	65.076446 
3065.000000	65.087461 
3064.000000	65.099930 
3063.000000	65.111660 
3062.000000	65.120601 
3061.000000	65.125370 
3060.000000	65.125536 
3059.000000	65.121483 
3058.000000	65.113997 
3057.000000	65.103769 
3056.000000	65.091180 
3055.000000	65.076231 
3054.000000	65.058541 
3053.000000	65.037608 
3052.000000	65.013360 
3051.000000	64.986395 
3050.000000	64.958119 
3049.000000	64.930629 
3048.000000	64.906382 
3047.000000	64.887714 
3046.000000	64.876508 
3045.000000	64.873504 
3044.000000	64.878654 
3043.000000	64.890837 
3042.000000	64.908719 
3041.000000	64.930677 
3040.000000	64.955234 
3039.000000	64.981031 
3038.000000	65.007066 
3037.000000	65.032315 
3036.000000	65.055513 
3035.000000	65.074896 
3034.000000	65.088534 
3033.000000	65.094470 
3032.000000	65.091204 
3031.000000	65.077733 
3030.000000	65.054345 
3029.000000	65.022468 
3028.000000	64.984703 
3027.000000	64.944434 
3026.000000	64.905333 
3025.000000	64.870762 
3024.000000	64.843273 
3023.000000	64.824390 
3022.000000	64.814400 
3021.000000	64.812588 
3020.000000	64.817285 
3019.000000	64.826750 
3018.000000	64.839076 
3017.000000	64.853072 
3016.000000	64.867973 
3015.000000	64.884018 
3014.000000	64.901924 
3013.000000	64.923024 
3012.000000	64.948749 
3011.000000	64.980244 
3010.000000	65.017700 
3009.000000	65.060186 
3008.000000	65.105366 
3007.000000	65.149641 
3006.000000	65.188503 
3005.000000	65.217733 
3004.000000	65.233731 
3003.000000	65.234589 
3002.000000	65.220332 
3001.000000	65.193152 
3000.000000	65.156960 
2999.000000	65.116834 
2998.000000	65.077757 
2997.000000	65.043926 
2996.000000	65.017795 
2995.000000	65.000367 
2994.000000	64.990735 
2993.000000	64.986872 
2992.000000	64.986109 
2991.000000	64.986038 
2990.000000	64.985013 
2989.000000	64.982223 
2988.000000	64.977931 
2987.000000	64.972949 
2986.000000	64.968538 
2985.000000	64.966082 
2984.000000	64.966511 
2983.000000	64.969778 
2982.000000	64.974951 
2981.000000	64.980053 
2980.000000	64.982295 
2979.000000	64.978814 
2978.000000	64.967036 
2977.000000	64.945769 
2976.000000	64.915204 
2975.000000	64.877486 
2974.000000	64.836454 
2973.000000	64.796996 
2972.000000	64.764165 
2971.000000	64.742112 
2970.000000	64.733171 
2969.000000	64.737558 
2968.000000	64.753270 
2967.000000	64.776635 
2966.000000	64.802932 
2965.000000	64.827561 
2964.000000	64.846897 
2963.000000	64.858913 
2962.000000	64.862966 
2961.000000	64.859890 
2960.000000	64.851379 
2959.000000	64.839696 
2958.000000	64.826917 
2957.000000	64.814925 
2956.000000	64.805102 
2955.000000	64.798307 
2954.000000	64.794802 
2953.000000	64.794421 
2952.000000	64.796662 
2951.000000	64.800643 
2950.000000	64.805197 
2949.000000	64.808893 
2948.000000	64.810800 
2947.000000	64.810180 
2946.000000	64.807176 
2945.000000	64.802575 
2944.000000	64.797902 
2943.000000	64.794874 
2942.000000	64.795136 
2941.000000	64.799880 
2940.000000	64.809536 
2939.000000	64.823603 
2938.000000	64.840888 
2937.000000	64.859747 
2936.000000	64.878702 
2935.000000	64.896702 
2934.000000	64.913225 
2933.000000	64.928078 
2932.000000	64.941668 
2931.000000	64.954471 
2930.000000	64.966773 
2929.000000	64.978575 
2928.000000	64.989614 
2927.000000	64.999532 
2926.000000	65.008139 
2925.000000	65.015339 
2924.000000	65.021204 
2923.000000	65.025877 
2922.000000	65.029478 
2921.000000	65.031933 
2920.000000	65.033102 
2919.000000	65.032625 
2918.000000	65.030312 
2917.000000	65.026140 
2916.000000	65.020585 
2915.000000	65.014433 
2914.000000	65.008664 
2913.000000	65.004181 
2912.000000	65.001702 
2911.000000	65.001273 
2910.000000	65.002274 
2909.000000	65.003395 
2908.000000	65.003156 
2907.000000	65.000009 
2906.000000	64.993000 
2905.000000	64.981818 
2904.000000	64.967060 
2903.000000	64.949989 
2902.000000	64.932346 
2901.000000	64.915871 
2900.000000	64.901947 
2899.000000	64.891314 
2898.000000	64.883971 
2897.000000	64.879393 
2896.000000	64.876818 
2895.000000	64.875435 
2894.000000	64.874720 
2893.000000	64.874482 
2892.000000	64.874863 
2891.000000	64.875984 
2890.000000	64.877772 
2889.000000	64.879822 
2888.000000	64.881229 
2887.000000	64.880704 
2886.000000	64.877080 
2885.000000	64.869523 
2884.000000	64.858317 
2883.000000	64.844489 
2882.000000	64.830064 
2881.000000	64.817714 
2880.000000	64.810156 
2879.000000	64.809513 
2878.000000	64.816927 
2877.000000	64.832186 
2876.000000	64.853787 
2875.000000	64.879131 
2874.000000	64.905142 
2873.000000	64.928889 
2872.000000	64.948081 
2871.000000	64.961576 
2870.000000	64.969635 
2869.000000	64.973711 
2868.000000	64.976048 
2867.000000	64.978861 
2866.000000	64.983916 
2865.000000	64.991617 
2864.000000	65.001177 
2863.000000	65.010476 
2862.000000	65.016746 
2861.000000	65.017151 
2860.000000	65.009689 
2859.000000	64.993786 
2858.000000	64.970493 
2857.000000	64.942479 
2856.000000	64.913296 
2855.000000	64.886760 
2854.000000	64.866042 
2853.000000	64.853119 
2852.000000	64.848375 
2851.000000	64.850759 
2850.000000	64.858222 
2849.000000	64.868307 
2848.000000	64.878749 
2847.000000	64.887928 
2846.000000	64.895081 
2845.000000	64.900040 
2844.000000	64.903187 
2843.000000	64.905047 
2842.000000	64.906096 
2841.000000	64.906644 
2840.000000	64.906573 
2839.000000	64.905643 
2838.000000	64.903545 
2837.000000	64.900159 
2836.000000	64.895701 
2835.000000	64.890646 
2834.000000	64.885568 
2833.000000	64.881086 
2832.000000	64.877629 
2831.000000	64.875411 
2830.000000	64.874243 
2829.000000	64.873790 
2828.000000	64.873647 
2827.000000	64.873337 
2826.000000	64.872622 
2825.000000	64.871644 
2824.000000	64.870643 
2823.000000	64.869928 
2822.000000	64.869809 
2821.000000	64.870476 
2820.000000	64.871978 
2819.000000	64.874076 
2818.000000	64.876532 
2817.000000	64.879083 
2816.000000	64.881777 
2815.000000	64.884924 
2814.000000	64.889073 
2813.000000	64.894866 
2812.000000	64.902567 
2811.000000	64.912152 
2810.000000	64.922976 
2809.000000	64.933919 
2808.000000	64.943575 
2807.000000	64.950585 
2806.000000	64.953994 
2805.000000	64.953613 
2804.000000	64.949989 
2803.000000	64.944434 
2802.000000	64.938688 
2801.000000	64.934587 
2800.000000	64.933562 
2799.000000	64.936470 
2798.000000	64.943194 
2797.000000	64.952945 
2796.000000	64.964342 
2795.000000	64.975714 
2794.000000	64.985442 
2793.000000	64.992094 
2792.000000	64.994382 
2791.000000	64.991497 
2790.000000	64.983081 
2789.000000	64.969038 
2788.000000	64.949941 
2787.000000	64.926767 
2786.000000	64.901208 
2785.000000	64.875364 
2784.000000	64.851641 
2783.000000	64.832425 
2782.000000	64.819598 
2781.000000	64.814448 
2780.000000	64.817023 
2779.000000	64.826178 
2778.000000	64.839529 
2777.000000	64.854073 
2776.000000	64.866471 
2775.000000	64.873814 
2774.000000	64.874172 
2773.000000	64.867043 
2772.000000	64.853572 
2771.000000	64.836239 
2770.000000	64.818453 
2769.000000	64.803719 
2768.000000	64.795017 
2767.000000	64.794230 
2766.000000	64.801740 
2765.000000	64.816522 
2764.000000	64.836335 
2763.000000	64.858317 
2762.000000	64.879846 
2761.000000	64.898872 
2760.000000	64.914393 
2759.000000	64.926266 
2758.000000	64.934921 
2757.000000	64.941024 
2756.000000	64.945054 
2755.000000	64.947104 
2754.000000	64.946770 
2753.000000	64.943289 
2752.000000	64.936375 
2751.000000	64.926099 
2750.000000	64.913463 
2749.000000	64.899897 
2748.000000	64.887499 
2747.000000	64.878153 
2746.000000	64.873218 
2745.000000	64.872956 
2744.000000	64.876508 
2743.000000	64.882040 
2742.000000	64.887237 
2741.000000	64.889836 
2740.000000	64.888215 
2739.000000	64.881634 
2738.000000	64.870548 
2737.000000	64.856410 
2736.000000	64.841413 
2735.000000	64.828038 
2734.000000	64.818620 
2733.000000	64.814972 
2732.000000	64.818072 
2731.000000	64.828014 
2730.000000	64.844036 
2729.000000	64.864587 
2728.000000	64.887452 
2727.000000	64.910292 
2726.000000	64.931154 
2725.000000	64.948225 
2724.000000	64.960789 
2723.000000	64.968872 
2722.000000	64.973354 
2721.000000	64.975738 
2720.000000	64.977669 
2719.000000	64.980459 
2718.000000	64.984726 
2717.000000	64.990448 
2716.000000	64.997005 
2715.000000	65.003395 
2714.000000	65.008926 
2713.000000	65.013170 
2712.000000	65.016245 
2711.000000	65.018773 
2710.000000	65.021347 
2709.000000	65.024471 
2708.000000	65.027999 
2707.000000	65.031123 
2706.000000	65.032577 
2705.000000	65.030932 
2704.000000	65.025115 
2703.000000	65.014839 
2702.000000	65.000820 
2701.000000	64.984726 
2700.000000	64.968824 
2699.000000	64.955353 
2698.000000	64.946150 
2697.000000	64.942026 
2696.000000	64.943027 
2695.000000	64.948105 
2694.000000	64.955687 
2693.000000	64.963960 
2692.000000	64.971399 
2691.000000	64.977002 
2690.000000	64.980173 
2689.000000	64.981079 
2688.000000	64.980173 
2687.000000	64.978146 
2686.000000	64.975762 
2685.000000	64.973497 
2684.000000	64.971494 
2683.000000	64.969682 
2682.000000	64.967870 
2681.000000	64.965605 
2680.000000	64.962387 
2679.000000	64.957952 
2678.000000	64.952230 
2677.000000	64.945387 
2676.000000	64.937901 
2675.000000	64.930486 
2674.000000	64.923906 
2673.000000	64.918923 
2672.000000	64.915871 
2671.000000	64.914989 
2670.000000	64.915919 
2669.000000	64.918088 
2668.000000	64.920639 
2667.000000	64.922785 
2666.000000	64.924001 
2665.000000	64.923977 
2664.000000	64.922952 
2663.000000	64.921331 
2662.000000	64.919948 
2661.000000	64.919662 
2660.000000	64.921355 
2659.000000	64.925551 
2658.000000	64.932537 
2657.000000	64.942097 
2656.000000	64.953684 
2655.000000	64.966440 
2654.000000	64.979481 
2653.000000	64.991855 
2652.000000	65.002846 
2651.000000	65.011930 
2650.000000	65.018749 
2649.000000	65.023159 
2648.000000	65.025305 
2647.000000	65.025520 
2646.000000	65.024328 
2645.000000	65.022325 
2644.000000	65.020322 
2643.000000	65.018820 
2642.000000	65.018129 
2641.000000	65.018010 
2640.000000	65.017843 
2639.000000	65.016579 
2638.000000	65.012955 
2637.000000	65.005755 
2636.000000	64.994168 
2635.000000	64.978003 
2634.000000	64.957928 
2633.000000	64.935159 
2632.000000	64.911460 
2631.000000	64.888596 
2630.000000	64.868044 
2629.000000	64.850759 
2628.000000	64.837265 
2627.000000	64.827704 
2626.000000	64.822196 
2625.000000	64.821028 
2624.000000	64.824628 
2623.000000	64.833545 
2622.000000	64.848160 
2621.000000	64.868164 
2620.000000	64.892554 
2619.000000	64.919376 
2618.000000	64.946150 
2617.000000	64.970016 
2616.000000	64.988398 
2615.000000	64.999389 
2614.000000	65.002155 
2613.000000	64.997148 
2612.000000	64.985871 
2611.000000	64.970588 
2610.000000	64.953637 
2609.000000	64.937138 
2608.000000	64.922523 
2607.000000	64.910459 
2606.000000	64.900970 
2605.000000	64.893651 
2604.000000	64.888286 
2603.000000	64.885044 
2602.000000	64.884400 
2601.000000	64.887332 
2600.000000	64.894771 
2599.000000	64.907121 
2598.000000	64.923977 
2597.000000	64.943981 
2596.000000	64.964842 
2595.000000	64.983940 
2594.000000	64.998769 
2593.000000	65.007305 
2592.000000	65.008735 
2591.000000	65.003323 
2590.000000	64.992403 
2589.000000	64.978003 
2588.000000	64.962434 
2587.000000	64.947915 
2586.000000	64.935803 
2585.000000	64.926743 
2584.000000	64.920449 
2583.000000	64.915966 
2582.000000	64.912128 
2581.000000	64.907670 
2580.000000	64.901638 
2579.000000	64.893555 
2578.000000	64.883446 
2577.000000	64.871454 
2576.000000	64.857912 
2575.000000	64.843034 
2574.000000	64.827179 
2573.000000	64.810752 
2572.000000	64.794278 
2571.000000	64.778590 
2570.000000	64.764714 
2569.000000	64.753913 
2568.000000	64.747190 
2567.000000	64.745020 
2566.000000	64.747428 
2565.000000	64.753651 
2564.000000	64.762401 
2563.000000	64.771795 
2562.000000	64.780282 
2561.000000	64.786553 
2560.000000	64.790248 
2559.000000	64.791703 
2558.000000	64.791989 
2557.000000	64.792418 
2556.000000	64.794468 
2555.000000	64.799475 
2554.000000	64.808392 
2553.000000	64.821743 
2552.000000	64.839744 
2551.000000	64.862132 
2550.000000	64.888286 
2549.000000	64.916896 
2548.000000	64.946246 
2547.000000	64.973998 
2546.000000	64.997649 
2545.000000	65.014624 
2544.000000	65.023016 
2543.000000	65.021896 
2542.000000	65.011572 
2541.000000	64.993429 
2540.000000	64.970135 
2539.000000	64.944839 
2538.000000	64.920639 
2537.000000	64.900112 
2536.000000	64.884924 
2535.000000	64.875793 
2534.000000	64.872884 
2533.000000	64.875602 
2532.000000	64.883399 
2531.000000	64.895272 
2530.000000	64.910268 
2529.000000	64.927005 
2528.000000	64.943718 
2527.000000	64.958357 
2526.000000	64.968967 
2525.000000	64.973878 
2524.000000	64.972209 
2523.000000	64.964413 
2522.000000	64.952063 
2521.000000	64.937901 
2520.000000	64.925098 
2519.000000	64.916682 
2518.000000	64.914655 
2517.000000	64.919900 
2516.000000	64.931368 
2515.000000	64.946699 
2514.000000	64.962410 
2513.000000	64.974999 
2512.000000	64.981245 
2511.000000	64.979171 
2510.000000	64.968013 
2509.000000	64.948558 
2508.000000	64.922833 
2507.000000	64.893770 
2506.000000	64.864873 
2505.000000	64.839482 
2504.000000	64.820384 
2503.000000	64.809346 
2502.000000	64.807009 
2501.000000	64.812779 
2500.000000	64.824938 
2499.000000	64.841318 
2498.000000	64.859175 
2497.000000	64.875912 
2496.000000	64.889550 
2495.000000	64.899110 
2494.000000	64.904499 
2493.000000	64.906549 
2492.000000	64.907002 
2491.000000	64.907932 
2490.000000	64.911341 
2489.000000	64.918780 
2488.000000	64.930939 
2487.000000	64.947247 
2486.000000	64.966297 
2485.000000	64.985704 
2484.000000	65.002822 
2483.000000	65.015006 
2482.000000	65.020155 
2481.000000	65.017199 
2480.000000	65.006208 
2479.000000	64.988327 
2478.000000	64.965653 
2477.000000	64.940643 
2476.000000	64.915704 
2475.000000	64.892816 
2474.000000	64.873385 
2473.000000	64.858031 
2472.000000	64.846825 
2471.000000	64.839410 
2470.000000	64.835381 
2469.000000	64.834356 
2468.000000	64.836001 
2467.000000	64.840102 
2466.000000	64.846396 
2465.000000	64.854550 
2464.000000	64.864277 
2463.000000	64.874911 
2462.000000	64.885735 
2461.000000	64.895963 
2460.000000	64.904928 
2459.000000	64.912128 
2458.000000	64.917206 
2457.000000	64.920163 
2456.000000	64.921236 
2455.000000	64.920878 
2454.000000	64.919614 
2453.000000	64.918160 
2452.000000	64.917016 
2451.000000	64.916515 
2450.000000	64.916658 
2449.000000	64.917087 
2448.000000	64.917182 
2447.000000	64.916300 
2446.000000	64.913821 
2445.000000	64.909362 
2444.000000	64.903092 
2443.000000	64.895606 
2442.000000	64.887809 
2441.000000	64.880466 
2440.000000	64.874267 
2439.000000	64.869236 
2438.000000	64.864873 
2437.000000	64.860296 
2436.000000	64.854240 
2435.000000	64.845800 
2434.000000	64.834785 
2433.000000	64.821863 
2432.000000	64.808440 
2431.000000	64.796519 
2430.000000	64.788055 
2429.000000	64.784407 
2428.000000	64.786076 
2427.000000	64.792323 
2426.000000	64.801549 
2425.000000	64.811611 
2424.000000	64.820647 
2423.000000	64.827489 
2422.000000	64.831972 
2421.000000	64.835023 
2420.000000	64.838290 
2419.000000	64.843559 
2418.000000	64.852237 
2417.000000	64.864778 
2416.000000	64.880323 
2415.000000	64.897084 
2414.000000	64.912533 
2413.000000	64.923954 
2412.000000	64.929151 
2411.000000	64.926838 
2410.000000	64.916753 
2409.000000	64.899754 
2408.000000	64.877820 
2407.000000	64.853429 
2406.000000	64.829230 
2405.000000	64.807915 
2404.000000	64.791655 
2403.000000	64.781999 
2402.000000	64.779543 
2401.000000	64.784049 
2400.000000	64.794421 
2399.000000	64.808869 
2398.000000	64.825081 
2397.000000	64.840579 
2396.000000	64.853167 
2395.000000	64.861083 
2394.000000	64.863300 
2393.000000	64.859580 
2392.000000	64.850330 
2391.000000	64.836502 
2390.000000	64.819264 
2389.000000	64.799952 
2388.000000	64.779782 
2387.000000	64.759922 
2386.000000	64.741349 
2385.000000	64.724969 
2384.000000	64.711713 
2383.000000	64.702415 
2382.000000	64.697766 
2381.000000	64.698100 
2380.000000	64.703297 
2379.000000	64.713048 
2378.000000	64.726328 
2377.000000	64.742040 
2376.000000	64.758634 
2375.000000	64.774680 
2374.000000	64.788985 
2373.000000	64.800739 
2372.000000	64.809250 
2371.000000	64.814233 
2370.000000	64.815711 
2369.000000	64.813971 
2368.000000	64.809298 
2367.000000	64.802193 
2366.000000	64.793348 
2365.000000	64.783525 
2364.000000	64.773631 
2363.000000	64.764523 
2362.000000	64.756894 
2361.000000	64.751124 
2360.000000	64.747071 
2359.000000	64.744234 
2358.000000	64.741849 
2357.000000	64.739012 
2356.000000	64.734959 
2355.000000	64.729380 
2354.000000	64.722442 
2353.000000	64.714789 
2352.000000	64.707374 
2351.000000	64.701223 
2350.000000	64.697337 
2349.000000	64.696240 
2348.000000	64.698386 
2347.000000	64.703726 
2346.000000	64.711999 
2345.000000	64.722895 
2344.000000	64.736080 
2343.000000	64.751100 
2342.000000	64.767241 
2341.000000	64.783596 
2340.000000	64.798998 
2339.000000	64.811968 
2338.000000	64.821219 
2337.000000	64.825773 
2336.000000	64.825582 
2335.000000	64.821338 
2334.000000	64.814615 
2333.000000	64.807462 
2332.000000	64.802002 
2331.000000	64.800000 
2330.000000	64.802217 
2329.000000	64.808177 
2328.000000	64.816379 
2327.000000	64.824557 
2326.000000	64.830255 
2325.000000	64.831304 
2324.000000	64.826416 
2323.000000	64.815664 
2322.000000	64.800119 
2321.000000	64.782071 
2320.000000	64.764070 
2319.000000	64.748811 
2318.000000	64.738440 
2317.000000	64.733982 
2316.000000	64.735603 
2315.000000	64.742040 
2314.000000	64.751386 
2313.000000	64.761209 
2312.000000	64.769029 
2311.000000	64.773130 
2310.000000	64.772677 
2309.000000	64.767932 
2308.000000	64.760088 
2307.000000	64.751267 
2306.000000	64.743685 
2305.000000	64.739274 
2304.000000	64.739179 
2303.000000	64.743638 
2302.000000	64.751744 
2301.000000	64.761924 
2300.000000	64.772272 
2299.000000	64.780974 
2298.000000	64.786791 
2297.000000	64.789271 
2296.000000	64.788818 
2295.000000	64.786267 
2294.000000	64.782810 
2293.000000	64.779400 
2292.000000	64.776611 
2291.000000	64.774537 
2290.000000	64.772844 
2289.000000	64.771080 
2288.000000	64.768791 
2287.000000	64.765667 
2286.000000	64.761781 
2285.000000	64.757490 
2284.000000	64.753341 
2283.000000	64.749765 
2282.000000	64.746904 
2281.000000	64.744544 
2280.000000	64.741992 
2279.000000	64.738440 
2278.000000	64.732909 
2277.000000	64.724826 
2276.000000	64.713978 
2275.000000	64.700984 
2274.000000	64.687085 
2273.000000	64.674091 
2272.000000	64.664030 
2271.000000	64.658737 
2270.000000	64.659523 
2269.000000	64.666843 
2268.000000	64.680123 
2267.000000	64.698076 
2266.000000	64.718508 
2265.000000	64.739084 
2264.000000	64.757585 
2263.000000	64.772343 
2262.000000	64.782571 
2261.000000	64.788222 
2260.000000	64.790058 
2259.000000	64.789080 
2258.000000	64.786458 
2257.000000	64.782977 
2256.000000	64.778971 
2255.000000	64.774274 
2254.000000	64.768433 
2253.000000	64.760994 
2252.000000	64.751744 
2251.000000	64.740967 
2250.000000	64.729547 
2249.000000	64.718937 
2248.000000	64.710760 
2247.000000	64.706349 
2246.000000	64.706707 
2245.000000	64.711904 
2244.000000	64.721155 
2243.000000	64.732885 
2242.000000	64.744925 
2241.000000	64.755177 
2240.000000	64.761781 
2239.000000	64.763617 
2238.000000	64.760565 
2237.000000	64.753389 
2236.000000	64.743590 
2235.000000	64.733123 
2234.000000	64.723944 
2233.000000	64.717769 
2232.000000	64.715671 
2231.000000	64.717936 
2230.000000	64.724206 
2229.000000	64.733672 
2228.000000	64.745163 
2227.000000	64.757370 
2226.000000	64.769148 
2225.000000	64.779567 
2224.000000	64.787888 
2223.000000	64.793682 
2222.000000	64.796638 
2221.000000	64.796495 
2220.000000	64.793157 
2219.000000	64.786958 
2218.000000	64.778280 
2217.000000	64.768004 
2216.000000	64.757227 
2215.000000	64.747405 
2214.000000	64.740133 
2213.000000	64.736700 
2212.000000	64.737939 
2211.000000	64.743685 
2210.000000	64.753055 
2209.000000	64.764285 
2208.000000	64.775109 
2207.000000	64.783167 
2206.000000	64.786624 
2205.000000	64.784359 
2204.000000	64.776396 
2203.000000	64.763832 
2202.000000	64.748549 
2201.000000	64.732742 
2200.000000	64.718532 
2199.000000	64.707612 
2198.000000	64.700937 
2197.000000	64.698910 
2196.000000	64.701223 
2195.000000	64.707374 
2194.000000	64.716553 
2193.000000	64.727950 
2192.000000	64.740633 
2191.000000	64.753413 
2190.000000	64.764714 
2189.000000	64.772844 
2188.000000	64.776086 
2187.000000	64.773201 
2186.000000	64.763903 
2185.000000	64.748930 
2184.000000	64.730024 
2183.000000	64.709615 
2182.000000	64.690279 
2181.000000	64.674329 
2180.000000	64.663100 
2179.000000	64.656615 
2178.000000	64.653730 
2177.000000	64.652609 
2176.000000	64.651226 
2175.000000	64.648008 
2174.000000	64.642357 
2173.000000	64.634680 
2172.000000	64.626574 
2171.000000	64.620351 
2170.000000	64.618277 
2169.000000	64.622116 
2168.000000	64.632749 
2167.000000	64.649605 
2166.000000	64.671087 
2165.000000	64.694643 
2164.000000	64.717149 
2163.000000	64.735674 
2162.000000	64.747810 
2161.000000	64.752316 
2160.000000	64.749217 
2159.000000	64.739942 
2158.000000	64.726996 
2157.000000	64.713668 
2156.000000	64.703249 
2155.000000	64.698505 
2154.000000	64.701175 
2153.000000	64.711570 
2152.000000	64.728641 
2151.000000	64.750194 
2150.000000	64.773464 
2149.000000	64.795374 
2148.000000	64.813375 
2147.000000	64.825654 
2146.000000	64.831542 
2145.000000	64.831328 
2144.000000	64.825987 
2143.000000	64.816856 
2142.000000	64.805316 
2141.000000	64.792728 
2140.000000	64.780068 
2139.000000	64.768266 
2138.000000	64.757895 
2137.000000	64.749622 
2136.000000	64.744019 
2135.000000	64.741754 
2134.000000	64.743256 
2133.000000	64.748740 
2132.000000	64.757847 
2131.000000	64.769697 
2130.000000	64.782476 
2129.000000	64.793992 
2128.000000	64.801764 
2127.000000	64.803600 
2126.000000	64.798092 
2125.000000	64.785075 
2124.000000	64.765858 
2123.000000	64.743113 
2122.000000	64.720344 
2121.000000	64.701294 
2120.000000	64.689016 
2119.000000	64.685082 
2118.000000	64.689373 
2117.000000	64.700055 
2116.000000	64.713907 
2115.000000	64.727139 
2114.000000	64.736342 
2113.000000	64.739465 
2112.000000	64.736104 
2111.000000	64.727663 
2110.000000	64.716911 
2109.000000	64.707183 
2108.000000	64.701628 
2107.000000	64.702367 
2106.000000	64.710021 
2105.000000	64.723777 
2104.000000	64.741683 
2103.000000	64.761090 
2102.000000	64.779257 
2101.000000	64.794063 
2100.000000	64.804339 
2099.000000	64.809775 
2098.000000	64.810752 
2097.000000	64.808249 
2096.000000	64.803123 
2095.000000	64.796066 
2094.000000	64.787173 
2093.000000	64.776277 
2092.000000	64.763259 
2091.000000	64.748024 
2090.000000	64.730930 
2089.000000	64.712834 
2088.000000	64.695048 
2087.000000	64.679026 
2086.000000	64.666056 
2085.000000	64.656901 
2084.000000	64.651393 
2083.000000	64.648699 
2082.000000	64.647269 
2081.000000	64.645242 
2080.000000	64.641118 
2079.000000	64.634132 
2078.000000	64.624810 
2077.000000	64.614462 
2076.000000	64.605259 
2075.000000	64.599347 
2074.000000	64.598631 
2073.000000	64.604020 
2072.000000	64.615464 
2071.000000	64.632201 
2070.000000	64.652848 
2069.000000	64.675784 
2068.000000	64.699554 
2067.000000	64.722847 
2066.000000	64.744472 
2065.000000	64.763355 
2064.000000	64.778494 
2063.000000	64.788746 
2062.000000	64.793324 
2061.000000	64.791584 
2060.000000	64.783620 
2059.000000	64.770221 
2058.000000	64.752840 
2057.000000	64.733481 
2056.000000	64.714217 
2055.000000	64.696788 
2054.000000	64.682316 
2053.000000	64.670991 
2052.000000	64.662408 
2051.000000	64.655733 
2050.000000	64.650106 
2049.000000	64.644765 
2048.000000	64.639472 
2047.000000	64.634251 
2046.000000	64.629459 
2045.000000	64.625644 
2044.000000	64.623284 
2043.000000	64.622640 
2042.000000	64.623641 
2041.000000	64.625859 
2040.000000	64.628577 
2039.000000	64.630913 
2038.000000	64.632105 
2037.000000	64.631652 
2036.000000	64.629435 
2035.000000	64.625787 
2034.000000	64.621138 
2033.000000	64.615964 
2032.000000	64.610457 
2031.000000	64.604496 
2030.000000	64.597749 
2029.000000	64.589619 
2028.000000	64.579677 
2027.000000	64.567923 
2026.000000	64.555120 
2025.000000	64.542722 
2024.000000	64.532566 
2023.000000	64.526724 
2022.000000	64.526772 
2021.000000	64.533233 
2020.000000	64.545512 
2019.000000	64.561796 
2018.000000	64.579606 
2017.000000	64.596390 
2016.000000	64.610314 
2015.000000	64.620542 
2014.000000	64.627385 
2013.000000	64.632058 
2012.000000	64.636278 
2011.000000	64.641475 
2010.000000	64.648509 
2009.000000	64.657354 
2008.000000	64.667224 
2007.000000	64.676928 
2006.000000	64.685225 
2005.000000	64.691281 
2004.000000	64.695048 
2003.000000	64.697217 
2002.000000	64.698863 
2001.000000	64.701294 
2000.000000	64.705395 
1999.000000	64.711642 
1998.000000	64.719986 
1997.000000	64.729833 
1996.000000	64.740419 
1995.000000	64.750599 
1994.000000	64.759492 
1993.000000	64.766073 
1992.000000	64.769387 
1991.000000	64.768719 
1990.000000	64.763522 
1989.000000	64.753627 
1988.000000	64.739274 
1987.000000	64.721179 
1986.000000	64.700627 
1985.000000	64.679455 
1984.000000	64.659523 
1983.000000	64.642572 
1982.000000	64.629936 
1981.000000	64.622259 
1980.000000	64.619421 
1979.000000	64.620685 
1978.000000	64.624929 
1977.000000	64.630818 
1976.000000	64.637136 
1975.000000	64.642786 
1974.000000	64.647054 
1973.000000	64.649319 
1972.000000	64.649367 
1971.000000	64.647126 
1970.000000	64.642691 
1969.000000	64.636349 
1968.000000	64.628434 
1967.000000	64.619159 
1966.000000	64.608526 
1965.000000	64.596605 
1964.000000	64.583396 
1963.000000	64.569044 
1962.000000	64.553904 
1961.000000	64.538741 
1960.000000	64.524912 
1959.000000	64.514160 
1958.000000	64.508390 
1957.000000	64.509224 
1956.000000	64.517593 
1955.000000	64.533209 
1954.000000	64.554643 
1953.000000	64.579486 
1952.000000	64.604616 
1951.000000	64.627122 
1950.000000	64.644694 
1949.000000	64.656209 
1948.000000	64.661550 
1947.000000	64.661669 
1946.000000	64.658236 
1945.000000	64.653062 
1944.000000	64.647817 
1943.000000	64.643716 
1942.000000	64.641666 
1941.000000	64.641737 
1940.000000	64.643669 
1939.000000	64.646863 
1938.000000	64.650559 
1937.000000	64.653944 
1936.000000	64.656329 
1935.000000	64.657211 
1934.000000	64.656186 
1933.000000	64.653110 
1932.000000	64.647793 
1931.000000	64.640355 
1930.000000	64.631009 
1929.000000	64.620280 
1928.000000	64.609050 
1927.000000	64.598250 
1926.000000	64.589023 
1925.000000	64.581966 
1924.000000	64.577388 
1923.000000	64.574909 
1922.000000	64.573860 
1921.000000	64.573526 
1920.000000	64.573550 
1919.000000	64.573836 
1918.000000	64.574575 
1917.000000	64.576292 
1916.000000	64.579463 
1915.000000	64.584016 
1914.000000	64.589667 
1913.000000	64.595603 
1912.000000	64.600896 
1911.000000	64.604830 
1910.000000	64.606785 
1909.000000	64.606642 
1908.000000	64.604306 
1907.000000	64.600038 
1906.000000	64.594006 
1905.000000	64.586424 
1904.000000	64.577412 
1903.000000	64.567017 
1902.000000	64.555597 
1901.000000	64.543843 
1900.000000	64.532661 
1899.000000	64.523291 
1898.000000	64.516830 
1897.000000	64.514207 
1896.000000	64.515662 
1895.000000	64.520835 
1894.000000	64.528584 
1893.000000	64.537501 
1892.000000	64.545965 
1891.000000	64.552807 
1890.000000	64.557313 
1889.000000	64.559435 
1888.000000	64.559674 
1887.000000	64.558863 
1886.000000	64.557766 
1885.000000	64.556598 
1884.000000	64.555430 
1883.000000	64.553594 
1882.000000	64.550161 
1881.000000	64.544320 
1880.000000	64.535617 
1879.000000	64.524292 
1878.000000	64.511156 
1877.000000	64.497518 
1876.000000	64.484834 
1875.000000	64.474391 
1874.000000	64.466977 
1873.000000	64.462614 
1872.000000	64.460706 
1871.000000	64.460086 
1870.000000	64.459443 
1869.000000	64.457607 
1868.000000	64.454126 
1867.000000	64.449071 
1866.000000	64.443421 
1865.000000	64.438390 
1864.000000	64.435505 
1863.000000	64.435911 
1862.000000	64.440298 
1861.000000	64.448571 
1860.000000	64.460039 
1859.000000	64.473891 
1858.000000	64.489221 
1857.000000	64.505290 
1856.000000	64.521598 
1855.000000	64.537906 
1854.000000	64.553928 
1853.000000	64.569211 
1852.000000	64.582991 
1851.000000	64.594197 
1850.000000	64.601707 
1849.000000	64.604544 
1848.000000	64.602184 
1847.000000	64.594745 
1846.000000	64.583182 
1845.000000	64.569115 
1844.000000	64.554667 
1843.000000	64.541769 
1842.000000	64.532113 
1841.000000	64.526677 
1840.000000	64.525818 
1839.000000	64.528942 
1838.000000	64.534759 
1837.000000	64.541530 
1836.000000	64.547514 
1835.000000	64.550995 
1834.000000	64.550709 
1833.000000	64.546108 
1832.000000	64.537382 
1831.000000	64.525532 
1830.000000	64.512109 
1829.000000	64.498805 
1828.000000	64.487361 
1827.000000	64.478707 
1826.000000	64.473247 
1825.000000	64.470577 
1824.000000	64.469861 
1823.000000	64.469885 
1822.000000	64.469647 
1821.000000	64.468622 
1820.000000	64.467048 
1819.000000	64.465737 
1818.000000	64.465856 
1817.000000	64.468359 
1816.000000	64.473819 
1815.000000	64.481854 
1814.000000	64.491462 
1813.000000	64.500975 
1812.000000	64.508628 
1811.000000	64.513134 
1810.000000	64.514040 
1809.000000	64.511752 
1808.000000	64.507555 
1807.000000	64.503216 
1806.000000	64.500594 
1805.000000	64.501166 
1804.000000	64.505720 
1803.000000	64.514088 
1802.000000	64.525341 
1801.000000	64.538049 
1800.000000	64.550447 
1799.000000	64.561033 
1798.000000	64.568519 
1797.000000	64.572238 
1796.000000	64.571928 
1795.000000	64.567899 
1794.000000	64.560770 
1793.000000	64.551520 
1792.000000	64.541268 
1791.000000	64.531064 
1790.000000	64.521741 
1789.000000	64.513850 
1788.000000	64.507579 
1787.000000	64.502906 
1786.000000	64.499640 
1785.000000	64.497733 
1784.000000	64.497113 
1783.000000	64.497852 
1782.000000	64.500045 
1781.000000	64.503717 
1780.000000	64.508533 
1779.000000	64.513850 
1778.000000	64.518642 
1777.000000	64.521861 
1776.000000	64.522504 
1775.000000	64.519810 
1774.000000	64.513778 
1773.000000	64.504885 
1772.000000	64.494132 
1771.000000	64.482617 
1770.000000	64.471435 
1769.000000	64.461183 
1768.000000	64.451909 
1767.000000	64.443349 
1766.000000	64.435052 
1765.000000	64.426827 
1764.000000	64.418673 
1763.000000	64.411115 
1762.000000	64.404749 
1761.000000	64.400267 
1760.000000	64.397907 
1759.000000	64.397168 
1758.000000	64.396762 
1757.000000	64.394950 
1756.000000	64.389801 
1755.000000	64.379763 
1754.000000	64.364314 
1753.000000	64.344000 
1752.000000	64.320468 
1751.000000	64.296030 
1750.000000	64.273262 
1749.000000	64.254426 
1748.000000	64.241075 
1747.000000	64.233827 
1746.000000	64.232206 
1745.000000	64.235091 
1744.000000	64.240717 
1743.000000	64.247083 
1742.000000	64.252114 
1741.000000	64.254117 
1740.000000	64.251947 
1739.000000	64.244985 
1738.000000	64.233517 
1737.000000	64.218449 
1736.000000	64.201331 
1735.000000	64.183974 
1734.000000	64.168167 
1733.000000	64.155364 
1732.000000	64.146256 
1731.000000	64.140820 
1730.000000	64.138245 
1729.000000	64.137649 
1728.000000	64.137959 
1727.000000	64.139056 
1726.000000	64.141345 
1725.000000	64.146113 
1724.000000	64.154839 
1723.000000	64.168953 
1722.000000	64.188957 
1721.000000	64.214444 
1720.000000	64.243721 
1719.000000	64.274287 
1718.000000	64.303302 
1717.000000	64.328050 
1716.000000	64.346599 
1715.000000	64.358234 
1714.000000	64.363384 
1713.000000	64.363288 
1712.000000	64.359712 
1711.000000	64.354443 
1710.000000	64.348793 
1709.000000	64.343595 
1708.000000	64.338946 
1707.000000	64.334726 
1706.000000	64.330625 
1705.000000	64.326572 
1704.000000	64.322686 
1703.000000	64.319467 
1702.000000	64.317679 
1701.000000	64.318132 
1700.000000	64.321422 
1699.000000	64.327692 
1698.000000	64.336585 
1697.000000	64.347028 
1696.000000	64.357399 
1695.000000	64.365792 
1694.000000	64.370369 
1693.000000	64.369726 
1692.000000	64.363360 
1691.000000	64.351630 
1690.000000	64.336013 
1689.000000	64.318799 
1688.000000	64.302659 
1687.000000	64.290070 
1686.000000	64.283037 
1685.000000	64.282655 
1684.000000	64.288806 
1683.000000	64.300227 
1682.000000	64.314842 
1681.000000	64.330363 
1680.000000	64.344525 
1679.000000	64.355659 
1678.000000	64.362692 
1677.000000	64.365196 
1676.000000	64.363455 
1675.000000	64.358115 
1674.000000	64.349913 
1673.000000	64.339613 
1672.000000	64.327764 
1671.000000	64.314866 
1670.000000	64.301371 
1669.000000	64.287638 
1668.000000	64.274311 
1667.000000	64.261984 
1666.000000	64.251399 
1665.000000	64.243173 
1664.000000	64.237713 
1663.000000	64.235043 
1662.000000	64.234828 
1661.000000	64.236283 
1660.000000	64.238429 
1659.000000	64.240312 
1658.000000	64.241218 
1657.000000	64.240980 
1656.000000	64.239931 
1655.000000	64.239168 
1654.000000	64.240193 
1653.000000	64.244627 
1652.000000	64.253687 
1651.000000	64.268040 
1650.000000	64.287447 
1649.000000	64.310455 
1648.000000	64.334750 
1647.000000	64.357614 
1646.000000	64.376258 
1645.000000	64.388632 
1644.000000	64.393472 
1643.000000	64.390826 
1642.000000	64.381909 
1641.000000	64.368963 
1640.000000	64.354777 
1639.000000	64.341974 
1638.000000	64.332628 
1637.000000	64.327979 
1636.000000	64.328026 
1635.000000	64.331889 
1634.000000	64.337801 
1633.000000	64.343714 
1632.000000	64.347600 
1631.000000	64.347982 
1630.000000	64.344000 
1629.000000	64.335560 
1628.000000	64.323210 
1627.000000	64.307928 
1626.000000	64.290904 
1625.000000	64.273428 
1624.000000	64.256644 
1623.000000	64.241552 
1622.000000	64.228963 
1621.000000	64.219665 
1620.000000	64.214205 
1619.000000	64.213180 
1618.000000	64.216780 
1617.000000	64.224958 
1616.000000	64.237093 
1615.000000	64.252257 
1614.000000	64.268898 
1613.000000	64.285159 
1612.000000	64.298987 
1611.000000	64.308667 
1610.000000	64.312863 
1609.000000	64.310956 
1608.000000	64.303207 
1607.000000	64.290571 
1606.000000	64.274740 
1605.000000	64.257645 
1604.000000	64.241194 
1603.000000	64.226913 
1602.000000	64.215850 
1601.000000	64.208650 
1600.000000	64.205336 
1599.000000	64.205598 
1598.000000	64.208579 
1597.000000	64.213204 
1596.000000	64.218211 
1595.000000	64.222407 
1594.000000	64.224767 
1593.000000	64.224386 
1592.000000	64.221119 
1591.000000	64.215445 
1590.000000	64.208364 
1589.000000	64.201092 
1588.000000	64.195084 
1587.000000	64.191412 
1586.000000	64.190602 
1585.000000	64.192247 
1584.000000	64.195275 
1583.000000	64.198231 
1582.000000	64.199662 
1581.000000	64.198422 
1580.000000	64.194178 
1579.000000	64.187359 
1578.000000	64.178848 
1577.000000	64.169669 
1576.000000	64.160656 
1575.000000	64.152193 
1574.000000	64.144110 
1573.000000	64.136171 
1572.000000	64.127945 
1571.000000	64.119434 
1570.000000	64.110970 
1569.000000	64.103436 
1568.000000	64.097833 
1567.000000	64.095306 
1566.000000	64.096617 
1565.000000	64.101934 
1564.000000	64.110922 
1563.000000	64.122676 
1562.000000	64.136052 
1561.000000	64.150023 
1560.000000	64.163851 
1559.000000	64.177060 
1558.000000	64.189553 
1557.000000	64.201378 
1556.000000	64.212632 
1555.000000	64.223408 
1554.000000	64.233684 
1553.000000	64.243221 
1552.000000	64.251637 
1551.000000	64.258432 
1550.000000	64.263105 
1549.000000	64.265036 
1548.000000	64.263677 
1547.000000	64.258599 
1546.000000	64.249825 
1545.000000	64.237642 
1544.000000	64.222955 
1543.000000	64.206981 
1542.000000	64.191126 
1541.000000	64.176940 
1540.000000	64.165759 
1539.000000	64.158511 
1538.000000	64.155721 
1537.000000	64.157462 
1536.000000	64.163327 
1535.000000	64.172649 
1534.000000	64.184761 
1533.000000	64.198851 
1532.000000	64.214110 
1531.000000	64.229774 
1530.000000	64.244937 
1529.000000	64.258408 
1528.000000	64.268732 
1527.000000	64.274501 
1526.000000	64.274215 
1525.000000	64.266872 
1524.000000	64.252138 
1523.000000	64.230489 
1522.000000	64.203476 
1521.000000	64.173531 
1520.000000	64.143562 
1519.000000	64.116787 
1518.000000	64.095973 
1517.000000	64.083123 
1516.000000	64.078927 
1515.000000	64.082956 
1514.000000	64.093613 
1513.000000	64.108753 
1512.000000	64.125895 
1511.000000	64.142870 
1510.000000	64.157867 
1509.000000	64.169931 
1508.000000	64.178657 
1507.000000	64.184117 
1506.000000	64.186668 
1505.000000	64.186501 
1504.000000	64.183855 
1503.000000	64.178824 
1502.000000	64.171600 
1501.000000	64.162755 
1500.000000	64.153432 
1499.000000	64.145183 
1498.000000	64.139676 
1497.000000	64.138221 
1496.000000	64.141631 
1495.000000	64.149785 
1494.000000	64.161801 
1493.000000	64.176487 
1492.000000	64.192748 
1491.000000	64.210009 
1490.000000	64.228153 
1489.000000	64.247179 
1488.000000	64.266824 
1487.000000	64.286422 
1486.000000	64.304399 
1485.000000	64.318776 
1484.000000	64.327216 
1483.000000	64.328145 
1482.000000	64.320707 
1481.000000	64.305162 
1480.000000	64.282941 
1479.000000	64.256358 
1478.000000	64.228057 
1477.000000	64.200806 
1476.000000	64.176607 
1475.000000	64.156627 
1474.000000	64.140963 
1473.000000	64.128684 
1472.000000	64.118337 
1471.000000	64.108276 
1470.000000	64.097237 
1469.000000	64.084625 
1468.000000	64.070582 
1467.000000	64.056062 
1466.000000	64.042472 
1465.000000	64.031243 
1464.000000	64.023494 
1463.000000	64.019751 
1462.000000	64.019775 
1461.000000	64.022874 
1460.000000	64.027833 
1459.000000	64.033627 
1458.000000	64.039444 
1457.000000	64.045047 
1456.000000	64.050698 
1455.000000	64.056825 
1454.000000	64.063763 
1453.000000	64.071464 
1452.000000	64.079451 
1451.000000	64.086794 
1450.000000	64.092373 
1449.000000	64.095211 
1448.000000	64.095020 
1447.000000	64.091992 
1446.000000	64.086937 
1445.000000	64.081025 
1444.000000	64.075469 
1443.000000	64.071369 
1442.000000	64.069271 
1441.000000	64.069318 
1440.000000	64.071202 
1439.000000	64.074277 
1438.000000	64.077639 
1437.000000	64.080524 
1436.000000	64.082193 
1435.000000	64.082026 
1434.000000	64.079737 
1433.000000	64.074969 
1432.000000	64.067983 
1431.000000	64.059329 
1430.000000	64.050364 
1429.000000	64.042615 
1428.000000	64.038372 
1427.000000	64.040136 
1426.000000	64.050102 
1425.000000	64.069604 
1424.000000	64.098739 
1423.000000	64.136004 
1422.000000	64.178276 
1421.000000	64.221310 
1420.000000	64.260315 
1419.000000	64.290904 
1418.000000	64.309859 
1417.000000	64.315795 
1416.000000	64.309453 
1415.000000	64.293408 
1414.000000	64.271521 
1413.000000	64.248085 
1412.000000	64.226818 
1411.000000	64.210176 
1410.000000	64.199161 
1409.000000	64.193201 
1408.000000	64.190649 
1407.000000	64.189195 
1406.000000	64.186739 
1405.000000	64.181828 
1404.000000	64.173626 
1403.000000	64.162325 
1402.000000	64.148688 
1401.000000	64.134001 
1400.000000	64.119672 
1399.000000	64.107012 
1398.000000	64.097142 
1397.000000	64.090728 
1396.000000	64.088058 
1395.000000	64.088869 
1394.000000	64.092493 
1393.000000	64.097929 
1392.000000	64.103913 
1391.000000	64.109182 
1390.000000	64.112496 
1389.000000	64.113140 
1388.000000	64.110708 
1387.000000	64.105367 
1386.000000	64.097666 
1385.000000	64.088344 
1384.000000	64.078402 
1383.000000	64.068675 
1382.000000	64.059996 
1381.000000	64.052987 
1380.000000	64.048266 
1379.000000	64.046478 
1378.000000	64.048027 
1377.000000	64.053106 
1376.000000	64.061546 
1375.000000	64.072680 
1374.000000	64.085412 
1373.000000	64.098310 
1372.000000	64.109826 
1371.000000	64.118480 
1370.000000	64.123177 
1369.000000	64.123439 
1368.000000	64.119458 
1367.000000	64.112019 
1366.000000	64.102292 
1365.000000	64.091801 
1364.000000	64.081954 
1363.000000	64.073920 
1362.000000	64.068412 
1361.000000	64.065599 
1360.000000	64.065217 
1359.000000	64.066600 
1358.000000	64.068889 
1357.000000	64.071154 
1356.000000	64.072585 
1355.000000	64.072704 
1354.000000	64.071416 
1353.000000	64.068961 
1352.000000	64.065885 
1351.000000	64.062881 
1350.000000	64.060497 
1349.000000	64.059114 
1348.000000	64.058661 
1347.000000	64.058613 
1346.000000	64.058160 
1345.000000	64.056158 
1344.000000	64.051508 
1343.000000	64.043331 
1342.000000	64.031291 
1341.000000	64.015698 
1340.000000	63.997387 
1339.000000	63.977789 
1338.000000	63.958811 
1337.000000	63.942456 
1336.000000	63.930583 
1335.000000	63.924551 
1334.000000	63.925147 
1333.000000	63.932466 
1332.000000	63.945770 
1331.000000	63.963747 
1330.000000	63.984680 
1329.000000	64.006519 
1328.000000	64.027261 
1327.000000	64.045000 
1326.000000	64.058232 
1325.000000	64.065790 
1324.000000	64.067101 
1323.000000	64.062333 
1322.000000	64.052057 
1321.000000	64.037513 
1320.000000	64.020013 
1319.000000	64.001250 
1318.000000	63.982534 
1317.000000	63.965177 
1316.000000	63.949823 
1315.000000	63.936805 
1314.000000	63.925957 
1313.000000	63.916993 
1312.000000	63.909506 
1311.000000	63.903212 
1310.000000	63.898110 
1309.000000	63.894462 
1308.000000	63.892817 
1307.000000	63.893771 
1306.000000	63.897752 
1305.000000	63.905072 
1304.000000	63.915634 
1303.000000	63.928866 
1302.000000	63.943696 
1301.000000	63.958716 
1300.000000	63.972234 
1299.000000	63.982653 
1298.000000	63.988590 
1297.000000	63.989424 
1296.000000	63.985419 
1295.000000	63.977789 
1294.000000	63.968634 
1293.000000	63.960361 
1292.000000	63.955354 
1291.000000	63.955211 
1290.000000	63.960552 
1289.000000	63.970828 
1288.000000	63.984322 
1287.000000	63.998937 
1286.000000	64.012575 
1285.000000	64.023733 
1284.000000	64.031910 
1283.000000	64.037609 
1282.000000	64.041924 
1281.000000	64.046192 
1280.000000	64.051127 
1279.000000	64.056754 
1278.000000	64.062023 
1277.000000	64.065361 
1276.000000	64.065122 
1275.000000	64.060306 
1274.000000	64.050722 
1273.000000	64.037418 
1272.000000	64.022231 
1271.000000	64.007425 
1270.000000	63.995122 
1269.000000	63.986825 
1268.000000	63.983321 
1267.000000	63.984322 
1266.000000	63.988804 
1265.000000	63.995361 
1264.000000	64.002466 
1263.000000	64.008879 
1262.000000	64.013838 
1261.000000	64.016938 
1260.000000	64.018177 
1259.000000	64.017605 
1258.000000	64.015245 
1257.000000	64.011240 
1256.000000	64.005517 
1255.000000	63.997912 
1254.000000	63.988375 
1253.000000	63.976955 
1252.000000	63.963985 
1251.000000	63.950181 
1250.000000	63.936662 
1249.000000	63.924598 
1248.000000	63.915324 
1247.000000	63.909864 
1246.000000	63.908505 
1245.000000	63.910818 
1244.000000	63.915443 
1243.000000	63.920569 
1242.000000	63.924241 
1241.000000	63.924980 
1240.000000	63.922071 
1239.000000	63.915872 
1238.000000	63.907527 
1237.000000	63.898611 
1236.000000	63.890814 
1235.000000	63.885068 
1234.000000	63.881444 
1233.000000	63.878917 
1232.000000	63.875818 
1231.000000	63.870358 
1230.000000	63.861155 
1229.000000	63.847994 
1228.000000	63.831782 
1227.000000	63.814759 
1226.000000	63.799953 
1225.000000	63.790464 
1224.000000	63.788700 
1223.000000	63.795876 
1222.000000	63.811683 
1221.000000	63.834452 
1220.000000	63.861346 
1219.000000	63.889050 
1218.000000	63.914442 
1217.000000	63.935065 
1216.000000	63.949513 
1215.000000	63.957166 
1214.000000	63.958501 
1213.000000	63.954615 
1212.000000	63.947176 
1211.000000	63.938355 
1210.000000	63.930273 
1209.000000	63.925075 
1208.000000	63.924169 
1207.000000	63.928174 
1206.000000	63.936543 
1205.000000	63.947629 
1204.000000	63.958859 
1203.000000	63.967442 
1202.000000	63.970828 
1201.000000	63.967299 
1200.000000	63.956260 
1199.000000	63.938474 
1198.000000	63.915705 
1197.000000	63.890314 
1196.000000	63.864970 
1195.000000	63.841915 
1194.000000	63.822960 
1193.000000	63.809037 
1192.000000	63.800358 
1191.000000	63.796472 
1190.000000	63.796567 
1189.000000	63.799643 
1188.000000	63.804769 
1187.000000	63.810920 
1186.000000	63.816928 
1185.000000	63.821673 
1184.000000	63.824033 
1183.000000	63.823056 
1182.000000	63.817977 
1181.000000	63.808798 
1180.000000	63.796377 
1179.000000	63.782405 
1178.000000	63.769102 
1177.000000	63.758492 
1176.000000	63.751935 
1175.000000	63.749670 
1174.000000	63.750600 
1173.000000	63.752698 
1172.000000	63.753557 
1171.000000	63.751149 
1170.000000	63.744354 
1169.000000	63.733005 
1168.000000	63.718080 
1167.000000	63.701319 
1166.000000	63.684868 
1165.000000	63.670802 
1164.000000	63.660669 
1163.000000	63.655471 
1162.000000	63.655066 
1161.000000	63.658356 
1160.000000	63.663411 
1159.000000	63.667654 
1158.000000	63.668966 
1157.000000	63.666033 
1156.000000	63.658833 
1155.000000	63.648653 
1154.000000	63.637709 
1153.000000	63.628339 
1152.000000	63.622546 
1151.000000	63.621258 
1150.000000	63.624620 
1149.000000	63.631916 
1148.000000	63.642168 
1147.000000	63.654327 
1146.000000	63.667368 
1145.000000	63.680672 
1144.000000	63.693881 
1143.000000	63.707065 
1142.000000	63.720560 
1141.000000	63.734912 
1140.000000	63.750863 
1139.000000	63.768601 
1138.000000	63.787722 
1137.000000	63.806891 
1136.000000	63.823938 
1135.000000	63.836431 
1134.000000	63.842344 
1133.000000	63.840556 
1132.000000	63.831830 
1131.000000	63.818407 
1130.000000	63.803601 
1129.000000	63.791394 
1128.000000	63.785314 
1127.000000	63.787698 
1126.000000	63.799214 
1125.000000	63.818717 
1124.000000	63.843488 
1123.000000	63.869857 
1122.000000	63.894104 
1121.000000	63.913106 
1120.000000	63.925027 
1119.000000	63.929677 
1118.000000	63.928437 
1117.000000	63.923525 
1116.000000	63.917589 
1115.000000	63.912963 
1114.000000	63.911151 
1113.000000	63.912487 
1112.000000	63.916110 
1111.000000	63.920474 
1110.000000	63.923859 
1109.000000	63.924813 
1108.000000	63.922739 
1107.000000	63.917827 
1106.000000	63.911342 
1105.000000	63.905143 
1104.000000	63.901185 
1103.000000	63.901138 
1102.000000	63.905882 
1101.000000	63.915133 
1100.000000	63.927364 
1099.000000	63.940334 
1098.000000	63.951182 
1097.000000	63.957095 
1096.000000	63.955688 
1095.000000	63.945388 
1094.000000	63.925695 
1093.000000	63.897442 
1092.000000	63.862514 
1091.000000	63.823795 
1090.000000	63.784527 
1089.000000	63.747882 
1088.000000	63.716530 
1087.000000	63.692712 
1086.000000	63.677644 
1085.000000	63.671898 
1084.000000	63.675475 
1083.000000	63.688111 
1082.000000	63.709282 
1081.000000	63.738155 
1080.000000	63.773322 
1079.000000	63.812589 
1078.000000	63.852930 
1077.000000	63.890552 
1076.000000	63.921165 
1075.000000	63.940668 
1074.000000	63.946175 
1073.000000	63.936543 
1072.000000	63.912940 
1071.000000	63.878679 
1070.000000	63.838911 
1069.000000	63.799285 
1068.000000	63.764905 
1067.000000	63.739156 
1066.000000	63.723230 
1065.000000	63.716030 
1064.000000	63.714790 
1063.000000	63.715910 
1062.000000	63.716220 
1061.000000	63.713574 
1060.000000	63.707709 
1059.000000	63.699746 
1058.000000	63.692259 
1057.000000	63.688063 
1056.000000	63.690161 
1055.000000	63.700199 
1054.000000	63.718795 
1053.000000	63.745307 
1052.000000	63.777899 
1051.000000	63.813948 
1050.000000	63.850522 
1049.000000	63.884949 
1048.000000	63.915038 
1047.000000	63.939046 
1046.000000	63.955855 
1045.000000	63.964986 
1044.000000	63.966441 
1043.000000	63.960695 
1042.000000	63.948535 
1041.000000	63.930940 
1040.000000	63.909077 
1039.000000	63.884377 
1038.000000	63.857913 
1037.000000	63.830471 
1036.000000	63.802862 
1035.000000	63.775849 
1034.000000	63.750219 
1033.000000	63.726663 
1032.000000	63.706278 
1031.000000	63.689827 
1030.000000	63.677644 
1029.000000	63.669300 
1028.000000	63.663601 
1027.000000	63.658785 
1026.000000	63.652729 
1025.000000	63.643670 
1024.000000	63.630461 
1023.000000	63.613414 
1022.000000	63.593888 
1021.000000	63.574314 
1020.000000	63.557410 
1019.000000	63.545846 
1018.000000	63.541507 
1017.000000	63.545322 
1016.000000	63.556790 
1015.000000	63.574814 
1014.000000	63.597750 
1013.000000	63.624143 
1012.000000	63.652682 
1011.000000	63.682579 
1010.000000	63.713240 
1009.000000	63.743972 
1008.000000	63.774013 
1007.000000	63.802123 
1006.000000	63.826918 
1005.000000	63.847398 
1004.000000	63.862729 
1003.000000	63.872861 
1002.000000	63.878059 
1001.000000	63.879394 
1000.000000	63.877940 
999.000000	 63.874793 
998.000000	 63.870620 
997.000000	 63.865661 
996.000000	 63.859820 
995.000000	 63.852787 
994.000000	 63.844466 
993.000000	 63.835334 
992.000000	 63.826346 
991.000000	 63.819050 
990.000000	 63.814997 
989.000000	 63.815617 
988.000000	 63.821411 
987.000000	 63.831996 
986.000000	 63.845777 
985.000000	 63.860487 
984.000000	 63.873696 
983.000000	 63.883566 
982.000000	 63.889074 
981.000000	 63.890385 
980.000000	 63.889002 
979.000000	 63.887023 
978.000000	 63.886523 
977.000000	 63.888788 
976.000000	 63.894081 
975.000000	 63.901066 
974.000000	 63.907384 
973.000000	 63.909959 
972.000000	 63.906383 
971.000000	 63.895225 
970.000000	 63.876771 
969.000000	 63.852906 
968.000000	 63.827037 
967.000000	 63.803029 
966.000000	 63.784432 
965.000000	 63.773417 
964.000000	 63.770270 
963.000000	 63.773417 
962.000000	 63.779926 
961.000000	 63.785910 
960.000000	 63.787817 
959.000000	 63.783216 
958.000000	 63.771677 
957.000000	 63.754773 
956.000000	 63.735723 
955.000000	 63.718748 
954.000000	 63.707685 
953.000000	 63.705086 
952.000000	 63.711333 
951.000000	 63.724541 
950.000000	 63.740730 
949.000000	 63.755083 
948.000000	 63.762712 
947.000000	 63.759994 
946.000000	 63.745474 
945.000000	 63.719701 
944.000000	 63.685417 
943.000000	 63.646626 
942.000000	 63.607954 
941.000000	 63.573336 
940.000000	 63.545942 
939.000000	 63.527607 
938.000000	 63.519191 
937.000000	 63.520574 
936.000000	 63.531351 
935.000000	 63.550829 
934.000000	 63.578200 
933.000000	 63.612198 
932.000000	 63.651108 
931.000000	 63.692402 
930.000000	 63.733267 
929.000000	 63.770604 
928.000000	 63.801789 
927.000000	 63.824725 
926.000000	 63.838267 
925.000000	 63.842177 
924.000000	 63.837218 
923.000000	 63.824701 
922.000000	 63.806200 
921.000000	 63.783383 
920.000000	 63.758039 
919.000000	 63.732075 
918.000000	 63.707566 
917.000000	 63.686752 
916.000000	 63.672184 
915.000000	 63.666176 
914.000000	 63.670301 
913.000000	 63.685035 
912.000000	 63.709259 
911.000000	 63.740301 
910.000000	 63.774085 
909.000000	 63.806056 
908.000000	 63.831782 
907.000000	 63.847780 
906.000000	 63.852071 
905.000000	 63.844561 
904.000000	 63.826894 
903.000000	 63.802075 
902.000000	 63.773846 
901.000000	 63.745713 
900.000000	 63.720488 
899.000000	 63.699746 
898.000000	 63.684010 
897.000000	 63.672733 
896.000000	 63.665223 
895.000000	 63.661098 
894.000000	 63.660860 
893.000000	 63.665652 
892.000000	 63.677310 
891.000000	 63.697218 
890.000000	 63.726043 
889.000000	 63.762974 
888.000000	 63.805460 
887.000000	 63.849091 
886.000000	 63.888764 
885.000000	 63.919711 
884.000000	 63.938450 
883.000000	 63.943672 
882.000000	 63.936400 
881.000000	 63.919901 
880.000000	 63.898396 
879.000000	 63.876128 
878.000000	 63.856315 
877.000000	 63.840532 
876.000000	 63.828873 
875.000000	 63.820338 
874.000000	 63.813591 
873.000000	 63.807749 
872.000000	 63.802599 
871.000000	 63.798570 
870.000000	 63.796377 
869.000000	 63.796758 
868.000000	 63.799619 
867.000000	 63.804697 
866.000000	 63.810944 
865.000000	 63.817548 
864.000000	 63.824224 
863.000000	 63.831305 
862.000000	 63.840007 
861.000000	 63.851690 
860.000000	 63.867521 
859.000000	 63.887739 
858.000000	 63.911104 
857.000000	 63.935041 
856.000000	 63.956284 
855.000000	 63.971734 
854.000000	 63.979077 
853.000000	 63.977932 
852.000000	 63.970017 
851.000000	 63.958454 
850.000000	 63.947081 
849.000000	 63.939261 
848.000000	 63.937044 
847.000000	 63.940382 
846.000000	 63.947391 
845.000000	 63.954949 
844.000000	 63.959884 
843.000000	 63.960075 
842.000000	 63.955140 
841.000000	 63.946676 
840.000000	 63.937687 
839.000000	 63.931465 
838.000000	 63.930559 
837.000000	 63.936018 
836.000000	 63.946747 
835.000000	 63.959813 
834.000000	 63.971233 
833.000000	 63.977503 
832.000000	 63.976216 
831.000000	 63.966917 
830.000000	 63.951230 
829.000000	 63.932275 
828.000000	 63.913774 
827.000000	 63.898730 
826.000000	 63.888549 
825.000000	 63.882637 
824.000000	 63.878679 
823.000000	 63.873243 
822.000000	 63.862943 
821.000000	 63.845276 
820.000000	 63.819408 
819.000000	 63.786625 
818.000000	 63.749408 
817.000000	 63.711166 
816.000000	 63.675093 
815.000000	 63.643693 
814.000000	 63.618373 
813.000000	 63.599181 
812.000000	 63.585305 
811.000000	 63.575029 
810.000000	 63.566112 
809.000000	 63.556337 
808.000000	 63.543581 
807.000000	 63.526535 
806.000000	 63.504981 
805.000000	 63.480091 
804.000000	 63.454151 
803.000000	 63.430452 
802.000000	 63.412499 
801.000000	 63.403606 
800.000000	 63.405871 
799.000000	 63.420462 
798.000000	 63.447189 
797.000000	 63.484406 
796.000000	 63.529372 
795.000000	 63.578510 
794.000000	 63.627958 
793.000000	 63.673758 
792.000000	 63.712382 
791.000000	 63.741207 
790.000000	 63.758826 
789.000000	 63.765478 
788.000000	 63.762450 
787.000000	 63.752150 
786.000000	 63.737201 
785.000000	 63.720703 
784.000000	 63.704872 
783.000000	 63.690829 
782.000000	 63.678550 
781.000000	 63.667511 
780.000000	 63.656926 
779.000000	 63.646268 
778.000000	 63.635873 
777.000000	 63.627147 
776.000000	 63.621783 
775.000000	 63.621234 
774.000000	 63.625669 
773.000000	 63.633823 
772.000000	 63.642477 
771.000000	 63.646984 
770.000000	 63.642191 
769.000000	 63.623762 
768.000000	 63.589262 
767.000000	 63.539338 
766.000000	 63.477516 
765.000000	 63.409876 
764.000000	 63.343977 
763.000000	 63.287830 
762.000000	 63.247656 
761.000000	 63.227438 
760.000000	 63.228321 
759.000000	 63.248991 
758.000000	 63.285541 
757.000000	 63.333082 
756.000000	 63.385915 
755.000000	 63.439512 
754.000000	 63.490033 
753.000000	 63.535976 
752.000000	 63.577055 
751.000000	 63.614940 
750.000000	 63.651895 
749.000000	 63.690018 
748.000000	 63.730382 
747.000000	 63.771986 
746.000000	 63.812232 
745.000000	 63.846588 
744.000000	 63.869953 
743.000000	 63.877344 
742.000000	 63.865590 
741.000000	 63.834118 
740.000000	 63.785243 
739.000000	 63.724017 
738.000000	 63.656997 
737.000000	 63.590884 
736.000000	 63.531303 
735.000000	 63.481760 
734.000000	 63.443660 
733.000000	 63.416385 
732.000000	 63.398766 
731.000000	 63.389492 
730.000000	 63.388228 
729.000000	 63.395118 
728.000000	 63.410902 
727.000000	 63.435554 
726.000000	 63.468408 
725.000000	 63.507580 
724.000000	 63.549900 
723.000000	 63.591361 
722.000000	 63.627266 
721.000000	 63.653445 
720.000000	 63.666391 
719.000000	 63.664102 
718.000000	 63.646245 
717.000000	 63.614368 
716.000000	 63.571405 
715.000000	 63.521289 
714.000000	 63.468122 
713.000000	 63.415765 
712.000000	 63.367652 
711.000000	 63.326597 
710.000000	 63.294386 
709.000000	 63.271856 
708.000000	 63.259291 
707.000000	 63.256335 
706.000000	 63.261127 
705.000000	 63.271188 
704.000000	 63.282871 
703.000000	 63.292765 
702.000000	 63.297533 
701.000000	 63.295578 
700.000000	 63.286519 
699.000000	 63.272404 
698.000000	 63.257265 
697.000000	 63.246369 
696.000000	 63.244605 
695.000000	 63.255381 
694.000000	 63.279557 
693.000000	 63.314986 
692.000000	 63.356757 
691.000000	 63.398385 
690.000000	 63.433361 
689.000000	 63.457226 
688.000000	 63.468956 
687.000000	 63.471460 
686.000000	 63.470935 
685.000000	 63.475751 
684.000000	 63.493990 
683.000000	 63.531184 
682.000000	 63.588237 
681.000000	 63.661646 
680.000000	 63.743185 
679.000000	 63.821816 
678.000000	 63.885307 
677.000000	 63.923597 
676.000000	 63.929867 
675.000000	 63.902473 
674.000000	 63.844347 
673.000000	 63.761949 
672.000000	 63.663935 
671.000000	 63.559651 
670.000000	 63.457989 
669.000000	 63.365936 
668.000000	 63.289523 
667.000000	 63.233542 
666.000000	 63.201975 
665.000000	 63.197445 
664.000000	 63.221430 
663.000000	 63.273596 
662.000000	 63.350796 
661.000000	 63.446974 
660.000000	 63.553619 
659.000000	 63.661146 
658.000000	 63.760352 
657.000000	 63.844084 
656.000000	 63.908720 
655.000000	 63.953542 
654.000000	 63.981771 
653.000000	 63.996982 
652.000000	 64.001512 
651.000000	 63.994431 
650.000000	 63.972592 
649.000000	 63.930535 
648.000000	 63.864350 
647.000000	 63.772153 
646.000000	 63.657045 
645.000000	 63.526034 
644.000000	 63.390803 
643.000000	 63.263463 
642.000000	 63.154149 
641.000000	 63.068461 
640.000000	 63.005948 
639.000000	 62.961745 
638.000000	 62.928056 
637.000000	 62.897562 
636.000000	 62.865710 
635.000000	 62.832403 
634.000000	 62.801933 
633.000000	 62.781667 
632.000000	 62.780189 
631.000000	 62.803602 
630.000000	 62.854719 
629.000000	 62.933659 
628.000000	 63.037490 
627.000000	 63.162565 
626.000000	 63.302946 
625.000000	 63.451766 
624.000000	 63.598680 
623.000000	 63.731813 
622.000000	 63.835978 
621.000000	 63.894414 
620.000000	 63.891839 
619.000000	 63.818669 
618.000000	 63.674330 
617.000000	 63.469433 
616.000000	 63.225650 
615.000000	 62.973761 
614.000000	 62.747335 
613.000000	 62.576842 
612.000000	 62.482500 
611.000000	 62.470889 
610.000000	 62.532234 
609.000000	 62.643313 
608.000000	 62.772750 
607.000000	 62.888836 
606.000000	 62.965655 
605.000000	 62.989258 
604.000000	 62.959146 
603.000000	 62.888479 
602.000000	 62.799406 
601.000000	 62.718701 
600.000000	 62.670803 
599.000000	 62.673568 
598.000000	 62.735605 
597.000000	 62.854528 
596.000000	 63.020777 
595.000000	 63.217186 
594.000000	 63.424253 
593.000000	 63.620948 
592.000000	 63.788819 
591.000000	 63.912653 
590.000000	 63.981819 
589.000000	 63.991212 
588.000000	 63.941526 
587.000000	 63.839721 
586.000000	 63.698291 
585.000000	 63.534617 
584.000000	 63.369417 
583.000000	 63.223814 
582.000000	 63.116526 
581.000000	 63.061094 
580.000000	 63.063716 
579.000000	 63.121128 
578.000000	 63.221907 
577.000000	 63.347053 
576.000000	 63.475155 
575.000000	 63.587021 
574.000000	 63.670802 
573.000000	 63.721799 
572.000000	 63.745093 
571.000000	 63.752865 
570.000000	 63.761973 
569.000000	 63.788437 
568.000000	 63.843679 
567.000000	 63.932871 
566.000000	 64.051699 
565.000000	 64.190125 
564.000000	 64.331054 
563.000000	 64.456534 
562.000000	 64.548635 
561.000000	 64.594006 
560.000000	 64.585232 
559.000000	 64.522457 
558.000000	 64.413070 
557.000000	 64.270567 
556.000000	 64.111137 
555.000000	 63.950610 
554.000000	 63.802480 
553.000000	 63.676190 
552.000000	 63.574790 
551.000000	 63.495206 
550.000000	 63.429856 
549.000000	 63.368797 
548.000000	 63.302040 
547.000000	 63.222599 
546.000000	 63.126277 
545.000000	 63.014340 
544.000000	 62.893176 
543.000000	 62.773895 
542.000000	 62.667179 
541.000000	 62.583541 
540.000000	 62.529873 
539.000000	 62.509870 
538.000000	 62.521433 
537.000000	 62.560343 
536.000000	 62.619996 
535.000000	 62.695384 
534.000000	 62.781643 
533.000000	 62.878203 
532.000000	 62.987184 
531.000000	 63.112473 
530.000000	 63.256621 
529.000000	 63.419437 
528.000000	 63.595938 
527.000000	 63.776659 
526.000000	 63.948297 
525.000000	 64.095926 
524.000000	 64.204478 
523.000000	 64.263367 
522.000000	 64.266538 
521.000000	 64.211869 
520.000000	 64.101290 
519.000000	 63.940834 
518.000000	 63.740611 
517.000000	 63.514828 
516.000000	 63.280606 
515.000000	 63.058972 
514.000000	 62.869620 
513.000000	 62.728953 
512.000000	 62.645435 
511.000000	 62.618708 
510.000000	 62.638473 
509.000000	 62.685990 
508.000000	 62.739181 
507.000000	 62.775635 
506.000000	 62.780213 
505.000000	 62.747073 
504.000000	 62.681722 
503.000000	 62.597751 
502.000000	 62.513899 
501.000000	 62.448406 
500.000000	 62.414813 
499.000000	 62.418484 
498.000000	 62.457108 
497.000000	 62.521600 
496.000000	 62.599587 
495.000000	 62.678575 
494.000000	 62.747693 
493.000000	 62.800312 
492.000000	 62.832498 
491.000000	 62.844991 
490.000000	 62.841653 
489.000000	 62.829113 
488.000000	 62.816619 
487.000000	 62.812232 
486.000000	 62.821793 
485.000000	 62.845921 
484.000000	 62.882041 
483.000000	 62.921833 
482.000000	 62.953567 
481.000000	 62.964963 
480.000000	 62.945747 
479.000000	 62.892484 
478.000000	 62.809324 
477.000000	 62.709641 
476.000000	 62.613391 
475.000000	 62.543320 
474.000000	 62.519311 
473.000000	 62.554430 
472.000000	 62.651300 
471.000000	 62.802433 
470.000000	 62.991333 
469.000000	 63.195657 
468.000000	 63.391470 
467.000000	 63.556432 
466.000000	 63.674569 
465.000000	 63.736391 
464.000000	 63.742423 
463.000000	 63.704109 
462.000000	 63.640165 
461.000000	 63.575029 
460.000000	 63.529467 
459.000000	 63.517570 
458.000000	 63.540315 
457.000000	 63.587498 
456.000000	 63.638949 
455.000000	 63.670086 
454.000000	 63.660979 
453.000000	 63.602685 
452.000000	 63.502001 
451.000000	 63.379526 
450.000000	 63.265967 
449.000000	 63.193774 
448.000000	 63.187670 
447.000000	 63.257098 
446.000000	 63.392472 
445.000000	 63.566708 
444.000000	 63.741493 
443.000000	 63.876366 
442.000000	 63.939166 
441.000000	 63.912892 
440.000000	 63.798475 
439.000000	 63.614320 
438.000000	 63.385510 
437.000000	 63.141870 
436.000000	 62.915730 
435.000000	 62.735581 
434.000000	 62.618017 
433.000000	 62.570428 
432.000000	 62.592720 
431.000000	 62.679696 
430.000000	 62.822532 
429.000000	 63.012361 
428.000000	 63.237547 
427.000000	 63.488221 
426.000000	 63.756608 
425.000000	 64.032101 
424.000000	 64.297389 
423.000000	 64.533019 
422.000000	 64.719247 
421.000000	 64.840984 
420.000000	 64.890623 
419.000000	 64.875149 
418.000000	 64.814567 
417.000000	 64.739346 
416.000000	 64.678192 
415.000000	 64.654445 
414.000000	 64.669299 
413.000000	 64.692187 
412.000000	 64.660191 
411.000000	 64.493727 
410.000000	 64.116072 
409.000000	 63.467836 
408.000000	 62.539291 
407.000000	 61.381697 
406.000000	 60.112380 
405.000000	 58.880019 
404.000000	 57.856988 
403.000000	 57.196021 
402.000000	 57.011365 
401.000000	 57.351660 
400.000000	 58.191800 
399.000000	 59.430170 
398.000000	 60.916280 
397.000000	 62.482309 
396.000000	 63.961076 
395.000000	 65.203261 
394.000000	 66.115236 
393.000000	 66.667866 
392.000000	 66.883993 
391.000000	 66.824531 
390.000000	 66.585469 
389.000000	 66.274595 
388.000000	 66.015744 
387.000000	 65.927362 
386.000000	 66.059708 
385.000000	 66.414332 
384.000000	 66.994166 
383.000000	 67.807126 
382.000000	 68.834900 
381.000000	 70.061159 
380.000000	 71.517634 
379.000000	 73.213934 
378.000000	 75.115561 
377.000000	 77.109289 
376.000000	 78.986787 
375.000000	 80.490589 
374.000000	 81.416916 
373.000000	 81.593704 
372.000000	 80.961799 
371.000000	 79.516482 
370.000000	 77.347636 

