PE IR       SPECTRUM    SPECTRUM    ASCII       PEDS        1.60        
  -1
BZ6B24~1.ASC
17/04/07
16:42:51.00
17/04/07
16:42:51.00
tln
$BZ1503107-1_t0043$<tbV0>[-10.4,-5.2,8.0,0.0,27,1,0]
370.000000
64









2002,4.07    
MIRTGS : RIGHTBACK : INTERNAL 2
MIR : ON : INTERNAL 2
OPTKBR

0.200000
8
8.000000
FILLER
RATIO
SPECTRUM
UNLOCKED 256

DOUBLE
64
COMBINED
1
0
0


1.000000
RATIO


1
0
TRUE
51149
0
LEFT NOT FITTED RIGHT NOT FITTED 0
NONE
NONE
15600
12.000000
4.427000
51148
TRUE
1 0 8 72 0 0 0 0 

15798.010000






#HDR
-1
-1
#GR
CM-1
%T
0.00002384185791015625
0.0
5000.000000
-1.000000
4631
8
85.649418
59.595251
#DATA
5000.000000	65.268206 
4999.000000	65.116453 
4998.000000	64.967513 
4997.000000	64.838933 
4996.000000	64.741468 
4995.000000	64.679288 
4994.000000	64.649748 
4993.000000	64.646434 
4992.000000	64.661049 
4991.000000	64.686012 
4990.000000	64.715671 
4989.000000	64.746332 
4988.000000	64.775800 
4987.000000	64.801907 
4986.000000	64.822173 
4985.000000	64.832901 
4984.000000	64.831304 
4983.000000	64.815902 
4982.000000	64.787936 
4981.000000	64.751029 
4980.000000	64.710998 
4979.000000	64.673829 
4978.000000	64.643812 
4977.000000	64.622020 
4976.000000	64.606022 
4975.000000	64.590597 
4974.000000	64.568901 
4973.000000	64.535450 
4972.000000	64.487814 
4971.000000	64.428424 
4970.000000	64.363861 
4969.000000	64.304351 
4968.000000	64.260435 
4967.000000	64.241123 
4966.000000	64.250946 
4965.000000	64.288973 
4964.000000	64.348363 
4963.000000	64.418578 
4962.000000	64.487576 
4961.000000	64.544820 
4960.000000	64.583396 
4959.000000	64.601802 
4958.000000	64.603567 
4957.000000	64.596366 
4956.000000	64.589405 
4955.000000	64.591193 
4954.000000	64.607167 
4953.000000	64.638066 
4952.000000	64.679837 
4951.000000	64.725494 
4950.000000	64.766788 
4949.000000	64.797115 
4948.000000	64.812874 
4947.000000	64.814972 
4946.000000	64.807415 
4945.000000	64.796161 
4944.000000	64.786052 
4943.000000	64.779496 
4942.000000	64.774513 
4941.000000	64.765572 
4940.000000	64.745211 
4939.000000	64.706873 
4938.000000	64.647793 
4937.000000	64.570808 
4936.000000	64.485025 
4935.000000	64.404225 
4934.000000	64.343929 
4933.000000	64.317274 
4932.000000	64.331841 
4931.000000	64.387297 
4930.000000	64.476156 
4929.000000	64.585590 
4928.000000	64.700222 
4927.000000	64.805769 
4926.000000	64.892244 
4925.000000	64.955139 
4924.000000	64.995145 
4923.000000	65.016102 
4922.000000	65.022611 
4921.000000	65.017962 
4920.000000	65.002942 
4919.000000	64.976167 
4918.000000	64.935994 
4917.000000	64.881563 
4916.000000	64.815807 
4915.000000	64.744400 
4914.000000	64.675617 
4913.000000	64.618730 
4912.000000	64.581632 
4911.000000	64.569616 
4910.000000	64.583587 
4909.000000	64.620494 
4908.000000	64.674019 
4907.000000	64.735746 
4906.000000	64.796853 
4905.000000	64.849114 
4904.000000	64.886021 
4903.000000	64.903140 
4902.000000	64.898395 
4901.000000	64.872193 
4900.000000	64.827394 
4899.000000	64.769530 
4898.000000	64.706158 
4897.000000	64.645934 
4896.000000	64.597153 
4895.000000	64.566659 
4894.000000	64.558577 
4893.000000	64.572620 
4892.000000	64.605808 
4891.000000	64.653158 
4890.000000	64.709806 
4889.000000	64.771699 
4888.000000	64.836406 
4887.000000	64.902400 
4886.000000	64.968371 
4885.000000	65.032553 
4884.000000	65.091490 
4883.000000	65.140128 
4882.000000	65.172481 
4881.000000	65.183687 
4880.000000	65.170502 
4879.000000	65.133023 
4878.000000	65.074753 
4877.000000	65.002703 
4876.000000	64.925432 
4875.000000	64.851832 
4874.000000	64.789056 
4873.000000	64.741444 
4872.000000	64.710593 
4871.000000	64.695119 
4870.000000	64.691853 
4869.000000	64.696288 
4868.000000	64.703464 
4867.000000	64.709067 
4866.000000	64.709186 
4865.000000	64.702296 
4864.000000	64.688229 
4863.000000	64.669895 
4862.000000	64.652037 
4861.000000	64.640974 
4860.000000	64.643096 
4859.000000	64.663338 
4858.000000	64.703702 
4857.000000	64.762282 
4856.000000	64.833140 
4855.000000	64.907336 
4854.000000	64.974737 
4853.000000	65.026712 
4852.000000	65.058040 
4851.000000	65.068221 
4850.000000	65.061259 
4849.000000	65.044450 
4848.000000	65.025973 
4847.000000	65.012454 
4846.000000	65.007090 
4845.000000	65.008831 
4844.000000	65.012931 
4843.000000	65.013289 
4842.000000	65.004634 
4841.000000	64.984250 
4840.000000	64.953422 
4839.000000	64.917135 
4838.000000	64.883279 
4837.000000	64.860296 
4836.000000	64.855456 
4835.000000	64.872241 
4834.000000	64.910602 
4833.000000	64.967036 
4832.000000	65.035533 
4831.000000	65.109324 
4830.000000	65.181612 
4829.000000	65.247201 
4828.000000	65.301775 
4827.000000	65.342307 
4826.000000	65.366363 
4825.000000	65.371894 
4824.000000	65.357589 
4823.000000	65.323281 
4822.000000	65.271043 
4821.000000	65.205645 
4820.000000	65.134453 
4819.000000	65.066647 
4818.000000	65.011739 
4817.000000	64.977526 
4816.000000	64.968633 
4815.000000	64.985036 
4814.000000	65.022277 
4813.000000	65.072107 
4812.000000	65.124487 
4811.000000	65.169525 
4810.000000	65.199518 
4809.000000	65.210294 
4808.000000	65.201282 
4807.000000	65.175580 
4806.000000	65.138149 
4805.000000	65.095067 
4804.000000	65.051937 
4803.000000	65.013384 
4802.000000	64.982438 
4801.000000	64.960789 
4800.000000	64.949274 
4799.000000	64.948058 
4798.000000	64.956998 
4797.000000	64.975452 
4796.000000	65.001988 
4795.000000	65.034317 
4794.000000	65.069413 
4793.000000	65.103602 
4792.000000	65.133142 
4791.000000	65.154647 
4790.000000	65.165805 
4789.000000	65.165925 
4788.000000	65.156030 
4787.000000	65.138077 
4786.000000	65.114855 
4785.000000	65.089583 
4784.000000	65.065383 
4783.000000	65.045070 
4782.000000	65.030837 
4781.000000	65.024018 
4780.000000	65.025448 
4779.000000	65.035438 
4778.000000	65.053725 
4777.000000	65.078997 
4776.000000	65.109467 
4775.000000	65.142726 
4774.000000	65.176391 
4773.000000	65.208268 
4772.000000	65.236902 
4771.000000	65.261363 
4770.000000	65.281724 
4769.000000	65.298628 
4768.000000	65.312838 
4767.000000	65.324974 
4766.000000	65.335321 
4765.000000	65.344071 
4764.000000	65.351843 
4763.000000	65.360069 
4762.000000	65.371203 
4761.000000	65.387701 
4760.000000	65.411782 
4759.000000	65.443873 
4758.000000	65.482401 
4757.000000	65.522837 
4756.000000	65.558886 
4755.000000	65.583252 
4754.000000	65.589499 
4753.000000	65.573740 
4752.000000	65.535616 
4751.000000	65.478801 
4750.000000	65.410709 
4749.000000	65.340876 
4748.000000	65.279054 
4747.000000	65.232992 
4746.000000	65.207505 
4745.000000	65.203261 
4744.000000	65.217161 
4743.000000	65.243315 
4742.000000	65.274930 
4741.000000	65.304827 
4740.000000	65.327286 
4739.000000	65.338635 
4738.000000	65.337920 
4737.000000	65.326881 
4736.000000	65.309429 
4735.000000	65.290427 
4734.000000	65.274548 
4733.000000	65.265369 
4732.000000	65.264511 
4731.000000	65.270972 
4730.000000	65.281963 
4729.000000	65.294170 
4728.000000	65.304756 
4727.000000	65.312027 
4726.000000	65.316295 
4725.000000	65.319156 
4724.000000	65.323567 
4723.000000	65.332055 
4722.000000	65.347266 
4721.000000	65.370297 
4720.000000	65.401959 
4719.000000	65.442037 
4718.000000	65.490841 
4717.000000	65.548872 
4716.000000	65.617251 
4715.000000	65.696907 
4714.000000	65.787672 
4713.000000	65.887260 
4712.000000	65.990400 
4711.000000	66.088676 
4710.000000	66.171741 
4709.000000	66.228508 
4708.000000	66.249704 
4707.000000	66.229176 
4706.000000	66.165852 
4705.000000	66.064143 
4704.000000	65.933609 
4703.000000	65.787768 
4702.000000	65.642428 
4701.000000	65.512919 
4700.000000	65.412211 
4699.000000	65.348458 
4698.000000	65.324783 
4697.000000	65.338444 
4696.000000	65.381503 
4695.000000	65.442848 
4694.000000	65.510034 
4693.000000	65.571308 
4692.000000	65.616989 
4691.000000	65.641188 
4690.000000	65.641736 
4689.000000	65.620088 
4688.000000	65.579915 
4687.000000	65.526604 
4686.000000	65.465855 
4685.000000	65.403056 
4684.000000	65.342593 
4683.000000	65.288090 
4682.000000	65.242195 
4681.000000	65.206766 
4680.000000	65.182542 
4679.000000	65.169429 
4678.000000	65.166068 
4677.000000	65.169477 
4676.000000	65.175819 
4675.000000	65.180325 
4674.000000	65.179014 
4673.000000	65.168738 
4672.000000	65.148925 
4671.000000	65.121150 
4670.000000	65.089368 
4669.000000	65.058994 
4668.000000	65.035367 
4667.000000	65.021967 
4666.000000	65.019750 
4665.000000	65.026879 
4664.000000	65.039420 
4663.000000	65.052819 
4662.000000	65.063190 
4661.000000	65.068292 
4660.000000	65.068697 
4659.000000	65.067315 
4658.000000	65.068292 
4657.000000	65.075635 
4656.000000	65.091657 
4655.000000	65.116143 
4654.000000	65.146923 
4653.000000	65.180158 
4652.000000	65.211510 
4651.000000	65.236711 
4650.000000	65.253639 
4649.000000	65.261387 
4648.000000	65.259575 
4647.000000	65.248084 
4646.000000	65.226340 
4645.000000	65.193557 
4644.000000	65.149641 
4643.000000	65.095520 
4642.000000	65.034389 
4641.000000	64.970755 
4640.000000	64.910793 
4639.000000	64.860081 
4638.000000	64.822769 
4637.000000	64.800095 
4636.000000	64.790105 
4635.000000	64.788150 
4634.000000	64.787936 
4633.000000	64.783763 
4632.000000	64.772439 
4631.000000	64.754033 
4630.000000	64.732217 
4629.000000	64.713573 
4628.000000	64.706039 
4627.000000	64.716577 
4626.000000	64.749336 
4625.000000	64.804601 
4624.000000	64.878273 
4623.000000	64.963102 
4622.000000	65.049076 
4621.000000	65.125918 
4620.000000	65.184187 
4619.000000	65.216970 
4618.000000	65.220880 
4617.000000	65.196442 
4616.000000	65.147614 
4615.000000	65.081357 
4614.000000	65.005350 
4613.000000	64.927172 
4612.000000	64.852190 
4611.000000	64.784216 
4610.000000	64.723825 
4609.000000	64.669442 
4608.000000	64.618182 
4607.000000	64.567565 
4606.000000	64.516139 
4605.000000	64.464402 
4604.000000	64.414978 
4603.000000	64.372086 
4602.000000	64.340591 
4601.000000	64.325070 
4600.000000	64.328169 
4599.000000	64.350104 
4598.000000	64.388108 
4597.000000	64.436936 
4596.000000	64.489746 
4595.000000	64.539098 
4594.000000	64.578485 
4593.000000	64.602994 
4592.000000	64.609861 
4591.000000	64.598917 
4590.000000	64.572167 
4589.000000	64.533424 
4588.000000	64.487075 
4587.000000	64.438438 
4586.000000	64.393305 
4585.000000	64.357066 
4584.000000	64.334464 
4583.000000	64.328002 
4582.000000	64.337682 
4581.000000	64.360499 
4580.000000	64.391255 
4579.000000	64.423274 
4578.000000	64.450120 
4577.000000	64.467000 
4576.000000	64.471960 
4575.000000	64.465928 
4574.000000	64.452552 
4573.000000	64.437150 
4572.000000	64.425730 
4571.000000	64.423274 
4570.000000	64.432859 
4569.000000	64.455318 
4568.000000	64.488625 
4567.000000	64.528965 
4566.000000	64.570236 
4565.000000	64.606022 
4564.000000	64.629864 
4563.000000	64.636635 
4562.000000	64.623212 
4561.000000	64.588952 
4560.000000	64.536094 
4559.000000	64.469766 
4558.000000	64.396762 
4557.000000	64.324760 
4556.000000	64.260196 
4555.000000	64.207291 
4554.000000	64.166951 
4553.000000	64.137196 
4552.000000	64.114356 
4551.000000	64.094901 
4550.000000	64.076733 
4549.000000	64.060354 
4548.000000	64.048719 
4547.000000	64.046430 
4546.000000	64.057826 
4545.000000	64.085483 
4544.000000	64.128422 
4543.000000	64.182233 
4542.000000	64.239454 
4541.000000	64.291596 
4540.000000	64.330959 
4539.000000	64.352941 
4538.000000	64.356946 
4537.000000	64.346504 
4536.000000	64.328336 
4535.000000	64.309716 
4534.000000	64.296722 
4533.000000	64.291930 
4532.000000	64.294505 
4531.000000	64.299392 
4530.000000	64.299845 
4529.000000	64.288306 
4528.000000	64.259099 
4527.000000	64.210295 
4526.000000	64.144515 
4525.000000	64.068913 
4524.000000	63.993668 
4523.000000	63.930559 
4522.000000	63.890433 
4521.000000	63.881087 
4520.000000	63.905668 
4519.000000	63.962316 
4518.000000	64.044356 
4517.000000	64.141678 
4516.000000	64.242601 
4515.000000	64.335680 
4514.000000	64.411592 
4513.000000	64.464426 
4512.000000	64.491796 
4511.000000	64.494299 
4510.000000	64.474534 
4509.000000	64.436650 
4508.000000	64.384794 
4507.000000	64.322876 
4506.000000	64.254260 
4505.000000	64.182877 
4504.000000	64.112782 
4503.000000	64.049100 
4502.000000	63.996863 
4501.000000	63.960695 
4500.000000	63.943552 
4499.000000	63.946008 
4498.000000	63.966035 
4497.000000	63.999104 
4496.000000	64.039206 
4495.000000	64.080190 
4494.000000	64.117121 
4493.000000	64.147067 
4492.000000	64.170026 
4491.000000	64.187979 
4490.000000	64.203381 
4489.000000	64.217591 
4488.000000	64.230370 
4487.000000	64.238858 
4486.000000	64.239025 
4485.000000	64.225888 
4484.000000	64.195251 
4483.000000	64.144778 
4482.000000	64.075994 
4481.000000	63.993740 
4480.000000	63.905405 
4479.000000	63.819599 
4478.000000	63.744211 
4477.000000	63.685297 
4476.000000	63.645887 
4475.000000	63.625931 
4474.000000	63.622736 
4473.000000	63.631916 
4472.000000	63.648939 
4471.000000	63.669061 
4470.000000	63.687944 
4469.000000	63.704442 
4468.000000	63.720655 
4467.000000	63.740086 
4466.000000	63.766551 
4465.000000	63.804626 
4464.000000	63.856697 
4463.000000	63.920879 
4462.000000	63.989424 
4461.000000	64.055109 
4460.000000	64.108252 
4459.000000	64.129829 
4458.000000	64.103031 
4457.000000	64.026045 
4456.000000	63.907551 
4455.000000	63.760852 
4454.000000	63.605976 
4453.000000	63.469433 
4452.000000	63.372278 
4451.000000	63.324284 
4450.000000	63.322567 
4449.000000	63.351011 
4448.000000	63.389563 
4447.000000	63.419508 
4446.000000	63.435816 
4445.000000	63.447785 
4444.000000	63.486671 
4443.000000	63.597726 
4442.000000	63.814926 
4441.000000	64.149475 
4440.000000	64.582490 
4439.000000	65.074586 
4438.000000	65.560531 
4437.000000	65.989947 
4436.000000	66.342854 
4435.000000	66.664123 
4434.000000	67.049694 
4433.000000	67.643713 
4432.000000	68.609666 
4431.000000	70.073008 
4430.000000	72.086262 
4429.000000	74.579977 
4428.000000	77.360415 
4427.000000	80.137681 
4426.000000	82.578325 
4425.000000	84.393334 
4424.000000	85.422086 
4423.000000	85.649418 
4422.000000	85.231280 
4421.000000	84.392595 
4420.000000	83.370900 
4419.000000	82.322502 
4418.000000	81.289553 
4417.000000	80.208563 
4416.000000	78.956580 
4415.000000	77.424144 
4414.000000	75.575685 
4413.000000	73.465728 
4412.000000	71.245050 
4411.000000	69.104719 
4410.000000	67.246103 
4409.000000	65.828299 
4408.000000	64.942574 
4407.000000	64.591336 
4406.000000	64.696288 
4405.000000	65.121817 
4404.000000	65.705561 
4403.000000	66.278529 
4402.000000	66.709184 
4401.000000	66.912293 
4400.000000	66.866040 
4399.000000	66.583108 
4398.000000	66.119813 
4397.000000	65.548348 
4396.000000	64.945983 
4395.000000	64.374041 
4394.000000	63.879847 
4393.000000	63.499164 
4392.000000	63.246464 
4391.000000	63.120889 
4390.000000	63.105726 
4389.000000	63.174891 
4388.000000	63.300323 
4387.000000	63.458466 
4386.000000	63.625621 
4385.000000	63.782787 
4384.000000	63.921523 
4383.000000	64.042806 
4382.000000	64.147281 
4381.000000	64.236426 
4380.000000	64.315533 
4379.000000	64.389300 
4378.000000	64.455890 
4377.000000	64.510822 
4376.000000	64.555788 
4375.000000	64.591670 
4374.000000	64.619517 
4373.000000	64.638352 
4372.000000	64.645671 
4371.000000	64.637327 
4370.000000	64.610433 
4369.000000	64.562726 
4368.000000	64.494681 
4367.000000	64.408922 
4366.000000	64.310288 
4365.000000	64.206528 
4364.000000	64.108014 
4363.000000	64.024925 
4362.000000	63.965272 
4361.000000	63.935589 
4360.000000	63.939261 
4359.000000	63.975191 
4358.000000	64.037299 
4357.000000	64.115285 
4356.000000	64.195990 
4355.000000	64.265489 
4354.000000	64.311671 
4353.000000	64.325165 
4352.000000	64.301967 
4351.000000	64.243888 
4350.000000	64.158773 
4349.000000	64.057755 
4348.000000	63.954472 
4347.000000	63.862490 
4346.000000	63.793110 
4345.000000	63.753747 
4344.000000	63.747072 
4343.000000	63.771581 
4342.000000	63.821935 
4341.000000	63.890576 
4340.000000	63.968205 
4339.000000	64.045214 
4338.000000	64.112687 
4337.000000	64.163208 
4336.000000	64.191532 
4335.000000	64.194822 
4334.000000	64.173889 
4333.000000	64.133119 
4332.000000	64.079999 
4331.000000	64.023947 
4330.000000	63.975524 
4329.000000	63.943934 
4328.000000	63.935303 
4327.000000	63.950634 
4326.000000	63.986301 
4325.000000	64.033913 
4324.000000	64.082503 
4323.000000	64.120793 
4322.000000	64.139628 
4321.000000	64.134287 
4320.000000	64.104771 
4319.000000	64.056372 
4318.000000	63.997769 
4317.000000	63.939261 
4316.000000	63.889884 
4315.000000	63.856482 
4314.000000	63.842558 
4313.000000	63.848304 
4312.000000	63.871383 
4311.000000	63.907790 
4310.000000	63.953137 
4309.000000	64.003324 
4308.000000	64.055156 
4307.000000	64.105463 
4306.000000	64.151310 
4305.000000	64.190125 
4304.000000	64.220237 
4303.000000	64.240980 
4302.000000	64.253473 
4301.000000	64.260530 
4300.000000	64.266300 
4299.000000	64.276003 
4298.000000	64.294147 
4297.000000	64.323544 
4296.000000	64.364027 
4295.000000	64.412879 
4294.000000	64.464831 
4293.000000	64.513540 
4292.000000	64.552688 
4291.000000	64.577984 
4290.000000	64.587616 
4289.000000	64.583158 
4288.000000	64.568066 
4287.000000	64.546918 
4286.000000	64.523553 
4285.000000	64.499998 
4284.000000	64.476156 
4283.000000	64.450526 
4282.000000	64.421153 
4281.000000	64.387202 
4280.000000	64.349794 
4279.000000	64.312553 
4278.000000	64.280891 
4277.000000	64.260935 
4276.000000	64.257311 
4275.000000	64.271998 
4274.000000	64.303231 
4273.000000	64.346361 
4272.000000	64.394593 
4271.000000	64.441108 
4270.000000	64.480781 
4269.000000	64.511108 
4268.000000	64.532709 
4267.000000	64.548063 
4266.000000	64.560317 
4265.000000	64.571523 
4264.000000	64.581775 
4263.000000	64.588761 
4262.000000	64.588809 
4261.000000	64.577937 
4260.000000	64.554238 
4259.000000	64.518070 
4258.000000	64.472889 
4257.000000	64.424252 
4256.000000	64.378666 
4255.000000	64.341330 
4254.000000	64.314961 
4253.000000	64.299535 
4252.000000	64.292860 
4251.000000	64.291977 
4250.000000	64.294767 
4249.000000	64.301276 
4248.000000	64.313745 
4247.000000	64.335680 
4246.000000	64.370632 
4245.000000	64.419651 
4244.000000	64.481019 
4243.000000	64.549612 
4242.000000	64.618229 
4241.000000	64.678931 
4240.000000	64.725327 
4239.000000	64.754366 
4238.000000	64.767074 
4237.000000	64.768290 
4236.000000	64.765429 
4235.000000	64.766359 
4234.000000	64.777541 
4233.000000	64.802789 
4232.000000	64.842152 
4231.000000	64.892506 
4230.000000	64.948487 
4229.000000	65.004277 
4228.000000	65.054750 
4227.000000	65.096426 
4226.000000	65.127897 
4225.000000	65.149664 
4224.000000	65.163636 
4223.000000	65.171933 
4222.000000	65.176510 
4221.000000	65.178155 
4220.000000	65.176415 
4219.000000	65.169501 
4218.000000	65.155220 
4217.000000	65.131878 
4216.000000	65.099239 
4215.000000	65.059113 
4214.000000	65.015387 
4213.000000	64.973926 
4212.000000	64.941048 
4211.000000	64.922690 
4210.000000	64.922547 
4209.000000	64.941620 
4208.000000	64.977836 
4207.000000	65.026426 
4206.000000	65.080714 
4205.000000	65.133690 
4204.000000	65.179300 
4203.000000	65.213632 
4202.000000	65.235137 
4201.000000	65.244603 
4200.000000	65.244460 
4199.000000	65.237712 
4198.000000	65.227007 
4197.000000	65.214252 
4196.000000	65.200114 
4195.000000	65.184617 
4194.000000	65.167498 
4193.000000	65.148782 
4192.000000	65.129137 
4191.000000	65.109992 
4190.000000	65.093493 
4189.000000	65.081810 
4188.000000	65.076947 
4187.000000	65.079998 
4186.000000	65.091085 
4185.000000	65.109348 
4184.000000	65.133380 
4183.000000	65.161299 
4182.000000	65.191292 
4181.000000	65.221786 
4180.000000	65.251231 
4179.000000	65.278291 
4178.000000	65.301442 
4177.000000	65.319061 
4176.000000	65.329623 
4175.000000	65.331935 
4174.000000	65.326023 
4173.000000	65.313315 
4172.000000	65.297007 
4171.000000	65.281295 
4170.000000	65.270829 
4169.000000	65.269708 
4168.000000	65.280246 
4167.000000	65.302515 
4166.000000	65.333986 
4165.000000	65.370202 
4164.000000	65.405654 
4163.000000	65.434980 
4162.000000	65.454030 
4161.000000	65.460753 
4160.000000	65.455508 
4159.000000	65.440940 
4158.000000	65.421199 
4157.000000	65.401029 
4156.000000	65.384507 
4155.000000	65.374302 
4154.000000	65.371537 
4153.000000	65.375256 
4152.000000	65.383148 
4151.000000	65.392231 
4150.000000	65.399837 
4149.000000	65.404081 
4148.000000	65.404295 
4147.000000	65.401268 
4146.000000	65.396642 
4145.000000	65.392470 
4144.000000	65.390443 
4143.000000	65.391278 
4142.000000	65.394401 
4141.000000	65.398335 
4140.000000	65.401053 
4139.000000	65.400791 
4138.000000	65.396571 
4137.000000	65.388822 
4136.000000	65.379118 
4135.000000	65.369772 
4134.000000	65.362906 
4133.000000	65.359735 
4132.000000	65.359902 
4131.000000	65.361905 
4130.000000	65.362954 
4129.000000	65.359878 
4128.000000	65.349960 
4127.000000	65.331602 
4126.000000	65.305256 
4125.000000	65.273022 
4124.000000	65.238738 
4123.000000	65.206885 
4122.000000	65.181970 
4121.000000	65.167427 
4120.000000	65.165114 
4119.000000	65.175271 
4118.000000	65.196323 
4117.000000	65.225529 
4116.000000	65.259981 
4115.000000	65.296840 
4114.000000	65.334081 
4113.000000	65.370416 
4112.000000	65.405273 
4111.000000	65.438222 
4110.000000	65.468859 
4109.000000	65.495967 
4108.000000	65.517640 
4107.000000	65.531349 
4106.000000	65.534687 
4105.000000	65.526008 
4104.000000	65.505337 
4103.000000	65.474581 
4102.000000	65.437817 
4101.000000	65.399861 
4100.000000	65.365839 
4099.000000	65.339803 
4098.000000	65.323948 
4097.000000	65.318393 
4096.000000	65.321469 
4095.000000	65.330171 
4094.000000	65.341043 
4093.000000	65.350818 
4092.000000	65.357017 
4091.000000	65.358066 
4090.000000	65.353512 
4089.000000	65.344047 
4088.000000	65.331268 
4087.000000	65.317392 
4086.000000	65.304851 
4085.000000	65.296149 
4084.000000	65.293169 
4083.000000	65.297126 
4082.000000	65.307879 
4081.000000	65.324139 
4080.000000	65.343499 
4079.000000	65.362548 
4078.000000	65.377974 
4077.000000	65.387010 
4076.000000	65.388226 
4075.000000	65.381646 
4074.000000	65.368771 
4073.000000	65.352225 
4072.000000	65.335083 
4071.000000	65.320110 
4070.000000	65.309309 
4069.000000	65.303444 
4068.000000	65.302085 
4067.000000	65.304040 
4066.000000	65.307259 
4065.000000	65.309405 
4064.000000	65.308094 
4063.000000	65.301632 
4062.000000	65.289402 
4061.000000	65.272164 
4060.000000	65.251994 
4059.000000	65.231871 
4058.000000	65.215253 
4057.000000	65.205025 
4056.000000	65.203428 
4055.000000	65.211033 
4054.000000	65.226840 
4053.000000	65.247941 
4052.000000	65.270519 
4051.000000	65.290260 
4050.000000	65.303111 
4049.000000	65.306305 
4048.000000	65.298604 
4047.000000	65.280842 
4046.000000	65.255665 
4045.000000	65.227317 
4044.000000	65.200471 
4043.000000	65.179419 
4042.000000	65.167427 
4041.000000	65.165853 
4040.000000	65.174221 
4039.000000	65.189886 
4038.000000	65.208792 
4037.000000	65.226268 
4036.000000	65.238404 
4035.000000	65.242791 
4034.000000	65.239500 
4033.000000	65.230727 
4032.000000	65.220499 
4031.000000	65.213370 
4030.000000	65.213561 
4029.000000	65.223526 
4028.000000	65.243363 
4027.000000	65.270996 
4026.000000	65.302038 
4025.000000	65.331673 
4024.000000	65.354871 
4023.000000	65.367674 
4022.000000	65.367937 
4021.000000	65.355396 
4020.000000	65.331935 
4019.000000	65.300774 
4018.000000	65.266203 
4017.000000	65.232586 
4016.000000	65.203809 
4015.000000	65.182995 
4014.000000	65.171861 
4013.000000	65.170621 
4012.000000	65.177750 
4011.000000	65.190410 
4010.000000	65.204930 
4009.000000	65.217471 
4008.000000	65.224838 
4007.000000	65.225195 
4006.000000	65.218567 
4005.000000	65.206599 
4004.000000	65.192127 
4003.000000	65.178489 
4002.000000	65.168333 
4001.000000	65.163254 
4000.000000	65.163469 
3999.000000	65.167927 
3998.000000	65.174674 
3997.000000	65.181636 
3996.000000	65.187454 
3995.000000	65.191316 
3994.000000	65.193200 
3993.000000	65.193271 
3992.000000	65.191721 
3991.000000	65.188050 
3990.000000	65.180945 
3989.000000	65.168571 
3988.000000	65.149211 
3987.000000	65.122127 
3986.000000	65.088105 
3985.000000	65.050029 
3984.000000	65.012526 
3983.000000	64.981245 
3982.000000	64.961791 
3981.000000	64.958333 
3980.000000	64.972686 
3979.000000	65.003776 
3978.000000	65.047621 
3977.000000	65.098237 
3976.000000	65.148544 
3975.000000	65.191936 
3974.000000	65.223217 
3973.000000	65.239357 
3972.000000	65.239667 
3971.000000	65.225720 
3970.000000	65.200662 
3969.000000	65.168142 
3968.000000	65.131735 
3967.000000	65.094733 
3966.000000	65.059614 
3965.000000	65.028262 
3964.000000	65.001630 
3963.000000	64.980435 
3962.000000	64.964628 
3961.000000	64.953589 
3960.000000	64.946269 
3959.000000	64.941334 
3958.000000	64.937734 
3957.000000	64.934825 
3956.000000	64.932751 
3955.000000	64.932250 
3954.000000	64.934492 
3953.000000	64.940309 
3952.000000	64.950275 
3951.000000	64.964175 
3950.000000	64.980673 
3949.000000	64.997982 
3948.000000	65.014219 
3947.000000	65.027928 
3946.000000	65.038585 
3945.000000	65.046381 
3944.000000	65.052199 
3943.000000	65.057063 
3942.000000	65.061640 
3941.000000	65.065908 
3940.000000	65.069198 
3939.000000	65.070319 
3938.000000	65.068221 
3937.000000	65.062546 
3936.000000	65.054035 
3935.000000	65.044212 
3934.000000	65.034699 
3933.000000	65.026855 
3932.000000	65.021395 
3931.000000	65.017938 
3930.000000	65.015316 
3929.000000	65.012192 
3928.000000	65.007591 
3927.000000	65.001845 
3926.000000	64.996671 
3925.000000	64.994692 
3924.000000	64.998912 
3923.000000	65.011763 
3922.000000	65.034174 
3921.000000	65.064787 
3920.000000	65.100193 
3919.000000	65.135622 
3918.000000	65.165972 
3917.000000	65.186834 
3916.000000	65.195727 
3915.000000	65.192651 
3914.000000	65.179944 
3913.000000	65.161490 
3912.000000	65.142035 
3911.000000	65.125966 
3910.000000	65.116596 
3909.000000	65.115666 
3908.000000	65.123057 
3907.000000	65.137219 
3906.000000	65.155577 
3905.000000	65.175342 
3904.000000	65.193533 
3903.000000	65.207529 
3902.000000	65.215158 
3901.000000	65.214800 
3900.000000	65.205478 
3899.000000	65.186929 
3898.000000	65.159797 
3897.000000	65.125513 
3896.000000	65.086364 
3895.000000	65.044951 
3894.000000	65.004110 
3893.000000	64.966297 
3892.000000	64.932918 
3891.000000	64.904499 
3890.000000	64.880371 
3889.000000	64.859390 
3888.000000	64.840412 
3887.000000	64.823102 
3886.000000	64.807438 
3885.000000	64.794754 
3884.000000	64.786887 
3883.000000	64.786124 
3882.000000	64.793944 
3881.000000	64.811134 
3880.000000	64.837074 
3879.000000	64.869928 
3878.000000	64.906930 
3877.000000	64.944601 
3876.000000	64.979338 
3875.000000	65.007972 
3874.000000	65.028285 
3873.000000	65.039205 
3872.000000	65.041065 
3871.000000	65.035557 
3870.000000	65.025472 
3869.000000	65.014290 
3868.000000	65.005517 
3867.000000	65.002441 
3866.000000	65.006995 
3865.000000	65.019464 
3864.000000	65.037918 
3863.000000	65.059232 
3862.000000	65.079188 
3861.000000	65.093612 
3860.000000	65.099310 
3859.000000	65.094923 
3858.000000	65.081191 
3857.000000	65.060615 
3856.000000	65.036702 
3855.000000	65.013265 
3854.000000	64.993596 
3853.000000	64.979839 
3852.000000	64.972639 
3851.000000	64.971375 
3850.000000	64.974546 
3849.000000	64.980506 
3848.000000	64.987850 
3847.000000	64.995765 
3846.000000	65.004181 
3845.000000	65.013647 
3844.000000	65.024757 
3843.000000	65.038132 
3842.000000	65.054059 
3841.000000	65.072298 
3840.000000	65.092349 
3839.000000	65.113139 
3838.000000	65.133237 
3837.000000	65.151047 
3836.000000	65.165376 
3835.000000	65.175223 
3834.000000	65.180349 
3833.000000	65.180993 
3832.000000	65.178346 
3831.000000	65.173506 
3830.000000	65.167403 
3829.000000	65.160131 
3828.000000	65.151166 
3827.000000	65.139245 
3826.000000	65.122914 
3825.000000	65.101146 
3824.000000	65.074086 
3823.000000	65.043401 
3822.000000	65.012192 
3821.000000	64.984726 
3820.000000	64.965295 
3819.000000	64.957165 
3818.000000	64.961934 
3817.000000	64.978504 
3816.000000	65.003681 
3815.000000	65.032863 
3814.000000	65.061354 
3813.000000	65.085244 
3812.000000	65.102696 
3811.000000	65.113925 
3810.000000	65.121531 
3809.000000	65.128850 
3808.000000	65.139913 
3807.000000	65.157938 
3806.000000	65.184855 
3805.000000	65.220594 
3804.000000	65.263152 
3803.000000	65.309429 
3802.000000	65.355491 
3801.000000	65.397405 
3800.000000	65.432024 
3799.000000	65.457391 
3798.000000	65.472984 
3797.000000	65.479564 
3796.000000	65.478944 
3795.000000	65.473270 
3794.000000	65.464782 
3793.000000	65.455293 
3792.000000	65.445709 
3791.000000	65.436005 
3790.000000	65.425395 
3789.000000	65.413022 
3788.000000	65.398240 
3787.000000	65.381073 
3786.000000	65.362668 
3785.000000	65.344786 
3784.000000	65.329408 
3783.000000	65.318059 
3782.000000	65.311098 
3781.000000	65.307378 
3780.000000	65.304803 
3779.000000	65.300393 
3778.000000	65.290951 
3777.000000	65.274238 
3776.000000	65.249443 
3775.000000	65.217971 
3774.000000	65.182733 
3773.000000	65.148258 
3772.000000	65.119457 
3771.000000	65.100693 
3770.000000	65.094637 
3769.000000	65.101957 
3768.000000	65.121173 
3767.000000	65.148639 
3766.000000	65.179491 
3765.000000	65.208506 
3764.000000	65.231442 
3763.000000	65.245628 
3762.000000	65.250658 
3761.000000	65.248465 
3760.000000	65.242528 
3759.000000	65.237474 
3758.000000	65.237069 
3757.000000	65.243506 
3756.000000	65.256285 
3755.000000	65.272665 
3754.000000	65.288043 
3753.000000	65.297341 
3752.000000	65.296554 
3751.000000	65.284037 
3750.000000	65.261077 
3749.000000	65.231466 
3748.000000	65.200757 
3747.000000	65.174770 
3746.000000	65.157866 
3745.000000	65.151977 
3744.000000	65.155935 
3743.000000	65.166163 
3742.000000	65.177440 
3741.000000	65.184640 
3740.000000	65.184044 
3739.000000	65.174460 
3738.000000	65.157127 
3737.000000	65.135335 
3736.000000	65.113258 
3735.000000	65.094852 
3734.000000	65.083003 
3733.000000	65.078783 
3732.000000	65.081429 
3731.000000	65.088820 
3730.000000	65.098309 
3729.000000	65.107560 
3728.000000	65.115022 
3727.000000	65.120601 
3726.000000	65.125298 
3725.000000	65.130972 
3724.000000	65.139412 
3723.000000	65.151834 
3722.000000	65.168309 
3721.000000	65.187382 
3720.000000	65.206718 
3719.000000	65.223288 
3718.000000	65.234375 
3717.000000	65.238499 
3716.000000	65.235805 
3715.000000	65.228247 
3714.000000	65.219044 
3713.000000	65.212130 
3712.000000	65.211153 
3711.000000	65.218615 
3710.000000	65.235137 
3709.000000	65.259265 
3708.000000	65.287804 
3707.000000	65.316677 
3706.000000	65.341806 
3705.000000	65.359997 
3704.000000	65.369606 
3703.000000	65.370321 
3702.000000	65.363216 
3701.000000	65.350389 
3700.000000	65.333938 
3699.000000	65.315794 
3698.000000	65.297222 
3697.000000	65.278935 
3696.000000	65.261411 
3695.000000	65.245199 
3694.000000	65.231180 
3693.000000	65.220546 
3692.000000	65.214943 
3691.000000	65.215897 
3690.000000	65.224385 
3689.000000	65.240216 
3688.000000	65.262055 
3687.000000	65.287351 
3686.000000	65.312695 
3685.000000	65.334439 
3684.000000	65.349316 
3683.000000	65.355253 
3682.000000	65.351724 
3681.000000	65.339922 
3680.000000	65.322208 
3679.000000	65.302038 
3678.000000	65.282964 
3677.000000	65.268373 
3676.000000	65.261220 
3675.000000	65.263175 
3674.000000	65.274834 
3673.000000	65.295267 
3672.000000	65.322589 
3671.000000	65.353751 
3670.000000	65.385055 
3669.000000	65.412712 
3668.000000	65.433478 
3667.000000	65.445113 
3666.000000	65.446805 
3665.000000	65.439105 
3664.000000	65.423655 
3663.000000	65.402960 
3662.000000	65.380048 
3661.000000	65.357828 
3660.000000	65.338754 
3659.000000	65.324759 
3658.000000	65.317106 
3657.000000	65.316510 
3656.000000	65.322923 
3655.000000	65.335798 
3654.000000	65.353822 
3653.000000	65.375113 
3652.000000	65.397214 
3651.000000	65.417098 
3650.000000	65.431761 
3649.000000	65.438938 
3648.000000	65.437078 
3647.000000	65.426063 
3646.000000	65.406608 
3645.000000	65.380239 
3644.000000	65.348887 
3643.000000	65.314579 
3642.000000	65.279626 
3641.000000	65.246510 
3640.000000	65.218043 
3639.000000	65.197134 
3638.000000	65.186452 
3637.000000	65.188050 
3636.000000	65.202617 
3635.000000	65.229058 
3634.000000	65.264582 
3633.000000	65.305209 
3632.000000	65.346240 
3631.000000	65.383219 
3630.000000	65.412783 
3629.000000	65.433168 
3628.000000	65.444278 
3627.000000	65.447282 
3626.000000	65.443992 
3625.000000	65.436077 
3624.000000	65.424609 
3623.000000	65.410161 
3622.000000	65.392947 
3621.000000	65.373134 
3620.000000	65.351676 
3619.000000	65.330123 
3618.000000	65.310668 
3617.000000	65.295529 
3616.000000	65.286421 
3615.000000	65.284109 
3614.000000	65.288186 
3613.000000	65.297150 
3612.000000	65.308856 
3611.000000	65.320682 
3610.000000	65.330290 
3609.000000	65.335798 
3608.000000	65.336084 
3607.000000	65.330886 
3606.000000	65.320730 
3605.000000	65.306568 
3604.000000	65.289664 
3603.000000	65.271592 
3602.000000	65.254044 
3601.000000	65.238809 
3600.000000	65.227794 
3599.000000	65.223026 
3598.000000	65.226125 
3597.000000	65.238261 
3596.000000	65.259385 
3595.000000	65.288281 
3594.000000	65.322136 
3593.000000	65.357112 
3592.000000	65.388417 
3591.000000	65.411233 
3590.000000	65.421485 
3589.000000	65.416836 
3588.000000	65.397047 
3587.000000	65.364193 
3586.000000	65.322160 
3585.000000	65.276384 
3584.000000	65.232062 
3583.000000	65.193390 
3582.000000	65.162754 
3581.000000	65.140581 
3580.000000	65.125584 
3579.000000	65.115618 
3578.000000	65.108370 
3577.000000	65.102243 
3576.000000	65.096879 
3575.000000	65.093016 
3574.000000	65.091896 
3573.000000	65.094971 
3572.000000	65.103030 
3571.000000	65.116024 
3570.000000	65.132737 
3569.000000	65.151023 
3568.000000	65.168404 
3567.000000	65.182709 
3566.000000	65.192246 
3565.000000	65.196418 
3564.000000	65.195655 
3563.000000	65.191340 
3562.000000	65.185117 
3561.000000	65.178894 
3560.000000	65.174460 
3559.000000	65.173149 
3558.000000	65.175771 
3557.000000	65.182423 
3556.000000	65.192580 
3555.000000	65.205144 
3554.000000	65.218830 
3553.000000	65.232110 
3552.000000	65.243482 
3551.000000	65.251970 
3550.000000	65.257239 
3549.000000	65.259361 
3548.000000	65.258669 
3547.000000	65.255784 
3546.000000	65.251255 
3545.000000	65.245294 
3544.000000	65.237665 
3543.000000	65.227723 
3542.000000	65.214610 
3541.000000	65.197634 
3540.000000	65.176463 
3539.000000	65.151405 
3538.000000	65.123319 
3537.000000	65.093731 
3536.000000	65.064549 
3535.000000	65.037441 
3534.000000	65.013933 
3533.000000	64.994955 
3532.000000	64.981031 
3531.000000	64.972162 
3530.000000	64.968061 
3529.000000	64.968228 
3528.000000	64.972424 
3527.000000	64.980459 
3526.000000	64.992499 
3525.000000	65.008926 
3524.000000	65.030002 
3523.000000	65.055418 
3522.000000	65.084314 
3521.000000	65.114951 
3520.000000	65.144920 
3519.000000	65.171384 
3518.000000	65.191674 
3517.000000	65.203642 
3516.000000	65.206360 
3515.000000	65.199971 
3514.000000	65.185713 
3513.000000	65.165543 
3512.000000	65.141987 
3511.000000	65.117478 
3510.000000	65.094113 
3509.000000	65.073657 
3508.000000	65.057659 
3507.000000	65.047335 
3506.000000	65.043640 
3505.000000	65.047192 
3504.000000	65.058207 
3503.000000	65.075969 
3502.000000	65.098738 
3501.000000	65.123653 
3500.000000	65.147089 
3499.000000	65.165448 
3498.000000	65.175461 
3497.000000	65.175366 
3496.000000	65.164947 
3495.000000	65.145921 
3494.000000	65.121507 
3493.000000	65.095496 
3492.000000	65.071368 
3491.000000	65.051865 
3490.000000	65.038323 
3489.000000	65.030670 
3488.000000	65.027713 
3487.000000	65.027832 
3486.000000	65.029525 
3485.000000	65.032029 
3484.000000	65.035629 
3483.000000	65.041136 
3482.000000	65.049839 
3481.000000	65.062499 
3480.000000	65.079236 
3479.000000	65.098905 
3478.000000	65.119481 
3477.000000	65.138339 
3476.000000	65.153074 
3475.000000	65.162348 
3474.000000	65.165996 
3473.000000	65.165162 
3472.000000	65.161681 
3471.000000	65.157508 
3470.000000	65.153908 
3469.000000	65.150976 
3468.000000	65.147566 
3467.000000	65.142059 
3466.000000	65.132784 
3465.000000	65.119051 
3464.000000	65.101671 
3463.000000	65.083169 
3462.000000	65.067386 
3461.000000	65.058636 
3460.000000	65.060329 
3459.000000	65.073966 
3458.000000	65.098905 
3457.000000	65.131688 
3456.000000	65.166878 
3455.000000	65.197801 
3454.000000	65.218305 
3453.000000	65.223574 
3452.000000	65.211272 
3451.000000	65.181684 
3450.000000	65.137624 
3449.000000	65.083932 
3448.000000	65.026545 
3447.000000	64.971327 
3446.000000	64.923262 
3445.000000	64.885687 
3444.000000	64.860105 
3443.000000	64.846229 
3442.000000	64.842367 
3441.000000	64.845824 
3440.000000	64.853668 
3439.000000	64.863038 
3438.000000	64.872050 
3437.000000	64.879608 
3436.000000	64.885973 
3435.000000	64.892101 
3434.000000	64.899849 
3433.000000	64.911389 
3432.000000	64.928674 
3431.000000	64.953184 
3430.000000	64.985132 
3429.000000	65.023827 
3428.000000	65.067028 
3427.000000	65.111589 
3426.000000	65.153336 
3425.000000	65.187788 
3424.000000	65.210771 
3423.000000	65.219330 
3422.000000	65.212130 
3421.000000	65.190052 
3420.000000	65.156340 
3419.000000	65.116190 
3418.000000	65.075778 
3417.000000	65.040969 
3416.000000	65.016746 
3415.000000	65.006041 
3414.000000	65.009331 
3413.000000	65.024447 
3412.000000	65.047574 
3411.000000	65.073823 
3410.000000	65.098452 
3409.000000	65.117645 
3408.000000	65.129089 
3407.000000	65.132093 
3406.000000	65.127396 
3405.000000	65.116858 
3404.000000	65.102601 
3403.000000	65.087103 
3402.000000	65.072774 
3401.000000	65.061902 
3400.000000	65.056490 
3399.000000	65.057921 
3398.000000	65.067172 
3397.000000	65.084314 
3396.000000	65.108108 
3395.000000	65.136694 
3394.000000	65.167760 
3393.000000	65.198945 
3392.000000	65.228176 
3391.000000	65.254139 
3390.000000	65.276193 
3389.000000	65.294384 
3388.000000	65.309047 
3387.000000	65.320205 
3386.000000	65.327286 
3385.000000	65.329313 
3384.000000	65.325045 
3383.000000	65.313577 
3382.000000	65.294599 
3381.000000	65.269351 
3380.000000	65.240263 
3379.000000	65.210962 
3378.000000	65.185523 
3377.000000	65.167450 
3376.000000	65.158843 
3375.000000	65.160202 
3374.000000	65.169787 
3373.000000	65.184259 
3372.000000	65.199351 
3371.000000	65.210604 
3370.000000	65.214848 
3369.000000	65.210461 
3368.000000	65.198349 
3367.000000	65.181493 
3366.000000	65.164566 
3365.000000	65.152359 
3364.000000	65.149044 
3363.000000	65.156912 
3362.000000	65.175819 
3361.000000	65.203046 
3360.000000	65.234088 
3359.000000	65.263628 
3358.000000	65.286827 
3357.000000	65.300154 
3356.000000	65.302395 
3355.000000	65.294623 
3354.000000	65.279674 
3353.000000	65.261411 
3352.000000	65.243601 
3351.000000	65.228962 
3350.000000	65.218973 
3349.000000	65.213513 
3348.000000	65.211486 
3347.000000	65.210986 
3346.000000	65.210509 
3345.000000	65.208840 
3344.000000	65.205454 
3343.000000	65.200376 
3342.000000	65.194010 
3341.000000	65.187120 
3340.000000	65.180540 
3339.000000	65.175104 
3338.000000	65.171527 
3337.000000	65.170264 
3336.000000	65.171456 
3335.000000	65.174794 
3334.000000	65.179538 
3333.000000	65.184593 
3332.000000	65.188813 
3331.000000	65.191054 
3330.000000	65.190744 
3329.000000	65.187859 
3328.000000	65.183067 
3327.000000	65.177488 
3326.000000	65.172505 
3325.000000	65.169572 
3324.000000	65.169501 
3323.000000	65.172314 
3322.000000	65.177226 
3321.000000	65.182828 
3320.000000	65.187311 
3319.000000	65.189218 
3318.000000	65.187716 
3317.000000	65.182876 
3316.000000	65.175700 
3315.000000	65.168118 
3314.000000	65.162014 
3313.000000	65.158915 
3312.000000	65.159344 
3311.000000	65.162754 
3310.000000	65.167474 
3309.000000	65.171170 
3308.000000	65.171456 
3307.000000	65.166831 
3306.000000	65.156841 
3305.000000	65.142416 
3304.000000	65.125775 
3303.000000	65.109777 
3302.000000	65.097546 
3301.000000	65.091395 
3300.000000	65.092468 
3299.000000	65.100097 
3298.000000	65.111899 
3297.000000	65.124225 
3296.000000	65.132904 
3295.000000	65.134429 
3294.000000	65.126681 
3293.000000	65.109848 
3292.000000	65.086030 
3291.000000	65.059185 
3290.000000	65.033960 
3289.000000	65.014863 
3288.000000	65.004873 
3287.000000	65.005159 
3286.000000	65.014886 
3285.000000	65.031623 
3284.000000	65.052175 
3283.000000	65.073394 
3282.000000	65.092968 
3281.000000	65.109705 
3280.000000	65.123605 
3279.000000	65.135288 
3278.000000	65.145635 
3277.000000	65.155148 
3276.000000	65.163779 
3275.000000	65.171122 
3274.000000	65.176343 
3273.000000	65.179395 
3272.000000	65.180516 
3271.000000	65.180730 
3270.000000	65.181136 
3269.000000	65.182924 
3268.000000	65.186381 
3267.000000	65.190815 
3266.000000	65.194392 
3265.000000	65.194439 
3264.000000	65.188550 
3263.000000	65.175056 
3262.000000	65.153980 
3261.000000	65.127134 
3260.000000	65.098023 
3259.000000	65.070891 
3258.000000	65.049982 
3257.000000	65.038228 
3256.000000	65.036869 
3255.000000	65.044951 
3254.000000	65.059947 
3253.000000	65.078377 
3252.000000	65.097045 
3251.000000	65.114068 
3250.000000	65.128850 
3249.000000	65.142369 
3248.000000	65.156602 
3247.000000	65.173721 
3246.000000	65.195131 
3245.000000	65.220379 
3244.000000	65.247726 
3243.000000	65.273642 
3242.000000	65.294361 
3241.000000	65.306067 
3240.000000	65.306401 
3239.000000	65.294790 
3238.000000	65.272665 
3237.000000	65.243363 
3236.000000	65.211367 
3235.000000	65.181589 
3234.000000	65.158271 
3233.000000	65.144562 
3232.000000	65.141987 
3231.000000	65.150451 
3230.000000	65.168356 
3229.000000	65.192914 
3228.000000	65.220570 
3227.000000	65.247559 
3226.000000	65.270376 
3225.000000	65.286040 
3224.000000	65.292358 
3223.000000	65.288376 
3222.000000	65.274262 
3221.000000	65.251398 
3220.000000	65.222072 
3219.000000	65.189266 
3218.000000	65.156197 
3217.000000	65.125989 
3216.000000	65.101027 
3215.000000	65.082883 
3214.000000	65.071845 
3213.000000	65.067267 
3212.000000	65.067267 
3211.000000	65.069365 
3210.000000	65.071010 
3209.000000	65.070056 
3208.000000	65.065407 
3207.000000	65.056777 
3206.000000	65.045189 
3205.000000	65.032458 
3204.000000	65.020942 
3203.000000	65.012884 
3202.000000	65.010070 
3201.000000	65.013360 
3200.000000	65.022563 
3199.000000	65.036606 
3198.000000	65.053868 
3197.000000	65.072655 
3196.000000	65.091419 
3195.000000	65.109276 
3194.000000	65.126132 
3193.000000	65.142655 
3192.000000	65.159797 
3191.000000	65.178227 
3190.000000	65.198087 
3189.000000	65.218448 
3188.000000	65.237760 
3187.000000	65.253734 
3186.000000	65.263986 
3185.000000	65.266776 
3184.000000	65.261673 
3183.000000	65.249586 
3182.000000	65.232825 
3181.000000	65.214467 
3180.000000	65.197753 
3179.000000	65.185093 
3178.000000	65.177631 
3177.000000	65.174794 
3176.000000	65.174579 
3175.000000	65.174365 
3174.000000	65.171670 
3173.000000	65.164828 
3172.000000	65.153598 
3171.000000	65.139055 
3170.000000	65.123343 
3169.000000	65.108823 
3168.000000	65.097308 
3167.000000	65.089917 
3166.000000	65.086841 
3165.000000	65.087318 
3164.000000	65.090203 
3163.000000	65.094351 
3162.000000	65.099215 
3161.000000	65.104842 
3160.000000	65.111875 
3159.000000	65.120959 
3158.000000	65.132236 
3157.000000	65.145421 
3156.000000	65.159177 
3155.000000	65.171504 
3154.000000	65.180015 
3153.000000	65.182590 
3152.000000	65.177726 
3151.000000	65.165162 
3150.000000	65.145754 
3149.000000	65.121436 
3148.000000	65.094614 
3147.000000	65.067768 
3146.000000	65.042734 
3145.000000	65.020680 
3144.000000	65.001606 
3143.000000	64.984846 
3142.000000	64.969182 
3141.000000	64.953708 
3140.000000	64.937829 
3139.000000	64.922237 
3138.000000	64.908361 
3137.000000	64.898729 
3136.000000	64.896059 
3135.000000	64.902925 
3134.000000	64.920878 
3133.000000	64.950084 
3132.000000	64.988923 
3131.000000	65.034246 
3130.000000	65.081763 
3129.000000	65.126705 
3128.000000	65.164661 
3127.000000	65.192270 
3126.000000	65.207886 
3125.000000	65.211534 
3124.000000	65.204715 
3123.000000	65.189886 
3122.000000	65.169906 
3121.000000	65.147447 
3120.000000	65.124678 
3119.000000	65.103077 
3118.000000	65.083670 
3117.000000	65.067100 
3116.000000	65.054035 
3115.000000	65.045309 
3114.000000	65.041923 
3113.000000	65.044569 
3112.000000	65.053677 
3111.000000	65.068840 
3110.000000	65.088963 
3109.000000	65.112233 
3108.000000	65.136671 
3107.000000	65.160202 
3106.000000	65.181469 
3105.000000	65.199851 
3104.000000	65.215635 
3103.000000	65.229582 
3102.000000	65.242552 
3101.000000	65.255355 
3100.000000	65.267753 
3099.000000	65.278673 
3098.000000	65.286350 
3097.000000	65.288615 
3096.000000	65.283513 
3095.000000	65.269851 
3094.000000	65.247631 
3093.000000	65.218305 
3092.000000	65.184569 
3091.000000	65.149879 
3090.000000	65.117812 
3089.000000	65.091443 
3088.000000	65.072941 
3087.000000	65.063285 
3086.000000	65.062355 
3085.000000	65.069079 
3084.000000	65.082025 
3083.000000	65.099453 
3082.000000	65.119528 
3081.000000	65.140676 
3080.000000	65.161013 
3079.000000	65.179014 
3078.000000	65.193033 
3077.000000	65.201854 
3076.000000	65.204453 
3075.000000	65.200519 
3074.000000	65.190672 
3073.000000	65.176320 
3072.000000	65.159535 
3071.000000	65.142512 
3070.000000	65.127205 
3069.000000	65.114712 
3068.000000	65.105319 
3067.000000	65.098261 
3066.000000	65.092134 
3065.000000	65.085363 
3064.000000	65.076851 
3063.000000	65.066385 
3062.000000	65.054845 
3061.000000	65.044021 
3060.000000	65.036344 
3059.000000	65.034246 
3058.000000	65.039587 
3057.000000	65.053129 
3056.000000	65.074157 
3055.000000	65.100407 
3054.000000	65.128397 
3053.000000	65.154004 
3052.000000	65.173077 
3051.000000	65.182328 
3050.000000	65.179729 
3049.000000	65.164852 
3048.000000	65.139031 
3047.000000	65.105080 
3046.000000	65.066885 
3045.000000	65.028762 
3044.000000	64.994907 
3043.000000	64.968824 
3042.000000	64.952850 
3041.000000	64.948129 
3040.000000	64.954280 
3039.000000	64.969658 
3038.000000	64.991641 
3037.000000	65.017032 
3036.000000	65.042400 
3035.000000	65.064573 
3034.000000	65.080976 
3033.000000	65.090203 
3032.000000	65.091991 
3031.000000	65.087103 
3030.000000	65.077400 
3029.000000	65.065240 
3028.000000	65.053081 
3027.000000	65.042948 
3026.000000	65.036296 
3025.000000	65.033555 
3024.000000	65.034484 
3023.000000	65.038251 
3022.000000	65.043783 
3021.000000	65.050244 
3020.000000	65.057229 
3019.000000	65.064716 
3018.000000	65.072941 
3017.000000	65.082240 
3016.000000	65.092778 
3015.000000	65.104222 
3014.000000	65.115833 
3013.000000	65.126609 
3012.000000	65.135550 
3011.000000	65.142107 
3010.000000	65.146303 
3009.000000	65.149044 
3008.000000	65.151667 
3007.000000	65.155601 
3006.000000	65.161991 
3005.000000	65.171074 
3004.000000	65.182089 
3003.000000	65.193295 
3002.000000	65.202355 
3001.000000	65.207099 
3000.000000	65.205907 
2999.000000	65.198445 
2998.000000	65.185523 
2997.000000	65.169048 
2996.000000	65.151500 
2995.000000	65.135240 
2994.000000	65.121960 
2993.000000	65.112400 
2992.000000	65.106201 
2991.000000	65.102243 
2990.000000	65.098953 
2989.000000	65.094780 
2988.000000	65.088653 
2987.000000	65.080142 
2986.000000	65.069341 
2985.000000	65.056753 
2984.000000	65.043139 
2983.000000	65.029358 
2982.000000	65.016317 
2981.000000	65.004849 
2980.000000	64.996004 
2979.000000	64.990711 
2978.000000	64.989662 
2977.000000	64.992856 
2976.000000	64.999580 
2975.000000	65.008163 
2974.000000	65.016174 
2973.000000	65.020561 
2972.000000	65.018415 
2971.000000	65.007495 
2970.000000	64.986944 
2969.000000	64.957594 
2968.000000	64.921760 
2967.000000	64.883375 
2966.000000	64.846992 
2965.000000	64.817452 
2964.000000	64.798521 
2963.000000	64.792752 
2962.000000	64.800667 
2961.000000	64.820885 
2960.000000	64.850378 
2959.000000	64.885044 
2958.000000	64.920496 
2957.000000	64.952683 
2956.000000	64.978599 
2955.000000	64.996981 
2954.000000	65.008282 
2953.000000	65.014386 
2952.000000	65.018105 
2951.000000	65.022373 
2950.000000	65.029239 
2949.000000	65.039682 
2948.000000	65.053105 
2947.000000	65.067338 
2946.000000	65.079355 
2945.000000	65.086174 
2944.000000	65.085268 
2943.000000	65.075612 
2942.000000	65.057611 
2941.000000	65.033340 
2940.000000	65.005993 
2939.000000	64.979147 
2938.000000	64.956188 
2937.000000	64.939594 
2936.000000	64.930558 
2935.000000	64.928793 
2934.000000	64.932918 
2933.000000	64.941096 
2932.000000	64.951062 
2931.000000	64.961004 
2930.000000	64.969468 
2929.000000	64.975714 
2928.000000	64.979767 
2927.000000	64.982223 
2926.000000	64.983630 
2925.000000	64.984703 
2924.000000	64.985871 
2923.000000	64.987611 
2922.000000	64.990019 
2921.000000	64.993214 
2920.000000	64.997196 
2919.000000	65.002083 
2918.000000	65.007996 
2917.000000	65.015172 
2916.000000	65.023446 
2915.000000	65.032601 
2914.000000	65.042185 
2913.000000	65.051674 
2912.000000	65.060639 
2911.000000	65.068793 
2910.000000	65.076327 
2909.000000	65.083670 
2908.000000	65.091562 
2907.000000	65.100717 
2906.000000	65.111756 
2905.000000	65.124440 
2904.000000	65.137815 
2903.000000	65.150165 
2902.000000	65.159559 
2901.000000	65.164089 
2900.000000	65.162611 
2899.000000	65.154957 
2898.000000	65.142226 
2897.000000	65.126562 
2896.000000	65.110874 
2895.000000	65.097880 
2894.000000	65.089964 
2893.000000	65.088391 
2892.000000	65.093326 
2891.000000	65.103864 
2890.000000	65.118288 
2889.000000	65.134525 
2888.000000	65.150213 
2887.000000	65.163373 
2886.000000	65.172338 
2885.000000	65.175771 
2884.000000	65.172743 
2883.000000	65.162754 
2882.000000	65.146040 
2881.000000	65.123510 
2880.000000	65.097022 
2879.000000	65.069007 
2878.000000	65.042281 
2877.000000	65.019559 
2876.000000	65.002942 
2875.000000	64.993500 
2874.000000	64.991235 
2873.000000	64.995098 
2872.000000	65.003228 
2871.000000	65.013551 
2870.000000	65.024304 
2869.000000	65.034174 
2868.000000	65.042543 
2867.000000	65.049433 
2866.000000	65.055084 
2865.000000	65.059828 
2864.000000	65.063786 
2863.000000	65.066909 
2862.000000	65.069055 
2861.000000	65.069770 
2860.000000	65.069198 
2859.000000	65.067172 
2858.000000	65.063738 
2857.000000	65.058779 
2856.000000	65.052032 
2855.000000	65.043306 
2854.000000	65.032458 
2853.000000	65.019774 
2852.000000	65.006113 
2851.000000	64.993071 
2850.000000	64.982581 
2849.000000	64.976787 
2848.000000	64.977288 
2847.000000	64.984750 
2846.000000	64.998531 
2845.000000	65.016555 
2844.000000	65.035867 
2843.000000	65.052843 
2842.000000	65.064311 
2841.000000	65.068030 
2840.000000	65.063309 
2839.000000	65.050911 
2838.000000	65.033221 
2837.000000	65.013265 
2836.000000	64.994692 
2835.000000	64.980649 
2834.000000	64.973783 
2833.000000	64.975380 
2832.000000	64.985537 
2831.000000	65.003037 
2830.000000	65.025615 
2829.000000	65.050244 
2828.000000	65.073513 
2827.000000	65.092110 
2826.000000	65.103554 
2825.000000	65.106415 
2824.000000	65.100765 
2823.000000	65.088033 
2822.000000	65.071010 
2821.000000	65.053200 
2820.000000	65.038061 
2819.000000	65.028333 
2818.000000	65.025424 
2817.000000	65.029311 
2816.000000	65.038704 
2815.000000	65.051436 
2814.000000	65.065121 
2813.000000	65.077590 
2812.000000	65.087485 
2811.000000	65.094494 
2810.000000	65.098810 
2809.000000	65.101122 
2808.000000	65.102005 
2807.000000	65.102148 
2806.000000	65.101790 
2805.000000	65.101289 
2804.000000	65.101051 
2803.000000	65.102005 
2802.000000	65.105605 
2801.000000	65.113449 
2800.000000	65.127062 
2799.000000	65.147280 
2798.000000	65.173792 
2797.000000	65.205025 
2796.000000	65.238261 
2795.000000	65.270066 
2794.000000	65.296816 
2793.000000	65.315246 
2792.000000	65.323066 
2791.000000	65.319347 
2790.000000	65.304398 
2789.000000	65.279912 
2788.000000	65.248441 
2787.000000	65.213155 
2786.000000	65.177202 
2785.000000	65.143322 
2784.000000	65.113735 
2783.000000	65.089797 
2782.000000	65.072202 
2781.000000	65.061187 
2780.000000	65.056371 
2779.000000	65.056991 
2778.000000	65.062165 
2777.000000	65.070509 
2776.000000	65.080857 
2775.000000	65.091657 
2774.000000	65.101838 
2773.000000	65.110468 
2772.000000	65.117168 
2771.000000	65.121912 
2770.000000	65.125036 
2769.000000	65.126943 
2768.000000	65.127921 
2767.000000	65.127801 
2766.000000	65.126252 
2765.000000	65.122699 
2764.000000	65.116643 
2763.000000	65.107822 
2762.000000	65.096497 
2761.000000	65.083551 
2760.000000	65.070319 
2759.000000	65.058326 
2758.000000	65.048980 
2757.000000	65.043139 
2756.000000	65.041089 
2755.000000	65.042614 
2754.000000	65.046715 
2753.000000	65.052294 
2752.000000	65.058302 
2751.000000	65.064334 
2750.000000	65.070176 
2749.000000	65.076208 
2748.000000	65.083003 
2747.000000	65.091085 
2746.000000	65.100622 
2745.000000	65.111136 
2744.000000	65.121531 
2743.000000	65.130186 
2742.000000	65.135455 
2741.000000	65.135836 
2740.000000	65.130591 
2739.000000	65.119886 
2738.000000	65.105080 
2737.000000	65.088367 
2736.000000	65.072584 
2735.000000	65.060424 
2734.000000	65.054082 
2733.000000	65.054798 
2732.000000	65.062618 
2731.000000	65.076303 
2730.000000	65.093851 
2729.000000	65.112781 
2728.000000	65.130949 
2727.000000	65.146803 
2726.000000	65.159654 
2725.000000	65.169692 
2724.000000	65.177607 
2723.000000	65.184140 
2722.000000	65.189623 
2721.000000	65.193700 
2720.000000	65.195274 
2719.000000	65.193009 
2718.000000	65.185618 
2717.000000	65.172362 
2716.000000	65.153431 
2715.000000	65.130066 
2714.000000	65.104413 
2713.000000	65.078997 
2712.000000	65.056419 
2711.000000	65.038919 
2710.000000	65.027642 
2709.000000	65.022897 
2708.000000	65.024042 
2707.000000	65.029954 
2706.000000	65.039110 
2705.000000	65.050268 
2704.000000	65.062499 
2703.000000	65.075254 
2702.000000	65.088272 
2701.000000	65.101313 
2700.000000	65.113973 
2699.000000	65.125441 
2698.000000	65.134668 
2697.000000	65.140128 
2696.000000	65.140533 
2695.000000	65.134906 
2694.000000	65.123081 
2693.000000	65.105676 
2692.000000	65.084314 
2691.000000	65.061163 
2690.000000	65.038752 
2689.000000	65.019273 
2688.000000	65.004348 
2687.000000	64.994573 
2686.000000	64.989686 
2685.000000	64.988708 
2684.000000	64.990425 
2683.000000	64.993619 
2682.000000	64.997529 
2681.000000	65.001535 
2680.000000	65.005564 
2679.000000	65.009546 
2678.000000	65.013480 
2677.000000	65.017127 
2676.000000	65.020060 
2675.000000	65.021753 
2674.000000	65.021586 
2673.000000	65.019226 
2672.000000	65.014696 
2671.000000	65.008401 
2670.000000	65.001201 
2669.000000	64.994239 
2668.000000	64.988780 
2667.000000	64.986014 
2666.000000	64.986848 
2665.000000	64.991807 
2664.000000	65.000939 
2663.000000	65.013694 
2662.000000	65.029025 
2661.000000	65.045452 
2660.000000	65.061354 
2659.000000	65.075016 
2658.000000	65.085053 
2657.000000	65.090465 
2656.000000	65.091013 
2655.000000	65.087151 
2654.000000	65.080022 
2653.000000	65.071249 
2652.000000	65.062570 
2651.000000	65.055418 
2650.000000	65.050983 
2649.000000	65.049600 
2648.000000	65.051102 
2647.000000	65.054583 
2646.000000	65.058946 
2645.000000	65.063047 
2644.000000	65.065956 
2643.000000	65.067028 
2642.000000	65.066051 
2641.000000	65.063023 
2640.000000	65.058135 
2639.000000	65.051460 
2638.000000	65.042901 
2637.000000	65.032362 
2636.000000	65.019655 
2635.000000	65.005135 
2634.000000	64.989447 
2633.000000	64.973902 
2632.000000	64.960122 
2631.000000	64.949893 
2630.000000	64.944577 
2629.000000	64.944911 
2628.000000	64.950418 
2627.000000	64.959716 
2626.000000	64.970564 
2625.000000	64.980363 
2624.000000	64.986562 
2623.000000	64.987134 
2622.000000	64.981079 
2621.000000	64.968395 
2620.000000	64.950346 
2619.000000	64.928841 
2618.000000	64.906239 
2617.000000	64.885044 
2616.000000	64.867329 
2615.000000	64.854693 
2614.000000	64.848017 
2613.000000	64.847326 
2612.000000	64.851951 
2611.000000	64.860653 
2610.000000	64.872026 
2609.000000	64.884591 
2608.000000	64.897346 
2607.000000	64.909815 
2606.000000	64.922356 
2605.000000	64.935636 
2604.000000	64.950323 
2603.000000	64.966630 
2602.000000	64.984083 
2601.000000	65.001416 
2600.000000	65.016698 
2599.000000	65.027999 
2598.000000	65.033864 
2597.000000	65.033793 
2596.000000	65.028333 
2595.000000	65.019083 
2594.000000	65.008354 
2593.000000	64.998793 
2592.000000	64.992499 
2591.000000	64.990711 
2590.000000	64.993643 
2589.000000	65.000200 
2588.000000	65.008568 
2587.000000	65.016579 
2586.000000	65.022277 
2585.000000	65.024328 
2584.000000	65.022230 
2583.000000	65.016484 
2582.000000	65.008306 
2581.000000	64.999437 
2580.000000	64.991474 
2579.000000	64.985609 
2578.000000	64.982461 
2577.000000	64.981722 
2576.000000	64.982390 
2575.000000	64.982962 
2574.000000	64.982056 
2573.000000	64.978694 
2572.000000	64.972829 
2571.000000	64.965295 
2570.000000	64.957833 
2569.000000	64.952588 
2568.000000	64.951562 
2567.000000	64.956116 
2566.000000	64.966368 
2565.000000	64.981460 
2564.000000	64.999365 
2563.000000	65.017533 
2562.000000	65.033173 
2561.000000	65.044236 
2560.000000	65.049314 
2559.000000	65.048313 
2558.000000	65.041899 
2557.000000	65.031504 
2556.000000	65.018773 
2555.000000	65.005207 
2554.000000	64.992022 
2553.000000	64.979958 
2552.000000	64.969539 
2551.000000	64.961147 
2550.000000	64.955258 
2549.000000	64.952445 
2548.000000	64.953446 
2547.000000	64.958906 
2546.000000	64.968991 
2545.000000	64.983201 
2544.000000	65.000176 
2543.000000	65.017938 
2542.000000	65.033960 
2541.000000	65.045833 
2540.000000	65.051674 
2539.000000	65.050649 
2538.000000	65.043139 
2537.000000	65.030765 
2536.000000	65.016031 
2535.000000	65.001869 
2534.000000	64.990949 
2533.000000	64.985108 
2532.000000	64.985084 
2531.000000	64.990115 
2530.000000	64.998507 
2529.000000	65.007734 
2528.000000	65.015268 
2527.000000	65.019154 
2526.000000	65.018582 
2525.000000	65.013933 
2524.000000	65.006566 
2523.000000	64.998650 
2522.000000	64.992451 
2521.000000	64.989709 
2520.000000	64.991402 
2519.000000	64.997529 
2518.000000	65.007114 
2517.000000	65.018630 
2516.000000	65.030407 
2515.000000	65.040946 
2514.000000	65.049004 
2513.000000	65.053915 
2512.000000	65.055394 
2511.000000	65.053582 
2510.000000	65.048861 
2509.000000	65.041661 
2508.000000	65.032553 
2507.000000	65.022253 
2506.000000	65.011382 
2505.000000	65.000820 
2504.000000	64.991092 
2503.000000	64.982748 
2502.000000	64.975738 
2501.000000	64.969706 
2500.000000	64.963912 
2499.000000	64.957284 
2498.000000	64.948987 
2497.000000	64.938402 
2496.000000	64.925742 
2495.000000	64.912152 
2494.000000	64.899420 
2493.000000	64.889788 
2492.000000	64.885258 
2491.000000	64.887404 
2490.000000	64.896607 
2489.000000	64.912128 
2488.000000	64.932227 
2487.000000	64.954328 
2486.000000	64.975881 
2485.000000	64.994597 
2484.000000	65.009140 
2483.000000	65.019011 
2482.000000	65.024614 
2481.000000	65.026950 
2480.000000	65.027093 
2479.000000	65.025901 
2478.000000	65.023899 
2477.000000	65.020942 
2476.000000	65.016531 
2475.000000	65.010046 
2474.000000	65.001201 
2473.000000	64.989900 
2472.000000	64.976549 
2471.000000	64.962029 
2470.000000	64.947581 
2469.000000	64.934563 
2468.000000	64.924216 
2467.000000	64.917540 
2466.000000	64.915108 
2465.000000	64.916920 
2464.000000	64.922332 
2463.000000	64.930462 
2462.000000	64.940047 
2461.000000	64.949655 
2460.000000	64.958000 
2459.000000	64.964032 
2458.000000	64.967155 
2457.000000	64.967203 
2456.000000	64.964580 
2455.000000	64.959788 
2454.000000	64.953732 
2453.000000	64.947390 
2452.000000	64.941859 
2451.000000	64.938044 
2450.000000	64.936828 
2449.000000	64.939045 
2448.000000	64.945220 
2447.000000	64.955544 
2446.000000	64.969682 
2445.000000	64.986658 
2444.000000	65.004873 
2443.000000	65.022325 
2442.000000	65.036845 
2441.000000	65.046644 
2440.000000	65.050721 
2439.000000	65.049052 
2438.000000	65.042662 
2437.000000	65.033578 
2436.000000	65.024185 
2435.000000	65.016889 
2434.000000	65.013527 
2433.000000	65.014815 
2432.000000	65.020418 
2431.000000	65.029191 
2430.000000	65.039348 
2429.000000	65.049028 
2428.000000	65.056824 
2427.000000	65.061950 
2426.000000	65.064454 
2425.000000	65.064907 
2424.000000	65.064263 
2423.000000	65.063405 
2422.000000	65.062952 
2421.000000	65.062952 
2420.000000	65.063190 
2419.000000	65.062952 
2418.000000	65.061688 
2417.000000	65.058946 
2416.000000	65.054702 
2415.000000	65.049386 
2414.000000	65.043759 
2413.000000	65.038633 
2412.000000	65.034842 
2411.000000	65.033030 
2410.000000	65.033507 
2409.000000	65.036177 
2408.000000	65.040564 
2407.000000	65.045738 
2406.000000	65.050673 
2405.000000	65.054273 
2404.000000	65.055775 
2403.000000	65.054583 
2402.000000	65.050768 
2401.000000	65.044832 
2400.000000	65.037727 
2399.000000	65.030837 
2398.000000	65.025186 
2397.000000	65.021681 
2396.000000	65.020394 
2395.000000	65.021061 
2394.000000	65.022611 
2393.000000	65.023803 
2392.000000	65.023279 
2391.000000	65.019941 
2390.000000	65.013217 
2389.000000	65.003132 
2388.000000	64.990234 
2387.000000	64.975523 
2386.000000	64.960193 
2385.000000	64.945578 
2384.000000	64.932847 
2383.000000	64.923262 
2382.000000	64.917922 
2381.000000	64.917659 
2380.000000	64.923048 
2379.000000	64.934134 
2378.000000	64.950466 
2377.000000	64.970707 
2376.000000	64.992642 
2375.000000	65.013647 
2374.000000	65.030813 
2373.000000	65.041708 
2372.000000	65.044617 
2371.000000	65.039229 
2370.000000	65.026617 
2369.000000	65.009284 
2368.000000	64.990425 
2367.000000	64.973545 
2366.000000	64.961743 
2365.000000	64.956951 
2364.000000	64.959716 
2363.000000	64.969038 
2362.000000	64.982938 
2361.000000	64.998483 
2360.000000	65.012717 
2359.000000	65.023207 
2358.000000	65.028405 
2357.000000	65.027785 
2356.000000	65.021920 
2355.000000	65.012311 
2354.000000	65.000939 
2353.000000	64.989638 
2352.000000	64.980220 
2351.000000	64.973807 
2350.000000	64.970946 
2349.000000	64.971566 
2348.000000	64.975237 
2347.000000	64.981055 
2346.000000	64.988160 
2345.000000	64.995789 
2344.000000	65.003418 
2343.000000	65.010547 
2342.000000	65.017127 
2341.000000	65.023279 
2340.000000	65.029144 
2339.000000	65.034818 
2338.000000	65.040278 
2337.000000	65.045428 
2336.000000	65.050053 
2335.000000	65.053892 
2334.000000	65.056777 
2333.000000	65.058517 
2332.000000	65.059065 
2331.000000	65.058541 
2330.000000	65.057253 
2329.000000	65.055561 
2328.000000	65.053749 
2327.000000	65.051937 
2326.000000	65.050387 
2325.000000	65.049004 
2324.000000	65.047669 
2323.000000	65.046286 
2322.000000	65.044879 
2321.000000	65.043520 
2320.000000	65.042519 
2319.000000	65.041875 
2318.000000	65.041446 
2317.000000	65.040707 
2316.000000	65.038800 
2315.000000	65.034770 
2314.000000	65.027713 
2313.000000	65.017151 
2312.000000	65.003466 
2311.000000	64.987754 
2310.000000	64.971899 
2309.000000	64.958119 
2308.000000	64.948487 
2307.000000	64.944386 
2306.000000	64.946079 
2305.000000	64.952588 
2304.000000	64.961814 
2303.000000	64.971184 
2302.000000	64.978051 
2301.000000	64.980411 
2300.000000	64.977288 
2299.000000	64.968752 
2298.000000	64.955878 
2297.000000	64.940285 
2296.000000	64.924025 
2295.000000	64.908838 
2294.000000	64.896297 
2293.000000	64.887499 
2292.000000	64.883112 
2291.000000	64.883375 
2290.000000	64.888095 
2289.000000	64.896726 
2288.000000	64.908313 
2287.000000	64.921712 
2286.000000	64.935517 
2285.000000	64.948153 
2284.000000	64.958286 
2283.000000	64.964914 
2282.000000	64.967656 
2281.000000	64.966869 
2280.000000	64.963483 
2279.000000	64.958715 
2278.000000	64.954018 
2277.000000	64.950442 
2276.000000	64.948487 
2275.000000	64.947819 
2274.000000	64.947628 
2273.000000	64.946699 
2272.000000	64.943957 
2271.000000	64.938735 
2270.000000	64.931106 
2269.000000	64.921879 
2268.000000	64.912390 
2267.000000	64.904069 
2266.000000	64.898276 
2265.000000	64.895629 
2264.000000	64.895725 
2263.000000	64.897394 
2262.000000	64.898872 
2261.000000	64.898443 
2260.000000	64.894914 
2259.000000	64.887905 
2258.000000	64.877986 
2257.000000	64.866662 
2256.000000	64.856004 
2255.000000	64.847970 
2254.000000	64.843988 
2253.000000	64.844846 
2252.000000	64.850354 
2251.000000	64.859533 
2250.000000	64.870977 
2249.000000	64.882946 
2248.000000	64.893913 
2247.000000	64.902758 
2246.000000	64.908838 
2245.000000	64.912152 
2244.000000	64.913392 
2243.000000	64.913582 
2242.000000	64.913964 
2241.000000	64.915823 
2240.000000	64.919996 
2239.000000	64.927124 
2238.000000	64.936995 
2237.000000	64.948534 
2236.000000	64.960122 
2235.000000	64.969730 
2234.000000	64.975333 
2233.000000	64.975142 
2232.000000	64.968347 
2231.000000	64.955210 
2230.000000	64.937043 
2229.000000	64.915919 
2228.000000	64.894318 
2227.000000	64.874815 
2226.000000	64.859437 
2225.000000	64.849352 
2224.000000	64.844775 
2223.000000	64.844942 
2222.000000	64.848351 
2221.000000	64.853119 
2220.000000	64.857149 
2219.000000	64.859104 
2218.000000	64.858198 
2217.000000	64.854645 
2216.000000	64.849400 
2215.000000	64.844012 
2214.000000	64.840340 
2213.000000	64.839982 
2212.000000	64.843988 
2211.000000	64.852547 
2210.000000	64.865064 
2209.000000	64.880156 
2208.000000	64.896035 
2207.000000	64.911007 
2206.000000	64.923906 
2205.000000	64.934206 
2204.000000	64.942216 
2203.000000	64.948678 
2202.000000	64.954447 
2201.000000	64.960145 
2200.000000	64.965987 
2199.000000	64.971613 
2198.000000	64.976119 
2197.000000	64.978647 
2196.000000	64.978361 
2195.000000	64.974927 
2194.000000	64.968299 
2193.000000	64.959144 
2192.000000	64.948391 
2191.000000	64.936995 
2190.000000	64.925861 
2189.000000	64.915490 
2188.000000	64.906072 
2187.000000	64.897394 
2186.000000	64.889168 
2185.000000	64.881014 
2184.000000	64.872670 
2183.000000	64.863991 
2182.000000	64.855265 
2181.000000	64.846920 
2180.000000	64.839696 
2179.000000	64.834451 
2178.000000	64.832186 
2177.000000	64.833593 
2176.000000	64.838910 
2175.000000	64.847850 
2174.000000	64.859437 
2173.000000	64.872121 
2172.000000	64.884114 
2171.000000	64.893794 
2170.000000	64.900016 
2169.000000	64.902377 
2168.000000	64.901256 
2167.000000	64.897751 
2166.000000	64.893293 
2165.000000	64.889240 
2164.000000	64.886569 
2163.000000	64.885425 
2162.000000	64.885640 
2161.000000	64.886236 
2160.000000	64.886283 
2159.000000	64.884781 
2158.000000	64.881205 
2157.000000	64.875555 
2156.000000	64.868021 
2155.000000	64.859008 
2154.000000	64.848947 
2153.000000	64.838099 
2152.000000	64.826703 
2151.000000	64.814972 
2150.000000	64.803171 
2149.000000	64.791512 
2148.000000	64.780259 
2147.000000	64.769554 
2146.000000	64.759492 
2145.000000	64.750170 
2144.000000	64.741706 
2143.000000	64.734268 
2142.000000	64.728260 
2141.000000	64.724445 
2140.000000	64.723634 
2139.000000	64.726734 
2138.000000	64.734292 
2137.000000	64.746069 
2136.000000	64.761137 
2135.000000	64.777731 
2134.000000	64.793705 
2133.000000	64.806985 
2132.000000	64.815783 
2131.000000	64.819312 
2130.000000	64.817738 
2129.000000	64.811944 
2128.000000	64.803194 
2127.000000	64.792895 
2126.000000	64.782309 
2125.000000	64.772605 
2124.000000	64.764666 
2123.000000	64.759278 
2122.000000	64.757061 
2121.000000	64.758563 
2120.000000	64.763808 
2119.000000	64.772534 
2118.000000	64.783859 
2117.000000	64.796423 
2116.000000	64.808511 
2115.000000	64.818406 
2114.000000	64.824724 
2113.000000	64.826869 
2112.000000	64.825272 
2111.000000	64.821100 
2110.000000	64.816117 
2109.000000	64.812016 
2108.000000	64.810276 
2107.000000	64.811539 
2106.000000	64.815735 
2105.000000	64.821982 
2104.000000	64.828968 
2103.000000	64.835214 
2102.000000	64.839696 
2101.000000	64.841747 
2100.000000	64.841198 
2099.000000	64.838409 
2098.000000	64.834141 
2097.000000	64.829182 
2096.000000	64.824247 
2095.000000	64.819669 
2094.000000	64.815592 
2093.000000	64.811778 
2092.000000	64.807748 
2091.000000	64.802908 
2090.000000	64.796614 
2089.000000	64.788413 
2088.000000	64.778256 
2087.000000	64.766740 
2086.000000	64.755177 
2085.000000	64.745330 
2084.000000	64.739203 
2083.000000	64.738464 
2082.000000	64.743900 
2081.000000	64.755249 
2080.000000	64.770936 
2079.000000	64.788579 
2078.000000	64.805293 
2077.000000	64.818406 
2076.000000	64.825773 
2075.000000	64.826416 
2074.000000	64.820528 
2073.000000	64.809322 
2072.000000	64.794826 
2071.000000	64.779448 
2070.000000	64.765405 
2069.000000	64.754438 
2068.000000	64.747548 
2067.000000	64.744830 
2066.000000	64.745688 
2065.000000	64.749002 
2064.000000	64.753556 
2063.000000	64.758253 
2062.000000	64.762306 
2061.000000	64.765429 
2060.000000	64.767646 
2059.000000	64.769268 
2058.000000	64.770674 
2057.000000	64.772057 
2056.000000	64.773416 
2055.000000	64.774346 
2054.000000	64.774441 
2053.000000	64.773154 
2052.000000	64.770078 
2051.000000	64.765119 
2050.000000	64.758419 
2049.000000	64.750838 
2048.000000	64.743351 
2047.000000	64.737415 
2046.000000	64.734363 
2045.000000	64.735317 
2044.000000	64.740943 
2043.000000	64.751315 
2042.000000	64.765691 
2041.000000	64.782786 
2040.000000	64.800715 
2039.000000	64.817404 
2038.000000	64.830946 
2037.000000	64.839768 
2036.000000	64.842915 
2035.000000	64.840245 
2034.000000	64.832353 
2033.000000	64.820623 
2032.000000	64.806699 
2031.000000	64.792418 
2030.000000	64.779448 
2029.000000	64.769077 
2028.000000	64.761805 
2027.000000	64.757728 
2026.000000	64.756274 
2025.000000	64.756536 
2024.000000	64.757537 
2023.000000	64.758419 
2022.000000	64.758610 
2021.000000	64.757919 
2020.000000	64.756631 
2019.000000	64.755177 
2018.000000	64.754128 
2017.000000	64.753985 
2016.000000	64.755177 
2015.000000	64.757847 
2014.000000	64.762139 
2013.000000	64.768195 
2012.000000	64.776134 
2011.000000	64.786148 
2010.000000	64.798259 
2009.000000	64.812302 
2008.000000	64.827632 
2007.000000	64.843177 
2006.000000	64.857506 
2005.000000	64.868855 
2004.000000	64.875793 
2003.000000	64.877057 
2002.000000	64.872264 
2001.000000	64.861726 
2000.000000	64.846777 
1999.000000	64.829277 
1998.000000	64.811515 
1997.000000	64.795398 
1996.000000	64.782571 
1995.000000	64.773917 
1994.000000	64.769577 
1993.000000	64.768862 
1992.000000	64.770817 
1991.000000	64.774250 
1990.000000	64.778065 
1989.000000	64.781522 
1988.000000	64.784359 
1987.000000	64.786744 
1986.000000	64.789104 
1985.000000	64.791989 
1984.000000	64.795732 
1983.000000	64.800238 
1982.000000	64.805006 
1981.000000	64.808917 
1980.000000	64.810752 
1979.000000	64.809322 
1978.000000	64.804100 
1977.000000	64.795160 
1976.000000	64.783239 
1975.000000	64.769864 
1974.000000	64.756941 
1973.000000	64.746165 
1972.000000	64.738965 
1971.000000	64.735937 
1970.000000	64.736890 
1969.000000	64.741134 
1968.000000	64.747476 
1967.000000	64.754676 
1966.000000	64.761781 
1965.000000	64.768266 
1964.000000	64.773988 
1963.000000	64.779090 
1962.000000	64.783740 
1961.000000	64.788007 
1960.000000	64.791679 
1959.000000	64.794421 
1958.000000	64.795899 
1957.000000	64.795780 
1956.000000	64.793705 
1955.000000	64.789485 
1954.000000	64.783167 
1953.000000	64.774894 
1952.000000	64.765095 
1951.000000	64.754414 
1950.000000	64.743542 
1949.000000	64.733505 
1948.000000	64.725232 
1947.000000	64.719629 
1946.000000	64.717364 
1945.000000	64.718651 
1944.000000	64.723300 
1943.000000	64.730691 
1942.000000	64.739656 
1941.000000	64.748787 
1940.000000	64.756488 
1939.000000	64.761352 
1938.000000	64.762187 
1937.000000	64.758563 
1936.000000	64.750647 
1935.000000	64.739584 
1934.000000	64.727044 
1933.000000	64.715361 
1932.000000	64.706993 
1931.000000	64.704155 
1930.000000	64.708423 
1929.000000	64.720153 
1928.000000	64.738345 
1927.000000	64.760708 
1926.000000	64.783930 
1925.000000	64.804267 
1924.000000	64.818263 
1923.000000	64.823269 
1922.000000	64.818167 
1921.000000	64.802908 
1920.000000	64.778971 
1919.000000	64.748978 
1918.000000	64.716076 
1917.000000	64.683532 
1916.000000	64.654183 
1915.000000	64.630341 
1914.000000	64.613199 
1913.000000	64.602971 
1912.000000	64.598870 
1911.000000	64.599299 
1910.000000	64.602422 
1909.000000	64.606499 
1908.000000	64.610338 
1907.000000	64.613294 
1906.000000	64.615321 
1905.000000	64.616870 
1904.000000	64.618587 
1903.000000	64.620923 
1902.000000	64.624166 
1901.000000	64.628171 
1900.000000	64.632582 
1899.000000	64.637088 
1898.000000	64.641523 
1897.000000	64.646053 
1896.000000	64.651250 
1895.000000	64.657783 
1894.000000	64.666414 
1893.000000	64.677405 
1892.000000	64.690566 
1891.000000	64.704656 
1890.000000	64.717912 
1889.000000	64.728069 
1888.000000	64.733028 
1887.000000	64.731335 
1886.000000	64.722394 
1885.000000	64.706897 
1884.000000	64.686799 
1883.000000	64.664959 
1882.000000	64.644670 
1881.000000	64.628934 
1880.000000	64.620018 
1879.000000	64.618968 
1878.000000	64.625477 
1877.000000	64.637923 
1876.000000	64.653825 
1875.000000	64.670324 
1874.000000	64.684796 
1873.000000	64.695072 
1872.000000	64.700078 
1871.000000	64.699554 
1870.000000	64.694261 
1869.000000	64.685463 
1868.000000	64.674711 
1867.000000	64.663600 
1866.000000	64.653682 
1865.000000	64.646053 
1864.000000	64.641666 
1863.000000	64.641237 
1862.000000	64.645290 
1861.000000	64.654064 
1860.000000	64.667153 
1859.000000	64.683818 
1858.000000	64.702606 
1857.000000	64.721560 
1856.000000	64.738416 
1855.000000	64.751005 
1854.000000	64.757513 
1853.000000	64.757156 
1852.000000	64.750123 
1851.000000	64.737582 
1850.000000	64.721512 
1849.000000	64.704275 
1848.000000	64.688158 
1847.000000	64.674758 
1846.000000	64.664864 
1845.000000	64.658427 
1844.000000	64.654707 
1843.000000	64.652538 
1842.000000	64.650583 
1841.000000	64.648008 
1840.000000	64.644169 
1839.000000	64.639043 
1838.000000	64.632868 
1837.000000	64.626026 
1836.000000	64.618849 
1835.000000	64.611792 
1834.000000	64.604973 
1833.000000	64.598870 
1832.000000	64.593935 
1831.000000	64.590835 
1830.000000	64.590311 
1829.000000	64.592957 
1828.000000	64.599108 
1827.000000	64.608478 
1826.000000	64.620184 
1825.000000	64.632916 
1824.000000	64.645147 
1823.000000	64.655542 
1822.000000	64.663124 
1821.000000	64.667630 
1820.000000	64.669489 
1819.000000	64.669561 
1818.000000	64.668989 
1817.000000	64.668607 
1816.000000	64.668941 
1815.000000	64.669990 
1814.000000	64.671349 
1813.000000	64.672613 
1812.000000	64.673423 
1811.000000	64.673900 
1810.000000	64.674496 
1809.000000	64.675998 
1808.000000	64.679169 
1807.000000	64.684414 
1806.000000	64.691519 
1805.000000	64.699840 
1804.000000	64.708113 
1803.000000	64.714956 
1802.000000	64.718937 
1801.000000	64.719128 
1800.000000	64.715266 
1799.000000	64.707756 
1798.000000	64.697813 
1797.000000	64.687204 
1796.000000	64.677762 
1795.000000	64.671182 
1794.000000	64.668464 
1793.000000	64.669847 
1792.000000	64.674472 
1791.000000	64.680767 
1790.000000	64.686679 
1789.000000	64.690160 
1788.000000	64.689564 
1787.000000	64.683961 
1786.000000	64.673542 
1785.000000	64.659500 
1784.000000	64.643573 
1783.000000	64.627766 
1782.000000	64.613723 
1781.000000	64.602303 
1780.000000	64.593553 
1779.000000	64.586544 
1778.000000	64.580202 
1777.000000	64.573168 
1776.000000	64.564657 
1775.000000	64.554524 
1774.000000	64.543318 
1773.000000	64.532041 
1772.000000	64.521813 
1771.000000	64.513731 
1770.000000	64.508414 
1769.000000	64.505910 
1768.000000	64.505672 
1767.000000	64.506721 
1766.000000	64.507699 
1765.000000	64.507198 
1764.000000	64.504075 
1763.000000	64.497494 
1762.000000	64.487147 
1761.000000	64.473223 
1760.000000	64.456582 
1759.000000	64.438462 
1758.000000	64.420628 
1757.000000	64.404606 
1756.000000	64.391922 
1755.000000	64.383649 
1754.000000	64.380240 
1753.000000	64.381337 
1752.000000	64.386177 
1751.000000	64.393448 
1750.000000	64.401650 
1749.000000	64.409565 
1748.000000	64.415907 
1747.000000	64.419674 
1746.000000	64.419984 
1745.000000	64.416313 
1744.000000	64.408278 
1743.000000	64.395809 
1742.000000	64.379191 
1741.000000	64.359211 
1740.000000	64.337062 
1739.000000	64.314246 
1738.000000	64.292693 
1737.000000	64.274215 
1736.000000	64.260363 
1735.000000	64.252042 
1734.000000	64.249610 
1733.000000	64.252543 
1732.000000	64.259386 
1731.000000	64.268255 
1730.000000	64.277076 
1729.000000	64.284014 
1728.000000	64.287567 
1727.000000	64.287400 
1726.000000	64.283871 
1725.000000	64.278578 
1724.000000	64.273715 
1723.000000	64.271855 
1722.000000	64.275217 
1721.000000	64.285230 
1720.000000	64.302110 
1719.000000	64.324474 
1718.000000	64.349865 
1717.000000	64.375090 
1716.000000	64.397215 
1715.000000	64.414119 
1714.000000	64.424824 
1713.000000	64.429974 
1712.000000	64.431571 
1711.000000	64.432525 
1710.000000	64.435958 
1709.000000	64.444541 
1708.000000	64.459872 
1707.000000	64.482593 
1706.000000	64.511847 
1705.000000	64.545917 
1704.000000	64.582085 
1703.000000	64.617538 
1702.000000	64.649415 
1701.000000	64.675021 
1700.000000	64.692354 
1699.000000	64.700007 
1698.000000	64.697718 
1697.000000	64.686512 
1696.000000	64.668416 
1695.000000	64.646458 
1694.000000	64.623880 
1693.000000	64.603757 
1692.000000	64.588069 
1691.000000	64.577603 
1690.000000	64.571619 
1689.000000	64.568281 
1688.000000	64.565134 
1687.000000	64.559698 
1686.000000	64.550352 
1685.000000	64.536833 
1684.000000	64.519953 
1683.000000	64.501595 
1682.000000	64.484357 
1681.000000	64.470767 
1680.000000	64.462637 
1679.000000	64.460778 
1678.000000	64.464974 
1677.000000	64.474081 
1676.000000	64.486241 
1675.000000	64.499402 
1674.000000	64.511609 
1673.000000	64.521217 
1672.000000	64.527130 
1671.000000	64.528870 
1670.000000	64.526724 
1669.000000	64.521718 
1668.000000	64.515161 
1667.000000	64.508533 
1666.000000	64.503169 
1665.000000	64.499855 
1664.000000	64.498782 
1663.000000	64.499354 
1662.000000	64.500236 
1661.000000	64.499831 
1660.000000	64.496660 
1659.000000	64.489626 
1658.000000	64.478397 
1657.000000	64.463448 
1656.000000	64.445996 
1655.000000	64.427852 
1654.000000	64.411067 
1653.000000	64.397072 
1652.000000	64.386916 
1651.000000	64.380741 
1650.000000	64.378309 
1649.000000	64.378523 
1648.000000	64.380478 
1647.000000	64.383268 
1646.000000	64.386653 
1645.000000	64.390587 
1644.000000	64.395451 
1643.000000	64.401841 
1642.000000	64.410233 
1641.000000	64.420700 
1640.000000	64.432930 
1639.000000	64.446210 
1638.000000	64.459705 
1637.000000	64.472436 
1636.000000	64.483666 
1635.000000	64.492774 
1634.000000	64.499497 
1633.000000	64.503812 
1632.000000	64.505600 
1631.000000	64.504599 
1630.000000	64.500498 
1629.000000	64.492893 
1628.000000	64.481592 
1627.000000	64.466452 
1626.000000	64.447927 
1625.000000	64.426803 
1624.000000	64.404273 
1623.000000	64.381647 
1622.000000	64.360141 
1621.000000	64.340853 
1620.000000	64.324569 
1619.000000	64.311647 
1618.000000	64.302253 
1617.000000	64.296388 
1616.000000	64.293861 
1615.000000	64.294552 
1614.000000	64.298057 
1613.000000	64.304280 
1612.000000	64.313054 
1611.000000	64.324307 
1610.000000	64.337873 
1609.000000	64.353561 
1608.000000	64.370965 
1607.000000	64.389514 
1606.000000	64.408397 
1605.000000	64.426636 
1604.000000	64.443254 
1603.000000	64.457416 
1602.000000	64.468383 
1601.000000	64.475798 
1600.000000	64.479398 
1599.000000	64.479255 
1598.000000	64.475846 
1597.000000	64.469504 
1596.000000	64.460659 
1595.000000	64.449930 
1594.000000	64.437985 
1593.000000	64.425325 
1592.000000	64.412355 
1591.000000	64.399600 
1590.000000	64.387464 
1589.000000	64.376235 
1588.000000	64.365935 
1587.000000	64.356446 
1586.000000	64.347600 
1585.000000	64.339017 
1584.000000	64.330410 
1583.000000	64.321565 
1582.000000	64.312767 
1581.000000	64.304542 
1580.000000	64.297819 
1579.000000	64.293575 
1578.000000	64.292645 
1577.000000	64.295673 
1576.000000	64.302587 
1575.000000	64.312934 
1574.000000	64.326119 
1573.000000	64.341354 
1572.000000	64.358115 
1571.000000	64.376211 
1570.000000	64.395809 
1569.000000	64.417147 
1568.000000	64.440393 
1567.000000	64.465069 
1566.000000	64.490008 
1565.000000	64.513397 
1564.000000	64.533019 
1563.000000	64.546585 
1562.000000	64.552259 
1561.000000	64.548969 
1560.000000	64.537048 
1559.000000	64.517951 
1558.000000	64.494109 
1557.000000	64.468359 
1556.000000	64.443612 
1555.000000	64.422154 
1554.000000	64.405536 
1553.000000	64.394283 
1552.000000	64.388179 
1551.000000	64.386248 
1550.000000	64.387130 
1549.000000	64.389348 
1548.000000	64.391517 
1547.000000	64.392280 
1546.000000	64.390516 
1545.000000	64.385366 
1544.000000	64.376616 
1543.000000	64.364719 
1542.000000	64.351034 
1541.000000	64.337706 
1540.000000	64.326834 
1539.000000	64.320492 
1538.000000	64.319825 
1537.000000	64.324808 
1536.000000	64.334130 
1535.000000	64.345479 
1534.000000	64.356064 
1533.000000	64.363145 
1532.000000	64.364600 
1531.000000	64.359331 
1530.000000	64.347434 
1529.000000	64.330101 
1528.000000	64.309573 
1527.000000	64.288687 
1526.000000	64.270615 
1525.000000	64.258241 
1524.000000	64.253783 
1523.000000	64.258384 
1522.000000	64.271998 
1521.000000	64.293241 
1520.000000	64.319682 
1519.000000	64.348196 
1518.000000	64.375424 
1517.000000	64.398312 
1516.000000	64.414882 
1515.000000	64.424395 
1514.000000	64.427542 
1513.000000	64.426136 
1512.000000	64.422583 
1511.000000	64.419364 
1510.000000	64.418554 
1509.000000	64.421248 
1508.000000	64.427447 
1507.000000	64.436054 
1506.000000	64.445519 
1505.000000	64.453792 
1504.000000	64.458918 
1503.000000	64.459323 
1502.000000	64.454197 
1501.000000	64.443612 
1500.000000	64.428424 
1499.000000	64.410233 
1498.000000	64.390945 
1497.000000	64.372491 
1496.000000	64.356493 
1495.000000	64.343833 
1494.000000	64.334630 
1493.000000	64.328145 
1492.000000	64.322996 
1491.000000	64.317393 
1490.000000	64.309883 
1489.000000	64.299607 
1488.000000	64.286923 
1487.000000	64.273166 
1486.000000	64.260458 
1485.000000	64.251375 
1484.000000	64.248085 
1483.000000	64.251995 
1482.000000	64.263200 
1481.000000	64.280581 
1480.000000	64.301824 
1479.000000	64.324212 
1478.000000	64.344930 
1477.000000	64.361858 
1476.000000	64.373850 
1475.000000	64.380884 
1474.000000	64.383602 
1473.000000	64.383077 
1472.000000	64.380335 
1471.000000	64.375877 
1470.000000	64.369344 
1469.000000	64.359712 
1468.000000	64.345765 
1467.000000	64.326524 
1466.000000	64.301490 
1465.000000	64.271426 
1464.000000	64.238214 
1463.000000	64.205026 
1462.000000	64.175868 
1461.000000	64.154815 
1460.000000	64.145255 
1459.000000	64.149212 
1458.000000	64.166641 
1457.000000	64.195370 
1456.000000	64.231491 
1455.000000	64.269948 
1454.000000	64.305520 
1453.000000	64.333939 
1452.000000	64.352488 
1451.000000	64.360547 
1450.000000	64.359402 
1449.000000	64.351844 
1448.000000	64.341330 
1447.000000	64.331364 
1446.000000	64.324784 
1445.000000	64.323401 
1444.000000	64.327788 
1443.000000	64.337539 
1442.000000	64.351320 
1441.000000	64.367437 
1440.000000	64.384055 
1439.000000	64.399218 
1438.000000	64.411044 
1437.000000	64.417982 
1436.000000	64.419174 
1435.000000	64.414548 
1434.000000	64.404940 
1433.000000	64.392352 
1432.000000	64.379167 
1431.000000	64.368176 
1430.000000	64.361476 
1429.000000	64.360237 
1428.000000	64.364433 
1427.000000	64.372706 
1426.000000	64.382886 
1425.000000	64.392375 
1424.000000	64.398717 
1423.000000	64.400482 
1422.000000	64.397144 
1421.000000	64.389181 
1420.000000	64.377927 
1419.000000	64.365267 
1418.000000	64.353179 
1417.000000	64.343380 
1416.000000	64.337301 
1415.000000	64.335918 
1414.000000	64.339804 
1413.000000	64.349007 
1412.000000	64.363050 
1411.000000	64.380717 
1410.000000	64.400196 
1409.000000	64.419078 
1408.000000	64.434599 
1407.000000	64.443874 
1406.000000	64.444804 
1405.000000	64.436101 
1404.000000	64.417862 
1403.000000	64.391231 
1402.000000	64.358663 
1401.000000	64.322924 
1400.000000	64.287018 
1399.000000	64.253425 
1398.000000	64.223742 
1397.000000	64.198875 
1396.000000	64.179015 
1395.000000	64.164018 
1394.000000	64.153432 
1393.000000	64.146757 
1392.000000	64.143490 
1391.000000	64.142942 
1390.000000	64.144253 
1389.000000	64.146351 
1388.000000	64.148330 
1387.000000	64.149522 
1386.000000	64.149880 
1385.000000	64.149999 
1384.000000	64.151430 
1383.000000	64.156055 
1382.000000	64.165711 
1381.000000	64.181566 
1380.000000	64.203667 
1379.000000	64.230680 
1378.000000	64.259958 
1377.000000	64.288163 
1376.000000	64.311575 
1375.000000	64.327335 
1374.000000	64.333605 
1373.000000	64.329838 
1372.000000	64.316987 
1371.000000	64.297294 
1370.000000	64.273548 
1369.000000	64.248657 
1368.000000	64.225220 
1367.000000	64.205479 
1366.000000	64.190864 
1365.000000	64.182066 
1364.000000	64.179015 
1363.000000	64.181089 
1362.000000	64.187073 
1361.000000	64.195275 
1360.000000	64.203643 
1359.000000	64.210104 
1358.000000	64.212846 
1357.000000	64.211034 
1356.000000	64.204597 
1355.000000	64.194607 
1354.000000	64.182806 
1353.000000	64.171671 
1352.000000	64.163351 
1351.000000	64.159703 
1350.000000	64.161825 
1349.000000	64.169836 
1348.000000	64.183068 
1347.000000	64.200234 
1346.000000	64.219665 
1345.000000	64.239764 
1344.000000	64.259076 
1343.000000	64.276480 
1342.000000	64.291262 
1341.000000	64.303088 
1340.000000	64.311814 
1339.000000	64.317488 
1338.000000	64.320135 
1337.000000	64.320063 
1336.000000	64.317846 
1335.000000	64.314055 
1334.000000	64.309477 
1333.000000	64.304900 
1332.000000	64.301037 
1331.000000	64.298629 
1330.000000	64.298033 
1329.000000	64.299416 
1328.000000	64.302539 
1327.000000	64.306688 
1326.000000	64.311027 
1325.000000	64.314460 
1324.000000	64.315962 
1323.000000	64.314746 
1322.000000	64.310383 
1321.000000	64.303064 
1320.000000	64.293098 
1319.000000	64.281105 
1318.000000	64.267611 
1317.000000	64.253187 
1316.000000	64.238429 
1315.000000	64.223957 
1314.000000	64.210653 
1313.000000	64.199399 
1312.000000	64.191031 
1311.000000	64.186239 
1310.000000	64.185166 
1309.000000	64.187455 
1308.000000	64.192104 
1307.000000	64.197802 
1306.000000	64.203143 
1305.000000	64.206910 
1304.000000	64.208483 
1303.000000	64.207744 
1302.000000	64.205265 
1301.000000	64.201998 
1300.000000	64.198994 
1299.000000	64.197254 
1298.000000	64.197373 
1297.000000	64.199638 
1296.000000	64.204049 
1295.000000	64.210319 
1294.000000	64.218211 
1293.000000	64.227271 
1292.000000	64.236950 
1291.000000	64.246487 
1290.000000	64.254879 
1289.000000	64.260935 
1288.000000	64.263296 
1287.000000	64.260911 
1286.000000	64.253497 
1285.000000	64.241480 
1284.000000	64.226031 
1283.000000	64.208912 
1282.000000	64.192318 
1281.000000	64.178204 
1280.000000	64.168000 
1279.000000	64.162182 
1278.000000	64.160394 
1277.000000	64.161562 
1276.000000	64.164376 
1275.000000	64.167737 
1274.000000	64.170789 
1273.000000	64.173460 
1272.000000	64.176058 
1271.000000	64.178919 
1270.000000	64.182329 
1269.000000	64.186024 
1268.000000	64.189481 
1267.000000	64.191484 
1266.000000	64.191102 
1265.000000	64.187979 
1264.000000	64.182543 
1263.000000	64.176225 
1262.000000	64.171147 
1261.000000	64.169692 
1260.000000	64.173698 
1259.000000	64.183950 
1258.000000	64.199542 
1257.000000	64.218187 
1256.000000	64.236307 
1255.000000	64.250254 
1254.000000	64.256834 
1253.000000	64.254260 
1252.000000	64.242577 
1251.000000	64.223861 
1250.000000	64.201331 
1249.000000	64.178824 
1248.000000	64.159893 
1247.000000	64.146828 
1246.000000	64.140295 
1245.000000	64.139175 
1244.000000	64.141130 
1243.000000	64.143252 
1242.000000	64.142656 
1241.000000	64.137482 
1240.000000	64.126992 
1239.000000	64.111852 
1238.000000	64.093637 
1237.000000	64.074754 
1236.000000	64.057397 
1235.000000	64.043569 
1234.000000	64.034366 
1233.000000	64.030313 
1232.000000	64.031052 
1231.000000	64.036011 
1230.000000	64.044427 
1229.000000	64.055681 
1228.000000	64.069199 
1227.000000	64.084815 
1226.000000	64.102268 
1225.000000	64.121294 
1224.000000	64.141225 
1223.000000	64.161443 
1222.000000	64.180994 
1221.000000	64.198946 
1220.000000	64.214277 
1219.000000	64.226222 
1218.000000	64.234137 
1217.000000	64.237904 
1216.000000	64.237546 
1215.000000	64.233374 
1214.000000	64.225769 
1213.000000	64.215540 
1212.000000	64.203524 
1211.000000	64.190721 
1210.000000	64.178228 
1209.000000	64.167237 
1208.000000	64.158582 
1207.000000	64.152789 
1206.000000	64.149975 
1205.000000	64.149737 
1204.000000	64.151263 
1203.000000	64.153695 
1202.000000	64.156270 
1201.000000	64.158439 
1200.000000	64.159893 
1199.000000	64.160490 
1198.000000	64.160060 
1197.000000	64.158296 
1196.000000	64.154767 
1195.000000	64.148664 
1194.000000	64.139199 
1193.000000	64.125394 
1192.000000	64.106702 
1191.000000	64.083194 
1190.000000	64.055609 
1189.000000	64.025473 
1188.000000	63.995242 
1187.000000	63.967823 
1186.000000	63.946032 
1185.000000	63.932037 
1184.000000	63.926887 
1183.000000	63.930177 
1182.000000	63.939976 
1181.000000	63.953375 
1180.000000	63.966965 
1179.000000	63.977742 
1178.000000	63.983678 
1177.000000	63.984274 
1176.000000	63.980579 
1175.000000	63.974857 
1174.000000	63.969993 
1173.000000	63.968467 
1172.000000	63.971686 
1171.000000	63.979792 
1170.000000	63.991570 
1169.000000	64.005279 
1168.000000	64.018797 
1167.000000	64.030814 
1166.000000	64.040541 
1165.000000	64.047551 
1164.000000	64.051747 
1163.000000	64.052987 
1162.000000	64.050912 
1161.000000	64.045405 
1160.000000	64.036536 
1159.000000	64.025044 
1158.000000	64.011740 
1157.000000	63.997530 
1156.000000	63.983058 
1155.000000	63.968634 
1154.000000	63.954567 
1153.000000	63.941168 
1152.000000	63.929414 
1151.000000	63.920831 
1150.000000	63.917279 
1149.000000	63.920331 
1148.000000	63.930845 
1147.000000	63.948559 
1146.000000	63.971829 
1145.000000	63.997721 
1144.000000	64.022707 
1143.000000	64.043211 
1142.000000	64.056396 
1141.000000	64.060711 
1140.000000	64.056205 
1139.000000	64.044404 
1138.000000	64.027762 
1137.000000	64.008879 
1136.000000	63.990187 
1135.000000	63.973116 
1134.000000	63.958430 
1133.000000	63.945889 
1132.000000	63.934969 
1131.000000	63.924956 
1130.000000	63.915538 
1129.000000	63.907074 
1128.000000	63.900184 
1127.000000	63.896465 
1126.000000	63.897752 
1125.000000	63.906240 
1124.000000	63.923501 
1123.000000	63.950133 
1122.000000	63.985109 
1121.000000	64.025759 
1120.000000	64.068174 
1119.000000	64.107656 
1118.000000	64.139771 
1117.000000	64.161181 
1116.000000	64.170312 
1115.000000	64.167499 
1114.000000	64.154982 
1113.000000	64.136409 
1112.000000	64.115786 
1111.000000	64.097309 
1110.000000	64.084100 
1109.000000	64.078164 
1108.000000	64.079380 
1107.000000	64.085841 
1106.000000	64.093804 
1105.000000	64.099073 
1104.000000	64.097476 
1103.000000	64.085912 
1102.000000	64.063286 
1101.000000	64.030814 
1100.000000	63.991785 
1099.000000	63.950872 
1098.000000	63.913154 
1097.000000	63.883018 
1096.000000	63.863563 
1095.000000	63.855910 
1094.000000	63.859248 
1093.000000	63.871049 
1092.000000	63.887739 
1091.000000	63.905668 
1090.000000	63.921332 
1089.000000	63.932251 
1088.000000	63.937163 
1087.000000	63.936400 
1086.000000	63.931155 
1085.000000	63.923764 
1084.000000	63.916921 
1083.000000	63.913345 
1082.000000	63.915538 
1081.000000	63.925099 
1080.000000	63.942408 
1079.000000	63.966512 
1078.000000	63.995313 
1077.000000	64.025926 
1076.000000	64.055228 
1075.000000	64.080095 
1074.000000	64.098286 
1073.000000	64.108300 
1072.000000	64.109635 
1071.000000	64.102530 
1070.000000	64.087843 
1069.000000	64.066767 
1068.000000	64.040660 
1067.000000	64.011168 
1066.000000	63.980174 
1065.000000	63.949656 
1064.000000	63.921642 
1063.000000	63.898277 
1062.000000	63.881587 
1061.000000	63.873147 
1060.000000	63.874030 
1059.000000	63.884258 
1058.000000	63.903141 
1057.000000	63.929057 
1056.000000	63.959932 
1055.000000	63.993191 
1054.000000	64.026236 
1053.000000	64.056777 
1052.000000	64.082837 
1051.000000	64.103174 
1050.000000	64.117026 
1049.000000	64.124369 
1048.000000	64.125370 
1047.000000	64.120697 
1046.000000	64.110898 
1045.000000	64.096522 
1044.000000	64.078164 
1043.000000	64.056491 
1042.000000	64.032649 
1041.000000	64.008331 
1040.000000	63.985800 
1039.000000	63.967657 
1038.000000	63.956356 
1037.000000	63.953661 
1036.000000	63.960313 
1035.000000	63.975787 
1034.000000	63.998270 
1033.000000	64.025139 
1032.000000	64.053392 
1031.000000	64.080190 
1030.000000	64.103341 
1029.000000	64.121437 
1028.000000	64.133787 
1027.000000	64.140415 
1026.000000	64.141750 
1025.000000	64.138627 
1024.000000	64.131832 
1023.000000	64.122343 
1022.000000	64.111709 
1021.000000	64.101600 
1020.000000	64.093971 
1019.000000	64.090394 
1018.000000	64.092183 
1017.000000	64.099502 
1016.000000	64.111423 
1015.000000	64.125776 
1014.000000	64.139699 
1013.000000	64.150404 
1012.000000	64.155769 
1011.000000	64.154791 
1010.000000	64.147996 
1009.000000	64.137148 
1008.000000	64.124965 
1007.000000	64.114308 
1006.000000	64.107251 
1005.000000	64.104747 
1004.000000	64.105987 
1003.000000	64.109039 
1002.000000	64.111232 
1001.000000	64.109706 
1000.000000	64.102530 
999.000000	 64.089226 
998.000000	 64.070749 
997.000000	 64.049124 
996.000000	 64.026856 
995.000000	 64.006280 
994.000000	 63.988971 
993.000000	 63.975286 
992.000000	 63.964939 
991.000000	 63.956999 
990.000000	 63.951301 
989.000000	 63.948297 
988.000000	 63.949561 
987.000000	 63.957381 
986.000000	 63.974046 
985.000000	 64.000821 
984.000000	 64.037013 
983.000000	 64.079666 
982.000000	 64.123773 
981.000000	 64.163088 
980.000000	 64.191532 
979.000000	 64.204525 
978.000000	 64.200305 
977.000000	 64.180064 
976.000000	 64.147615 
975.000000	 64.108300 
974.000000	 64.067912 
973.000000	 64.031124 
972.000000	 64.000844 
971.000000	 63.977575 
970.000000	 63.960242 
969.000000	 63.946700 
968.000000	 63.934874 
967.000000	 63.923358 
966.000000	 63.912010 
965.000000	 63.901734 
964.000000	 63.893938 
963.000000	 63.890027 
962.000000	 63.890528 
961.000000	 63.895225 
960.000000	 63.902997 
959.000000	 63.912343 
958.000000	 63.921809 
957.000000	 63.930416 
956.000000	 63.938045 
955.000000	 63.945221 
954.000000	 63.953042 
953.000000	 63.962340 
952.000000	 63.973569 
951.000000	 63.986635 
950.000000	 64.000439 
949.000000	 64.013481 
948.000000	 64.023828 
947.000000	 64.029979 
946.000000	 64.030885 
945.000000	 64.026355 
944.000000	 64.016914 
943.000000	 64.003920 
942.000000	 63.988995 
941.000000	 63.973736 
940.000000	 63.959503 
939.000000	 63.947105 
938.000000	 63.936686 
937.000000	 63.927721 
936.000000	 63.919258 
935.000000	 63.910365 
934.000000	 63.900876 
933.000000	 63.891434 
932.000000	 63.883852 
931.000000	 63.880586 
930.000000	 63.884615 
929.000000	 63.898754 
928.000000	 63.924765 
927.000000	 63.962769 
926.000000	 64.011287 
925.000000	 64.067220 
924.000000	 64.126396 
923.000000	 64.184236 
922.000000	 64.236640 
921.000000	 64.280128 
920.000000	 64.312648 
919.000000	 64.332914 
918.000000	 64.340662 
917.000000	 64.336204 
916.000000	 64.320468 
915.000000	 64.294886 
914.000000	 64.261865 
913.000000	 64.224433 
912.000000	 64.186739 
911.000000	 64.152812 
910.000000	 64.126443 
909.000000	 64.109873 
908.000000	 64.103579 
907.000000	 64.105653 
906.000000	 64.112520 
905.000000	 64.119410 
904.000000	 64.121794 
903.000000	 64.116621 
902.000000	 64.103412 
901.000000	 64.084219 
900.000000	 64.063286 
899.000000	 64.045739 
898.000000	 64.036369 
897.000000	 64.038133 
896.000000	 64.051461 
895.000000	 64.074349 
894.000000	 64.102745 
893.000000	 64.131569 
892.000000	 64.155983 
891.000000	 64.172530 
890.000000	 64.179706 
889.000000	 64.177632 
888.000000	 64.168143 
887.000000	 64.153885 
886.000000	 64.137911 
885.000000	 64.123010 
884.000000	 64.111328 
883.000000	 64.104175 
882.000000	 64.101910 
881.000000	 64.104294 
880.000000	 64.110040 
879.000000	 64.117193 
878.000000	 64.123296 
877.000000	 64.125990 
876.000000	 64.123463 
875.000000	 64.115142 
874.000000	 64.101839 
873.000000	 64.086008 
872.000000	 64.070820 
871.000000	 64.059615 
870.000000	 64.054942 
869.000000	 64.057755 
868.000000	 64.067029 
867.000000	 64.080238 
866.000000	 64.093804 
865.000000	 64.104557 
864.000000	 64.110612 
863.000000	 64.112043 
862.000000	 64.110636 
861.000000	 64.109492 
860.000000	 64.112281 
859.000000	 64.121651 
858.000000	 64.138197 
857.000000	 64.160132 
856.000000	 64.183783 
855.000000	 64.204430 
854.000000	 64.217567 
853.000000	 64.220023 
852.000000	 64.210963 
851.000000	 64.191889 
850.000000	 64.166450 
849.000000	 64.139533 
848.000000	 64.116215 
847.000000	 64.100623 
846.000000	 64.095067 
845.000000	 64.100146 
844.000000	 64.114570 
843.000000	 64.135885 
842.000000	 64.160585 
841.000000	 64.184999 
840.000000	 64.205479 
839.000000	 64.218616 
838.000000	 64.221668 
837.000000	 64.212489 
836.000000	 64.190030 
835.000000	 64.154601 
834.000000	 64.108276 
833.000000	 64.054346 
832.000000	 63.997626 
831.000000	 63.943457 
830.000000	 63.897252 
829.000000	 63.863754 
828.000000	 63.845944 
827.000000	 63.844633 
826.000000	 63.858151 
825.000000	 63.882517 
824.000000	 63.912081 
823.000000	 63.940620 
822.000000	 63.962602 
821.000000	 63.974237 
820.000000	 63.973712 
819.000000	 63.961482 
818.000000	 63.939499 
817.000000	 63.910818 
816.000000	 63.878679 
815.000000	 63.846564 
814.000000	 63.817572 
813.000000	 63.794565 
812.000000	 63.780403 
811.000000	 63.777422 
810.000000	 63.787245 
809.000000	 63.810348 
808.000000	 63.845133 
807.000000	 63.888382 
806.000000	 63.935375 
805.000000	 63.980817 
804.000000	 64.019608 
803.000000	 64.048218 
802.000000	 64.065170 
801.000000	 64.071559 
800.000000	 64.070558 
799.000000	 64.066314 
798.000000	 64.062619 
797.000000	 64.061951 
796.000000	 64.064884 
795.000000	 64.069795 
794.000000	 64.073777 
793.000000	 64.073753 
792.000000	 64.067745 
791.000000	 64.056038 
790.000000	 64.041113 
789.000000	 64.027404 
788.000000	 64.019608 
787.000000	 64.021587 
786.000000	 64.034724 
785.000000	 64.057183 
784.000000	 64.083981 
783.000000	 64.108657 
782.000000	 64.124512 
781.000000	 64.126706 
780.000000	 64.113044 
779.000000	 64.084720 
778.000000	 64.045953 
777.000000	 64.003014 
776.000000	 63.962578 
775.000000	 63.930058 
774.000000	 63.908743 
773.000000	 63.899016 
772.000000	 63.899087 
771.000000	 63.905858 
770.000000	 63.915848 
769.000000	 63.926148 
768.000000	 63.935327 
767.000000	 63.943529 
766.000000	 63.951992 
765.000000	 63.961935 
764.000000	 63.974022 
763.000000	 63.987159 
762.000000	 63.998723 
761.000000	 64.004182 
760.000000	 63.997864 
759.000000	 63.974905 
758.000000	 63.932108 
757.000000	 63.870525 
756.000000	 63.795018 
755.000000	 63.715410 
754.000000	 63.644146 
753.000000	 63.594460 
752.000000	 63.577532 
751.000000	 63.599395 
750.000000	 63.659715 
749.000000	 63.750815 
748.000000	 63.859152 
747.000000	 63.967847 
746.000000	 64.059972 
745.000000	 64.122104 
744.000000	 64.146876 
743.000000	 64.133691 
742.000000	 64.088273 
741.000000	 64.020395 
740.000000	 63.941335 
739.000000	 63.861393 
738.000000	 63.788032 
737.000000	 63.725972 
736.000000	 63.676977 
735.000000	 63.641881 
734.000000	 63.620543 
733.000000	 63.612270 
732.000000	 63.615846 
731.000000	 63.629317 
730.000000	 63.650369 
729.000000	 63.674736 
728.000000	 63.698410 
727.000000	 63.717412 
726.000000	 63.729405 
725.000000	 63.734149 
724.000000	 63.732957 
723.000000	 63.729166 
722.000000	 63.725233 
721.000000	 63.722229 
720.000000	 63.718533 
719.000000	 63.710284 
718.000000	 63.692235 
717.000000	 63.659691 
716.000000	 63.609933 
715.000000	 63.543820 
714.000000	 63.465738 
713.000000	 63.383746 
712.000000	 63.306760 
711.000000	 63.244009 
710.000000	 63.203501 
709.000000	 63.191771 
708.000000	 63.212656 
707.000000	 63.267517 
706.000000	 63.355398 
705.000000	 63.472557 
704.000000	 63.612723 
703.000000	 63.766908 
702.000000	 63.923525 
701.000000	 64.069962 
700.000000	 64.193296 
699.000000	 64.282870 
698.000000	 64.331674 
697.000000	 64.338302 
696.000000	 64.307904 
695.000000	 64.250445 
694.000000	 64.179229 
693.000000	 64.108014 
692.000000	 64.048886 
691.000000	 64.009475 
690.000000	 63.992071 
689.000000	 63.993954 
688.000000	 64.008760 
687.000000	 64.027428 
686.000000	 64.040303 
685.000000	 64.039063 
684.000000	 64.018154 
683.000000	 63.975358 
682.000000	 63.911962 
681.000000	 63.831758 
680.000000	 63.740873 
679.000000	 63.646125 
678.000000	 63.554906 
677.000000	 63.473606 
676.000000	 63.408064 
675.000000	 63.363409 
674.000000	 63.343787 
673.000000	 63.351607 
672.000000	 63.387489 
671.000000	 63.449501 
670.000000	 63.533425 
669.000000	 63.631749 
668.000000	 63.735985 
667.000000	 63.837575 
666.000000	 63.929390 
665.000000	 64.006257 
664.000000	 64.066410 
663.000000	 64.111328 
662.000000	 64.145326 
661.000000	 64.173722 
660.000000	 64.201378 
659.000000	 64.230799 
658.000000	 64.262032 
657.000000	 64.291882 
656.000000	 64.314937 
655.000000	 64.324164 
654.000000	 64.313006 
653.000000	 64.277219 
652.000000	 64.215898 
651.000000	 64.133167 
650.000000	 64.036679 
649.000000	 63.938045 
648.000000	 63.850998 
647.000000	 63.788771 
646.000000	 63.762545 
645.000000	 63.777446 
644.000000	 63.831782 
643.000000	 63.915872 
642.000000	 64.014220 
641.000000	 64.107656 
640.000000	 64.177083 
639.000000	 64.207911 
638.000000	 64.192628 
637.000000	 64.132976 
636.000000	 64.038991 
635.000000	 63.927173 
634.000000	 63.816547 
633.000000	 63.725233 
632.000000	 63.666129 
631.000000	 63.645291 
630.000000	 63.660192 
629.000000	 63.700890 
628.000000	 63.752174 
627.000000	 63.796949 
626.000000	 63.820075 
625.000000	 63.810348 
624.000000	 63.763594 
623.000000	 63.681650 
622.000000	 63.573527 
621.000000	 63.452172 
620.000000	 63.333272 
619.000000	 63.231849 
618.000000	 63.160228 
617.000000	 63.125991 
616.000000	 63.131570 
615.000000	 63.174343 
614.000000	 63.248324 
613.000000	 63.345456 
612.000000	 63.457512 
611.000000	 63.576555 
610.000000	 63.696289 
609.000000	 63.811802 
608.000000	 63.919496 
607.000000	 64.016485 
606.000000	 64.101028 
605.000000	 64.172196 
604.000000	 64.230966 
603.000000	 64.278984 
602.000000	 64.318799 
601.000000	 64.352154 
600.000000	 64.380431 
599.000000	 64.403343 
598.000000	 64.419531 
597.000000	 64.426469 
596.000000	 64.421486 
595.000000	 64.402794 
594.000000	 64.371180 
593.000000	 64.329600 
592.000000	 64.283752 
591.000000	 64.239597 
590.000000	 64.202237 
589.000000	 64.174270 
588.000000	 64.155268 
587.000000	 64.142203 
586.000000	 64.130449 
585.000000	 64.116096 
584.000000	 64.097237 
583.000000	 64.075374 
582.000000	 64.055156 
581.000000	 64.043235 
580.000000	 64.046096 
579.000000	 64.069032 
578.000000	 64.113759 
577.000000	 64.176917 
576.000000	 64.249444 
575.000000	 64.318466 
574.000000	 64.369034 
573.000000	 64.386224 
572.000000	 64.359140 
571.000000	 64.283728 
570.000000	 64.164590 
569.000000	 64.014053 
568.000000	 63.850760 
567.000000	 63.696360 
566.000000	 63.571095 
565.000000	 63.490486 
564.000000	 63.461446 
563.000000	 63.480734 
562.000000	 63.536787 
561.000000	 63.612270 
560.000000	 63.689732 
559.000000	 63.754916 
558.000000	 63.800907 
557.000000	 63.828277 
556.000000	 63.843607 
555.000000	 63.855385 
554.000000	 63.870763 
553.000000	 63.892197 
552.000000	 63.916969 
551.000000	 63.937187 
550.000000	 63.943004 
549.000000	 63.924407 
548.000000	 63.874053 
547.000000	 63.788938 
546.000000	 63.670325 
545.000000	 63.525104 
544.000000	 63.363552 
543.000000	 63.199830 
542.000000	 63.048672 
541.000000	 62.925219 
540.000000	 62.842345 
539.000000	 62.809681 
538.000000	 62.831759 
537.000000	 62.907099 
536.000000	 63.026833 
535.000000	 63.176822 
534.000000	 63.338494 
533.000000	 63.493394 
532.000000	 63.625288 
531.000000	 63.723826 
530.000000	 63.784980 
529.000000	 63.811707 
528.000000	 63.811850 
527.000000	 63.795065 
526.000000	 63.769793 
525.000000	 63.742160 
524.000000	 63.714551 
523.000000	 63.686728 
522.000000	 63.656401 
521.000000	 63.621020 
520.000000	 63.578867 
519.000000	 63.530182 
518.000000	 63.477611 
517.000000	 63.425302 
516.000000	 63.378620 
515.000000	 63.342857 
514.000000	 63.322210 
513.000000	 63.318133 
512.000000	 63.329625 
511.000000	 63.354468 
510.000000	 63.388180 
509.000000	 63.425040 
508.000000	 63.458156 
507.000000	 63.480925 
506.000000	 63.487315 
505.000000	 63.473010 
504.000000	 63.435769 
503.000000	 63.375544 
502.000000	 63.295078 
501.000000	 63.199639 
500.000000	 63.096284 
499.000000	 62.993025 
498.000000	 62.898373 
497.000000	 62.820100 
496.000000	 62.763476 
495.000000	 62.730407 
494.000000	 62.718677 
493.000000	 62.723565 
492.000000	 62.737488 
491.000000	 62.754678 
490.000000	 62.771892 
489.000000	 62.791419 
488.000000	 62.819957 
487.000000	 62.866973 
486.000000	 62.941145 
485.000000	 63.046216 
484.000000	 63.178658 
483.000000	 63.326263 
482.000000	 63.469552 
481.000000	 63.586473 
480.000000	 63.656949 
479.000000	 63.669705 
478.000000	 63.625955 
477.000000	 63.539552 
476.000000	 63.433933 
475.000000	 63.335514 
474.000000	 63.267064 
473.000000	 63.240981 
472.000000	 63.256502 
471.000000	 63.299989 
470.000000	 63.349318 
469.000000	 63.381481 
468.000000	 63.378834 
467.000000	 63.332939 
466.000000	 63.247394 
465.000000	 63.135600 
464.000000	 63.018059 
463.000000	 62.916088 
462.000000	 62.847065 
461.000000	 62.820434 
460.000000	 62.835574 
459.000000	 62.884449 
458.000000	 62.952065 
457.000000	 63.021039 
456.000000	 63.074278 
455.000000	 63.099002 
454.000000	 63.087582 
453.000000	 63.038039 
452.000000	 62.953662 
451.000000	 62.841129 
450.000000	 62.709498 
449.000000	 62.568092 
448.000000	 62.427473 
447.000000	 62.298750 
446.000000	 62.192368 
445.000000	 62.117362 
444.000000	 62.080407 
443.000000	 62.085413 
442.000000	 62.132525 
441.000000	 62.217950 
440.000000	 62.335324 
439.000000	 62.475132 
438.000000	 62.625312 
437.000000	 62.770915 
436.000000	 62.895512 
435.000000	 62.982535 
434.000000	 63.016343 
433.000000	 62.986922 
432.000000	 62.891387 
431.000000	 62.737464 
430.000000	 62.543630 
429.000000	 62.336707 
428.000000	 62.148594 
427.000000	 62.007617 
426.000000	 61.936545 
425.000000	 61.940217 
424.000000	 62.003660 
423.000000	 62.096524 
422.000000	 62.181448 
421.000000	 62.222790 
420.000000	 62.195515 
419.000000	 62.094449 
418.000000	 61.935591 
417.000000	 61.744618 
416.000000	 61.549043 
415.000000	 61.373805 
414.000000	 61.234664 
413.000000	 61.131739 
412.000000	 61.053299 
411.000000	 60.986065 
410.000000	 60.917878 
409.000000	 60.846781 
408.000000	 60.777187 
407.000000	 60.708355 
406.000000	 60.640811 
405.000000	 60.573244 
404.000000	 60.508489 
403.000000	 60.444307 
402.000000	 60.391068 
401.000000	 60.363626 
400.000000	 60.393762 
399.000000	 60.530018 
398.000000	 60.815119 
397.000000	 61.262607 
396.000000	 61.865901 
395.000000	 62.597560 
394.000000	 63.404417 
393.000000	 64.217185 
392.000000	 64.971208 
391.000000	 65.619611 
390.000000	 66.180586 
389.000000	 66.726613 
388.000000	 67.364192 
387.000000	 68.182635 
386.000000	 69.224786 
385.000000	 70.441150 
384.000000	 71.667647 
383.000000	 72.655200 
382.000000	 73.168468 
381.000000	 73.017048 
380.000000	 72.112154 
379.000000	 70.495367 
378.000000	 68.312144 
377.000000	 65.837550 
376.000000	 63.359665 
375.000000	 61.246466 
374.000000	 59.871935 
373.000000	 59.595251 
372.000000	 60.714554 
371.000000	 63.358330 
370.000000	 67.439150 

