PE IR       SPECTRUM    SPECTRUM    ASCII       PEDS        1.60        
  -1
BZ6C22~1.ASC
17/04/07
13:34:21.00
17/04/07
13:34:21.00
tln
$BZ1503107-1_t0004$<tbV0>[5.2,-13.0,8.0,0.0,27,1,0]
370.000000
64









2002,4.07    
MIRTGS : RIGHTBACK : INTERNAL 2
MIR : ON : INTERNAL 2
OPTKBR

0.200000
8
8.000000
FILLER
RATIO
SPECTRUM
UNLOCKED 256

DOUBLE
64
COMBINED
1
0
0


1.000000
RATIO


1
0
TRUE
51149
0
LEFT NOT FITTED RIGHT NOT FITTED 0
NONE
NONE
15600
12.000000
4.427000
51148
TRUE
1 0 8 72 0 0 0 0 

15798.010000






#HDR
-1
-1
#GR
CM-1
%T
0.00002384185791015625
0.0
5000.000000
-1.000000
4631
8
76.967310
30.709195
#DATA
5000.000000	64.354038 
4999.000000	64.332175 
4998.000000	64.362335 
4997.000000	64.434933 
4996.000000	64.533305 
4995.000000	64.637947 
4994.000000	64.731407 
4993.000000	64.801740 
4992.000000	64.844560 
4991.000000	64.862012 
4990.000000	64.861297 
4989.000000	64.850950 
4988.000000	64.838337 
4987.000000	64.827513 
4986.000000	64.818358 
4985.000000	64.807271 
4984.000000	64.788651 
4983.000000	64.757394 
4982.000000	64.710092 
4981.000000	64.646935 
4980.000000	64.570784 
4979.000000	64.487075 
4978.000000	64.402174 
4977.000000	64.322781 
4976.000000	64.254021 
4975.000000	64.199447 
4974.000000	64.160871 
4973.000000	64.138960 
4972.000000	64.132690 
4971.000000	64.140677 
4970.000000	64.161157 
4969.000000	64.192485 
4968.000000	64.231920 
4967.000000	64.276981 
4966.000000	64.324903 
4965.000000	64.372730 
4964.000000	64.417386 
4963.000000	64.455580 
4962.000000	64.483928 
4961.000000	64.499354 
4960.000000	64.500093 
4959.000000	64.485478 
4958.000000	64.456558 
4957.000000	64.416384 
4956.000000	64.369964 
4955.000000	64.324378 
4954.000000	64.287781 
4953.000000	64.269089 
4952.000000	64.276194 
4951.000000	64.314317 
4950.000000	64.384770 
4949.000000	64.483976 
4948.000000	64.604353 
4947.000000	64.734792 
4946.000000	64.863729 
4945.000000	64.979529 
4944.000000	65.074300 
4943.000000	65.145444 
4942.000000	65.195274 
4941.000000	65.229344 
4940.000000	65.254402 
4939.000000	65.277004 
4938.000000	65.300202 
4937.000000	65.323686 
4936.000000	65.343117 
4935.000000	65.352368 
4934.000000	65.345740 
4933.000000	65.321111 
4932.000000	65.280055 
4931.000000	65.228176 
4930.000000	65.172743 
4929.000000	65.120601 
4928.000000	65.075206 
4927.000000	65.035820 
4926.000000	64.996647 
4925.000000	64.949607 
4924.000000	64.887619 
4923.000000	64.809060 
4922.000000	64.718508 
4921.000000	64.628982 
4920.000000	64.558529 
4919.000000	64.527773 
4918.000000	64.555597 
4917.000000	64.653277 
4916.000000	64.819669 
4915.000000	65.040731 
4914.000000	65.293073 
4913.000000	65.545558 
4912.000000	65.765857 
4911.000000	65.925359 
4910.000000	66.005110 
4909.000000	65.997982 
4908.000000	65.909481 
4907.000000	65.755963 
4906.000000	65.560936 
4905.000000	65.351343 
4904.000000	65.153408 
4903.000000	64.989805 
4902.000000	64.877629 
4901.000000	64.828658 
4900.000000	64.849281 
4899.000000	64.940667 
4898.000000	65.098047 
4897.000000	65.312027 
4896.000000	65.566205 
4895.000000	65.837955 
4894.000000	66.097974 
4893.000000	66.312885 
4892.000000	66.449666 
4891.000000	66.481041 
4890.000000	66.391730 
4889.000000	66.182279 
4888.000000	65.871620 
4887.000000	65.495634 
4886.000000	65.101170 
4885.000000	64.739155 
4884.000000	64.453530 
4883.000000	64.275026 
4882.000000	64.213490 
4881.000000	64.257717 
4880.000000	64.379668 
4879.000000	64.542198 
4878.000000	64.708971 
4877.000000	64.851927 
4876.000000	64.959764 
4875.000000	65.037369 
4874.000000	65.103411 
4873.000000	65.181303 
4872.000000	65.289473 
4871.000000	65.432715 
4870.000000	65.600395 
4869.000000	65.766501 
4868.000000	65.897178 
4867.000000	65.958857 
4866.000000	65.929722 
4865.000000	65.804791 
4864.000000	65.599441 
4863.000000	65.344691 
4862.000000	65.079498 
4861.000000	64.841556 
4860.000000	64.658761 
4859.000000	64.544081 
4858.000000	64.494943 
4857.000000	64.496231 
4856.000000	64.527082 
4855.000000	64.567494 
4854.000000	64.604735 
4853.000000	64.634156 
4852.000000	64.657354 
4851.000000	64.680337 
4850.000000	64.708375 
4849.000000	64.745211 
4848.000000	64.790678 
4847.000000	64.842867 
4846.000000	64.898490 
4845.000000	64.955711 
4844.000000	65.014243 
4843.000000	65.075039 
4842.000000	65.138745 
4841.000000	65.204620 
4840.000000	65.269541 
4839.000000	65.326929 
4838.000000	65.369105 
4837.000000	65.389394 
4836.000000	65.384721 
4835.000000	65.358090 
4834.000000	65.317368 
4833.000000	65.274000 
4832.000000	65.239739 
4831.000000	65.225005 
4830.000000	65.233778 
4829.000000	65.262389 
4828.000000	65.300416 
4827.000000	65.333962 
4826.000000	65.349054 
4825.000000	65.335750 
4824.000000	65.291619 
4823.000000	65.222668 
4822.000000	65.144157 
4821.000000	65.076470 
4820.000000	65.040612 
4819.000000	65.051698 
4818.000000	65.114736 
4817.000000	65.221643 
4816.000000	65.351963 
4815.000000	65.477323 
4814.000000	65.567779 
4813.000000	65.600538 
4812.000000	65.563559 
4811.000000	65.462613 
4810.000000	65.319991 
4809.000000	65.170884 
4808.000000	65.054249 
4807.000000	65.003585 
4806.000000	65.039706 
4805.000000	65.163683 
4804.000000	65.357851 
4803.000000	65.588235 
4802.000000	65.814065 
4801.000000	65.995860 
4800.000000	66.104960 
4799.000000	66.128921 
4798.000000	66.072940 
4797.000000	65.957164 
4796.000000	65.810012 
4795.000000	65.661787 
4794.000000	65.537214 
4793.000000	65.452504 
4792.000000	65.412569 
4791.000000	65.412545 
4790.000000	65.439319 
4789.000000	65.477418 
4788.000000	65.510845 
4787.000000	65.524816 
4786.000000	65.508198 
4785.000000	65.452361 
4784.000000	65.354800 
4783.000000	65.218591 
4782.000000	65.053939 
4781.000000	64.876341 
4780.000000	64.704608 
4779.000000	64.558815 
4778.000000	64.454436 
4777.000000	64.400339 
4776.000000	64.394664 
4775.000000	64.425349 
4774.000000	64.472842 
4773.000000	64.514088 
4772.000000	64.529705 
4771.000000	64.508247 
4770.000000	64.450550 
4769.000000	64.368462 
4768.000000	64.285111 
4767.000000	64.228463 
4766.000000	64.224720 
4765.000000	64.290976 
4764.000000	64.430713 
4763.000000	64.631700 
4762.000000	64.869713 
4761.000000	65.112686 
4760.000000	65.327978 
4759.000000	65.488481 
4758.000000	65.578174 
4757.000000	65.593695 
4756.000000	65.543198 
4755.000000	65.443253 
4754.000000	65.313720 
4753.000000	65.173935 
4752.000000	65.039944 
4751.000000	64.922332 
4750.000000	64.828753 
4749.000000	64.762139 
4748.000000	64.723873 
4747.000000	64.712691 
4746.000000	64.727187 
4745.000000	64.762592 
4744.000000	64.810657 
4743.000000	64.860486 
4742.000000	64.899539 
4741.000000	64.917778 
4740.000000	64.909911 
4739.000000	64.877200 
4738.000000	64.827132 
4737.000000	64.771580 
4736.000000	64.723205 
4735.000000	64.691996 
4734.000000	64.681959 
4733.000000	64.690876 
4732.000000	64.709973 
4731.000000	64.727473 
4730.000000	64.730381 
4729.000000	64.708900 
4728.000000	64.657926 
4727.000000	64.576721 
4726.000000	64.470601 
4725.000000	64.348316 
4724.000000	64.222908 
4723.000000	64.107728 
4722.000000	64.017152 
4721.000000	63.963747 
4720.000000	63.956904 
4719.000000	64.002394 
4718.000000	64.098095 
4717.000000	64.233756 
4716.000000	64.391231 
4715.000000	64.547252 
4714.000000	64.678072 
4713.000000	64.764022 
4712.000000	64.794588 
4711.000000	64.770126 
4710.000000	64.701724 
4709.000000	64.607715 
4708.000000	64.509296 
4707.000000	64.425015 
4706.000000	64.367246 
4705.000000	64.339447 
4704.000000	64.337897 
4703.000000	64.353060 
4702.000000	64.373826 
4701.000000	64.390587 
4700.000000	64.397788 
4699.000000	64.395284 
4698.000000	64.386272 
4697.000000	64.377260 
4696.000000	64.373564 
4695.000000	64.380240 
4694.000000	64.399647 
4693.000000	64.432644 
4692.000000	64.479112 
4691.000000	64.537572 
4690.000000	64.605450 
4689.000000	64.679169 
4688.000000	64.754247 
4687.000000	64.825606 
4686.000000	64.888143 
4685.000000	64.937186 
4684.000000	64.969158 
4683.000000	64.982414 
4682.000000	64.977312 
4681.000000	64.956140 
4680.000000	64.922142 
4679.000000	64.879059 
4678.000000	64.830255 
4677.000000	64.779281 
4676.000000	64.729213 
4675.000000	64.682388 
4674.000000	64.640665 
4673.000000	64.606380 
4672.000000	64.581394 
4671.000000	64.566874 
4670.000000	64.563131 
4669.000000	64.568424 
4668.000000	64.580440 
4667.000000	64.596581 
4666.000000	64.614391 
4665.000000	64.632010 
4664.000000	64.648175 
4663.000000	64.662313 
4662.000000	64.673709 
4661.000000	64.681100 
4660.000000	64.682960 
4659.000000	64.677882 
4658.000000	64.664626 
4657.000000	64.643311 
4656.000000	64.616346 
4655.000000	64.588761 
4654.000000	64.567494 
4653.000000	64.560747 
4652.000000	64.576458 
4651.000000	64.620351 
4650.000000	64.694523 
4649.000000	64.795827 
4648.000000	64.916253 
4647.000000	65.043258 
4646.000000	65.162372 
4645.000000	65.258812 
4644.000000	65.320062 
4643.000000	65.338110 
4642.000000	65.311169 
4641.000000	65.243840 
4640.000000	65.146446 
4639.000000	65.033006 
4638.000000	64.918994 
4637.000000	64.818024 
4636.000000	64.740133 
4635.000000	64.689683 
4634.000000	64.665794 
4633.000000	64.662957 
4632.000000	64.673256 
4631.000000	64.688134 
4630.000000	64.700722 
4629.000000	64.706945 
4628.000000	64.706420 
4627.000000	64.700961 
4626.000000	64.694094 
4625.000000	64.689159 
4624.000000	64.688611 
4623.000000	64.693307 
4622.000000	64.702606 
4621.000000	64.715361 
4620.000000	64.729738 
4619.000000	64.745140 
4618.000000	64.760875 
4617.000000	64.776563 
4616.000000	64.791131 
4615.000000	64.802408 
4614.000000	64.807701 
4613.000000	64.804220 
4612.000000	64.789891 
4611.000000	64.764308 
4610.000000	64.729142 
4609.000000	64.688372 
4608.000000	64.647102 
4607.000000	64.610671 
4606.000000	64.582467 
4605.000000	64.563250 
4604.000000	64.550805 
4603.000000	64.540982 
4602.000000	64.529109 
4601.000000	64.511942 
4600.000000	64.488863 
4599.000000	64.462494 
4598.000000	64.437913 
4597.000000	64.421772 
4596.000000	64.419341 
4595.000000	64.434313 
4594.000000	64.467525 
4593.000000	64.517140 
4592.000000	64.579033 
4591.000000	64.647555 
4590.000000	64.717006 
4589.000000	64.781689 
4588.000000	64.837121 
4587.000000	64.879631 
4586.000000	64.906859 
4585.000000	64.917349 
4584.000000	64.910769 
4583.000000	64.887595 
4582.000000	64.849209 
4581.000000	64.797878 
4580.000000	64.737033 
4579.000000	64.670562 
4578.000000	64.602708 
4577.000000	64.537858 
4576.000000	64.480113 
4575.000000	64.433121 
4574.000000	64.399647 
4573.000000	64.381456 
4572.000000	64.378523 
4571.000000	64.388561 
4570.000000	64.407110 
4569.000000	64.427423 
4568.000000	64.442324 
4567.000000	64.445185 
4566.000000	64.431929 
4565.000000	64.401721 
4564.000000	64.357519 
4563.000000	64.304947 
4562.000000	64.251732 
4561.000000	64.205193 
4560.000000	64.171528 
4559.000000	64.154601 
4558.000000	64.155340 
4557.000000	64.172077 
4556.000000	64.200901 
4555.000000	64.236640 
4554.000000	64.273858 
4553.000000	64.307665 
4552.000000	64.334726 
4551.000000	64.353394 
4550.000000	64.363789 
4549.000000	64.367175 
4548.000000	64.364957 
4547.000000	64.358186 
4546.000000	64.347720 
4545.000000	64.334201 
4544.000000	64.317774 
4543.000000	64.298367 
4542.000000	64.277052 
4541.000000	64.255380 
4540.000000	64.234757 
4539.000000	64.216399 
4538.000000	64.200949 
4537.000000	64.188671 
4536.000000	64.178967 
4535.000000	64.171600 
4534.000000	64.166378 
4533.000000	64.164280 
4532.000000	64.167261 
4531.000000	64.177775 
4530.000000	64.198470 
4529.000000	64.229822 
4528.000000	64.269304 
4527.000000	64.311408 
4526.000000	64.348459 
4525.000000	64.372754 
4524.000000	64.378523 
4523.000000	64.364695 
4522.000000	64.336013 
4521.000000	64.300751 
4520.000000	64.269685 
4519.000000	64.253211 
4518.000000	64.259862 
4517.000000	64.295291 
4516.000000	64.360690 
4515.000000	64.455485 
4514.000000	64.574456 
4513.000000	64.705157 
4512.000000	64.831876 
4511.000000	64.938545 
4510.000000	65.012574 
4509.000000	65.047597 
4508.000000	65.045189 
4507.000000	65.014028 
4506.000000	64.967656 
4505.000000	64.921879 
4504.000000	64.889478 
4503.000000	64.875745 
4502.000000	64.881777 
4501.000000	64.905953 
4500.000000	64.946269 
4499.000000	65.001749 
4498.000000	65.077328 
4497.000000	65.182733 
4496.000000	65.325117 
4495.000000	65.505194 
4494.000000	65.711283 
4493.000000	65.923929 
4492.000000	66.110849 
4491.000000	66.245722 
4490.000000	66.325259 
4489.000000	66.372895 
4488.000000	66.442894 
4487.000000	66.597867 
4486.000000	66.885638 
4485.000000	67.319488 
4484.000000	67.878556 
4483.000000	68.496203 
4482.000000	69.072222 
4481.000000	69.495034 
4480.000000	69.679403 
4479.000000	69.575500 
4478.000000	69.189143 
4477.000000	68.569302 
4476.000000	67.797017 
4475.000000	66.963553 
4474.000000	66.151452 
4473.000000	65.419769 
4472.000000	64.797067 
4471.000000	64.289689 
4470.000000	63.887786 
4469.000000	63.566517 
4468.000000	63.291978 
4467.000000	63.006329 
4466.000000	62.648510 
4465.000000	62.139201 
4464.000000	61.435437 
4463.000000	60.542488 
4462.000000	59.560704 
4461.000000	58.668112 
4460.000000	58.111357 
4459.000000	58.153796 
4458.000000	59.004068 
4457.000000	60.754823 
4456.000000	63.329768 
4455.000000	66.483592 
4454.000000	69.828605 
4453.000000	72.912406 
4452.000000	75.306749 
4451.000000	76.702308 
4450.000000	76.967310 
4449.000000	76.174283 
4448.000000	74.562883 
4447.000000	72.477054 
4446.000000	70.280814 
4445.000000	68.282651 
4444.000000	66.680884 
4443.000000	65.545868 
4442.000000	64.844107 
4441.000000	64.477896 
4440.000000	64.322066 
4439.000000	64.269399 
4438.000000	64.243507 
4437.000000	64.218759 
4436.000000	64.194059 
4435.000000	64.195537 
4434.000000	64.235520 
4433.000000	64.322090 
4432.000000	64.445996 
4431.000000	64.590883 
4430.000000	64.741802 
4429.000000	64.886188 
4428.000000	65.020847 
4427.000000	65.146040 
4426.000000	65.259909 
4425.000000	65.359807 
4424.000000	65.442276 
4423.000000	65.501117 
4422.000000	65.527009 
4421.000000	65.515375 
4420.000000	65.472626 
4419.000000	65.406584 
4418.000000	65.325069 
4417.000000	65.235853 
4416.000000	65.144586 
4415.000000	65.058732 
4414.000000	64.986753 
4413.000000	64.928317 
4412.000000	64.875888 
4411.000000	64.822840 
4410.000000	64.763808 
4409.000000	64.693856 
4408.000000	64.611124 
4407.000000	64.516425 
4406.000000	64.414834 
4405.000000	64.313530 
4404.000000	64.222645 
4403.000000	64.151000 
4402.000000	64.107298 
4401.000000	64.097380 
4400.000000	64.124798 
4399.000000	64.188599 
4398.000000	64.285230 
4397.000000	64.408802 
4396.000000	64.551424 
4395.000000	64.703059 
4394.000000	64.852809 
4393.000000	64.989542 
4392.000000	65.102815 
4391.000000	65.183949 
4390.000000	65.227437 
4389.000000	65.231752 
4388.000000	65.200424 
4387.000000	65.141415 
4386.000000	65.065264 
4385.000000	64.982843 
4384.000000	64.904499 
4383.000000	64.837360 
4382.000000	64.784574 
4381.000000	64.745116 
4380.000000	64.715409 
4379.000000	64.690685 
4378.000000	64.666390 
4377.000000	64.639830 
4376.000000	64.610791 
4375.000000	64.581704 
4374.000000	64.555907 
4373.000000	64.536905 
4372.000000	64.526820 
4371.000000	64.525580 
4370.000000	64.530277 
4369.000000	64.536499 
4368.000000	64.538979 
4367.000000	64.534330 
4366.000000	64.522027 
4365.000000	64.505052 
4364.000000	64.488720 
4363.000000	64.479684 
4362.000000	64.483928 
4361.000000	64.504408 
4360.000000	64.539933 
4359.000000	64.585638 
4358.000000	64.633941 
4357.000000	64.676713 
4356.000000	64.707279 
4355.000000	64.721751 
4354.000000	64.720344 
4353.000000	64.706921 
4352.000000	64.688396 
4351.000000	64.672493 
4350.000000	64.666199 
4349.000000	64.674639 
4348.000000	64.699149 
4347.000000	64.737558 
4346.000000	64.784073 
4345.000000	64.831542 
4344.000000	64.872026 
4343.000000	64.898514 
4342.000000	64.906239 
4341.000000	64.893770 
4340.000000	64.863061 
4339.000000	64.818739 
4338.000000	64.767670 
4337.000000	64.717364 
4336.000000	64.675021 
4335.000000	64.646315 
4334.000000	64.634680 
4333.000000	64.641022 
4332.000000	64.664030 
4331.000000	64.700412 
4330.000000	64.745473 
4329.000000	64.793658 
4328.000000	64.838862 
4327.000000	64.875388 
4326.000000	64.897894 
4325.000000	64.903092 
4324.000000	64.890193 
4323.000000	64.861941 
4322.000000	64.823698 
4321.000000	64.783358 
4320.000000	64.750027 
4319.000000	64.732027 
4318.000000	64.735698 
4317.000000	64.763283 
4316.000000	64.812850 
4315.000000	64.878177 
4314.000000	64.950275 
4313.000000	65.019249 
4312.000000	65.076518 
4311.000000	65.116167 
4310.000000	65.135622 
4309.000000	65.135765 
4308.000000	65.120172 
4307.000000	65.093684 
4306.000000	65.061235 
4305.000000	65.027403 
4304.000000	64.995574 
4303.000000	64.968419 
4302.000000	64.947342 
4301.000000	64.932966 
4300.000000	64.924883 
4299.000000	64.921689 
4298.000000	64.921593 
4297.000000	64.922380 
4296.000000	64.922761 
4295.000000	64.921593 
4294.000000	64.919328 
4293.000000	64.917683 
4292.000000	64.919400 
4291.000000	64.927363 
4290.000000	64.943647 
4289.000000	64.968657 
4288.000000	65.000534 
4287.000000	65.035438 
4286.000000	65.067911 
4285.000000	65.092182 
4284.000000	65.103220 
4283.000000	65.098023 
4282.000000	65.075731 
4281.000000	65.037918 
4280.000000	64.987683 
4279.000000	64.929032 
4278.000000	64.866185 
4277.000000	64.802956 
4276.000000	64.742875 
4275.000000	64.688682 
4274.000000	64.642763 
4273.000000	64.606881 
4272.000000	64.582490 
4271.000000	64.570546 
4270.000000	64.570760 
4269.000000	64.581894 
4268.000000	64.601206 
4267.000000	64.625406 
4266.000000	64.650511 
4265.000000	64.673113 
4264.000000	64.690637 
4263.000000	64.702463 
4262.000000	64.709448 
4261.000000	64.714050 
4260.000000	64.719271 
4259.000000	64.728355 
4258.000000	64.743661 
4257.000000	64.766240 
4256.000000	64.795708 
4255.000000	64.830374 
4254.000000	64.867901 
4253.000000	64.905714 
4252.000000	64.941620 
4251.000000	64.973902 
4250.000000	65.001606 
4249.000000	65.024352 
4248.000000	65.042400 
4247.000000	65.056133 
4246.000000	65.066123 
4245.000000	65.073132 
4244.000000	65.078210 
4243.000000	65.082764 
4242.000000	65.088033 
4241.000000	65.095639 
4240.000000	65.106606 
4239.000000	65.121507 
4238.000000	65.139770 
4237.000000	65.160250 
4236.000000	65.180850 
4235.000000	65.199375 
4234.000000	65.213608 
4233.000000	65.221834 
4232.000000	65.222883 
4231.000000	65.216350 
4230.000000	65.202569 
4229.000000	65.182423 
4228.000000	65.158057 
4227.000000	65.132451 
4226.000000	65.109157 
4225.000000	65.091562 
4224.000000	65.082406 
4223.000000	65.082931 
4222.000000	65.092253 
4221.000000	65.107488 
4220.000000	65.124487 
4219.000000	65.138697 
4218.000000	65.146136 
4217.000000	65.144562 
4216.000000	65.134167 
4215.000000	65.117478 
4214.000000	65.098524 
4213.000000	65.082049 
4212.000000	65.071964 
4211.000000	65.070652 
4210.000000	65.078496 
4209.000000	65.093970 
4208.000000	65.114521 
4207.000000	65.136957 
4206.000000	65.158867 
4205.000000	65.177726 
4204.000000	65.191340 
4203.000000	65.197515 
4202.000000	65.194368 
4201.000000	65.180754 
4200.000000	65.156579 
4199.000000	65.123438 
4198.000000	65.084505 
4197.000000	65.044355 
4196.000000	65.008139 
4195.000000	64.980363 
4194.000000	64.963841 
4193.000000	64.959049 
4192.000000	64.964199 
4191.000000	64.975428 
4190.000000	64.988303 
4189.000000	64.999127 
4188.000000	65.005826 
4187.000000	65.008020 
4186.000000	65.007424 
4185.000000	65.006160 
4184.000000	65.007328 
4183.000000	65.012478 
4182.000000	65.023374 
4181.000000	65.041160 
4180.000000	65.067172 
4179.000000	65.102934 
4178.000000	65.149354 
4177.000000	65.206313 
4176.000000	65.271377 
4175.000000	65.339636 
4174.000000	65.403604 
4173.000000	65.454435 
4172.000000	65.483522 
4171.000000	65.484547 
4170.000000	65.455245 
4169.000000	65.398097 
4168.000000	65.320467 
4167.000000	65.232944 
4166.000000	65.147089 
4165.000000	65.072560 
4164.000000	65.015959 
4163.000000	64.979195 
4162.000000	64.960098 
4161.000000	64.953112 
4160.000000	64.951920 
4159.000000	64.950585 
4158.000000	64.944744 
4157.000000	64.932751 
4156.000000	64.914417 
4155.000000	64.891910 
4154.000000	64.867782 
4153.000000	64.845013 
4152.000000	64.825868 
4151.000000	64.811873 
4150.000000	64.803552 
4149.000000	64.800596 
4148.000000	64.802193 
4147.000000	64.807105 
4146.000000	64.814019 
4145.000000	64.821767 
4144.000000	64.829349 
4143.000000	64.836215 
4142.000000	64.842319 
4141.000000	64.848208 
4140.000000	64.854931 
4139.000000	64.863705 
4138.000000	64.875650 
4137.000000	64.891457 
4136.000000	64.911341 
4135.000000	64.934635 
4134.000000	64.959979 
4133.000000	64.986014 
4132.000000	65.011167 
4131.000000	65.033960 
4130.000000	65.053224 
4129.000000	65.068244 
4128.000000	65.079092 
4127.000000	65.086913 
4126.000000	65.093111 
4125.000000	65.099191 
4124.000000	65.106344 
4123.000000	65.115284 
4122.000000	65.126252 
4121.000000	65.139055 
4120.000000	65.153980 
4119.000000	65.171718 
4118.000000	65.194010 
4117.000000	65.223050 
4116.000000	65.261101 
4115.000000	65.309286 
4114.000000	65.367031 
4113.000000	65.431165 
4112.000000	65.496444 
4111.000000	65.556001 
4110.000000	65.603113 
4109.000000	65.632247 
4108.000000	65.640807 
4107.000000	65.628886 
4106.000000	65.600252 
4105.000000	65.559530 
4104.000000	65.512084 
4103.000000	65.461444 
4102.000000	65.409231 
4101.000000	65.354800 
4100.000000	65.296578 
4099.000000	65.233135 
4098.000000	65.164732 
4097.000000	65.094017 
4096.000000	65.026116 
4095.000000	64.967393 
4094.000000	64.923906 
4093.000000	64.899682 
4092.000000	64.895462 
4091.000000	64.908361 
4090.000000	64.932394 
4089.000000	64.960408 
4088.000000	64.985823 
4087.000000	65.004253 
4086.000000	65.014457 
4085.000000	65.018177 
4084.000000	65.019321 
4083.000000	65.022087 
4082.000000	65.029525 
4081.000000	65.042948 
4080.000000	65.061044 
4079.000000	65.081000 
4078.000000	65.098571 
4077.000000	65.109848 
4076.000000	65.111804 
4075.000000	65.103435 
4074.000000	65.085697 
4073.000000	65.061020 
4072.000000	65.033030 
4071.000000	65.005946 
4070.000000	64.983558 
4069.000000	64.968085 
4068.000000	64.960789 
4067.000000	64.962148 
4066.000000	64.971661 
4065.000000	64.988231 
4064.000000	65.010380 
4063.000000	65.036487 
4062.000000	65.064501 
4061.000000	65.091896 
4060.000000	65.115761 
4059.000000	65.133142 
4058.000000	65.141940 
4057.000000	65.141439 
4056.000000	65.132284 
4055.000000	65.116763 
4054.000000	65.098643 
4053.000000	65.082478 
4052.000000	65.072274 
4051.000000	65.070843 
4050.000000	65.079045 
4049.000000	65.096259 
4048.000000	65.120029 
4047.000000	65.148162 
4046.000000	65.179133 
4045.000000	65.212965 
4044.000000	65.250945 
4043.000000	65.294885 
4042.000000	65.346169 
4041.000000	65.404272 
4040.000000	65.466380 
4039.000000	65.527105 
4038.000000	65.579438 
4037.000000	65.616297 
4036.000000	65.632009 
4035.000000	65.623664 
4034.000000	65.591526 
4033.000000	65.539050 
4032.000000	65.471887 
4031.000000	65.396928 
4030.000000	65.320777 
4029.000000	65.248823 
4028.000000	65.184617 
4027.000000	65.130209 
4026.000000	65.086245 
4025.000000	65.052700 
4024.000000	65.028738 
4023.000000	65.013313 
4022.000000	65.005254 
4021.000000	65.002298 
4020.000000	65.002417 
4019.000000	65.003156 
4018.000000	65.002870 
4017.000000	65.000295 
4016.000000	64.995884 
4015.000000	64.991307 
4014.000000	64.989089 
4013.000000	64.991903 
4012.000000	65.001893 
4011.000000	65.019845 
4010.000000	65.044641 
4009.000000	65.073299 
4008.000000	65.101265 
4007.000000	65.123319 
4006.000000	65.134954 
4005.000000	65.133309 
4004.000000	65.117669 
4003.000000	65.089750 
4002.000000	65.053462 
4001.000000	65.013813 
4000.000000	64.975452 
3999.000000	64.941787 
3998.000000	64.914941 
3997.000000	64.895272 
3996.000000	64.881706 
3995.000000	64.872550 
3994.000000	64.866375 
3993.000000	64.862298 
3992.000000	64.860296 
3991.000000	64.860796 
3990.000000	64.864110 
3989.000000	64.870405 
3988.000000	64.879322 
3987.000000	64.890146 
3986.000000	64.901876 
3985.000000	64.913868 
3984.000000	64.926314 
3983.000000	64.940309 
3982.000000	64.957618 
3981.000000	64.980053 
3980.000000	65.008997 
3979.000000	65.044784 
3978.000000	65.086555 
3977.000000	65.132474 
3976.000000	65.179967 
3975.000000	65.226578 
3974.000000	65.269827 
3973.000000	65.307974 
3972.000000	65.339493 
3971.000000	65.363192 
3970.000000	65.377759 
3969.000000	65.381932 
3968.000000	65.374326 
3967.000000	65.354156 
3966.000000	65.321350 
3965.000000	65.277171 
3964.000000	65.224051 
3963.000000	65.165519 
3962.000000	65.105891 
3961.000000	65.049815 
3960.000000	65.001535 
3959.000000	64.964127 
3958.000000	64.939761 
3957.000000	64.929556 
3956.000000	64.933538 
3955.000000	64.950776 
3954.000000	64.979457 
3953.000000	65.017175 
3952.000000	65.060424 
3951.000000	65.105032 
3950.000000	65.146327 
3949.000000	65.179562 
3948.000000	65.200853 
3947.000000	65.207576 
3946.000000	65.199255 
3945.000000	65.177202 
3944.000000	65.144896 
3943.000000	65.106439 
3942.000000	65.066266 
3941.000000	65.027379 
3940.000000	64.991402 
3939.000000	64.957857 
3938.000000	64.925003 
3937.000000	64.890456 
3936.000000	64.852452 
3935.000000	64.810466 
3934.000000	64.765667 
3933.000000	64.720821 
3932.000000	64.679884 
3931.000000	64.646935 
3930.000000	64.625215 
3929.000000	64.616465 
3928.000000	64.620900 
3927.000000	64.637207 
3926.000000	64.663147 
3925.000000	64.695978 
3924.000000	64.733314 
3923.000000	64.773440 
3922.000000	64.815521 
3921.000000	64.858627 
3920.000000	64.901995 
3919.000000	64.944529 
3918.000000	64.984631 
3917.000000	65.020179 
3916.000000	65.048813 
3915.000000	65.068578 
3914.000000	65.078043 
3913.000000	65.077328 
3912.000000	65.067648 
3911.000000	65.051364 
3910.000000	65.031623 
3909.000000	65.012240 
3908.000000	64.996433 
3907.000000	64.986610 
3906.000000	64.983773 
3905.000000	64.987897 
3904.000000	64.997816 
3903.000000	65.011572 
3902.000000	65.026879 
3901.000000	65.041661 
3900.000000	65.054225 
3899.000000	65.063452 
3898.000000	65.068912 
3897.000000	65.070724 
3896.000000	65.069127 
3895.000000	65.064454 
3894.000000	65.056920 
3893.000000	65.046739 
3892.000000	65.034317 
3891.000000	65.020394 
3890.000000	65.005946 
3889.000000	64.992284 
3888.000000	64.980864 
3887.000000	64.972996 
3886.000000	64.969754 
3885.000000	64.971709 
3884.000000	64.978909 
3883.000000	64.990758 
3882.000000	65.006089 
3881.000000	65.022921 
3880.000000	65.038919 
3879.000000	65.051317 
3878.000000	65.057516 
3877.000000	65.055346 
3876.000000	65.043663 
3875.000000	65.022873 
3874.000000	64.994978 
3873.000000	64.963316 
3872.000000	64.932084 
3871.000000	64.905571 
3870.000000	64.887452 
3869.000000	64.879965 
3868.000000	64.883804 
3867.000000	64.897918 
3866.000000	64.920282 
3865.000000	64.948225 
3864.000000	64.979648 
3863.000000	65.013003 
3862.000000	65.047812 
3861.000000	65.084362 
3860.000000	65.122938 
3859.000000	65.163302 
3858.000000	65.204071 
3857.000000	65.242362 
3856.000000	65.274286 
3855.000000	65.295696 
3854.000000	65.303444 
3853.000000	65.296196 
3852.000000	65.275287 
3851.000000	65.244531 
3850.000000	65.209603 
3849.000000	65.176773 
3848.000000	65.151572 
3847.000000	65.137791 
3846.000000	65.137076 
3845.000000	65.148782 
3844.000000	65.170741 
3843.000000	65.199804 
3842.000000	65.232610 
3841.000000	65.266180 
3840.000000	65.298032 
3839.000000	65.326476 
3838.000000	65.350103 
3837.000000	65.367865 
3836.000000	65.379142 
3835.000000	65.383386 
3834.000000	65.380597 
3833.000000	65.370965 
3832.000000	65.355300 
3831.000000	65.334582 
3830.000000	65.310406 
3829.000000	65.284013 
3828.000000	65.256524 
3827.000000	65.228652 
3826.000000	65.200996 
3825.000000	65.174102 
3824.000000	65.148711 
3823.000000	65.125823 
3822.000000	65.106797 
3821.000000	65.093088 
3820.000000	65.085840 
3819.000000	65.085554 
3818.000000	65.091872 
3817.000000	65.103363 
3816.000000	65.117788 
3815.000000	65.132474 
3814.000000	65.145087 
3813.000000	65.153956 
3812.000000	65.158724 
3811.000000	65.160560 
3810.000000	65.161538 
3809.000000	65.164184 
3808.000000	65.170097 
3807.000000	65.179491 
3806.000000	65.190720 
3805.000000	65.200519 
3804.000000	65.204954 
3803.000000	65.200495 
3802.000000	65.185236 
3801.000000	65.159916 
3800.000000	65.127658 
3799.000000	65.093517 
3798.000000	65.063142 
3797.000000	65.041637 
3796.000000	65.031933 
3795.000000	65.034008 
3794.000000	65.045285 
3793.000000	65.061235 
3792.000000	65.076756 
3791.000000	65.087366 
3790.000000	65.090394 
3789.000000	65.085482 
3788.000000	65.074014 
3787.000000	65.058922 
3786.000000	65.043258 
3785.000000	65.029859 
3784.000000	65.020442 
3783.000000	65.015935 
3782.000000	65.016436 
3781.000000	65.021514 
3780.000000	65.030455 
3779.000000	65.042710 
3778.000000	65.057444 
3777.000000	65.074110 
3776.000000	65.091753 
3775.000000	65.109705 
3774.000000	65.126991 
3773.000000	65.143084 
3772.000000	65.157890 
3771.000000	65.171623 
3770.000000	65.184783 
3769.000000	65.197539 
3768.000000	65.209507 
3767.000000	65.219688 
3766.000000	65.226483 
3765.000000	65.228366 
3764.000000	65.224313 
3763.000000	65.214443 
3762.000000	65.200185 
3761.000000	65.184426 
3760.000000	65.170860 
3759.000000	65.163087 
3758.000000	65.163755 
3757.000000	65.174317 
3756.000000	65.194272 
3755.000000	65.221691 
3754.000000	65.253257 
3753.000000	65.285158 
3752.000000	65.313673 
3751.000000	65.335869 
3750.000000	65.349984 
3749.000000	65.355420 
3748.000000	65.352749 
3747.000000	65.343427 
3746.000000	65.329647 
3745.000000	65.314006 
3744.000000	65.299010 
3743.000000	65.286803 
3742.000000	65.278458 
3741.000000	65.274024 
3740.000000	65.272045 
3739.000000	65.270066 
3738.000000	65.264987 
3737.000000	65.253925 
3736.000000	65.234827 
3735.000000	65.207219 
3734.000000	65.172338 
3733.000000	65.133166 
3732.000000	65.093421 
3731.000000	65.057516 
3730.000000	65.028953 
3729.000000	65.010523 
3728.000000	65.003061 
3727.000000	65.006089 
3726.000000	65.017724 
3725.000000	65.035462 
3724.000000	65.056467 
3723.000000	65.078282 
3722.000000	65.099000 
3721.000000	65.117478 
3720.000000	65.132951 
3719.000000	65.145087 
3718.000000	65.153479 
3717.000000	65.158057 
3716.000000	65.158867 
3715.000000	65.156030 
3714.000000	65.149688 
3713.000000	65.140533 
3712.000000	65.129661 
3711.000000	65.118336 
3710.000000	65.107703 
3709.000000	65.098905 
3708.000000	65.092658 
3707.000000	65.088939 
3706.000000	65.087056 
3705.000000	65.085887 
3704.000000	65.084099 
3703.000000	65.080618 
3702.000000	65.074968 
3701.000000	65.067219 
3700.000000	65.058255 
3699.000000	65.049314 
3698.000000	65.042114 
3697.000000	65.037822 
3696.000000	65.037631 
3695.000000	65.042448 
3694.000000	65.052890 
3693.000000	65.069103 
3692.000000	65.090990 
3691.000000	65.118050 
3690.000000	65.149569 
3689.000000	65.184354 
3688.000000	65.221095 
3687.000000	65.258502 
3686.000000	65.295600 
3685.000000	65.331625 
3684.000000	65.366339 
3683.000000	65.399622 
3682.000000	65.431690 
3681.000000	65.462493 
3680.000000	65.491628 
3679.000000	65.517616 
3678.000000	65.538835 
3677.000000	65.552711 
3676.000000	65.557074 
3675.000000	65.549516 
3674.000000	65.529060 
3673.000000	65.495467 
3672.000000	65.449976 
3671.000000	65.395164 
3670.000000	65.334630 
3669.000000	65.272712 
3668.000000	65.214252 
3667.000000	65.163779 
3666.000000	65.125179 
3665.000000	65.100860 
3664.000000	65.091609 
3663.000000	65.096163 
3662.000000	65.111684 
3661.000000	65.133976 
3660.000000	65.158486 
3659.000000	65.181064 
3658.000000	65.198564 
3657.000000	65.209770 
3656.000000	65.215325 
3655.000000	65.217304 
3654.000000	65.218329 
3653.000000	65.220880 
3652.000000	65.226244 
3651.000000	65.234231 
3650.000000	65.242862 
3649.000000	65.249490 
3648.000000	65.251207 
3647.000000	65.245842 
3646.000000	65.232443 
3645.000000	65.211725 
3644.000000	65.185689 
3643.000000	65.157246 
3642.000000	65.129733 
3641.000000	65.106010 
3640.000000	65.088391 
3639.000000	65.078401 
3638.000000	65.076708 
3637.000000	65.083193 
3636.000000	65.097355 
3635.000000	65.118312 
3634.000000	65.144920 
3633.000000	65.175604 
3632.000000	65.208482 
3631.000000	65.241384 
3630.000000	65.272307 
3629.000000	65.299463 
3628.000000	65.321564 
3627.000000	65.337514 
3626.000000	65.346837 
3625.000000	65.349650 
3624.000000	65.346240 
3623.000000	65.337109 
3622.000000	65.323257 
3621.000000	65.305972 
3620.000000	65.287160 
3619.000000	65.268731 
3618.000000	65.253043 
3617.000000	65.241765 
3616.000000	65.236115 
3615.000000	65.236234 
3614.000000	65.241050 
3613.000000	65.248799 
3612.000000	65.257263 
3611.000000	65.264534 
3610.000000	65.269398 
3609.000000	65.271830 
3608.000000	65.272784 
3607.000000	65.273427 
3606.000000	65.274739 
3605.000000	65.276527 
3604.000000	65.277433 
3603.000000	65.274906 
3602.000000	65.265917 
3601.000000	65.247893 
3600.000000	65.219449 
3599.000000	65.181374 
3598.000000	65.136456 
3597.000000	65.089201 
3596.000000	65.044784 
3595.000000	65.008258 
3594.000000	64.983415 
3593.000000	64.971899 
3592.000000	64.973330 
3591.000000	64.985656 
3590.000000	65.005898 
3589.000000	65.030527 
3588.000000	65.056586 
3587.000000	65.081715 
3586.000000	65.104603 
3585.000000	65.124392 
3584.000000	65.141105 
3583.000000	65.154838 
3582.000000	65.166020 
3581.000000	65.175247 
3580.000000	65.183281 
3579.000000	65.190911 
3578.000000	65.199065 
3577.000000	65.208697 
3576.000000	65.220403 
3575.000000	65.234255 
3574.000000	65.249824 
3573.000000	65.266132 
3572.000000	65.281820 
3571.000000	65.294933 
3570.000000	65.303802 
3569.000000	65.306591 
3568.000000	65.301704 
3567.000000	65.287613 
3566.000000	65.263652 
3565.000000	65.229940 
3564.000000	65.187621 
3563.000000	65.139174 
3562.000000	65.088343 
3561.000000	65.039801 
3560.000000	64.998459 
3559.000000	64.968705 
3558.000000	64.953327 
3557.000000	64.953446 
3556.000000	64.968109 
3555.000000	64.994645 
3554.000000	65.028905 
3553.000000	65.066599 
3552.000000	65.103864 
3551.000000	65.137863 
3550.000000	65.166783 
3549.000000	65.189838 
3548.000000	65.206861 
3547.000000	65.217828 
3546.000000	65.222764 
3545.000000	65.221834 
3544.000000	65.215420 
3543.000000	65.204954 
3542.000000	65.192437 
3541.000000	65.180444 
3540.000000	65.171408 
3539.000000	65.167641 
3538.000000	65.170121 
3537.000000	65.178489 
3536.000000	65.190815 
3535.000000	65.204191 
3534.000000	65.215277 
3533.000000	65.220904 
3532.000000	65.218949 
3531.000000	65.208792 
3530.000000	65.191364 
3529.000000	65.168571 
3528.000000	65.142989 
3527.000000	65.117311 
3526.000000	65.093398 
3525.000000	65.072107 
3524.000000	65.053462 
3523.000000	65.036797 
3522.000000	65.021562 
3521.000000	65.007567 
3520.000000	64.995360 
3519.000000	64.986252 
3518.000000	64.982128 
3517.000000	64.984822 
3516.000000	64.995646 
3515.000000	65.014624 
3514.000000	65.040540 
3513.000000	65.070867 
3512.000000	65.102005 
3511.000000	65.130066 
3510.000000	65.151715 
3509.000000	65.164613 
3508.000000	65.167832 
3507.000000	65.161919 
3506.000000	65.148520 
3505.000000	65.130162 
3504.000000	65.109658 
3503.000000	65.089893 
3502.000000	65.073323 
3501.000000	65.061879 
3500.000000	65.056967 
3499.000000	65.059351 
3498.000000	65.069317 
3497.000000	65.086388 
3496.000000	65.109634 
3495.000000	65.137553 
3494.000000	65.168285 
3493.000000	65.199947 
3492.000000	65.230393 
3491.000000	65.257740 
3490.000000	65.280055 
3489.000000	65.295886 
3488.000000	65.304064 
3487.000000	65.303802 
3486.000000	65.294694 
3485.000000	65.277123 
3484.000000	65.252232 
3483.000000	65.222144 
3482.000000	65.189695 
3481.000000	65.158295 
3480.000000	65.131378 
3479.000000	65.112090 
3478.000000	65.102291 
3477.000000	65.102219 
3476.000000	65.110135 
3475.000000	65.122604 
3474.000000	65.135121 
3473.000000	65.143060 
3472.000000	65.142726 
3471.000000	65.132236 
3470.000000	65.111970 
3469.000000	65.084505 
3468.000000	65.054059 
3467.000000	65.025520 
3466.000000	65.003228 
3465.000000	64.990305 
3464.000000	64.988040 
3463.000000	64.996051 
3462.000000	65.012598 
3461.000000	65.035080 
3460.000000	65.060901 
3459.000000	65.087652 
3458.000000	65.113282 
3457.000000	65.135955 
3456.000000	65.153837 
3455.000000	65.165257 
3454.000000	65.168404 
3453.000000	65.162205 
3452.000000	65.146398 
3451.000000	65.122413 
3450.000000	65.093350 
3449.000000	65.063619 
3448.000000	65.038108 
3447.000000	65.021157 
3446.000000	65.015697 
3445.000000	65.022444 
3444.000000	65.039682 
3443.000000	65.063881 
3442.000000	65.090298 
3441.000000	65.114283 
3440.000000	65.132331 
3439.000000	65.142703 
3438.000000	65.145564 
3437.000000	65.142607 
3436.000000	65.136384 
3435.000000	65.129446 
3434.000000	65.123891 
3433.000000	65.120840 
3432.000000	65.120339 
3431.000000	65.121912 
3430.000000	65.124821 
3429.000000	65.128755 
3428.000000	65.133690 
3427.000000	65.139985 
3426.000000	65.148091 
3425.000000	65.158414 
3424.000000	65.171003 
3423.000000	65.185165 
3422.000000	65.199589 
3421.000000	65.212535 
3420.000000	65.222096 
3419.000000	65.226721 
3418.000000	65.225267 
3417.000000	65.217089 
3416.000000	65.202474 
3415.000000	65.182566 
3414.000000	65.159416 
3413.000000	65.135788 
3412.000000	65.114712 
3411.000000	65.098929 
3410.000000	65.090703 
3409.000000	65.090894 
3408.000000	65.098834 
3407.000000	65.112209 
3406.000000	65.127563 
3405.000000	65.141034 
3404.000000	65.148997 
3403.000000	65.149164 
3402.000000	65.140581 
3401.000000	65.124249 
3400.000000	65.102624 
3399.000000	65.079188 
3398.000000	65.057277 
3397.000000	65.039825 
3396.000000	65.028524 
3395.000000	65.024018 
3394.000000	65.025973 
3393.000000	65.033340 
3392.000000	65.044736 
3391.000000	65.058469 
3390.000000	65.072822 
3389.000000	65.085816 
3388.000000	65.095376 
3387.000000	65.099763 
3386.000000	65.097689 
3385.000000	65.088629 
3384.000000	65.073275 
3383.000000	65.053200 
3382.000000	65.031051 
3381.000000	65.009927 
3380.000000	64.992880 
3379.000000	64.982557 
3378.000000	64.980673 
3377.000000	64.987945 
3376.000000	65.003967 
3375.000000	65.027451 
3374.000000	65.056395 
3373.000000	65.088629 
3372.000000	65.121793 
3371.000000	65.153455 
3370.000000	65.181279 
3369.000000	65.203309 
3368.000000	65.217924 
3367.000000	65.223884 
3366.000000	65.220689 
3365.000000	65.208816 
3364.000000	65.189647 
3363.000000	65.165162 
3362.000000	65.137982 
3361.000000	65.110945 
3360.000000	65.086936 
3359.000000	65.068364 
3358.000000	65.056848 
3357.000000	65.052795 
3356.000000	65.055394 
3355.000000	65.062785 
3354.000000	65.072131 
3353.000000	65.080571 
3352.000000	65.085506 
3351.000000	65.085911 
3350.000000	65.081954 
3349.000000	65.075635 
3348.000000	65.069770 
3347.000000	65.067815 
3346.000000	65.072727 
3345.000000	65.086531 
3344.000000	65.109610 
3343.000000	65.140748 
3342.000000	65.177273 
3341.000000	65.215682 
3340.000000	65.252518 
3339.000000	65.284776 
3338.000000	65.310192 
3337.000000	65.327477 
3336.000000	65.336251 
3335.000000	65.336608 
3334.000000	65.328931 
3333.000000	65.313839 
3332.000000	65.292000 
3331.000000	65.264630 
3330.000000	65.233349 
3329.000000	65.200233 
3328.000000	65.167808 
3327.000000	65.138792 
3326.000000	65.115690 
3325.000000	65.100431 
3324.000000	65.094208 
3323.000000	65.097165 
3322.000000	65.108442 
3321.000000	65.126562 
3320.000000	65.149402 
3319.000000	65.174698 
3318.000000	65.200090 
3317.000000	65.223312 
3316.000000	65.242362 
3315.000000	65.255427 
3314.000000	65.261173 
3313.000000	65.258812 
3312.000000	65.248322 
3311.000000	65.230464 
3310.000000	65.206813 
3309.000000	65.179872 
3308.000000	65.152359 
3307.000000	65.126919 
3306.000000	65.105700 
3305.000000	65.090107 
3304.000000	65.080380 
3303.000000	65.075826 
3302.000000	65.074896 
3301.000000	65.075540 
3300.000000	65.075874 
3299.000000	65.074825 
3298.000000	65.071868 
3297.000000	65.067672 
3296.000000	65.063524 
3295.000000	65.060925 
3294.000000	65.060687 
3293.000000	65.063023 
3292.000000	65.067219 
3291.000000	65.071940 
3290.000000	65.075612 
3289.000000	65.077114 
3288.000000	65.076017 
3287.000000	65.072679 
3286.000000	65.068173 
3285.000000	65.063858 
3284.000000	65.060877 
3283.000000	65.059876 
3282.000000	65.060782 
3281.000000	65.062952 
3280.000000	65.065550 
3279.000000	65.067958 
3278.000000	65.069866 
3277.000000	65.071678 
3276.000000	65.074205 
3275.000000	65.078020 
3274.000000	65.083456 
3273.000000	65.089988 
3272.000000	65.096926 
3271.000000	65.103435 
3270.000000	65.109276 
3269.000000	65.114855 
3268.000000	65.121126 
3267.000000	65.129351 
3266.000000	65.140533 
3265.000000	65.154957 
3264.000000	65.172052 
3263.000000	65.190410 
3262.000000	65.208125 
3261.000000	65.223169 
3260.000000	65.233874 
3259.000000	65.239143 
3258.000000	65.238618 
3257.000000	65.232491 
3256.000000	65.221476 
3255.000000	65.206575 
3254.000000	65.188980 
3253.000000	65.169906 
3252.000000	65.150666 
3251.000000	65.132260 
3250.000000	65.115642 
3249.000000	65.101289 
3248.000000	65.088891 
3247.000000	65.077590 
3246.000000	65.065550 
3245.000000	65.051555 
3244.000000	65.034818 
3243.000000	65.016174 
3242.000000	64.997720 
3241.000000	64.982318 
3240.000000	64.972972 
3239.000000	64.971780 
3238.000000	64.978957 
3237.000000	64.992737 
3236.000000	65.009903 
3235.000000	65.026330 
3234.000000	65.038084 
3233.000000	65.042662 
3232.000000	65.039587 
3231.000000	65.030527 
3230.000000	65.018725 
3229.000000	65.008449 
3228.000000	65.003609 
3227.000000	65.007162 
3226.000000	65.020346 
3225.000000	65.042376 
3224.000000	65.070581 
3223.000000	65.101385 
3222.000000	65.130829 
3221.000000	65.154981 
3220.000000	65.170764 
3219.000000	65.176248 
3218.000000	65.171146 
3217.000000	65.156793 
3216.000000	65.135860 
3215.000000	65.112280 
3214.000000	65.089917 
3213.000000	65.072321 
3212.000000	65.061473 
3211.000000	65.057754 
3210.000000	65.059661 
3209.000000	65.064358 
3208.000000	65.068554 
3207.000000	65.069317 
3206.000000	65.065050 
3205.000000	65.055775 
3204.000000	65.043425 
3203.000000	65.031147 
3202.000000	65.022802 
3201.000000	65.021944 
3200.000000	65.031003 
3199.000000	65.050482 
3198.000000	65.079092 
3197.000000	65.113806 
3196.000000	65.150570 
3195.000000	65.184974 
3194.000000	65.212988 
3193.000000	65.231394 
3192.000000	65.238523 
3191.000000	65.233922 
3190.000000	65.218734 
3189.000000	65.194964 
3188.000000	65.165591 
3187.000000	65.133738 
3186.000000	65.102553 
3185.000000	65.074682 
3184.000000	65.052318 
3183.000000	65.036725 
3182.000000	65.028452 
3181.000000	65.027093 
3180.000000	65.031719 
3179.000000	65.040898 
3178.000000	65.052843 
3177.000000	65.065670 
3176.000000	65.077662 
3175.000000	65.087461 
3174.000000	65.094017 
3173.000000	65.096926 
3172.000000	65.096259 
3171.000000	65.092658 
3170.000000	65.087437 
3169.000000	65.082144 
3168.000000	65.078616 
3167.000000	65.078616 
3166.000000	65.083718 
3165.000000	65.094614 
3164.000000	65.111136 
3163.000000	65.132355 
3162.000000	65.156364 
3161.000000	65.180611 
3160.000000	65.202283 
3159.000000	65.218710 
3158.000000	65.228009 
3157.000000	65.229344 
3156.000000	65.223264 
3155.000000	65.211510 
3154.000000	65.196943 
3153.000000	65.182948 
3152.000000	65.172696 
3151.000000	65.168929 
3150.000000	65.172958 
3149.000000	65.184783 
3148.000000	65.202856 
3147.000000	65.224671 
3146.000000	65.247058 
3145.000000	65.266752 
3144.000000	65.281224 
3143.000000	65.288853 
3142.000000	65.289020 
3141.000000	65.282177 
3140.000000	65.269446 
3139.000000	65.252232 
3138.000000	65.232110 
3137.000000	65.210270 
3136.000000	65.187883 
3135.000000	65.165829 
3134.000000	65.145087 
3133.000000	65.126681 
3132.000000	65.111899 
3131.000000	65.101909 
3130.000000	65.097594 
3129.000000	65.099000 
3128.000000	65.105199 
3127.000000	65.114283 
3126.000000	65.123534 
3125.000000	65.130114 
3124.000000	65.131521 
3123.000000	65.126299 
3122.000000	65.114498 
3121.000000	65.097403 
3120.000000	65.077304 
3119.000000	65.056729 
3118.000000	65.038084 
3117.000000	65.022993 
3116.000000	65.012216 
3115.000000	65.005421 
3114.000000	65.001749 
3113.000000	64.999961 
3112.000000	64.998984 
3111.000000	64.997887 
3110.000000	64.996361 
3109.000000	64.994382 
3108.000000	64.992451 
3107.000000	64.991092 
3106.000000	64.990878 
3105.000000	64.992332 
3104.000000	64.996170 
3103.000000	65.003085 
3102.000000	65.013837 
3101.000000	65.029168 
3100.000000	65.049648 
3099.000000	65.075421 
3098.000000	65.105986 
3097.000000	65.140056 
3096.000000	65.175342 
3095.000000	65.208959 
3094.000000	65.237545 
3093.000000	65.258073 
3092.000000	65.268063 
3091.000000	65.266346 
3090.000000	65.253257 
3089.000000	65.230727 
3088.000000	65.202212 
3087.000000	65.171837 
3086.000000	65.143775 
3085.000000	65.121316 
3084.000000	65.106439 
3083.000000	65.099525 
3082.000000	65.099310 
3081.000000	65.103578 
3080.000000	65.109658 
3079.000000	65.115213 
3078.000000	65.118694 
3077.000000	65.119767 
3076.000000	65.119075 
3075.000000	65.117859 
3074.000000	65.117335 
3073.000000	65.118098 
3072.000000	65.119934 
3071.000000	65.121626 
3070.000000	65.121054 
3069.000000	65.116071 
3068.000000	65.104913 
3067.000000	65.086746 
3066.000000	65.062236 
3065.000000	65.033221 
3064.000000	65.002346 
3063.000000	64.972686 
3062.000000	64.946889 
3061.000000	64.926695 
3060.000000	64.912772 
3059.000000	64.904618 
3058.000000	64.900922 
3057.000000	64.900135 
3056.000000	64.900851 
3055.000000	64.902043 
3054.000000	64.903593 
3053.000000	64.905738 
3052.000000	64.909458 
3051.000000	64.915466 
3050.000000	64.924836 
3049.000000	64.937949 
3048.000000	64.955091 
3047.000000	64.976024 
3046.000000	65.000152 
3045.000000	65.026569 
3044.000000	65.053844 
3043.000000	65.080380 
3042.000000	65.104174 
3041.000000	65.123462 
3040.000000	65.136671 
3039.000000	65.142893 
3038.000000	65.142202 
3037.000000	65.135884 
3036.000000	65.125894 
3035.000000	65.114831 
3034.000000	65.105223 
3033.000000	65.099143 
3032.000000	65.097641 
3031.000000	65.100598 
3030.000000	65.106940 
3029.000000	65.114974 
3028.000000	65.122890 
3027.000000	65.129351 
3026.000000	65.133714 
3025.000000	65.136241 
3024.000000	65.137982 
3023.000000	65.140271 
3022.000000	65.144205 
3021.000000	65.150356 
3020.000000	65.158414 
3019.000000	65.167188 
3018.000000	65.175151 
3017.000000	65.180706 
3016.000000	65.182852 
3015.000000	65.181493 
3014.000000	65.177440 
3013.000000	65.172386 
3012.000000	65.168499 
3011.000000	65.167665 
3010.000000	65.170979 
3009.000000	65.178465 
3008.000000	65.189027 
3007.000000	65.200495 
3006.000000	65.210103 
3005.000000	65.215134 
3004.000000	65.213441 
3003.000000	65.204000 
3002.000000	65.186929 
3001.000000	65.163326 
3000.000000	65.135383 
2999.000000	65.105676 
2998.000000	65.076923 
2997.000000	65.051841 
2996.000000	65.032482 
2995.000000	65.020155 
2994.000000	65.015220 
2993.000000	65.016913 
2992.000000	65.023708 
2991.000000	65.033221 
2990.000000	65.043044 
2989.000000	65.051102 
2988.000000	65.056252 
2987.000000	65.058040 
2986.000000	65.057110 
2985.000000	65.054798 
2984.000000	65.052628 
2983.000000	65.051817 
2982.000000	65.052962 
2981.000000	65.055942 
2980.000000	65.060091 
2979.000000	65.064454 
2978.000000	65.068483 
2977.000000	65.072107 
2976.000000	65.075922 
2975.000000	65.080690 
2974.000000	65.087032 
2973.000000	65.094780 
2972.000000	65.102910 
2971.000000	65.109562 
2970.000000	65.112543 
2969.000000	65.109872 
2968.000000	65.100765 
2967.000000	65.085506 
2966.000000	65.065431 
2965.000000	65.042686 
2964.000000	65.019750 
2963.000000	64.998674 
2962.000000	64.980626 
2961.000000	64.966011 
2960.000000	64.954471 
2959.000000	64.945507 
2958.000000	64.938759 
2957.000000	64.934110 
2956.000000	64.931702 
2955.000000	64.931702 
2954.000000	64.933872 
2953.000000	64.937400 
2952.000000	64.940977 
2951.000000	64.943075 
2950.000000	64.942622 
2949.000000	64.939427 
2948.000000	64.934182 
2947.000000	64.928221 
2946.000000	64.923405 
2945.000000	64.921212 
2944.000000	64.922738 
2943.000000	64.927983 
2942.000000	64.936470 
2941.000000	64.947271 
2940.000000	64.959335 
2939.000000	64.971733 
2938.000000	64.983916 
2937.000000	64.995598 
2936.000000	65.006494 
2935.000000	65.016126 
2934.000000	65.023756 
2933.000000	65.028214 
2932.000000	65.028619 
2931.000000	65.024423 
2930.000000	65.015935 
2929.000000	65.004372 
2928.000000	64.991641 
2927.000000	64.979863 
2926.000000	64.970707 
2925.000000	64.965438 
2924.000000	64.964365 
2923.000000	64.967060 
2922.000000	64.972472 
2921.000000	64.979577 
2920.000000	64.987182 
2919.000000	64.994812 
2918.000000	65.002226 
2917.000000	65.009808 
2916.000000	65.018582 
2915.000000	65.029621 
2914.000000	65.044069 
2913.000000	65.062332 
2912.000000	65.083932 
2911.000000	65.107154 
2910.000000	65.129542 
2909.000000	65.147948 
2908.000000	65.159296 
2907.000000	65.161323 
2906.000000	65.153098 
2905.000000	65.135383 
2904.000000	65.110540 
2903.000000	65.082263 
2902.000000	65.054702 
2901.000000	65.031528 
2900.000000	65.015172 
2899.000000	65.006446 
2898.000000	65.004491 
2897.000000	65.007114 
2896.000000	65.011405 
2895.000000	65.014576 
2894.000000	65.014624 
2893.000000	65.010547 
2892.000000	65.002632 
2891.000000	64.991903 
2890.000000	64.980030 
2889.000000	64.969134 
2888.000000	64.961147 
2887.000000	64.957380 
2886.000000	64.958620 
2885.000000	64.964866 
2884.000000	64.975404 
2883.000000	64.988994 
2882.000000	65.004181 
2881.000000	65.019536 
2880.000000	65.034079 
2879.000000	65.047168 
2878.000000	65.058851 
2877.000000	65.069580 
2876.000000	65.080070 
2875.000000	65.090942 
2874.000000	65.102458 
2873.000000	65.114045 
2872.000000	65.124750 
2871.000000	65.133213 
2870.000000	65.138006 
2869.000000	65.137910 
2868.000000	65.132546 
2867.000000	65.122222 
2866.000000	65.107798 
2865.000000	65.090584 
2864.000000	65.071773 
2863.000000	65.052604 
2862.000000	65.033960 
2861.000000	65.016531 
2860.000000	65.000891 
2859.000000	64.987468 
2858.000000	64.976763 
2857.000000	64.969301 
2856.000000	64.965319 
2855.000000	64.965224 
2854.000000	64.969110 
2853.000000	64.976906 
2852.000000	64.988136 
2851.000000	65.002298 
2850.000000	65.018749 
2849.000000	65.036702 
2848.000000	65.055346 
2847.000000	65.073800 
2846.000000	65.091252 
2845.000000	65.106821 
2844.000000	65.119743 
2843.000000	65.129423 
2842.000000	65.135717 
2841.000000	65.138959 
2840.000000	65.139722 
2839.000000	65.138912 
2838.000000	65.137410 
2837.000000	65.136003 
2836.000000	65.135169 
2835.000000	65.134954 
2834.000000	65.135049 
2833.000000	65.134978 
2832.000000	65.134072 
2831.000000	65.131592 
2830.000000	65.126776 
2829.000000	65.119194 
2828.000000	65.108752 
2827.000000	65.095734 
2826.000000	65.080785 
2825.000000	65.064907 
2824.000000	65.049171 
2823.000000	65.034699 
2822.000000	65.022277 
2821.000000	65.012407 
2820.000000	65.005254 
2819.000000	65.000724 
2818.000000	64.998340 
2817.000000	64.997410 
2816.000000	64.997315 
2815.000000	64.997410 
2814.000000	64.997243 
2813.000000	64.996552 
2812.000000	64.995574 
2811.000000	64.994978 
2810.000000	64.995622 
2809.000000	64.998340 
2808.000000	65.003919 
2807.000000	65.012764 
2806.000000	65.024709 
2805.000000	65.038990 
2804.000000	65.054178 
2803.000000	65.068626 
2802.000000	65.080761 
2801.000000	65.089273 
2800.000000	65.093278 
2799.000000	65.092587 
2798.000000	65.087699 
2797.000000	65.079307 
2796.000000	65.068244 
2795.000000	65.055346 
2794.000000	65.041303 
2793.000000	65.026760 
2792.000000	65.012264 
2791.000000	64.998555 
2790.000000	64.986610 
2789.000000	64.977478 
2788.000000	64.972186 
2787.000000	64.971351 
2786.000000	64.975070 
2785.000000	64.982891 
2784.000000	64.993786 
2783.000000	65.006160 
2782.000000	65.018415 
2781.000000	65.029096 
2780.000000	65.037298 
2779.000000	65.042710 
2778.000000	65.045738 
2777.000000	65.047097 
2776.000000	65.047693 
2775.000000	65.048313 
2774.000000	65.049672 
2773.000000	65.052103 
2772.000000	65.055751 
2771.000000	65.060544 
2770.000000	65.066218 
2769.000000	65.072488 
2768.000000	65.079069 
2767.000000	65.085530 
2766.000000	65.091514 
2765.000000	65.096449 
2764.000000	65.099835 
2763.000000	65.101075 
2762.000000	65.099287 
2761.000000	65.093541 
2760.000000	65.082883 
2759.000000	65.066981 
2758.000000	65.046143 
2757.000000	65.021681 
2756.000000	64.995861 
2755.000000	64.971780 
2754.000000	64.952802 
2753.000000	64.941763 
2752.000000	64.940404 
2751.000000	64.948964 
2750.000000	64.965915 
2749.000000	64.988231 
2748.000000	65.012049 
2747.000000	65.033483 
2746.000000	65.049481 
2745.000000	65.058517 
2744.000000	65.060782 
2743.000000	65.058231 
2742.000000	65.053701 
2741.000000	65.050315 
2740.000000	65.050530 
2739.000000	65.055751 
2738.000000	65.065860 
2737.000000	65.079641 
2736.000000	65.094876 
2735.000000	65.109109 
2734.000000	65.120124 
2733.000000	65.126490 
2732.000000	65.127873 
2731.000000	65.124893 
2730.000000	65.119028 
2729.000000	65.112161 
2728.000000	65.105795 
2727.000000	65.100979 
2726.000000	65.097856 
2725.000000	65.095901 
2724.000000	65.094161 
2723.000000	65.091562 
2722.000000	65.087437 
2721.000000	65.081858 
2720.000000	65.075469 
2719.000000	65.069437 
2718.000000	65.064930 
2717.000000	65.062785 
2716.000000	65.063214 
2715.000000	65.065574 
2714.000000	65.068793 
2713.000000	65.071487 
2712.000000	65.072965 
2711.000000	65.073299 
2710.000000	65.073633 
2709.000000	65.075802 
2708.000000	65.081691 
2707.000000	65.092658 
2706.000000	65.108823 
2705.000000	65.128946 
2704.000000	65.150666 
2703.000000	65.170812 
2702.000000	65.186333 
2701.000000	65.194678 
2700.000000	65.194582 
2699.000000	65.185928 
2698.000000	65.169763 
2697.000000	65.147900 
2696.000000	65.122294 
2695.000000	65.094923 
2694.000000	65.067625 
2693.000000	65.041971 
2692.000000	65.019273 
2691.000000	65.000915 
2690.000000	64.988183 
2689.000000	64.982008 
2688.000000	64.982795 
2687.000000	64.990091 
2686.000000	65.002512 
2685.000000	65.018153 
2684.000000	65.034747 
2683.000000	65.050268 
2682.000000	65.063238 
2681.000000	65.072965 
2680.000000	65.079593 
2679.000000	65.083765 
2678.000000	65.086126 
2677.000000	65.087246 
2676.000000	65.086960 
2675.000000	65.084838 
2674.000000	65.080046 
2673.000000	65.071916 
2672.000000	65.060353 
2671.000000	65.046119 
2670.000000	65.030646 
2669.000000	65.016078 
2668.000000	65.004730 
2667.000000	64.998698 
2666.000000	64.999222 
2665.000000	65.006494 
2664.000000	65.019583 
2663.000000	65.036892 
2662.000000	65.056204 
2661.000000	65.075182 
2660.000000	65.091657 
2659.000000	65.104103 
2658.000000	65.111541 
2657.000000	65.113639 
2656.000000	65.110659 
2655.000000	65.103244 
2654.000000	65.092444 
2653.000000	65.079426 
2652.000000	65.065479 
2651.000000	65.052008 
2650.000000	65.040326 
2649.000000	65.031695 
2648.000000	65.026998 
2647.000000	65.026640 
2646.000000	65.030598 
2645.000000	65.038490 
2644.000000	65.049266 
2643.000000	65.061712 
2642.000000	65.074539 
2641.000000	65.086627 
2640.000000	65.097093 
2639.000000	65.105342 
2638.000000	65.111160 
2637.000000	65.114521 
2636.000000	65.115737 
2635.000000	65.115046 
2634.000000	65.112924 
2633.000000	65.109848 
2632.000000	65.106630 
2631.000000	65.104365 
2630.000000	65.104174 
2629.000000	65.107345 
2628.000000	65.114831 
2627.000000	65.126848 
2626.000000	65.142607 
2625.000000	65.160322 
2624.000000	65.177416 
2623.000000	65.190720 
2622.000000	65.197181 
2621.000000	65.194559 
2620.000000	65.182089 
2619.000000	65.160369 
2618.000000	65.131616 
2617.000000	65.099287 
2616.000000	65.067315 
2615.000000	65.039634 
2614.000000	65.019464 
2613.000000	65.008521 
2612.000000	65.007209 
2611.000000	65.014529 
2610.000000	65.028214 
2609.000000	65.045356 
2608.000000	65.063095 
2607.000000	65.078997 
2606.000000	65.091657 
2605.000000	65.100693 
2604.000000	65.106844 
2603.000000	65.111804 
2602.000000	65.117716 
2601.000000	65.126609 
2600.000000	65.140080 
2599.000000	65.158700 
2598.000000	65.182137 
2597.000000	65.208745 
2596.000000	65.236115 
2595.000000	65.261363 
2594.000000	65.281796 
2593.000000	65.295314 
2592.000000	65.300750 
2591.000000	65.298008 
2590.000000	65.288043 
2589.000000	65.272474 
2588.000000	65.253353 
2587.000000	65.232586 
2586.000000	65.211892 
2585.000000	65.192556 
2584.000000	65.175437 
2583.000000	65.161108 
2582.000000	65.150022 
2581.000000	65.142488 
2580.000000	65.138721 
2579.000000	65.138697 
2578.000000	65.141963 
2577.000000	65.147757 
2576.000000	65.155053 
2575.000000	65.162563 
2574.000000	65.168952 
2573.000000	65.173459 
2572.000000	65.175819 
2571.000000	65.176320 
2570.000000	65.175771 
2569.000000	65.175199 
2568.000000	65.175342 
2567.000000	65.176534 
2566.000000	65.178489 
2565.000000	65.180397 
2564.000000	65.181112 
2563.000000	65.179467 
2562.000000	65.174531 
2561.000000	65.166020 
2560.000000	65.154051 
2559.000000	65.139508 
2558.000000	65.123438 
2557.000000	65.107011 
2556.000000	65.091300 
2555.000000	65.077042 
2554.000000	65.064835 
2553.000000	65.054893 
2552.000000	65.047430 
2551.000000	65.042424 
2550.000000	65.039825 
2549.000000	65.039348 
2548.000000	65.040421 
2547.000000	65.042281 
2546.000000	65.044069 
2545.000000	65.044999 
2544.000000	65.044450 
2543.000000	65.042233 
2542.000000	65.038776 
2541.000000	65.034770 
2540.000000	65.031385 
2539.000000	65.029931 
2538.000000	65.031743 
2537.000000	65.037703 
2536.000000	65.048265 
2535.000000	65.062928 
2534.000000	65.080642 
2533.000000	65.099525 
2532.000000	65.117478 
2531.000000	65.132355 
2530.000000	65.142297 
2529.000000	65.146183 
2528.000000	65.143895 
2527.000000	65.136194 
2526.000000	65.124416 
2525.000000	65.110421 
2524.000000	65.096259 
2523.000000	65.083456 
2522.000000	65.073108 
2521.000000	65.065670 
2520.000000	65.061259 
2519.000000	65.059852 
2518.000000	65.061306 
2517.000000	65.065646 
2516.000000	65.072846 
2515.000000	65.082645 
2514.000000	65.094208 
2513.000000	65.106010 
2512.000000	65.116095 
2511.000000	65.122270 
2510.000000	65.122866 
2509.000000	65.116930 
2508.000000	65.104770 
2507.000000	65.087914 
2506.000000	65.069007 
2505.000000	65.051031 
2504.000000	65.036869 
2503.000000	65.028595 
2502.000000	65.027117 
2501.000000	65.031909 
2500.000000	65.041613 
2499.000000	65.054464 
2498.000000	65.068769 
2497.000000	65.083336 
2496.000000	65.097427 
2495.000000	65.110898 
2494.000000	65.123820 
2493.000000	65.136122 
2492.000000	65.147519 
2491.000000	65.157246 
2490.000000	65.164494 
2489.000000	65.168261 
2488.000000	65.168094 
2487.000000	65.163874 
2486.000000	65.156245 
2485.000000	65.146017 
2484.000000	65.134477 
2483.000000	65.122675 
2482.000000	65.111565 
2481.000000	65.101599 
2480.000000	65.092778 
2479.000000	65.084838 
2478.000000	65.077447 
2477.000000	65.070247 
2476.000000	65.063095 
2475.000000	65.056300 
2474.000000	65.050268 
2473.000000	65.045881 
2472.000000	65.043830 
2471.000000	65.044903 
2470.000000	65.049433 
2469.000000	65.057301 
2468.000000	65.067553 
2467.000000	65.078496 
2466.000000	65.087842 
2465.000000	65.093111 
2464.000000	65.091872 
2463.000000	65.082359 
2462.000000	65.063929 
2461.000000	65.037274 
2460.000000	65.004611 
2459.000000	64.969134 
2458.000000	64.935040 
2457.000000	64.906239 
2456.000000	64.886331 
2455.000000	64.877438 
2454.000000	64.880204 
2453.000000	64.893531 
2452.000000	64.914989 
2451.000000	64.941263 
2450.000000	64.968872 
2449.000000	64.994740 
2448.000000	65.016770 
2447.000000	65.033912 
2446.000000	65.046167 
2445.000000	65.054416 
2444.000000	65.059733 
2443.000000	65.063071 
2442.000000	65.064740 
2441.000000	65.064597 
2440.000000	65.061974 
2439.000000	65.056085 
2438.000000	65.046453 
2437.000000	65.033078 
2436.000000	65.016794 
2435.000000	64.999270 
2434.000000	64.982414 
2433.000000	64.968323 
2432.000000	64.958763 
2431.000000	64.954829 
2430.000000	64.956665 
2429.000000	64.963603 
2428.000000	64.974474 
2427.000000	64.987540 
2426.000000	65.001034 
2425.000000	65.013241 
2424.000000	65.022730 
2423.000000	65.028500 
2422.000000	65.029788 
2421.000000	65.026354 
2420.000000	65.018343 
2419.000000	65.006518 
2418.000000	64.992260 
2417.000000	64.977359 
2416.000000	64.963841 
2415.000000	64.953708 
2414.000000	64.948511 
2413.000000	64.949083 
2412.000000	64.955282 
2411.000000	64.965963 
2410.000000	64.979505 
2409.000000	64.993977 
2408.000000	65.007638 
2407.000000	65.019488 
2406.000000	65.029287 
2405.000000	65.037465 
2404.000000	65.044999 
2403.000000	65.052556 
2402.000000	65.060591 
2401.000000	65.068864 
2400.000000	65.076684 
2399.000000	65.083169 
2398.000000	65.087509 
2397.000000	65.089464 
2396.000000	65.089106 
2395.000000	65.087246 
2394.000000	65.084695 
2393.000000	65.082216 
2392.000000	65.080070 
2391.000000	65.078020 
2390.000000	65.075540 
2389.000000	65.071964 
2388.000000	65.067005 
2387.000000	65.060830 
2386.000000	65.054273 
2385.000000	65.048670 
2384.000000	65.045380 
2383.000000	65.045571 
2382.000000	65.049672 
2381.000000	65.057158 
2380.000000	65.067005 
2379.000000	65.077400 
2378.000000	65.086412 
2377.000000	65.092134 
2376.000000	65.093231 
2375.000000	65.088891 
2374.000000	65.078926 
2373.000000	65.063738 
2372.000000	65.044426 
2371.000000	65.022683 
2370.000000	65.000557 
2369.000000	64.980268 
2368.000000	64.964079 
2367.000000	64.953875 
2366.000000	64.950966 
2365.000000	64.955615 
2364.000000	64.967012 
2363.000000	64.983439 
2362.000000	65.002608 
2361.000000	65.022063 
2360.000000	65.039658 
2359.000000	65.054106 
2358.000000	65.064930 
2357.000000	65.072369 
2356.000000	65.077066 
2355.000000	65.079617 
2354.000000	65.080165 
2353.000000	65.078544 
2352.000000	65.073919 
2351.000000	65.065526 
2350.000000	65.052604 
2349.000000	65.034914 
2348.000000	65.012764 
2347.000000	64.987230 
2346.000000	64.960074 
2345.000000	64.933133 
2344.000000	64.908480 
2343.000000	64.887857 
2342.000000	64.872765 
2341.000000	64.864039 
2340.000000	64.862203 
2339.000000	64.867186 
2338.000000	64.878439 
2337.000000	64.894795 
2336.000000	64.914441 
2335.000000	64.935159 
2334.000000	64.954543 
2333.000000	64.970350 
2332.000000	64.980745 
2331.000000	64.984560 
2330.000000	64.981698 
2329.000000	64.972829 
2328.000000	64.959430 
2327.000000	64.943289 
2326.000000	64.926385 
2325.000000	64.910459 
2324.000000	64.896821 
2323.000000	64.886522 
2322.000000	64.880180 
2321.000000	64.878273 
2320.000000	64.880943 
2319.000000	64.888429 
2318.000000	64.900660 
2317.000000	64.917230 
2316.000000	64.937353 
2315.000000	64.959669 
2314.000000	64.982271 
2313.000000	65.002942 
2312.000000	65.019583 
2311.000000	65.030217 
2310.000000	65.033483 
2309.000000	65.028905 
2308.000000	65.016961 
2307.000000	64.999151 
2306.000000	64.977693 
2305.000000	64.955258 
2304.000000	64.934420 
2303.000000	64.917421 
2302.000000	64.905738 
2301.000000	64.899921 
2300.000000	64.899587 
2299.000000	64.903497 
2298.000000	64.910078 
2297.000000	64.917421 
2296.000000	64.923930 
2295.000000	64.928293 
2294.000000	64.929723 
2293.000000	64.927983 
2292.000000	64.923501 
2291.000000	64.916729 
2290.000000	64.908647 
2289.000000	64.900326 
2288.000000	64.893054 
2287.000000	64.888143 
2286.000000	64.886856 
2285.000000	64.890146 
2284.000000	64.898467 
2283.000000	64.911580 
2282.000000	64.928293 
2281.000000	64.946651 
2280.000000	64.964318 
2279.000000	64.978933 
2278.000000	64.988589 
2277.000000	64.992141 
2276.000000	64.989566 
2275.000000	64.981794 
2274.000000	64.970517 
2273.000000	64.957833 
2272.000000	64.945626 
2271.000000	64.935374 
2270.000000	64.927911 
2269.000000	64.923501 
2268.000000	64.921998 
2267.000000	64.923095 
2266.000000	64.926457 
2265.000000	64.931845 
2264.000000	64.938950 
2263.000000	64.947509 
2262.000000	64.956951 
2261.000000	64.966678 
2260.000000	64.975929 
2259.000000	64.983987 
2258.000000	64.990305 
2257.000000	64.994502 
2256.000000	64.996433 
2255.000000	64.996075 
2254.000000	64.993381 
2253.000000	64.988470 
2252.000000	64.981412 
2251.000000	64.972376 
2250.000000	64.961719 
2249.000000	64.950156 
2248.000000	64.938688 
2247.000000	64.928388 
2246.000000	64.920330 
2245.000000	64.915156 
2244.000000	64.913225 
2243.000000	64.913916 
2242.000000	64.916229 
2241.000000	64.918923 
2240.000000	64.920997 
2239.000000	64.921879 
2238.000000	64.922022 
2237.000000	64.922404 
2236.000000	64.924716 
2235.000000	64.930701 
2234.000000	64.941596 
2233.000000	64.957952 
2232.000000	64.979052 
2231.000000	65.003085 
2230.000000	65.027332 
2229.000000	65.048837 
2228.000000	65.064907 
2227.000000	65.073823 
2226.000000	65.075230 
2225.000000	65.070152 
2224.000000	65.060830 
2223.000000	65.049958 
2222.000000	65.039968 
2221.000000	65.032219 
2220.000000	65.026855 
2219.000000	65.022468 
2218.000000	65.016746 
2217.000000	65.007209 
2216.000000	64.991927 
2215.000000	64.970517 
2214.000000	64.944171 
2213.000000	64.915871 
2212.000000	64.889454 
2211.000000	64.869093 
2210.000000	64.858102 
2209.000000	64.858102 
2208.000000	64.868664 
2207.000000	64.887356 
2206.000000	64.910387 
2205.000000	64.933443 
2204.000000	64.952611 
2203.000000	64.965319 
2202.000000	64.970564 
2201.000000	64.969038 
2200.000000	64.962530 
2199.000000	64.953422 
2198.000000	64.944005 
2197.000000	64.935851 
2196.000000	64.929509 
2195.000000	64.924597 
2194.000000	64.920091 
2193.000000	64.914846 
2192.000000	64.908075 
2191.000000	64.899754 
2190.000000	64.890623 
2189.000000	64.882063 
2188.000000	64.875626 
2187.000000	64.872264 
2186.000000	64.872336 
2185.000000	64.875197 
2184.000000	64.879536 
2183.000000	64.883828 
2182.000000	64.886808 
2181.000000	64.887905 
2180.000000	64.887309 
2179.000000	64.886093 
2178.000000	64.885640 
2177.000000	64.887309 
2176.000000	64.892005 
2175.000000	64.899730 
2174.000000	64.909934 
2173.000000	64.921498 
2172.000000	64.933204 
2171.000000	64.944028 
2170.000000	64.953446 
2169.000000	64.961147 
2168.000000	64.966821 
2167.000000	64.969778 
2166.000000	64.969134 
2165.000000	64.963865 
2164.000000	64.953184 
2163.000000	64.936780 
2162.000000	64.915609 
2161.000000	64.891266 
2160.000000	64.866042 
2159.000000	64.842009 
2158.000000	64.820766 
2157.000000	64.802742 
2156.000000	64.787149 
2155.000000	64.772343 
2154.000000	64.756488 
2153.000000	64.738583 
2152.000000	64.718794 
2151.000000	64.698934 
2150.000000	64.681863 
2149.000000	64.671015 
2148.000000	64.669156 
2147.000000	64.677572 
2146.000000	64.695525 
2145.000000	64.720511 
2144.000000	64.748764 
2143.000000	64.776372 
2142.000000	64.799880 
2141.000000	64.817237 
2140.000000	64.827919 
2139.000000	64.832568 
2138.000000	64.832854 
2137.000000	64.830732 
2136.000000	64.828062 
2135.000000	64.826345 
2134.000000	64.826369 
2133.000000	64.828586 
2132.000000	64.832901 
2131.000000	64.839267 
2130.000000	64.847683 
2129.000000	64.858126 
2128.000000	64.870500 
2127.000000	64.884614 
2126.000000	64.900088 
2125.000000	64.916229 
2124.000000	64.932107 
2123.000000	64.946842 
2122.000000	64.959478 
2121.000000	64.969372 
2120.000000	64.976143 
2119.000000	64.979696 
2118.000000	64.980125 
2117.000000	64.977765 
2116.000000	64.973092 
2115.000000	64.966583 
2114.000000	64.958834 
2113.000000	64.950418 
2112.000000	64.941954 
2111.000000	64.934229 
2110.000000	64.928221 
2109.000000	64.924716 
2108.000000	64.924550 
2107.000000	64.927792 
2106.000000	64.933896 
2105.000000	64.941501 
2104.000000	64.948701 
2103.000000	64.953279 
2102.000000	64.953184 
2101.000000	64.947152 
2100.000000	64.934897 
2099.000000	64.917135 
2098.000000	64.895749 
2097.000000	64.873099 
2096.000000	64.851522 
2095.000000	64.832997 
2094.000000	64.818739 
2093.000000	64.809036 
2092.000000	64.803552 
2091.000000	64.801573 
2090.000000	64.802265 
2089.000000	64.804959 
2088.000000	64.809370 
2087.000000	64.815378 
2086.000000	64.823079 
2085.000000	64.832329 
2084.000000	64.842796 
2083.000000	64.854025 
2082.000000	64.865398 
2081.000000	64.876389 
2080.000000	64.886546 
2079.000000	64.895534 
2078.000000	64.902830 
2077.000000	64.908170 
2076.000000	64.911127 
2075.000000	64.911222 
2074.000000	64.908051 
2073.000000	64.901471 
2072.000000	64.891624 
2071.000000	64.879012 
2070.000000	64.864611 
2069.000000	64.849758 
2068.000000	64.835882 
2067.000000	64.824414 
2066.000000	64.816641 
2065.000000	64.813232 
2064.000000	64.814162 
2063.000000	64.818668 
2062.000000	64.825510 
2061.000000	64.833045 
2060.000000	64.839529 
2059.000000	64.843606 
2058.000000	64.844441 
2057.000000	64.842343 
2056.000000	64.838361 
2055.000000	64.834332 
2054.000000	64.832472 
2053.000000	64.834761 
2052.000000	64.842581 
2051.000000	64.856195 
2050.000000	64.874482 
2049.000000	64.895367 
2048.000000	64.916229 
2047.000000	64.934277 
2046.000000	64.947390 
2045.000000	64.954233 
2044.000000	64.954638 
2043.000000	64.949512 
2042.000000	64.940500 
2041.000000	64.929509 
2040.000000	64.918375 
2039.000000	64.908599 
2038.000000	64.901256 
2037.000000	64.896917 
2036.000000	64.895677 
2035.000000	64.897441 
2034.000000	64.902091 
2033.000000	64.909338 
2032.000000	64.918851 
2031.000000	64.930033 
2030.000000	64.942121 
2029.000000	64.954209 
2028.000000	64.965343 
2027.000000	64.974379 
2026.000000	64.980340 
2025.000000	64.982533 
2024.000000	64.980483 
2023.000000	64.974212 
2022.000000	64.964056 
2021.000000	64.950942 
2020.000000	64.936256 
2019.000000	64.921426 
2018.000000	64.908051 
2017.000000	64.897322 
2016.000000	64.890050 
2015.000000	64.886426 
2014.000000	64.885950 
2013.000000	64.887809 
2012.000000	64.890789 
2011.000000	64.893889 
2010.000000	64.896178 
2009.000000	64.897108 
2008.000000	64.896607 
2007.000000	64.894914 
2006.000000	64.892339 
2005.000000	64.889192 
2004.000000	64.885544 
2003.000000	64.881110 
2002.000000	64.875388 
2001.000000	64.867758 
2000.000000	64.857721 
1999.000000	64.845180 
1998.000000	64.830470 
1997.000000	64.814639 
1996.000000	64.799118 
1995.000000	64.785599 
1994.000000	64.775705 
1993.000000	64.770531 
1992.000000	64.770436 
1991.000000	64.774966 
1990.000000	64.782905 
1989.000000	64.792609 
1988.000000	64.802336 
1987.000000	64.810729 
1986.000000	64.817166 
1985.000000	64.822030 
1984.000000	64.826345 
1983.000000	64.831447 
1982.000000	64.838576 
1981.000000	64.848327 
1980.000000	64.860510 
1979.000000	64.874148 
1978.000000	64.887404 
1977.000000	64.898514 
1976.000000	64.905786 
1975.000000	64.908385 
1974.000000	64.906406 
1973.000000	64.900922 
1972.000000	64.893651 
1971.000000	64.886760 
1970.000000	64.882135 
1969.000000	64.881110 
1968.000000	64.884018 
1967.000000	64.890170 
1966.000000	64.897918 
1965.000000	64.905142 
1964.000000	64.909625 
1963.000000	64.909625 
1962.000000	64.904141 
1961.000000	64.893317 
1960.000000	64.878487 
1959.000000	64.861750 
1958.000000	64.845776 
1957.000000	64.833235 
1956.000000	64.826059 
1955.000000	64.825344 
1954.000000	64.831137 
1953.000000	64.842343 
1952.000000	64.857149 
1951.000000	64.873290 
1950.000000	64.888548 
1949.000000	64.901137 
1948.000000	64.909672 
1947.000000	64.913225 
1946.000000	64.911413 
1945.000000	64.904427 
1944.000000	64.892792 
1943.000000	64.877533 
1942.000000	64.859938 
1941.000000	64.841532 
1940.000000	64.823889 
1939.000000	64.808464 
1938.000000	64.796328 
1937.000000	64.788126 
1936.000000	64.783930 
1935.000000	64.783430 
1934.000000	64.785766 
1933.000000	64.789915 
1932.000000	64.794969 
1931.000000	64.800119 
1930.000000	64.804887 
1929.000000	64.809083 
1928.000000	64.812874 
1927.000000	64.816737 
1926.000000	64.821314 
1925.000000	64.827275 
1924.000000	64.835023 
1923.000000	64.844870 
1922.000000	64.856863 
1921.000000	64.870595 
1920.000000	64.885330 
1919.000000	64.900135 
1918.000000	64.913821 
1917.000000	64.925360 
1916.000000	64.933967 
1915.000000	64.939069 
1914.000000	64.940571 
1913.000000	64.938783 
1912.000000	64.934110 
1911.000000	64.927268 
1910.000000	64.918684 
1909.000000	64.908719 
1908.000000	64.897441 
1907.000000	64.884710 
1906.000000	64.870405 
1905.000000	64.854526 
1904.000000	64.837408 
1903.000000	64.819884 
1902.000000	64.803314 
1901.000000	64.789414 
1900.000000	64.779996 
1899.000000	64.776539 
1898.000000	64.780020 
1897.000000	64.790439 
1896.000000	64.806818 
1895.000000	64.827275 
1894.000000	64.849209 
1893.000000	64.869785 
1892.000000	64.886403 
1891.000000	64.897227 
1890.000000	64.901328 
1889.000000	64.899039 
1888.000000	64.891481 
1887.000000	64.880466 
1886.000000	64.867973 
1885.000000	64.855766 
1884.000000	64.844965 
1883.000000	64.836025 
1882.000000	64.828991 
1881.000000	64.823389 
1880.000000	64.818906 
1879.000000	64.815402 
1878.000000	64.813089 
1877.000000	64.812493 
1876.000000	64.814352 
1875.000000	64.819335 
1874.000000	64.827775 
1873.000000	64.839434 
1872.000000	64.853596 
1871.000000	64.869070 
1870.000000	64.884328 
1869.000000	64.897894 
1868.000000	64.908623 
1867.000000	64.915823 
1866.000000	64.919185 
1865.000000	64.918899 
1864.000000	64.915347 
1863.000000	64.909267 
1862.000000	64.901137 
1861.000000	64.891362 
1860.000000	64.880204 
1859.000000	64.867949 
1858.000000	64.855098 
1857.000000	64.842271 
1856.000000	64.830398 
1855.000000	64.820528 
1854.000000	64.813685 
1853.000000	64.810657 
1852.000000	64.811587 
1851.000000	64.815926 
1850.000000	64.822578 
1849.000000	64.830136 
1848.000000	64.837217 
1847.000000	64.842915 
1846.000000	64.847016 
1845.000000	64.850091 
1844.000000	64.853119 
1843.000000	64.857268 
1842.000000	64.863228 
1841.000000	64.870953 
1840.000000	64.879655 
1839.000000	64.887881 
1838.000000	64.893794 
1837.000000	64.895701 
1836.000000	64.892578 
1835.000000	64.884352 
1834.000000	64.871931 
1833.000000	64.856982 
1832.000000	64.841604 
1831.000000	64.827823 
1830.000000	64.817261 
1829.000000	64.810800 
1828.000000	64.808630 
1827.000000	64.810371 
1826.000000	64.815330 
1825.000000	64.822769 
1824.000000	64.832067 
1823.000000	64.842772 
1822.000000	64.854550 
1821.000000	64.867115 
1820.000000	64.880108 
1819.000000	64.892864 
1818.000000	64.904570 
1817.000000	64.914274 
1816.000000	64.920997 
1815.000000	64.923930 
1814.000000	64.922690 
1813.000000	64.917564 
1812.000000	64.909362 
1811.000000	64.899325 
1810.000000	64.888882 
1809.000000	64.879274 
1808.000000	64.871573 
1807.000000	64.866161 
1806.000000	64.863157 
1805.000000	64.862179 
1804.000000	64.862990 
1803.000000	64.865231 
1802.000000	64.868855 
1801.000000	64.873766 
1800.000000	64.880013 
1799.000000	64.887475 
1798.000000	64.895772 
1797.000000	64.904260 
1796.000000	64.912128 
1795.000000	64.918613 
1794.000000	64.923119 
1793.000000	64.925479 
1792.000000	64.925980 
1791.000000	64.925026 
1790.000000	64.923119 
1789.000000	64.920449 
1788.000000	64.916777 
1787.000000	64.911222 
1786.000000	64.902925 
1785.000000	64.890813 
1784.000000	64.874625 
1783.000000	64.854812 
1782.000000	64.832758 
1781.000000	64.810776 
1780.000000	64.791464 
1779.000000	64.777421 
1778.000000	64.770650 
1777.000000	64.772057 
1776.000000	64.781188 
1775.000000	64.796257 
1774.000000	64.814758 
1773.000000	64.833712 
1772.000000	64.850473 
1771.000000	64.863157 
1770.000000	64.870977 
1769.000000	64.874267 
1768.000000	64.874005 
1767.000000	64.871549 
1766.000000	64.868021 
1765.000000	64.863967 
1764.000000	64.859437 
1763.000000	64.854073 
1762.000000	64.847350 
1761.000000	64.839100 
1760.000000	64.829683 
1759.000000	64.820003 
1758.000000	64.811277 
1757.000000	64.804673 
1756.000000	64.800763 
1755.000000	64.799213 
1754.000000	64.798641 
1753.000000	64.796996 
1752.000000	64.792060 
1751.000000	64.781785 
1750.000000	64.765191 
1749.000000	64.742779 
1748.000000	64.716148 
1747.000000	64.687895 
1746.000000	64.661002 
1745.000000	64.638066 
1744.000000	64.621210 
1743.000000	64.611530 
1742.000000	64.609289 
1741.000000	64.613699 
1740.000000	64.623498 
1739.000000	64.637112 
1738.000000	64.652705 
1737.000000	64.668464 
1736.000000	64.682650 
1735.000000	64.693689 
1734.000000	64.700388 
1733.000000	64.702057 
1732.000000	64.698410 
1731.000000	64.690113 
1730.000000	64.678478 
1729.000000	64.665699 
1728.000000	64.654278 
1727.000000	64.646768 
1726.000000	64.645385 
1725.000000	64.651441 
1724.000000	64.665222 
1723.000000	64.685797 
1722.000000	64.711117 
1721.000000	64.738225 
1720.000000	64.763855 
1719.000000	64.784908 
1718.000000	64.798998 
1717.000000	64.804959 
1716.000000	64.802837 
1715.000000	64.794039 
1714.000000	64.780879 
1713.000000	64.765930 
1712.000000	64.751625 
1711.000000	64.739704 
1710.000000	64.731383 
1709.000000	64.727377 
1708.000000	64.728116 
1707.000000	64.733934 
1706.000000	64.745211 
1705.000000	64.762401 
1704.000000	64.785265 
1703.000000	64.812731 
1702.000000	64.842605 
1701.000000	64.871597 
1700.000000	64.895725 
1699.000000	64.910888 
1698.000000	64.913821 
1697.000000	64.903068 
1696.000000	64.879465 
1695.000000	64.846229 
1694.000000	64.808320 
1693.000000	64.771556 
1692.000000	64.741373 
1691.000000	64.721703 
1690.000000	64.714384 
1689.000000	64.718794 
1688.000000	64.732408 
1687.000000	64.751458 
1686.000000	64.771914 
1685.000000	64.790463 
1684.000000	64.804983 
1683.000000	64.814972 
1682.000000	64.821171 
1681.000000	64.825057 
1680.000000	64.828228 
1679.000000	64.831686 
1678.000000	64.835429 
1677.000000	64.838361 
1676.000000	64.838933 
1675.000000	64.835190 
1674.000000	64.826011 
1673.000000	64.811182 
1672.000000	64.791703 
1671.000000	64.769697 
1670.000000	64.747714 
1669.000000	64.728283 
1668.000000	64.713263 
1667.000000	64.703845 
1666.000000	64.700150 
1665.000000	64.701843 
1664.000000	64.708352 
1663.000000	64.719223 
1662.000000	64.734554 
1661.000000	64.754629 
1660.000000	64.779758 
1659.000000	64.809703 
1658.000000	64.843106 
1657.000000	64.877414 
1656.000000	64.909172 
1655.000000	64.934730 
1654.000000	64.950704 
1653.000000	64.954972 
1652.000000	64.946866 
1651.000000	64.927577 
1650.000000	64.899587 
1649.000000	64.866352 
1648.000000	64.831590 
1647.000000	64.798855 
1646.000000	64.771246 
1645.000000	64.751124 
1644.000000	64.739775 
1643.000000	64.737844 
1642.000000	64.744710 
1641.000000	64.758968 
1640.000000	64.778351 
1639.000000	64.799690 
1638.000000	64.819693 
1637.000000	64.835095 
1636.000000	64.843583 
1635.000000	64.844083 
1634.000000	64.837121 
1633.000000	64.824628 
1632.000000	64.809560 
1631.000000	64.795136 
1630.000000	64.783811 
1629.000000	64.776992 
1628.000000	64.774775 
1627.000000	64.775896 
1626.000000	64.778327 
1625.000000	64.779686 
1624.000000	64.778065 
1623.000000	64.772152 
1622.000000	64.761471 
1621.000000	64.746761 
1620.000000	64.729237 
1619.000000	64.710736 
1618.000000	64.693069 
1617.000000	64.677977 
1616.000000	64.666604 
1615.000000	64.659833 
1614.000000	64.658045 
1613.000000	64.661288 
1612.000000	64.669394 
1611.000000	64.681863 
1610.000000	64.697885 
1609.000000	64.716410 
1608.000000	64.736056 
1607.000000	64.755225 
1606.000000	64.771962 
1605.000000	64.784479 
1604.000000	64.791321 
1603.000000	64.791631 
1602.000000	64.785385 
1601.000000	64.773392 
1600.000000	64.757323 
1599.000000	64.739513 
1598.000000	64.722275 
1597.000000	64.707732 
1596.000000	64.696955 
1595.000000	64.690279 
1594.000000	64.687037 
1593.000000	64.685821 
1592.000000	64.684891 
1591.000000	64.682793 
1590.000000	64.678478 
1589.000000	64.671301 
1588.000000	64.661526 
1587.000000	64.649844 
1586.000000	64.637446 
1585.000000	64.625453 
1584.000000	64.614987 
1583.000000	64.606976 
1582.000000	64.601922 
1581.000000	64.599943 
1580.000000	64.600634 
1579.000000	64.603257 
1578.000000	64.606785 
1577.000000	64.610147 
1576.000000	64.612197 
1575.000000	64.612197 
1574.000000	64.609789 
1573.000000	64.605331 
1572.000000	64.599680 
1571.000000	64.594197 
1570.000000	64.590382 
1569.000000	64.589881 
1568.000000	64.593696 
1567.000000	64.602398 
1566.000000	64.615964 
1565.000000	64.633631 
1564.000000	64.654421 
1563.000000	64.676690 
1562.000000	64.698863 
1561.000000	64.719390 
1560.000000	64.736938 
1559.000000	64.750480 
1558.000000	64.759564 
1557.000000	64.764308 
1556.000000	64.765310 
1555.000000	64.763498 
1554.000000	64.759802 
1553.000000	64.755320 
1552.000000	64.751052 
1551.000000	64.748024 
1550.000000	64.747071 
1549.000000	64.748954 
1548.000000	64.754056 
1547.000000	64.762258 
1546.000000	64.772653 
1545.000000	64.783573 
1544.000000	64.792728 
1543.000000	64.797449 
1542.000000	64.795255 
1541.000000	64.784240 
1540.000000	64.763808 
1539.000000	64.734911 
1538.000000	64.699888 
1537.000000	64.662075 
1536.000000	64.625406 
1535.000000	64.593505 
1534.000000	64.569306 
1533.000000	64.554166 
1532.000000	64.548182 
1531.000000	64.550447 
1530.000000	64.559268 
1529.000000	64.572715 
1528.000000	64.588928 
1527.000000	64.606308 
1526.000000	64.623665 
1525.000000	64.639973 
1524.000000	64.654493 
1523.000000	64.666581 
1522.000000	64.675903 
1521.000000	64.682126 
1520.000000	64.685177 
1519.000000	64.685106 
1518.000000	64.682292 
1517.000000	64.676928 
1516.000000	64.669251 
1515.000000	64.659047 
1514.000000	64.646220 
1513.000000	64.630579 
1512.000000	64.612174 
1511.000000	64.591288 
1510.000000	64.568829 
1509.000000	64.546060 
1508.000000	64.524245 
1507.000000	64.504861 
1506.000000	64.488983 
1505.000000	64.477849 
1504.000000	64.472413 
1503.000000	64.473533 
1502.000000	64.481878 
1501.000000	64.497637 
1500.000000	64.520287 
1499.000000	64.548301 
1498.000000	64.579105 
1497.000000	64.609384 
1496.000000	64.635753 
1495.000000	64.655017 
1494.000000	64.665269 
1493.000000	64.666008 
1492.000000	64.658427 
1491.000000	64.645218 
1490.000000	64.629912 
1489.000000	64.615797 
1488.000000	64.605379 
1487.000000	64.599800 
1486.000000	64.598703 
1485.000000	64.601182 
1484.000000	64.605474 
1483.000000	64.610147 
1482.000000	64.613938 
1481.000000	64.616036 
1480.000000	64.615988 
1479.000000	64.613413 
1478.000000	64.608025 
1477.000000	64.599609 
1476.000000	64.588141 
1475.000000	64.573979 
1474.000000	64.557862 
1473.000000	64.540863 
1472.000000	64.524197 
1471.000000	64.509248 
1470.000000	64.497184 
1469.000000	64.489245 
1468.000000	64.486265 
1467.000000	64.488911 
1466.000000	64.497780 
1465.000000	64.513206 
1464.000000	64.534950 
1463.000000	64.561963 
1462.000000	64.592289 
1461.000000	64.622926 
1460.000000	64.650034 
1459.000000	64.669466 
1458.000000	64.677596 
1457.000000	64.672231 
1456.000000	64.653301 
1455.000000	64.622902 
1454.000000	64.585328 
1453.000000	64.546060 
1452.000000	64.510965 
1451.000000	64.484906 
1450.000000	64.471030 
1449.000000	64.470148 
1448.000000	64.480757 
1447.000000	64.500045 
1446.000000	64.524650 
1445.000000	64.551424 
1444.000000	64.578008 
1443.000000	64.602971 
1442.000000	64.625525 
1441.000000	64.645147 
1440.000000	64.661097 
1439.000000	64.672660 
1438.000000	64.678764 
1437.000000	64.678978 
1436.000000	64.673256 
1435.000000	64.662432 
1434.000000	64.647960 
1433.000000	64.631891 
1432.000000	64.616513 
1431.000000	64.603805 
1430.000000	64.595246 
1429.000000	64.591550 
1428.000000	64.592432 
1427.000000	64.597177 
1426.000000	64.604163 
1425.000000	64.611649 
1424.000000	64.617562 
1423.000000	64.619708 
1422.000000	64.616036 
1421.000000	64.604854 
1420.000000	64.585399 
1419.000000	64.557671 
1418.000000	64.523029 
1417.000000	64.484047 
1416.000000	64.444184 
1415.000000	64.407444 
1414.000000	64.377570 
1413.000000	64.357399 
1412.000000	64.348745 
1411.000000	64.351892 
1410.000000	64.365816 
1409.000000	64.388227 
1408.000000	64.416003 
1407.000000	64.445710 
1406.000000	64.473962 
1405.000000	64.497923 
1404.000000	64.515280 
1403.000000	64.524769 
1402.000000	64.525961 
1401.000000	64.519548 
1400.000000	64.506816 
1399.000000	64.489722 
1398.000000	64.470624 
1397.000000	64.451694 
1396.000000	64.434647 
1395.000000	64.420342 
1394.000000	64.408850 
1393.000000	64.399552 
1392.000000	64.391493 
1391.000000	64.383649 
1390.000000	64.375376 
1389.000000	64.366412 
1388.000000	64.357137 
1387.000000	64.348459 
1386.000000	64.341521 
1385.000000	64.337372 
1384.000000	64.336824 
1383.000000	64.340400 
1382.000000	64.348316 
1381.000000	64.360356 
1380.000000	64.376115 
1379.000000	64.394998 
1378.000000	64.416217 
1377.000000	64.438915 
1376.000000	64.461874 
1375.000000	64.483761 
1374.000000	64.503192 
1373.000000	64.519119 
1372.000000	64.530801 
1371.000000	64.538049 
1370.000000	64.540958 
1369.000000	64.539980 
1368.000000	64.535498 
1367.000000	64.528107 
1366.000000	64.518260 
1365.000000	64.506554 
1364.000000	64.493632 
1363.000000	64.480423 
1362.000000	64.468312 
1361.000000	64.458703 
1360.000000	64.452958 
1359.000000	64.452171 
1358.000000	64.456796 
1357.000000	64.466691 
1356.000000	64.480924 
1355.000000	64.498090 
1354.000000	64.516472 
1353.000000	64.534354 
1352.000000	64.550447 
1351.000000	64.563632 
1350.000000	64.573359 
1349.000000	64.579248 
1348.000000	64.581060 
1347.000000	64.578604 
1346.000000	64.572048 
1345.000000	64.561581 
1344.000000	64.547920 
1343.000000	64.532017 
1342.000000	64.515113 
1341.000000	64.498496 
1340.000000	64.483213 
1339.000000	64.469981 
1338.000000	64.458918 
1337.000000	64.449691 
1336.000000	64.441490 
1335.000000	64.433455 
1334.000000	64.425015 
1333.000000	64.416050 
1332.000000	64.407038 
1331.000000	64.399051 
1330.000000	64.393687 
1329.000000	64.392304 
1328.000000	64.395928 
1327.000000	64.404630 
1326.000000	64.417695 
1325.000000	64.433336 
1324.000000	64.449429 
1323.000000	64.463710 
1322.000000	64.474606 
1321.000000	64.481306 
1320.000000	64.483928 
1319.000000	64.483618 
1318.000000	64.482045 
1317.000000	64.480876 
1316.000000	64.481186 
1315.000000	64.483284 
1314.000000	64.486527 
1313.000000	64.489650 
1312.000000	64.490890 
1311.000000	64.488863 
1310.000000	64.482712 
1309.000000	64.472603 
1308.000000	64.459443 
1307.000000	64.444637 
1306.000000	64.429807 
1305.000000	64.416384 
1304.000000	64.405345 
1303.000000	64.397239 
1302.000000	64.392018 
1301.000000	64.389395 
1300.000000	64.388728 
1299.000000	64.389491 
1298.000000	64.391136 
1297.000000	64.393329 
1296.000000	64.395785 
1295.000000	64.398384 
1294.000000	64.401054 
1293.000000	64.403796 
1292.000000	64.406538 
1291.000000	64.409089 
1290.000000	64.411211 
1289.000000	64.412379 
1288.000000	64.411950 
1287.000000	64.409184 
1286.000000	64.403438 
1285.000000	64.394521 
1284.000000	64.382624 
1283.000000	64.368748 
1282.000000	64.354419 
1281.000000	64.341330 
1280.000000	64.331054 
1279.000000	64.324522 
1278.000000	64.321851 
1277.000000	64.322328 
1276.000000	64.324426 
1275.000000	64.326167 
1274.000000	64.325737 
1273.000000	64.321684 
1272.000000	64.313530 
1271.000000	64.301633 
1270.000000	64.287567 
1269.000000	64.273667 
1268.000000	64.262819 
1267.000000	64.257669 
1266.000000	64.260292 
1265.000000	64.271712 
1264.000000	64.291453 
1263.000000	64.317822 
1262.000000	64.348053 
1261.000000	64.378929 
1260.000000	64.407491 
1259.000000	64.431357 
1258.000000	64.449357 
1257.000000	64.461398 
1256.000000	64.468359 
1255.000000	64.471697 
1254.000000	64.472818 
1253.000000	64.472579 
1252.000000	64.471054 
1251.000000	64.467668 
1250.000000	64.461517 
1249.000000	64.451742 
1248.000000	64.437985 
1247.000000	64.420890 
1246.000000	64.401817 
1245.000000	64.382672 
1244.000000	64.365601 
1243.000000	64.352369 
1242.000000	64.344143 
1241.000000	64.341044 
1240.000000	64.342331 
1239.000000	64.346599 
1238.000000	64.352083 
1237.000000	64.357113 
1236.000000	64.360427 
1235.000000	64.361619 
1234.000000	64.360928 
1233.000000	64.359474 
1232.000000	64.358663 
1231.000000	64.359927 
1230.000000	64.364504 
1229.000000	64.372897 
1228.000000	64.384722 
1227.000000	64.398694 
1226.000000	64.412903 
1225.000000	64.425039 
1224.000000	64.433121 
1223.000000	64.435982 
1222.000000	64.433574 
1221.000000	64.427232 
1220.000000	64.419221 
1219.000000	64.412212 
1218.000000	64.408636 
1217.000000	64.410114 
1216.000000	64.416885 
1215.000000	64.427852 
1214.000000	64.440941 
1213.000000	64.453482 
1212.000000	64.462995 
1211.000000	64.467906 
1210.000000	64.467906 
1209.000000	64.463996 
1208.000000	64.458179 
1207.000000	64.453005 
1206.000000	64.450955 
1205.000000	64.453816 
1204.000000	64.462351 
1203.000000	64.476037 
1202.000000	64.493489 
1201.000000	64.512634 
1200.000000	64.531064 
1199.000000	64.546585 
1198.000000	64.557409 
1197.000000	64.562416 
1196.000000	64.561319 
1195.000000	64.554595 
1194.000000	64.543414 
1193.000000	64.528942 
1192.000000	64.512538 
1191.000000	64.495110 
1190.000000	64.477205 
1189.000000	64.458632 
1188.000000	64.438962 
1187.000000	64.417409 
1186.000000	64.393305 
1185.000000	64.366412 
1184.000000	64.336967 
1183.000000	64.306139 
1182.000000	64.275598 
1181.000000	64.247870 
1180.000000	64.225912 
1179.000000	64.212679 
1178.000000	64.210438 
1177.000000	64.220237 
1176.000000	64.241552 
1175.000000	64.272117 
1174.000000	64.308094 
1173.000000	64.344525 
1172.000000	64.376354 
1171.000000	64.399170 
1170.000000	64.410114 
1169.000000	64.408421 
1168.000000	64.395570 
1167.000000	64.374876 
1166.000000	64.350628 
1165.000000	64.327120 
1164.000000	64.307570 
1163.000000	64.293980 
1162.000000	64.286375 
1161.000000	64.283561 
1160.000000	64.283156 
1159.000000	64.283108 
1158.000000	64.281535 
1157.000000	64.277458 
1156.000000	64.270639 
1155.000000	64.261579 
1154.000000	64.250993 
1153.000000	64.239430 
1152.000000	64.227294 
1151.000000	64.214754 
1150.000000	64.201807 
1149.000000	64.188623 
1148.000000	64.175677 
1147.000000	64.163994 
1146.000000	64.154815 
1145.000000	64.149761 
1144.000000	64.149951 
1143.000000	64.156055 
1142.000000	64.168119 
1141.000000	64.185786 
1140.000000	64.208030 
1139.000000	64.233446 
1138.000000	64.260697 
1137.000000	64.288640 
1136.000000	64.316105 
1135.000000	64.341950 
1134.000000	64.364981 
1133.000000	64.384055 
1132.000000	64.398002 
1131.000000	64.405941 
1130.000000	64.407634 
1129.000000	64.403367 
1128.000000	64.394521 
1127.000000	64.383053 
1126.000000	64.371299 
1125.000000	64.361405 
1124.000000	64.355158 
1123.000000	64.353179 
1122.000000	64.354968 
1121.000000	64.358878 
1120.000000	64.362812 
1119.000000	64.364671 
1118.000000	64.362955 
1117.000000	64.357137 
1116.000000	64.347672 
1115.000000	64.335894 
1114.000000	64.323568 
1113.000000	64.312314 
1112.000000	64.303565 
1111.000000	64.298057 
1110.000000	64.295864 
1109.000000	64.296436 
1108.000000	64.298582 
1107.000000	64.301109 
1106.000000	64.302825 
1105.000000	64.302444 
1104.000000	64.299607 
1103.000000	64.294433 
1102.000000	64.288330 
1101.000000	64.283204 
1100.000000	64.281678 
1099.000000	64.286613 
1098.000000	64.300107 
1097.000000	64.323043 
1096.000000	64.354181 
1095.000000	64.390063 
1094.000000	64.425635 
1093.000000	64.455127 
1092.000000	64.473676 
1091.000000	64.478492 
1090.000000	64.469814 
1089.000000	64.450740 
1088.000000	64.426350 
1087.000000	64.402151 
1086.000000	64.382815 
1085.000000	64.370584 
1084.000000	64.365196 
1083.000000	64.363670 
1082.000000	64.362168 
1081.000000	64.356660 
1080.000000	64.344596 
1079.000000	64.325356 
1078.000000	64.300441 
1077.000000	64.272761 
1076.000000	64.245533 
1075.000000	64.221453 
1074.000000	64.201378 
1073.000000	64.185070 
1072.000000	64.171385 
1071.000000	64.159202 
1070.000000	64.148020 
1069.000000	64.138150 
1068.000000	64.130568 
1067.000000	64.126300 
1066.000000	64.125967 
1065.000000	64.129352 
1064.000000	64.135503 
1063.000000	64.142918 
1062.000000	64.150142 
1061.000000	64.156293 
1060.000000	64.161586 
1059.000000	64.167094 
1058.000000	64.174628 
1057.000000	64.186143 
1056.000000	64.202475 
1055.000000	64.223504 
1054.000000	64.247202 
1053.000000	64.270091 
1052.000000	64.287543 
1051.000000	64.295172 
1050.000000	64.289546 
1049.000000	64.269113 
1048.000000	64.234781 
1047.000000	64.189839 
1046.000000	64.139819 
1045.000000	64.091205 
1044.000000	64.050650 
1043.000000	64.023828 
1042.000000	64.014315 
1041.000000	64.022994 
1040.000000	64.048051 
1039.000000	64.085602 
1038.000000	64.130210 
1037.000000	64.176487 
1036.000000	64.219546 
1035.000000	64.256119 
1034.000000	64.284753 
1033.000000	64.305925 
1032.000000	64.321088 
1031.000000	64.332270 
1030.000000	64.341139 
1029.000000	64.348387 
1028.000000	64.353823 
1027.000000	64.356040 
1026.000000	64.353609 
1025.000000	64.345121 
1024.000000	64.330363 
1023.000000	64.310288 
1022.000000	64.286994 
1021.000000	64.263582 
1020.000000	64.243340 
1019.000000	64.229273 
1018.000000	64.223599 
1017.000000	64.227128 
1016.000000	64.239406 
1015.000000	64.258480 
1014.000000	64.281177 
1013.000000	64.303851 
1012.000000	64.323091 
1011.000000	64.336156 
1010.000000	64.341306 
1009.000000	64.338183 
1008.000000	64.327454 
1007.000000	64.310646 
1006.000000	64.289689 
1005.000000	64.266061 
1004.000000	64.241123 
1003.000000	64.215970 
1002.000000	64.191794 
1001.000000	64.169907 
1000.000000	64.151883 
999.000000	 64.139294 
998.000000	 64.133667 
997.000000	 64.135813 
996.000000	 64.145636 
995.000000	 64.161729 
994.000000	 64.181756 
993.000000	 64.202594 
992.000000	 64.221286 
991.000000	 64.235806 
990.000000	 64.245629 
989.000000	 64.251732 
988.000000	 64.256572 
987.000000	 64.263153 
986.000000	 64.274168 
985.000000	 64.291119 
984.000000	 64.313626 
983.000000	 64.339375 
982.000000	 64.364552 
981.000000	 64.384841 
980.000000	 64.396238 
979.000000	 64.396381 
978.000000	 64.384937 
977.000000	 64.364075 
976.000000	 64.337801 
975.000000	 64.311051 
974.000000	 64.288902 
973.000000	 64.275145 
972.000000	 64.271759 
971.000000	 64.278197 
970.000000	 64.292216 
969.000000	 64.309906 
968.000000	 64.327049 
967.000000	 64.339637 
966.000000	 64.344930 
965.000000	 64.341735 
964.000000	 64.330458 
963.000000	 64.313077 
962.000000	 64.292025 
961.000000	 64.270353 
960.000000	 64.250969 
959.000000	 64.236378 
958.000000	 64.228200 
957.000000	 64.227247 
956.000000	 64.233469 
955.000000	 64.246153 
954.000000	 64.264082 
953.000000	 64.285564 
952.000000	 64.308881 
951.000000	 64.332222 
950.000000	 64.353942 
949.000000	 64.372515 
948.000000	 64.386844 
947.000000	 64.396214 
946.000000	 64.400291 
945.000000	 64.399433 
944.000000	 64.394354 
943.000000	 64.386200 
942.000000	 64.376020 
941.000000	 64.364933 
940.000000	 64.353394 
939.000000	 64.341354 
938.000000	 64.328455 
937.000000	 64.314126 
936.000000	 64.298176 
935.000000	 64.280724 
934.000000	 64.262914 
933.000000	 64.246773 
932.000000	 64.234972 
931.000000	 64.230322 
930.000000	 64.235067 
929.000000	 64.250278 
928.000000	 64.275598 
927.000000	 64.309287 
926.000000	 64.348387 
925.000000	 64.389419 
924.000000	 64.429140 
923.000000	 64.464807 
922.000000	 64.495134 
921.000000	 64.519667 
920.000000	 64.538788 
919.000000	 64.552831 
918.000000	 64.562058 
917.000000	 64.565753 
916.000000	 64.562916 
915.000000	 64.551997 
914.000000	 64.532017 
913.000000	 64.502716 
912.000000	 64.465284 
911.000000	 64.422178 
910.000000	 64.376878 
909.000000	 64.333224 
908.000000	 64.295005 
907.000000	 64.265251 
906.000000	 64.245820 
905.000000	 64.237451 
904.000000	 64.239740 
903.000000	 64.251446 
902.000000	 64.270853 
901.000000	 64.295721 
900.000000	 64.323616 
899.000000	 64.351558 
898.000000	 64.376568 
897.000000	 64.395689 
896.000000	 64.406657 
895.000000	 64.408183 
894.000000	 64.400434 
893.000000	 64.385199 
892.000000	 64.365124 
891.000000	 64.343619 
890.000000	 64.323830 
889.000000	 64.307880 
888.000000	 64.296483 
887.000000	 64.288926 
886.000000	 64.283657 
885.000000	 64.278888 
884.000000	 64.273595 
883.000000	 64.267849 
882.000000	 64.263010 
881.000000	 64.261198 
880.000000	 64.264273 
879.000000	 64.272809 
878.000000	 64.285969 
877.000000	 64.301347 
876.000000	 64.315986 
875.000000	 64.327263 
874.000000	 64.333987 
873.000000	 64.336872 
872.000000	 64.338493 
871.000000	 64.342212 
870.000000	 64.351010 
869.000000	 64.366316 
868.000000	 64.387679 
867.000000	 64.412450 
866.000000	 64.436554 
865.000000	 64.455461 
864.000000	 64.465641 
863.000000	 64.465427 
862.000000	 64.455318 
861.000000	 64.437890 
860.000000	 64.417004 
859.000000	 64.397144 
858.000000	 64.382052 
857.000000	 64.374375 
856.000000	 64.375448 
855.000000	 64.385151 
854.000000	 64.402651 
853.000000	 64.426064 
852.000000	 64.453125 
851.000000	 64.480829 
850.000000	 64.506101 
849.000000	 64.525556 
848.000000	 64.536213 
847.000000	 64.535784 
846.000000	 64.523243 
845.000000	 64.499115 
844.000000	 64.465594 
843.000000	 64.426207 
842.000000	 64.385008 
841.000000	 64.345955 
840.000000	 64.311933 
839.000000	 64.284276 
838.000000	 64.262604 
837.000000	 64.245271 
836.000000	 64.229965 
835.000000	 64.214515 
834.000000	 64.197826 
833.000000	 64.180374 
832.000000	 64.164137 
831.000000	 64.151740 
830.000000	 64.146089 
829.000000	 64.149069 
828.000000	 64.161276 
827.000000	 64.181542 
826.000000	 64.207077 
825.000000	 64.234113 
824.000000	 64.258742 
823.000000	 64.277720 
822.000000	 64.288640 
821.000000	 64.290523 
820.000000	 64.283537 
819.000000	 64.268898 
818.000000	 64.248514 
817.000000	 64.224576 
816.000000	 64.199590 
815.000000	 64.175772 
814.000000	 64.155197 
813.000000	 64.139318 
812.000000	 64.129209 
811.000000	 64.125061 
810.000000	 64.125943 
809.000000	 64.130425 
808.000000	 64.136409 
807.000000	 64.142107 
806.000000	 64.146208 
805.000000	 64.148259 
804.000000	 64.148807 
803.000000	 64.148998 
802.000000	 64.149999 
801.000000	 64.152765 
800.000000	 64.157342 
799.000000	 64.163374 
798.000000	 64.170074 
797.000000	 64.176940 
796.000000	 64.183831 
795.000000	 64.191031 
794.000000	 64.199209 
793.000000	 64.209008 
792.000000	 64.220571 
791.000000	 64.233326 
790.000000	 64.246106 
789.000000	 64.257287 
788.000000	 64.265322 
787.000000	 64.269375 
786.000000	 64.269256 
785.000000	 64.266133 
784.000000	 64.261531 
783.000000	 64.257121 
782.000000	 64.253973 
781.000000	 64.252209 
780.000000	 64.250922 
779.000000	 64.248538 
778.000000	 64.243316 
777.000000	 64.234066 
776.000000	 64.220452 
775.000000	 64.203572 
774.000000	 64.185357 
773.000000	 64.168143 
772.000000	 64.154529 
771.000000	 64.146757 
770.000000	 64.146304 
769.000000	 64.153623 
768.000000	 64.168500 
767.000000	 64.190053 
766.000000	 64.216923 
765.000000	 64.247250 
764.000000	 64.278912 
763.000000	 64.309406 
762.000000	 64.336061 
761.000000	 64.356136 
760.000000	 64.367413 
759.000000	 64.368271 
758.000000	 64.358711 
757.000000	 64.339995 
756.000000	 64.314723 
755.000000	 64.286231 
754.000000	 64.258241 
753.000000	 64.233875 
752.000000	 64.215111 
751.000000	 64.202260 
750.000000	 64.194297 
749.000000	 64.188694 
748.000000	 64.182400 
747.000000	 64.172363 
746.000000	 64.156532 
745.000000	 64.134287 
744.000000	 64.106678 
743.000000	 64.076185 
742.000000	 64.046072 
741.000000	 64.019393 
740.000000	 63.998413 
739.000000	 63.984107 
738.000000	 63.976311 
737.000000	 63.974213 
736.000000	 63.977122 
735.000000	 63.984489 
734.000000	 63.996601 
733.000000	 64.014482 
732.000000	 64.039206 
731.000000	 64.070796 
730.000000	 64.108204 
729.000000	 64.148688 
728.000000	 64.188337 
727.000000	 64.222264 
726.000000	 64.245939 
725.000000	 64.256286 
724.000000	 64.252424 
723.000000	 64.236116 
722.000000	 64.211273 
721.000000	 64.182853 
720.000000	 64.156198 
719.000000	 64.135718 
718.000000	 64.124345 
717.000000	 64.122819 
716.000000	 64.130353 
715.000000	 64.144873 
714.000000	 64.163351 
713.000000	 64.182448 
712.000000	 64.199280 
711.000000	 64.211583 
710.000000	 64.217829 
709.000000	 64.217090 
708.000000	 64.209198 
707.000000	 64.194154 
706.000000	 64.171886 
705.000000	 64.142060 
704.000000	 64.104413 
703.000000	 64.059019 
702.000000	 64.006519 
701.000000	 63.948893 
700.000000	 63.889193 
699.000000	 63.831973 
698.000000	 63.782429 
697.000000	 63.745641 
696.000000	 63.725352 
695.000000	 63.723492 
694.000000	 63.739299 
693.000000	 63.769674 
692.000000	 63.809442 
691.000000	 63.852977 
690.000000	 63.895225 
689.000000	 63.932704 
688.000000	 63.963913 
687.000000	 63.989067 
686.000000	 64.009213 
685.000000	 64.025425 
684.000000	 64.038228 
683.000000	 64.047122 
682.000000	 64.051079 
681.000000	 64.049148 
680.000000	 64.041185 
679.000000	 64.028239 
678.000000	 64.012646 
677.000000	 63.998150 
676.000000	 63.988542 
675.000000	 63.986873 
674.000000	 63.994622 
673.000000	 64.011287 
672.000000	 64.034509 
671.000000	 64.060735 
670.000000	 64.085936 
669.000000	 64.106869 
668.000000	 64.121294 
667.000000	 64.128208 
666.000000	 64.127802 
665.000000	 64.121174 
664.000000	 64.109969 
663.000000	 64.095759 
662.000000	 64.080166 
661.000000	 64.064383 
660.000000	 64.049506 
659.000000	 64.036607 
658.000000	 64.026427 
657.000000	 64.019584 
656.000000	 64.016771 
655.000000	 64.018988 
654.000000	 64.026856 
653.000000	 64.040684 
652.000000	 64.060401 
651.000000	 64.085149 
650.000000	 64.113330 
649.000000	 64.142417 
648.000000	 64.169502 
647.000000	 64.191389 
646.000000	 64.205408 
645.000000	 64.209747 
644.000000	 64.204025 
643.000000	 64.189481 
642.000000	 64.168715 
641.000000	 64.145493 
640.000000	 64.123988 
639.000000	 64.107918 
638.000000	 64.099812 
637.000000	 64.100217 
636.000000	 64.107942 
635.000000	 64.120078 
634.000000	 64.132761 
633.000000	 64.141917 
632.000000	 64.144158 
631.000000	 64.137506 
630.000000	 64.121556 
629.000000	 64.097261 
628.000000	 64.066672 
627.000000	 64.032506 
626.000000	 63.997650 
625.000000	 63.964653 
624.000000	 63.935732 
623.000000	 63.912749 
622.000000	 63.897013 
621.000000	 63.889336 
620.000000	 63.889598 
619.000000	 63.896751 
618.000000	 63.908243 
617.000000	 63.920450 
616.000000	 63.929080 
615.000000	 63.929724 
614.000000	 63.919305 
613.000000	 63.896775 
612.000000	 63.863754 
611.000000	 63.824534 
610.000000	 63.785147 
609.000000	 63.752007 
608.000000	 63.730573 
607.000000	 63.723826 
606.000000	 63.731575 
605.000000	 63.750648 
604.000000	 63.775491 
603.000000	 63.800072 
602.000000	 63.819527 
601.000000	 63.831520 
600.000000	 63.836097 
599.000000	 63.835763 
598.000000	 63.834214 
597.000000	 63.835167 
596.000000	 63.841056 
595.000000	 63.852381 
594.000000	 63.867330 
593.000000	 63.883185 
592.000000	 63.897538 
591.000000	 63.909006 
590.000000	 63.917613 
589.000000	 63.924908 
588.000000	 63.933682 
587.000000	 63.946461 
586.000000	 63.964414 
585.000000	 63.986992 
584.000000	 64.011693 
583.000000	 64.035272 
582.000000	 64.054799 
581.000000	 64.068245 
580.000000	 64.074969 
579.000000	 64.074802 
578.000000	 64.067625 
577.000000	 64.052438 
576.000000	 64.027309 
575.000000	 63.989329 
574.000000	 63.936233 
573.000000	 63.867068 
572.000000	 63.784217 
571.000000	 63.693761 
570.000000	 63.605642 
569.000000	 63.531494 
568.000000	 63.483548 
567.000000	 63.471531 
566.000000	 63.501667 
565.000000	 63.574075 
564.000000	 63.683485 
563.000000	 63.819789 
562.000000	 63.969302 
561.000000	 64.117646 
560.000000	 64.250278 
559.000000	 64.354085 
558.000000	 64.419221 
557.000000	 64.440178 
556.000000	 64.417171 
555.000000	 64.355659 
554.000000	 64.266705 
553.000000	 64.165163 
552.000000	 64.066505 
551.000000	 63.983821 
550.000000	 63.925719 
549.000000	 63.894867 
548.000000	 63.888788 
547.000000	 63.900804 
546.000000	 63.922595 
545.000000	 63.945913 
544.000000	 63.963532 
543.000000	 63.971185 
542.000000	 63.966012 
541.000000	 63.948893 
540.000000	 63.922572 
539.000000	 63.892889 
538.000000	 63.866329 
537.000000	 63.850331 
536.000000	 63.851261 
535.000000	 63.874435 
534.000000	 63.922476 
533.000000	 63.995790 
532.000000	 64.092063 
531.000000	 64.206719 
530.000000	 64.333105 
529.000000	 64.462971 
528.000000	 64.587378 
527.000000	 64.697003 
526.000000	 64.783263 
525.000000	 64.840054 
524.000000	 64.864373 
523.000000	 64.857578 
522.000000	 64.824438 
521.000000	 64.772629 
520.000000	 64.710330 
519.000000	 64.645743 
518.000000	 64.584112 
517.000000	 64.528298 
516.000000	 64.477372 
515.000000	 64.428091 
514.000000	 64.375829 
513.000000	 64.315581 
512.000000	 64.245367 
511.000000	 64.165854 
510.000000	 64.083361 
509.000000	 64.007663 
508.000000	 63.952016 
507.000000	 63.929486 
506.000000	 63.949584 
505.000000	 64.014673 
504.000000	 64.119076 
503.000000	 64.249300 
502.000000	 64.386987 
501.000000	 64.512538 
500.000000	 64.609479 
499.000000	 64.667534 
498.000000	 64.684247 
497.000000	 64.663982 
496.000000	 64.615106 
495.000000	 64.546728 
494.000000	 64.465808 
493.000000	 64.375567 
492.000000	 64.276361 
491.000000	 64.167428 
490.000000	 64.048433 
489.000000	 63.922953 
488.000000	 63.800406 
487.000000	 63.695573 
486.000000	 63.623929 
485.000000	 63.600349 
484.000000	 63.632273 
483.000000	 63.721132 
482.000000	 63.860917 
481.000000	 64.039731 
480.000000	 64.239811 
479.000000	 64.443731 
478.000000	 64.637446 
477.000000	 64.811229 
476.000000	 64.959549 
475.000000	 65.080690 
474.000000	 65.174841 
473.000000	 65.242457 
472.000000	 65.283536 
471.000000	 65.296387 
470.000000	 65.279436 
469.000000	 65.233230 
468.000000	 65.163660 
467.000000	 65.083146 
466.000000	 65.010952 
465.000000	 64.972782 
464.000000	 64.994478 
463.000000	 65.095329 
462.000000	 65.280175 
461.000000	 65.544915 
460.000000	 65.864086 
459.000000	 66.193294 
458.000000	 66.473507 
457.000000	 66.647648 
456.000000	 66.665792 
455.000000	 66.497135 
454.000000	 66.137504 
453.000000	 65.611648 
452.000000	 64.971160 
451.000000	 64.286255 
450.000000	 63.633275 
449.000000	 63.078880 
448.000000	 62.677693 
447.000000	 62.466812 
446.000000	 62.452554 
445.000000	 62.611150 
444.000000	 62.899827 
443.000000	 63.268256 
442.000000	 63.656044 
441.000000	 64.012503 
440.000000	 64.302611 
439.000000	 64.524769 
438.000000	 64.702081 
437.000000	 64.889383 
436.000000	 65.158915 
435.000000	 65.585017 
434.000000	 66.231083 
433.000000	 67.120838 
432.000000	 68.225979 
431.000000	 69.463062 
430.000000	 70.715975 
429.000000	 71.847176 
428.000000	 72.734379 
427.000000	 73.283410 
426.000000	 73.464870 
425.000000	 73.284101 
424.000000	 72.784686 
423.000000	 72.010850 
422.000000	 71.003603 
421.000000	 69.778537 
420.000000	 68.339514 
419.000000	 66.680264 
418.000000	 64.809656 
417.000000	 62.778449 
416.000000	 60.692739 
415.000000	 58.693885 
414.000000	 56.945824 
413.000000	 55.601787 
412.000000	 54.785656 
411.000000	 54.536199 
410.000000	 54.829478 
409.000000	 55.588698 
408.000000	 56.714677 
407.000000	 58.079648 
406.000000	 59.575533 
405.000000	 61.109232 
404.000000	 62.626123 
403.000000	 64.083170 
402.000000	 65.460324 
401.000000	 66.736221 
400.000000	 67.889022 
399.000000	 68.909072 
398.000000	 69.760346 
397.000000	 70.405721 
396.000000	 70.764374 
395.000000	 70.745491 
394.000000	 70.230674 
393.000000	 69.111013 
392.000000	 67.327809 
391.000000	 64.926314 
390.000000	 61.971783 
389.000000	 58.562326 
388.000000	 55.013251 
387.000000	 51.691842 
386.000000	 49.088931 
385.000000	 47.610759 
384.000000	 46.673870 
383.000000	 45.412516 
382.000000	 43.239974 
381.000000	 39.973902 
380.000000	 37.036609 
379.000000	 35.898637 
378.000000	 36.996579 
377.000000	 40.006256 
376.000000	 41.873049 
375.000000	 40.358614 
374.000000	 35.899710 
373.000000	 30.709195 
372.000000	 30.916261 
371.000000	 39.847707 
370.000000	 55.401730 

