PE IR       SPECTRUM    SPECTRUM    ASCII       PEDS        1.60        
  -1
BZ61B3~1.ASC
17/04/07
18:04:21.00
17/04/07
18:04:21.00
tln
$BZ1503107-1_t0059$<tbV0>[5.2,0.0,8.0,0.0,27,1,0]
370.000000
64









2002,4.07    
MIRTGS : RIGHTBACK : INTERNAL 2
MIR : ON : INTERNAL 2
OPTKBR

0.200000
8
8.000000
FILLER
RATIO
SPECTRUM
UNLOCKED 256

DOUBLE
64
COMBINED
1
0
0


1.000000
RATIO


1
0
TRUE
51149
0
LEFT NOT FITTED RIGHT NOT FITTED 0
NONE
NONE
15600
12.000000
4.427000
51148
TRUE
1 0 8 72 0 0 0 0 

15798.010000






#HDR
-1
-1
#GR
CM-1
%T
0.00002384185791015625
0.0
5000.000000
-1.000000
4631
8
80.874776
56.525301
#DATA
5000.000000	66.334652 
4999.000000	66.572475 
4998.000000	66.794610 
4997.000000	66.984033 
4996.000000	67.125463 
4995.000000	67.208719 
4994.000000	67.227888 
4993.000000	67.182135 
4992.000000	67.076611 
4991.000000	66.924285 
4990.000000	66.742300 
4989.000000	66.550493 
4988.000000	66.369080 
4987.000000	66.216754 
4986.000000	66.108369 
4985.000000	66.053271 
4984.000000	66.056275 
4983.000000	66.117572 
4982.000000	66.232442 
4981.000000	66.391301 
4980.000000	66.580462 
4979.000000	66.781949 
4978.000000	66.974472 
4977.000000	67.134642 
4976.000000	67.239737 
4975.000000	67.270326 
4974.000000	67.215919 
4973.000000	67.073965 
4972.000000	66.854000 
4971.000000	66.570878 
4970.000000	66.246628 
4969.000000	65.900516 
4968.000000	65.548896 
4967.000000	65.200471 
4966.000000	64.857029 
4965.000000	64.517879 
4964.000000	64.183878 
4963.000000	63.862609 
4962.000000	63.568449 
4961.000000	63.323307 
4960.000000	63.150763 
4959.000000	63.070273 
4958.000000	63.089609 
4957.000000	63.201975 
4956.000000	63.385152 
4955.000000	63.606214 
4954.000000	63.828778 
4953.000000	64.022183 
4952.000000	64.168643 
4951.000000	64.266395 
4950.000000	64.328598 
4949.000000	64.377307 
4948.000000	64.435601 
4947.000000	64.519071 
4946.000000	64.630794 
4945.000000	64.761185 
4944.000000	64.889979 
4943.000000	64.995861 
4942.000000	65.059781 
4941.000000	65.072226 
4940.000000	65.034341 
4939.000000	64.959692 
4938.000000	64.867520 
4937.000000	64.776825 
4936.000000	64.702200 
4935.000000	64.651107 
4934.000000	64.621782 
4933.000000	64.605212 
4932.000000	64.589667 
4931.000000	64.565992 
4930.000000	64.529299 
4929.000000	64.480924 
4928.000000	64.427185 
4927.000000	64.377355 
4926.000000	64.339971 
4925.000000	64.320468 
4924.000000	64.318990 
4923.000000	64.331197 
4922.000000	64.350771 
4921.000000	64.371919 
4920.000000	64.390349 
4919.000000	64.405679 
4918.000000	64.421677 
4917.000000	64.445018 
4916.000000	64.481949 
4915.000000	64.536571 
4914.000000	64.608812 
4913.000000	64.693593 
4912.000000	64.781689 
4911.000000	64.861488 
4910.000000	64.922451 
4909.000000	64.956521 
4908.000000	64.960670 
4907.000000	64.936566 
4906.000000	64.890074 
4905.000000	64.829874 
4904.000000	64.765381 
4903.000000	64.705109 
4902.000000	64.654994 
4901.000000	64.618158 
4900.000000	64.594984 
4899.000000	64.583873 
4898.000000	64.582180 
4897.000000	64.586901 
4896.000000	64.595460 
4895.000000	64.605808 
4894.000000	64.616870 
4893.000000	64.628219 
4892.000000	64.639949 
4891.000000	64.651727 
4890.000000	64.662814 
4889.000000	64.672231 
4888.000000	64.678931 
4887.000000	64.682030 
4886.000000	64.681410 
4885.000000	64.677906 
4884.000000	64.673185 
4883.000000	64.669489 
4882.000000	64.668726 
4881.000000	64.672064 
4880.000000	64.679169 
4879.000000	64.688515 
4878.000000	64.696598 
4877.000000	64.698767 
4876.000000	64.689660 
4875.000000	64.664697 
4874.000000	64.621257 
4873.000000	64.559984 
4872.000000	64.484906 
4871.000000	64.403605 
4870.000000	64.326119 
4869.000000	64.263749 
4868.000000	64.226746 
4867.000000	64.222693 
4866.000000	64.254617 
4865.000000	64.320945 
4864.000000	64.415478 
4863.000000	64.529299 
4862.000000	64.651679 
4861.000000	64.772582 
4860.000000	64.883899 
4859.000000	64.979958 
4858.000000	65.057754 
4857.000000	65.115451 
4856.000000	65.151810 
4855.000000	65.165424 
4854.000000	65.155220 
4853.000000	65.121173 
4852.000000	65.065622 
4851.000000	64.994120 
4850.000000	64.915847 
4849.000000	64.841818 
4848.000000	64.783096 
4847.000000	64.748191 
4846.000000	64.740943 
4845.000000	64.759564 
4844.000000	64.797019 
4843.000000	64.842343 
4842.000000	64.883637 
4841.000000	64.910244 
4840.000000	64.915633 
4839.000000	64.898300 
4838.000000	64.862370 
4837.000000	64.815092 
4836.000000	64.766120 
4835.000000	64.724206 
4834.000000	64.696002 
4833.000000	64.685106 
4832.000000	64.691352 
4831.000000	64.711642 
4830.000000	64.741325 
4829.000000	64.775848 
4828.000000	64.811301 
4827.000000	64.844655 
4826.000000	64.874529 
4825.000000	64.900755 
4824.000000	64.923739 
4823.000000	64.943718 
4822.000000	64.960169 
4821.000000	64.971756 
4820.000000	64.976477 
4819.000000	64.972496 
4818.000000	64.958739 
4817.000000	64.935779 
4816.000000	64.906215 
4815.000000	64.874529 
4814.000000	64.846515 
4813.000000	64.827895 
4812.000000	64.823460 
4811.000000	64.835619 
4810.000000	64.864444 
4809.000000	64.906692 
4808.000000	64.956903 
4807.000000	65.007662 
4806.000000	65.050888 
4805.000000	65.079259 
4804.000000	65.087819 
4803.000000	65.074682 
4802.000000	65.040802 
4801.000000	64.990472 
4800.000000	64.930438 
4799.000000	64.868283 
4798.000000	64.810824 
4797.000000	64.762783 
4796.000000	64.726352 
4795.000000	64.700555 
4794.000000	64.682221 
4793.000000	64.666509 
4792.000000	64.648556 
4791.000000	64.624834 
4790.000000	64.593958 
4789.000000	64.556622 
4788.000000	64.515471 
4787.000000	64.474058 
4786.000000	64.436125 
4785.000000	64.404296 
4784.000000	64.380455 
4783.000000	64.365053 
4782.000000	64.358329 
4781.000000	64.360165 
4780.000000	64.371228 
4779.000000	64.392280 
4778.000000	64.425086 
4777.000000	64.470505 
4776.000000	64.529705 
4775.000000	64.602661 
4774.000000	64.688587 
4773.000000	64.785122 
4772.000000	64.888429 
4771.000000	64.993524 
4770.000000	65.094351 
4769.000000	65.184688 
4768.000000	65.258121 
4767.000000	65.309000 
4766.000000	65.333485 
4765.000000	65.330338 
4764.000000	65.301299 
4763.000000	65.250682 
4762.000000	65.185952 
4761.000000	65.115547 
4760.000000	65.048074 
4759.000000	64.990258 
4758.000000	64.946579 
4757.000000	64.918255 
4756.000000	64.903450 
4755.000000	64.898085 
4754.000000	64.897179 
4753.000000	64.895939 
4752.000000	64.890718 
4751.000000	64.879989 
4750.000000	64.863729 
4749.000000	64.843893 
4748.000000	64.822983 
4747.000000	64.804220 
4746.000000	64.790010 
4745.000000	64.782309 
4744.000000	64.782023 
4743.000000	64.789080 
4742.000000	64.802336 
4741.000000	64.819622 
4740.000000	64.838266 
4739.000000	64.854979 
4738.000000	64.866685 
4737.000000	64.871692 
4736.000000	64.870452 
4735.000000	64.864993 
4734.000000	64.858841 
4733.000000	64.856457 
4732.000000	64.861774 
4731.000000	64.877080 
4730.000000	64.902162 
4729.000000	64.933896 
4728.000000	64.967250 
4727.000000	64.996695 
4726.000000	65.017747 
4725.000000	65.027856 
4724.000000	65.027952 
4723.000000	65.021920 
4722.000000	65.016007 
4721.000000	65.016603 
4720.000000	65.029239 
4719.000000	65.056729 
4718.000000	65.099143 
4717.000000	65.153741 
4716.000000	65.215826 
4715.000000	65.279889 
4714.000000	65.339994 
4713.000000	65.390515 
4712.000000	65.426278 
4711.000000	65.443181 
4710.000000	65.437912 
4709.000000	65.408587 
4708.000000	65.355014 
4707.000000	65.279316 
4706.000000	65.186452 
4705.000000	65.084147 
4704.000000	64.981794 
4703.000000	64.889693 
4702.000000	64.817428 
4701.000000	64.772653 
4700.000000	64.759182 
4699.000000	64.777183 
4698.000000	64.823412 
4697.000000	64.891839 
4696.000000	64.974236 
4695.000000	65.061640 
4694.000000	65.145230 
4693.000000	65.217566 
4692.000000	65.272593 
4691.000000	65.307235 
4690.000000	65.320801 
4689.000000	65.315961 
4688.000000	65.297985 
4687.000000	65.273594 
4686.000000	65.249419 
4685.000000	65.230846 
4684.000000	65.220642 
4683.000000	65.218424 
4682.000000	65.220713 
4681.000000	65.222001 
4680.000000	65.216207 
4679.000000	65.198278 
4678.000000	65.165591 
4677.000000	65.118861 
4676.000000	65.061831 
4675.000000	64.999938 
4674.000000	64.938974 
4673.000000	64.883971 
4672.000000	64.837765 
4671.000000	64.800143 
4670.000000	64.769482 
4669.000000	64.743328 
4668.000000	64.720511 
4667.000000	64.701557 
4666.000000	64.689731 
4665.000000	64.689469 
4664.000000	64.705944 
4663.000000	64.742898 
4662.000000	64.800810 
4661.000000	64.875793 
4660.000000	64.960336 
4659.000000	65.044355 
4658.000000	65.117335 
4657.000000	65.170478 
4656.000000	65.199017 
4655.000000	65.202856 
4654.000000	65.186429 
4653.000000	65.157127 
4652.000000	65.123128 
4651.000000	65.091538 
4650.000000	65.067100 
4649.000000	65.051484 
4648.000000	65.044450 
4647.000000	65.044212 
4646.000000	65.049743 
4645.000000	65.060305 
4644.000000	65.075945 
4643.000000	65.096831 
4642.000000	65.122747 
4641.000000	65.152597 
4640.000000	65.183663 
4639.000000	65.212464 
4638.000000	65.235567 
4637.000000	65.250039 
4636.000000	65.254306 
4635.000000	65.248370 
4634.000000	65.233778 
4633.000000	65.212249 
4632.000000	65.185260 
4631.000000	65.153288 
4630.000000	65.115666 
4629.000000	65.071272 
4628.000000	65.019059 
4627.000000	64.958906 
4626.000000	64.892387 
4625.000000	64.822578 
4624.000000	64.754366 
4623.000000	64.692568 
4622.000000	64.642286 
4621.000000	64.607501 
4620.000000	64.590978 
4619.000000	64.593458 
4618.000000	64.613890 
4617.000000	64.649367 
4616.000000	64.695787 
4615.000000	64.747381 
4614.000000	64.799094 
4613.000000	64.846515 
4612.000000	64.887213 
4611.000000	64.920258 
4610.000000	64.946699 
4609.000000	64.968776 
4608.000000	64.989471 
4607.000000	65.011382 
4606.000000	65.035772 
4605.000000	65.062379 
4604.000000	65.089392 
4603.000000	65.114116 
4602.000000	65.134024 
4601.000000	65.147376 
4600.000000	65.154147 
4599.000000	65.155673 
4598.000000	65.154528 
4597.000000	65.153121 
4596.000000	65.153503 
4595.000000	65.155768 
4594.000000	65.158581 
4593.000000	65.158224 
4592.000000	65.151119 
4591.000000	65.133023 
4590.000000	65.100193 
4589.000000	65.050458 
4588.000000	64.983916 
4587.000000	64.904046 
4586.000000	64.816784 
4585.000000	64.730858 
4584.000000	64.656043 
4583.000000	64.602017 
4582.000000	64.576435 
4581.000000	64.583373 
4580.000000	64.621973 
4579.000000	64.686727 
4578.000000	64.768099 
4577.000000	64.853787 
4576.000000	64.930820 
4575.000000	64.987516 
4574.000000	65.015792 
4573.000000	65.012001 
4572.000000	64.978027 
4571.000000	64.920258 
4570.000000	64.849185 
4569.000000	64.776945 
4568.000000	64.715790 
4567.000000	64.676523 
4566.000000	64.666128 
4565.000000	64.687824 
4564.000000	64.739727 
4563.000000	64.815664 
4562.000000	64.906287 
4561.000000	65.000605 
4560.000000	65.088486 
4559.000000	65.162086 
4558.000000	65.217185 
4557.000000	65.253424 
4556.000000	65.273070 
4555.000000	65.279555 
4554.000000	65.276527 
4553.000000	65.266823 
4552.000000	65.252161 
4551.000000	65.233349 
4550.000000	65.211558 
4549.000000	65.189027 
4548.000000	65.169072 
4547.000000	65.155577 
4546.000000	65.151929 
4545.000000	65.159821 
4544.000000	65.178918 
4543.000000	65.206408 
4542.000000	65.236735 
4541.000000	65.263438 
4540.000000	65.280771 
4539.000000	65.285348 
4538.000000	65.276765 
4537.000000	65.257692 
4536.000000	65.232872 
4535.000000	65.208053 
4534.000000	65.188145 
4533.000000	65.176630 
4532.000000	65.174603 
4531.000000	65.181326 
4530.000000	65.194678 
4529.000000	65.212678 
4528.000000	65.234112 
4527.000000	65.259003 
4526.000000	65.288019 
4525.000000	65.322184 
4524.000000	65.361618 
4523.000000	65.405011 
4522.000000	65.449023 
4521.000000	65.488886 
4520.000000	65.518522 
4519.000000	65.532374 
4518.000000	65.525746 
4517.000000	65.495800 
4516.000000	65.441823 
4515.000000	65.365600 
4514.000000	65.271520 
4513.000000	65.166378 
4512.000000	65.058755 
4511.000000	64.958286 
4510.000000	64.873981 
4509.000000	64.813089 
4508.000000	64.779901 
4507.000000	64.774680 
4506.000000	64.794635 
4505.000000	64.834165 
4504.000000	64.886450 
4503.000000	64.944148 
4502.000000	65.001440 
4501.000000	65.053963 
4500.000000	65.099716 
4499.000000	65.138268 
4498.000000	65.170407 
4497.000000	65.197134 
4496.000000	65.219211 
4495.000000	65.236783 
4494.000000	65.249705 
4493.000000	65.257358 
4492.000000	65.259265 
4491.000000	65.254688 
4490.000000	65.243244 
4489.000000	65.224838 
4488.000000	65.199398 
4487.000000	65.167999 
4486.000000	65.134239 
4485.000000	65.103363 
4484.000000	65.081954 
4483.000000	65.075421 
4482.000000	65.088248 
4481.000000	65.120124 
4480.000000	65.161752 
4479.000000	65.201973 
4478.000000	65.233325 
4477.000000	65.250873 
4476.000000	65.252947 
4475.000000	65.242314 
4474.000000	65.224075 
4473.000000	65.206336 
4472.000000	65.198516 
4471.000000	65.206575 
4470.000000	65.230226 
4469.000000	65.268850 
4468.000000	65.320897 
4467.000000	65.376067 
4466.000000	65.418362 
4465.000000	65.432906 
4464.000000	65.408992 
4463.000000	65.341687 
4462.000000	65.233898 
4461.000000	65.097928 
4460.000000	64.947867 
4459.000000	64.810466 
4458.000000	64.696550 
4457.000000	64.605760 
4456.000000	64.503765 
4455.000000	64.332079 
4454.000000	64.013838 
4453.000000	63.467860 
4452.000000	62.648153 
4451.000000	61.560940 
4450.000000	60.285758 
4449.000000	58.961462 
4448.000000	57.773232 
4447.000000	56.907939 
4446.000000	56.525301 
4445.000000	56.716060 
4444.000000	57.501602 
4443.000000	58.827590 
4442.000000	60.587430 
4441.000000	62.638354 
4440.000000	64.827370 
4439.000000	67.000293 
4438.000000	69.014906 
4437.000000	70.736718 
4436.000000	72.036790 
4435.000000	72.797679 
4434.000000	72.931599 
4433.000000	72.395014 
4432.000000	71.220326 
4431.000000	69.508028 
4430.000000	67.452764 
4429.000000	65.280914 
4428.000000	63.229489 
4427.000000	61.488986 
4426.000000	60.178685 
4425.000000	59.332680 
4424.000000	58.909320 
4423.000000	58.819675 
4422.000000	58.960247 
4421.000000	59.240770 
4420.000000	59.597086 
4419.000000	59.999346 
4418.000000	60.435581 
4417.000000	60.911297 
4416.000000	61.427998 
4415.000000	61.981153 
4414.000000	62.550640 
4413.000000	63.106656 
4412.000000	63.613176 
4411.000000	64.036202 
4410.000000	64.350867 
4409.000000	64.555692 
4408.000000	64.667296 
4407.000000	64.712238 
4406.000000	64.720392 
4405.000000	64.722847 
4404.000000	64.741039 
4403.000000	64.786171 
4402.000000	64.856362 
4401.000000	64.943981 
4400.000000	65.035963 
4399.000000	65.127015 
4398.000000	65.211486 
4397.000000	65.281677 
4396.000000	65.332698 
4395.000000	65.365457 
4394.000000	65.380382 
4393.000000	65.375041 
4392.000000	65.349173 
4391.000000	65.305709 
4390.000000	65.249657 
4389.000000	65.188360 
4388.000000	65.127706 
4387.000000	65.071344 
4386.000000	65.021824 
4385.000000	64.980411 
4384.000000	64.945077 
4383.000000	64.911842 
4382.000000	64.877891 
4381.000000	64.842081 
4380.000000	64.802575 
4379.000000	64.759969 
4378.000000	64.717626 
4377.000000	64.681625 
4376.000000	64.657473 
4375.000000	64.650797 
4374.000000	64.665317 
4373.000000	64.702892 
4372.000000	64.761829 
4371.000000	64.838576 
4370.000000	64.928078 
4369.000000	65.024852 
4368.000000	65.123271 
4367.000000	65.218853 
4366.000000	65.308260 
4365.000000	65.389275 
4364.000000	65.460228 
4363.000000	65.519618 
4362.000000	65.565824 
4361.000000	65.597152 
4360.000000	65.611839 
4359.000000	65.607953 
4358.000000	65.584063 
4357.000000	65.540528 
4356.000000	65.479946 
4355.000000	65.407681 
4354.000000	65.331172 
4353.000000	65.260004 
4352.000000	65.203356 
4351.000000	65.168762 
4350.000000	65.159773 
4349.000000	65.175271 
4348.000000	65.209245 
4347.000000	65.252161 
4346.000000	65.292835 
4345.000000	65.320658 
4344.000000	65.328741 
4343.000000	65.315055 
4342.000000	65.282917 
4341.000000	65.239310 
4340.000000	65.193343 
4339.000000	65.153861 
4338.000000	65.127110 
4337.000000	65.115404 
4336.000000	65.117740 
4335.000000	65.130925 
4334.000000	65.150928 
4333.000000	65.174484 
4332.000000	65.199661 
4331.000000	65.226125 
4330.000000	65.254020 
4329.000000	65.283203 
4328.000000	65.312266 
4327.000000	65.338563 
4326.000000	65.358424 
4325.000000	65.367960 
4324.000000	65.364718 
4323.000000	65.347790 
4322.000000	65.319418 
4321.000000	65.283060 
4320.000000	65.243101 
4319.000000	65.202903 
4318.000000	65.164589 
4317.000000	65.128016 
4316.000000	65.091490 
4315.000000	65.052938 
4314.000000	65.010905 
4313.000000	64.966058 
4312.000000	64.921498 
4311.000000	64.882516 
4310.000000	64.855265 
4309.000000	64.845752 
4308.000000	64.857840 
4307.000000	64.892435 
4306.000000	64.946746 
4305.000000	65.014624 
4304.000000	65.087509 
4303.000000	65.155982 
4302.000000	65.211462 
4301.000000	65.247535 
4300.000000	65.260887 
4299.000000	65.251445 
4298.000000	65.222215 
4297.000000	65.178298 
4296.000000	65.125775 
4295.000000	65.071153 
4294.000000	65.019822 
4293.000000	64.976119 
4292.000000	64.942455 
4291.000000	64.919948 
4290.000000	64.908313 
4289.000000	64.906263 
4288.000000	64.911913 
4287.000000	64.923095 
4286.000000	64.937543 
4285.000000	64.952707 
4284.000000	64.966440 
4283.000000	64.976906 
4282.000000	64.982843 
4281.000000	64.983534 
4280.000000	64.979243 
4279.000000	64.971232 
4278.000000	64.961266 
4277.000000	64.951348 
4276.000000	64.943504 
4275.000000	64.939188 
4274.000000	64.939284 
4273.000000	64.943623 
4272.000000	64.951276 
4271.000000	64.960885 
4270.000000	64.971303 
4269.000000	64.981794 
4268.000000	64.991927 
4267.000000	65.001726 
4266.000000	65.011215 
4265.000000	65.020465 
4264.000000	65.029168 
4263.000000	65.037083 
4262.000000	65.043807 
4261.000000	65.049624 
4260.000000	65.055155 
4259.000000	65.061998 
4258.000000	65.072345 
4257.000000	65.088534 
4256.000000	65.112328 
4255.000000	65.144586 
4254.000000	65.184783 
4253.000000	65.231037 
4252.000000	65.280318 
4251.000000	65.329313 
4250.000000	65.374803 
4249.000000	65.414381 
4248.000000	65.446281 
4247.000000	65.469408 
4246.000000	65.482926 
4245.000000	65.486407 
4244.000000	65.479588 
4243.000000	65.462899 
4242.000000	65.437293 
4241.000000	65.405154 
4240.000000	65.369176 
4239.000000	65.332818 
4238.000000	65.298604 
4237.000000	65.268397 
4236.000000	65.242218 
4235.000000	65.218591 
4234.000000	65.195083 
4233.000000	65.168952 
4232.000000	65.138435 
4231.000000	65.103650 
4230.000000	65.066838 
4229.000000	65.031623 
4228.000000	65.002322 
4227.000000	64.982891 
4226.000000	64.975476 
4225.000000	64.979767 
4224.000000	64.993381 
4223.000000	65.012383 
4222.000000	65.032720 
4221.000000	65.051007 
4220.000000	65.065479 
4219.000000	65.076231 
4218.000000	65.084433 
4217.000000	65.091991 
4216.000000	65.100455 
4215.000000	65.110349 
4214.000000	65.121006 
4213.000000	65.130615 
4212.000000	65.137290 
4211.000000	65.139436 
4210.000000	65.136837 
4209.000000	65.130424 
4208.000000	65.122032 
4207.000000	65.113711 
4206.000000	65.107202 
4205.000000	65.102910 
4204.000000	65.099573 
4203.000000	65.094709 
4202.000000	65.085530 
4201.000000	65.070056 
4200.000000	65.048027 
4199.000000	65.021681 
4198.000000	64.995360 
4197.000000	64.974880 
4196.000000	64.965987 
4195.000000	64.973068 
4194.000000	64.997577 
4193.000000	65.037822 
4192.000000	65.088558 
4191.000000	65.142369 
4190.000000	65.190505 
4189.000000	65.224885 
4188.000000	65.239667 
4187.000000	65.231847 
4186.000000	65.202498 
4185.000000	65.156149 
4184.000000	65.100502 
4183.000000	65.044379 
4182.000000	64.996504 
4181.000000	64.963793 
4180.000000	64.949917 
4179.000000	64.955282 
4178.000000	64.976263 
4177.000000	65.006709 
4176.000000	65.038847 
4175.000000	65.065193 
4174.000000	65.079855 
4173.000000	65.079474 
4172.000000	65.063881 
4171.000000	65.035796 
4170.000000	64.999890 
4169.000000	64.961624 
4168.000000	64.926075 
4167.000000	64.896869 
4166.000000	64.876055 
4165.000000	64.863753 
4164.000000	64.858746 
4163.000000	64.858388 
4162.000000	64.859676 
4161.000000	64.859199 
4160.000000	64.853858 
4159.000000	64.841651 
4158.000000	64.821696 
4157.000000	64.794802 
4156.000000	64.763092 
4155.000000	64.730167 
4154.000000	64.700078 
4153.000000	64.677333 
4152.000000	64.665746 
4151.000000	64.668107 
4150.000000	64.685463 
4149.000000	64.717125 
4148.000000	64.760780 
4147.000000	64.812850 
4146.000000	64.868688 
4145.000000	64.923310 
4144.000000	64.971804 
4143.000000	65.009880 
4142.000000	65.034103 
4141.000000	65.042448 
4140.000000	65.034437 
4139.000000	65.011715 
4138.000000	64.977359 
4137.000000	64.936137 
4136.000000	64.893460 
4135.000000	64.854121 
4134.000000	64.822077 
4133.000000	64.799666 
4132.000000	64.788103 
4131.000000	64.787292 
4130.000000	64.796876 
4129.000000	64.816403 
4128.000000	64.845347 
4127.000000	64.882802 
4126.000000	64.927291 
4125.000000	64.975929 
4124.000000	65.024852 
4123.000000	65.069198 
4122.000000	65.104222 
4121.000000	65.125989 
4120.000000	65.132641 
4119.000000	65.124702 
4118.000000	65.105056 
4117.000000	65.078306 
4116.000000	65.049481 
4115.000000	65.022850 
4114.000000	65.000629 
4113.000000	64.982819 
4112.000000	64.967942 
4111.000000	64.953660 
4110.000000	64.938044 
4109.000000	64.920663 
4108.000000	64.902782 
4107.000000	64.887452 
4106.000000	64.878439 
4105.000000	64.879417 
4104.000000	64.892458 
4103.000000	64.917802 
4102.000000	64.953255 
4101.000000	64.994788 
4100.000000	65.037345 
4099.000000	65.075755 
4098.000000	65.105891 
4097.000000	65.125250 
4096.000000	65.133476 
4095.000000	65.132021 
4094.000000	65.123176 
4093.000000	65.109848 
4092.000000	65.094733 
4091.000000	65.079736 
4090.000000	65.065813 
4089.000000	65.053224 
4088.000000	65.041899 
4087.000000	65.031504 
4086.000000	65.022039 
4085.000000	65.013861 
4084.000000	65.008020 
4083.000000	65.005683 
4082.000000	65.008187 
4081.000000	65.016651 
4080.000000	65.031671 
4079.000000	65.053081 
4078.000000	65.079641 
4077.000000	65.109276 
4076.000000	65.139007 
4075.000000	65.165567 
4074.000000	65.185427 
4073.000000	65.195512 
4072.000000	65.193819 
4071.000000	65.179991 
4070.000000	65.155148 
4069.000000	65.122103 
4068.000000	65.084886 
4067.000000	65.047955 
4066.000000	65.015292 
4065.000000	64.989733 
4064.000000	64.972352 
4063.000000	64.962553 
4062.000000	64.957928 
4061.000000	64.955115 
4060.000000	64.950704 
4059.000000	64.941978 
4058.000000	64.927434 
4057.000000	64.907312 
4056.000000	64.882731 
4055.000000	64.856100 
4054.000000	64.830017 
4053.000000	64.807295 
4052.000000	64.789795 
4051.000000	64.778804 
4050.000000	64.774942 
4049.000000	64.778232 
4048.000000	64.788293 
4047.000000	64.804339 
4046.000000	64.825320 
4045.000000	64.849925 
4044.000000	64.876270 
4043.000000	64.902687 
4042.000000	64.927315 
4041.000000	64.948964 
4040.000000	64.967179 
4039.000000	64.982461 
4038.000000	64.996170 
4037.000000	65.010333 
4036.000000	65.026950 
4035.000000	65.047049 
4034.000000	65.070056 
4033.000000	65.093994 
4032.000000	65.115380 
4031.000000	65.129995 
4030.000000	65.133762 
4029.000000	65.124130 
4028.000000	65.100574 
4027.000000	65.065073 
4026.000000	65.021705 
4025.000000	64.976191 
4024.000000	64.934253 
4023.000000	64.900445 
4022.000000	64.877438 
4021.000000	64.865779 
4020.000000	64.864087 
4019.000000	64.869618 
4018.000000	64.879441 
4017.000000	64.890909 
4016.000000	64.902782 
4015.000000	64.915060 
4014.000000	64.928817 
4013.000000	64.945077 
4012.000000	64.964890 
4011.000000	64.988780 
4010.000000	65.016436 
4009.000000	65.046334 
4008.000000	65.076398 
4007.000000	65.104269 
4006.000000	65.127563 
4005.000000	65.144586 
4004.000000	65.154075 
4003.000000	65.155887 
4002.000000	65.150976 
4001.000000	65.141797 
4000.000000	65.132045 
3999.000000	65.126276 
3998.000000	65.129518 
3997.000000	65.145754 
3996.000000	65.177321 
3995.000000	65.223431 
3994.000000	65.280795 
3993.000000	65.342545 
3992.000000	65.400004 
3991.000000	65.443611 
3990.000000	65.465140 
3989.000000	65.458822 
3988.000000	65.422701 
3987.000000	65.358996 
3986.000000	65.273690 
3985.000000	65.175533 
3984.000000	65.074753 
3983.000000	64.981412 
3982.000000	64.903974 
3981.000000	64.849114 
3980.000000	64.820885 
3979.000000	64.820432 
3978.000000	64.846110 
3977.000000	64.893698 
3976.000000	64.956927 
3975.000000	65.027546 
3974.000000	65.097117 
3973.000000	65.157437 
3972.000000	65.202522 
3971.000000	65.228748 
3970.000000	65.235853 
3969.000000	65.226459 
3968.000000	65.205335 
3967.000000	65.178704 
3966.000000	65.152096 
3965.000000	65.129780 
3964.000000	65.113544 
3963.000000	65.103316 
3962.000000	65.097045 
3961.000000	65.092253 
3960.000000	65.086007 
3959.000000	65.076303 
3958.000000	65.061497 
3957.000000	65.040802 
3956.000000	65.013718 
3955.000000	64.980220 
3954.000000	64.940977 
3953.000000	64.897346 
3952.000000	64.852523 
3951.000000	64.810848 
3950.000000	64.777088 
3949.000000	64.755654 
3948.000000	64.749550 
3947.000000	64.759922 
3946.000000	64.785432 
3945.000000	64.822745 
3944.000000	64.866495 
3943.000000	64.911174 
3942.000000	64.952039 
3941.000000	64.986157 
3940.000000	65.012240 
3939.000000	65.031027 
3938.000000	65.044713 
3937.000000	65.055823 
3936.000000	65.066266 
3935.000000	65.076446 
3934.000000	65.085363 
3933.000000	65.090727 
3932.000000	65.090084 
3931.000000	65.081357 
3930.000000	65.063858 
3929.000000	65.038728 
3928.000000	65.009450 
3927.000000	64.981079 
3926.000000	64.959359 
3925.000000	64.949822 
3924.000000	64.955878 
3923.000000	64.977979 
3922.000000	65.012788 
3921.000000	65.054416 
3920.000000	65.095186 
3919.000000	65.127468 
3918.000000	65.145230 
3917.000000	65.145516 
3916.000000	65.128684 
3915.000000	65.097856 
3914.000000	65.058016 
3913.000000	65.014266 
3912.000000	64.971351 
3911.000000	64.932656 
3910.000000	64.900279 
3909.000000	64.875102 
3908.000000	64.857482 
3907.000000	64.847850 
3906.000000	64.846634 
3905.000000	64.854311 
3904.000000	64.871144 
3903.000000	64.896583 
3902.000000	64.929175 
3901.000000	64.966535 
3900.000000	65.006160 
3899.000000	65.045905 
3898.000000	65.084457 
3897.000000	65.121579 
3896.000000	65.157890 
3895.000000	65.193963 
3894.000000	65.230345 
3893.000000	65.266084 
3892.000000	65.299105 
3891.000000	65.325975 
3890.000000	65.343236 
3889.000000	65.347957 
3888.000000	65.338802 
3887.000000	65.316700 
3886.000000	65.284848 
3885.000000	65.248322 
3884.000000	65.213298 
3883.000000	65.185642 
3882.000000	65.169978 
3881.000000	65.168571 
3880.000000	65.181064 
3879.000000	65.204596 
3878.000000	65.234422 
3877.000000	65.264892 
3876.000000	65.290737 
3875.000000	65.307497 
3874.000000	65.312600 
3873.000000	65.305447 
3872.000000	65.287876 
3871.000000	65.263366 
3870.000000	65.236473 
3869.000000	65.212392 
3868.000000	65.195727 
3867.000000	65.190005 
3866.000000	65.196800 
3865.000000	65.215730 
3864.000000	65.244293 
3863.000000	65.278220 
3862.000000	65.312600 
3861.000000	65.342688 
3860.000000	65.364837 
3859.000000	65.376973 
3858.000000	65.378928 
3857.000000	65.372586 
3856.000000	65.360951 
3855.000000	65.347218 
3854.000000	65.333652 
3853.000000	65.321207 
3852.000000	65.309143 
3851.000000	65.295600 
3850.000000	65.278196 
3849.000000	65.255236 
3848.000000	65.226387 
3847.000000	65.193367 
3846.000000	65.159702 
3845.000000	65.130114 
3844.000000	65.109252 
3843.000000	65.100836 
3842.000000	65.106606 
3841.000000	65.126037 
3840.000000	65.156364 
3839.000000	65.192985 
3838.000000	65.230393 
3837.000000	65.262889 
3836.000000	65.285801 
3835.000000	65.296006 
3834.000000	65.292000 
3833.000000	65.274167 
3832.000000	65.244221 
3831.000000	65.205049 
3830.000000	65.160107 
3829.000000	65.112853 
3828.000000	65.066623 
3827.000000	65.024161 
3826.000000	64.987874 
3825.000000	64.959311 
3824.000000	64.939379 
3823.000000	64.928221 
3822.000000	64.925456 
3821.000000	64.930248 
3820.000000	64.941287 
3819.000000	64.956927 
3818.000000	64.975404 
3817.000000	64.994907 
3816.000000	65.014028 
3815.000000	65.031433 
3814.000000	65.046381 
3813.000000	65.058875 
3812.000000	65.069341 
3811.000000	65.078496 
3810.000000	65.087270 
3809.000000	65.096592 
3808.000000	65.107131 
3807.000000	65.119314 
3806.000000	65.132927 
3805.000000	65.147542 
3804.000000	65.161728 
3803.000000	65.173602 
3802.000000	65.180659 
3801.000000	65.180611 
3800.000000	65.171575 
3799.000000	65.152716 
3798.000000	65.124630 
3797.000000	65.089654 
3796.000000	65.051341 
3795.000000	65.014004 
3794.000000	64.982080 
3793.000000	64.959406 
3792.000000	64.948797 
3791.000000	64.951634 
3790.000000	64.967846 
3789.000000	64.995813 
3788.000000	65.032649 
3787.000000	65.074586 
3786.000000	65.117168 
3785.000000	65.156364 
3784.000000	65.188813 
3783.000000	65.212774 
3782.000000	65.227723 
3781.000000	65.234589 
3780.000000	65.235710 
3779.000000	65.233778 
3778.000000	65.231633 
3777.000000	65.231084 
3776.000000	65.232992 
3775.000000	65.236735 
3774.000000	65.241098 
3773.000000	65.244030 
3772.000000	65.243744 
3771.000000	65.238976 
3770.000000	65.229511 
3769.000000	65.215969 
3768.000000	65.199685 
3767.000000	65.182423 
3766.000000	65.166091 
3765.000000	65.152192 
3764.000000	65.141701 
3763.000000	65.135192 
3762.000000	65.132522 
3761.000000	65.132784 
3760.000000	65.134572 
3759.000000	65.135693 
3758.000000	65.133810 
3757.000000	65.126800 
3756.000000	65.113234 
3755.000000	65.092515 
3754.000000	65.065884 
3753.000000	65.036129 
3752.000000	65.007376 
3751.000000	64.984321 
3750.000000	64.970922 
3749.000000	64.969658 
3748.000000	64.980697 
3747.000000	65.001845 
3746.000000	65.028929 
3745.000000	65.056657 
3744.000000	65.080213 
3743.000000	65.096235 
3742.000000	65.103626 
3741.000000	65.103483 
3740.000000	65.098643 
3739.000000	65.092611 
3738.000000	65.088558 
3737.000000	65.088367 
3736.000000	65.092349 
3735.000000	65.099215 
3734.000000	65.106821 
3733.000000	65.112924 
3732.000000	65.116047 
3731.000000	65.115761 
3730.000000	65.112781 
3729.000000	65.108704 
3728.000000	65.105080 
3727.000000	65.103387 
3726.000000	65.104246 
3725.000000	65.107941 
3724.000000	65.114140 
3723.000000	65.122890 
3722.000000	65.134549 
3721.000000	65.150022 
3720.000000	65.170526 
3719.000000	65.196704 
3718.000000	65.228199 
3717.000000	65.263199 
3716.000000	65.298438 
3715.000000	65.329647 
3714.000000	65.352439 
3713.000000	65.363287 
3712.000000	65.360426 
3711.000000	65.344238 
3710.000000	65.317225 
3709.000000	65.283417 
3708.000000	65.247321 
3707.000000	65.213060 
3706.000000	65.183544 
3705.000000	65.160155 
3704.000000	65.142822 
3703.000000	65.130567 
3702.000000	65.121674 
3701.000000	65.114569 
3700.000000	65.107965 
3699.000000	65.100979 
3698.000000	65.093231 
3697.000000	65.084218 
3696.000000	65.073871 
3695.000000	65.062141 
3694.000000	65.049672 
3693.000000	65.037417 
3692.000000	65.026831 
3691.000000	65.019822 
3690.000000	65.018177 
3689.000000	65.022993 
3688.000000	65.034365 
3687.000000	65.051245 
3686.000000	65.071225 
3685.000000	65.091180 
3684.000000	65.107846 
3683.000000	65.118646 
3682.000000	65.122199 
3681.000000	65.118646 
3680.000000	65.109753 
3679.000000	65.098190 
3678.000000	65.087056 
3677.000000	65.079140 
3676.000000	65.076017 
3675.000000	65.077948 
3674.000000	65.084218 
3673.000000	65.092992 
3672.000000	65.102100 
3671.000000	65.109395 
3670.000000	65.113520 
3669.000000	65.114116 
3668.000000	65.111327 
3667.000000	65.106201 
3666.000000	65.099859 
3665.000000	65.093612 
3664.000000	65.088534 
3663.000000	65.085363 
3662.000000	65.084385 
3661.000000	65.085434 
3660.000000	65.088248 
3659.000000	65.092301 
3658.000000	65.097045 
3657.000000	65.102124 
3656.000000	65.107274 
3655.000000	65.112566 
3654.000000	65.118122 
3653.000000	65.124130 
3652.000000	65.130996 
3651.000000	65.138721 
3650.000000	65.147376 
3649.000000	65.156912 
3648.000000	65.167474 
3647.000000	65.179252 
3646.000000	65.192794 
3645.000000	65.208935 
3644.000000	65.228509 
3643.000000	65.252089 
3642.000000	65.279269 
3641.000000	65.308666 
3640.000000	65.337371 
3639.000000	65.361690 
3638.000000	65.377378 
3637.000000	65.380978 
3636.000000	65.370416 
3635.000000	65.345788 
3634.000000	65.309476 
3633.000000	65.265870 
3632.000000	65.220355 
3631.000000	65.178442 
3630.000000	65.144681 
3629.000000	65.121841 
3628.000000	65.110707 
3627.000000	65.109944 
3626.000000	65.116882 
3625.000000	65.128159 
3624.000000	65.140390 
3623.000000	65.150785 
3622.000000	65.157365 
3621.000000	65.159225 
3620.000000	65.155959 
3619.000000	65.147876 
3618.000000	65.135693 
3617.000000	65.120506 
3616.000000	65.103673 
3615.000000	65.086722 
3614.000000	65.071487 
3613.000000	65.059518 
3612.000000	65.052056 
3611.000000	65.049648 
3610.000000	65.052127 
3609.000000	65.058445 
3608.000000	65.066814 
3607.000000	65.075325 
3606.000000	65.082240 
3605.000000	65.086579 
3604.000000	65.088081 
3603.000000	65.087580 
3602.000000	65.086603 
3601.000000	65.087103 
3600.000000	65.090680 
3599.000000	65.097951 
3598.000000	65.108537 
3597.000000	65.121030 
3596.000000	65.133333 
3595.000000	65.143203 
3594.000000	65.148735 
3593.000000	65.149068 
3592.000000	65.144443 
3591.000000	65.136146 
3590.000000	65.126132 
3589.000000	65.116548 
3588.000000	65.109062 
3587.000000	65.104532 
3586.000000	65.102791 
3585.000000	65.103054 
3584.000000	65.103816 
3583.000000	65.103363 
3582.000000	65.100288 
3581.000000	65.093898 
3580.000000	65.084171 
3579.000000	65.071511 
3578.000000	65.056753 
3577.000000	65.040874 
3576.000000	65.024757 
3575.000000	65.009355 
3574.000000	64.995241 
3573.000000	64.983081 
3572.000000	64.973616 
3571.000000	64.967632 
3570.000000	64.965844 
3569.000000	64.968824 
3568.000000	64.976644 
3567.000000	64.988660 
3566.000000	65.003180 
3565.000000	65.017914 
3564.000000	65.030169 
3563.000000	65.037631 
3562.000000	65.038466 
3561.000000	65.032386 
3560.000000	65.020656 
3559.000000	65.006184 
3558.000000	64.993000 
3557.000000	64.985394 
3556.000000	64.986848 
3555.000000	64.999437 
3554.000000	65.023231 
3553.000000	65.055918 
3552.000000	65.093350 
3551.000000	65.130543 
3550.000000	65.162515 
3549.000000	65.185427 
3548.000000	65.197229 
3547.000000	65.198087 
3546.000000	65.190100 
3545.000000	65.176486 
3544.000000	65.160655 
3543.000000	65.145516 
3542.000000	65.132451 
3541.000000	65.121388 
3540.000000	65.110564 
3539.000000	65.097832 
3538.000000	65.081262 
3537.000000	65.060091 
3536.000000	65.035271 
3535.000000	65.009284 
3534.000000	64.985895 
3533.000000	64.969062 
3532.000000	64.962077 
3531.000000	64.966511 
3530.000000	64.982247 
3529.000000	65.007424 
3528.000000	65.039086 
3527.000000	65.073752 
3526.000000	65.108394 
3525.000000	65.140867 
3524.000000	65.170049 
3523.000000	65.195798 
3522.000000	65.218472 
3521.000000	65.238499 
3520.000000	65.255928 
3519.000000	65.270423 
3518.000000	65.281605 
3517.000000	65.289068 
3516.000000	65.292978 
3515.000000	65.293550 
3514.000000	65.291643 
3513.000000	65.288114 
3512.000000	65.283632 
3511.000000	65.278625 
3510.000000	65.273380 
3509.000000	65.267801 
3508.000000	65.261864 
3507.000000	65.255331 
3506.000000	65.247941 
3505.000000	65.239334 
3504.000000	65.229368 
3503.000000	65.218210 
3502.000000	65.206336 
3501.000000	65.194797 
3500.000000	65.184998 
3499.000000	65.178728 
3498.000000	65.177488 
3497.000000	65.182161 
3496.000000	65.192437 
3495.000000	65.206789 
3494.000000	65.222597 
3493.000000	65.236377 
3492.000000	65.244603 
3491.000000	65.244603 
3490.000000	65.235090 
3489.000000	65.216517 
3488.000000	65.190839 
3487.000000	65.160918 
3486.000000	65.129947 
3485.000000	65.100693 
3484.000000	65.075206 
3483.000000	65.054869 
3482.000000	65.040469 
3481.000000	65.032601 
3480.000000	65.031576 
3479.000000	65.037608 
3478.000000	65.050363 
3477.000000	65.068745 
3476.000000	65.090894 
3475.000000	65.114164 
3474.000000	65.135574 
3473.000000	65.152144 
3472.000000	65.161752 
3471.000000	65.163397 
3470.000000	65.157890 
3469.000000	65.147447 
3468.000000	65.135169 
3467.000000	65.124416 
3466.000000	65.117859 
3465.000000	65.117073 
3464.000000	65.122175 
3463.000000	65.131878 
3462.000000	65.143966 
3461.000000	65.155959 
3460.000000	65.165781 
3459.000000	65.172076 
3458.000000	65.174460 
3457.000000	65.173387 
3456.000000	65.169835 
3455.000000	65.164732 
3454.000000	65.158939 
3453.000000	65.152812 
3452.000000	65.145969 
3451.000000	65.137457 
3450.000000	65.126681 
3449.000000	65.113162 
3448.000000	65.097284 
3447.000000	65.079998 
3446.000000	65.062808 
3445.000000	65.047430 
3444.000000	65.035486 
3443.000000	65.027928 
3442.000000	65.024709 
3441.000000	65.025210 
3440.000000	65.028381 
3439.000000	65.032815 
3438.000000	65.037417 
3437.000000	65.041351 
3436.000000	65.044331 
3435.000000	65.046429 
3434.000000	65.047931 
3433.000000	65.049457 
3432.000000	65.051579 
3431.000000	65.054893 
3430.000000	65.060043 
3429.000000	65.067434 
3428.000000	65.077519 
3427.000000	65.090680 
3426.000000	65.106797 
3425.000000	65.125226 
3424.000000	65.144681 
3423.000000	65.163326 
3422.000000	65.178632 
3421.000000	65.187954 
3420.000000	65.188837 
3419.000000	65.179657 
3418.000000	65.159964 
3417.000000	65.130639 
3416.000000	65.094113 
3415.000000	65.053939 
3414.000000	65.014219 
3413.000000	64.978790 
3412.000000	64.950752 
3411.000000	64.931774 
3410.000000	64.921617 
3409.000000	64.918613 
3408.000000	64.919924 
3407.000000	64.922761 
3406.000000	64.924645 
3405.000000	64.924764 
3404.000000	64.923644 
3403.000000	64.923214 
3402.000000	64.925885 
3401.000000	64.934062 
3400.000000	64.948892 
3399.000000	64.970135 
3398.000000	64.995980 
3397.000000	65.023565 
3396.000000	65.049576 
3395.000000	65.071153 
3394.000000	65.086436 
3393.000000	65.095067 
3392.000000	65.098118 
3391.000000	65.097498 
3390.000000	65.095448 
3389.000000	65.093731 
3388.000000	65.093278 
3387.000000	65.094184 
3386.000000	65.095901 
3385.000000	65.097618 
3384.000000	65.098929 
3383.000000	65.099954 
3382.000000	65.101528 
3381.000000	65.104889 
3380.000000	65.111374 
3379.000000	65.121889 
3378.000000	65.136361 
3377.000000	65.153813 
3376.000000	65.172100 
3375.000000	65.188574 
3374.000000	65.200567 
3373.000000	65.205931 
3372.000000	65.203952 
3371.000000	65.195465 
3370.000000	65.182900 
3369.000000	65.169692 
3368.000000	65.159559 
3367.000000	65.155720 
3366.000000	65.159797 
3365.000000	65.171551 
3364.000000	65.188717 
3363.000000	65.207600 
3362.000000	65.223717 
3361.000000	65.232801 
3360.000000	65.231752 
3359.000000	65.219235 
3358.000000	65.195822 
3357.000000	65.163922 
3356.000000	65.126967 
3355.000000	65.088844 
3354.000000	65.053057 
3353.000000	65.022277 
3352.000000	64.997982 
3351.000000	64.980769 
3350.000000	64.970326 
3349.000000	64.965939 
3348.000000	64.966726 
3347.000000	64.971828 
3346.000000	64.980149 
3345.000000	64.990592 
3344.000000	65.001749 
3343.000000	65.012097 
3342.000000	65.019798 
3341.000000	65.023303 
3340.000000	65.021371 
3339.000000	65.013670 
3338.000000	65.000844 
3337.000000	64.984512 
3336.000000	64.967036 
3335.000000	64.951038 
3334.000000	64.939093 
3333.000000	64.932966 
3332.000000	64.933347 
3331.000000	64.939856 
3330.000000	64.951133 
3329.000000	64.965391 
3328.000000	64.980721 
3327.000000	64.995551 
3326.000000	65.008687 
3325.000000	65.019369 
3324.000000	65.027141 
3323.000000	65.031766 
3322.000000	65.033030 
3321.000000	65.030550 
3320.000000	65.024256 
3319.000000	65.014529 
3318.000000	65.002369 
3317.000000	64.989376 
3316.000000	64.977622 
3315.000000	64.969515 
3314.000000	64.966821 
3313.000000	64.970350 
3312.000000	64.979648 
3311.000000	64.992856 
3310.000000	65.007591 
3309.000000	65.021181 
3308.000000	65.031480 
3307.000000	65.037178 
3306.000000	65.038108 
3305.000000	65.034770 
3304.000000	65.028071 
3303.000000	65.018773 
3302.000000	65.007400 
3301.000000	64.994072 
3300.000000	64.978456 
3299.000000	64.960527 
3298.000000	64.940714 
3297.000000	64.920330 
3296.000000	64.901471 
3295.000000	64.886641 
3294.000000	64.878368 
3293.000000	64.878916 
3292.000000	64.889430 
3291.000000	64.910078 
3290.000000	64.939808 
3289.000000	64.976572 
3288.000000	65.017914 
3287.000000	65.060806 
3286.000000	65.102171 
3285.000000	65.138983 
3284.000000	65.168642 
3283.000000	65.188980 
3282.000000	65.198397 
3281.000000	65.196299 
3280.000000	65.182995 
3279.000000	65.159702 
3278.000000	65.128207 
3277.000000	65.091013 
3276.000000	65.050625 
3275.000000	65.009570 
3274.000000	64.969897 
3273.000000	64.933300 
3272.000000	64.901399 
3271.000000	64.875364 
3270.000000	64.856505 
3269.000000	64.845967 
3268.000000	64.844965 
3267.000000	64.854025 
3266.000000	64.873218 
3265.000000	64.901399 
3264.000000	64.936566 
3263.000000	64.975786 
3262.000000	65.015792 
3261.000000	65.053153 
3260.000000	65.084958 
3259.000000	65.108942 
3258.000000	65.123915 
3257.000000	65.129733 
3256.000000	65.127182 
3255.000000	65.117812 
3254.000000	65.103626 
3253.000000	65.086841 
3252.000000	65.069675 
3251.000000	65.054178 
3250.000000	65.042138 
3249.000000	65.034890 
3248.000000	65.033221 
3247.000000	65.037322 
3246.000000	65.046858 
3245.000000	65.060997 
3244.000000	65.078377 
3243.000000	65.097498 
3242.000000	65.116715 
3241.000000	65.134358 
3240.000000	65.148782 
3239.000000	65.158772 
3238.000000	65.163493 
3237.000000	65.162730 
3236.000000	65.156984 
3235.000000	65.147495 
3234.000000	65.136265 
3233.000000	65.125536 
3232.000000	65.117430 
3231.000000	65.113568 
3230.000000	65.114688 
3229.000000	65.120410 
3228.000000	65.129446 
3227.000000	65.139770 
3226.000000	65.149068 
3225.000000	65.155434 
3224.000000	65.157580 
3223.000000	65.155243 
3222.000000	65.148973 
3221.000000	65.139794 
3220.000000	65.128731 
3219.000000	65.116643 
3218.000000	65.103793 
3217.000000	65.089797 
3216.000000	65.074110 
3215.000000	65.056180 
3214.000000	65.036249 
3213.000000	65.015411 
3212.000000	64.995789 
3211.000000	64.980101 
3210.000000	64.971089 
3209.000000	64.970874 
3208.000000	64.980530 
3207.000000	64.999389 
3206.000000	65.025305 
3205.000000	65.055155 
3204.000000	65.085339 
3203.000000	65.112733 
3202.000000	65.135025 
3201.000000	65.151023 
3200.000000	65.160679 
3199.000000	65.164780 
3198.000000	65.164613 
3197.000000	65.161466 
3196.000000	65.156459 
3195.000000	65.150237 
3194.000000	65.143108 
3193.000000	65.134906 
3192.000000	65.125679 
3191.000000	65.115404 
3190.000000	65.104579 
3189.000000	65.093708 
3188.000000	65.083575 
3187.000000	65.074753 
3186.000000	65.067338 
3185.000000	65.061044 
3184.000000	65.055322 
3183.000000	65.049695 
3182.000000	65.043854 
3181.000000	65.038228 
3180.000000	65.033674 
3179.000000	65.031528 
3178.000000	65.033078 
3177.000000	65.039062 
3176.000000	65.049338 
3175.000000	65.062570 
3174.000000	65.076732 
3173.000000	65.089201 
3172.000000	65.097737 
3171.000000	65.101122 
3170.000000	65.099549 
3169.000000	65.094590 
3168.000000	65.088510 
3167.000000	65.083789 
3166.000000	65.082168 
3165.000000	65.083956 
3164.000000	65.088152 
3163.000000	65.092730 
3162.000000	65.095520 
3161.000000	65.094852 
3160.000000	65.090274 
3159.000000	65.082931 
3158.000000	65.074872 
3157.000000	65.068817 
3156.000000	65.066885 
3155.000000	65.069770 
3154.000000	65.076518 
3153.000000	65.084815 
3152.000000	65.091538 
3151.000000	65.093898 
3150.000000	65.090179 
3149.000000	65.080356 
3148.000000	65.065956 
3147.000000	65.049648 
3146.000000	65.034341 
3145.000000	65.022158 
3144.000000	65.014171 
3143.000000	65.010118 
3142.000000	65.008592 
3141.000000	65.007543 
3140.000000	65.004920 
3139.000000	64.999127 
3138.000000	64.989423 
3137.000000	64.976215 
3136.000000	64.960432 
3135.000000	64.944005 
3134.000000	64.928960 
3133.000000	64.917445 
3132.000000	64.911580 
3131.000000	64.913058 
3130.000000	64.923119 
3129.000000	64.942002 
3128.000000	64.968895 
3127.000000	65.001893 
3126.000000	65.038013 
3125.000000	65.073657 
3124.000000	65.105056 
3123.000000	65.128874 
3122.000000	65.142798 
3121.000000	65.145587 
3120.000000	65.137410 
3119.000000	65.119528 
3118.000000	65.094017 
3117.000000	65.063571 
3116.000000	65.031123 
3115.000000	64.999771 
3114.000000	64.972186 
3113.000000	64.950609 
3112.000000	64.936637 
3111.000000	64.931011 
3110.000000	64.933705 
3109.000000	64.943742 
3108.000000	64.959359 
3107.000000	64.978384 
3106.000000	64.998435 
3105.000000	65.017485 
3104.000000	65.034055 
3103.000000	65.047359 
3102.000000	65.057253 
3101.000000	65.064072 
3100.000000	65.068173 
3099.000000	65.069699 
3098.000000	65.068554 
3097.000000	65.064477 
3096.000000	65.056967 
3095.000000	65.045714 
3094.000000	65.030741 
3093.000000	65.012598 
3092.000000	64.992070 
3091.000000	64.970421 
3090.000000	64.948964 
3089.000000	64.929080 
3088.000000	64.911818 
3087.000000	64.897990 
3086.000000	64.888143 
3085.000000	64.882683 
3084.000000	64.881730 
3083.000000	64.885544 
3082.000000	64.894294 
3081.000000	64.908051 
3080.000000	64.926505 
3079.000000	64.948940 
3078.000000	64.974188 
3077.000000	65.000534 
3076.000000	65.025830 
3075.000000	65.047740 
3074.000000	65.064191 
3073.000000	65.073561 
3072.000000	65.075230 
3071.000000	65.069580 
3070.000000	65.058231 
3069.000000	65.043759 
3068.000000	65.029239 
3067.000000	65.017700 
3066.000000	65.011525 
3065.000000	65.012097 
3064.000000	65.019512 
3063.000000	65.032529 
3062.000000	65.048861 
3061.000000	65.065550 
3060.000000	65.079617 
3059.000000	65.088343 
3058.000000	65.089678 
3057.000000	65.082597 
3056.000000	65.067076 
3055.000000	65.044116 
3054.000000	65.015387 
3053.000000	64.983272 
3052.000000	64.950394 
3051.000000	64.919567 
3050.000000	64.893293 
3049.000000	64.873647 
3048.000000	64.862060 
3047.000000	64.859056 
3046.000000	64.864444 
3045.000000	64.877104 
3044.000000	64.895343 
3043.000000	64.917039 
3042.000000	64.940047 
3041.000000	64.962410 
3040.000000	64.982557 
3039.000000	64.999008 
3038.000000	65.010809 
3037.000000	65.017318 
3036.000000	65.018033 
3035.000000	65.012574 
3034.000000	65.000963 
3033.000000	64.983677 
3032.000000	64.961862 
3031.000000	64.937210 
3030.000000	64.911985 
3029.000000	64.888429 
3028.000000	64.869046 
3027.000000	64.855480 
3026.000000	64.848566 
3025.000000	64.848041 
3024.000000	64.852571 
3023.000000	64.860224 
3022.000000	64.868855 
3021.000000	64.876818 
3020.000000	64.882993 
3019.000000	64.887690 
3018.000000	64.892053 
3017.000000	64.898300 
3016.000000	64.908599 
3015.000000	64.924931 
3014.000000	64.948439 
3013.000000	64.979124 
3012.000000	65.015745 
3011.000000	65.056014 
3010.000000	65.096855 
3009.000000	65.134787 
3008.000000	65.166592 
3007.000000	65.189528 
3006.000000	65.201544 
3005.000000	65.201807 
3004.000000	65.190529 
3003.000000	65.169024 
3002.000000	65.139341 
3001.000000	65.104222 
3000.000000	65.066862 
2999.000000	65.030384 
2998.000000	64.997649 
2997.000000	64.970922 
2996.000000	64.951896 
2995.000000	64.941287 
2994.000000	64.939165 
2993.000000	64.944839 
2992.000000	64.957070 
2991.000000	64.973998 
2990.000000	64.993548 
2989.000000	65.013456 
2988.000000	65.031528 
2987.000000	65.045762 
2986.000000	65.054607 
2985.000000	65.057206 
2984.000000	65.053439 
2983.000000	65.043807 
2982.000000	65.029191 
2981.000000	65.010547 
2980.000000	64.988923 
2979.000000	64.964914 
2978.000000	64.939022 
2977.000000	64.911580 
2976.000000	64.882874 
2975.000000	64.853572 
2974.000000	64.824700 
2973.000000	64.797925 
2972.000000	64.775133 
2971.000000	64.758372 
2970.000000	64.749097 
2969.000000	64.748430 
2968.000000	64.756321 
2967.000000	64.771914 
2966.000000	64.793300 
2965.000000	64.818048 
2964.000000	64.843463 
2963.000000	64.867138 
2962.000000	64.887213 
2961.000000	64.902901 
2960.000000	64.914178 
2959.000000	64.921951 
2958.000000	64.927744 
2957.000000	64.933371 
2956.000000	64.940285 
2955.000000	64.949536 
2954.000000	64.961194 
2953.000000	64.974570 
2952.000000	64.987969 
2951.000000	64.999127 
2950.000000	65.005564 
2949.000000	65.005254 
2948.000000	64.997291 
2947.000000	64.981794 
2946.000000	64.960503 
2945.000000	64.936447 
2944.000000	64.913153 
2943.000000	64.894199 
2942.000000	64.882254 
2941.000000	64.878630 
2940.000000	64.882874 
2939.000000	64.893126 
2938.000000	64.906477 
2937.000000	64.919686 
2936.000000	64.929986 
2935.000000	64.935708 
2934.000000	64.936566 
2933.000000	64.933300 
2932.000000	64.927554 
2931.000000	64.921188 
2930.000000	64.915728 
2929.000000	64.911937 
2928.000000	64.910054 
2927.000000	64.909625 
2926.000000	64.910292 
2925.000000	64.911723 
2924.000000	64.913868 
2923.000000	64.916825 
2922.000000	64.920759 
2921.000000	64.925646 
2920.000000	64.931058 
2919.000000	64.936423 
2918.000000	64.940690 
2917.000000	64.942955 
2916.000000	64.942574 
2915.000000	64.939308 
2914.000000	64.933729 
2913.000000	64.926886 
2912.000000	64.920210 
2911.000000	64.914703 
2910.000000	64.911222 
2909.000000	64.909648 
2908.000000	64.909029 
2907.000000	64.907813 
2906.000000	64.904308 
2905.000000	64.897418 
2904.000000	64.886951 
2903.000000	64.874219 
2902.000000	64.861536 
2901.000000	64.852190 
2900.000000	64.849352 
2899.000000	64.855408 
2898.000000	64.871120 
2897.000000	64.895272 
2896.000000	64.924740 
2895.000000	64.955186 
2894.000000	64.982008 
2893.000000	65.001630 
2892.000000	65.012025 
2891.000000	65.013337 
2890.000000	65.007472 
2889.000000	64.997482 
2888.000000	64.986705 
2887.000000	64.977622 
2886.000000	64.971542 
2885.000000	64.968538 
2884.000000	64.967846 
2883.000000	64.968323 
2882.000000	64.969062 
2881.000000	64.969897 
2880.000000	64.971208 
2879.000000	64.973926 
2878.000000	64.978957 
2877.000000	64.986729 
2876.000000	64.996838 
2875.000000	65.008020 
2874.000000	65.018630 
2873.000000	65.026950 
2872.000000	65.031766 
2871.000000	65.032696 
2870.000000	65.030193 
2869.000000	65.025162 
2868.000000	65.018725 
2867.000000	65.011620 
2866.000000	65.003824 
2865.000000	64.994549 
2864.000000	64.982581 
2863.000000	64.966607 
2862.000000	64.945983 
2861.000000	64.920902 
2860.000000	64.892578 
2859.000000	64.863419 
2858.000000	64.836335 
2857.000000	64.814305 
2856.000000	64.799618 
2855.000000	64.793443 
2854.000000	64.795517 
2853.000000	64.804291 
2852.000000	64.817333 
2851.000000	64.831709 
2850.000000	64.844918 
2849.000000	64.855122 
2848.000000	64.861464 
2847.000000	64.864063 
2846.000000	64.864039 
2845.000000	64.862990 
2844.000000	64.862728 
2843.000000	64.864778 
2842.000000	64.870023 
2841.000000	64.878892 
2840.000000	64.891004 
2839.000000	64.905142 
2838.000000	64.919686 
2837.000000	64.932751 
2836.000000	64.942669 
2835.000000	64.948153 
2834.000000	64.948749 
2833.000000	64.944863 
2832.000000	64.937901 
2831.000000	64.929795 
2830.000000	64.922738 
2829.000000	64.918684 
2828.000000	64.918804 
2827.000000	64.923095 
2826.000000	64.930343 
2825.000000	64.938545 
2824.000000	64.945268 
2823.000000	64.948225 
2822.000000	64.945840 
2821.000000	64.937782 
2820.000000	64.924955 
2819.000000	64.909338 
2818.000000	64.893436 
2817.000000	64.879941 
2816.000000	64.871311 
2815.000000	64.869213 
2814.000000	64.874458 
2813.000000	64.886784 
2812.000000	64.905023 
2811.000000	64.927220 
2810.000000	64.950823 
2809.000000	64.973163 
2808.000000	64.991664 
2807.000000	65.004420 
2806.000000	65.010261 
2805.000000	65.009093 
2804.000000	65.001916 
2803.000000	64.990472 
2802.000000	64.977097 
2801.000000	64.963984 
2800.000000	64.952850 
2799.000000	64.944577 
2798.000000	64.939188 
2797.000000	64.936089 
2796.000000	64.934396 
2795.000000	64.933371 
2794.000000	64.932751 
2793.000000	64.932727 
2792.000000	64.933800 
2791.000000	64.936375 
2790.000000	64.940547 
2789.000000	64.945721 
2788.000000	64.950776 
2787.000000	64.954185 
2786.000000	64.954423 
2785.000000	64.950299 
2784.000000	64.941430 
2783.000000	64.928436 
2782.000000	64.913010 
2781.000000	64.897274 
2780.000000	64.883828 
2779.000000	64.874744 
2778.000000	64.871621 
2777.000000	64.875149 
2776.000000	64.885044 
2775.000000	64.899992 
2774.000000	64.917969 
2773.000000	64.936733 
2772.000000	64.953923 
2771.000000	64.967417 
2770.000000	64.975762 
2769.000000	64.978241 
2768.000000	64.975047 
2767.000000	64.967012 
2766.000000	64.955544 
2765.000000	64.942216 
2764.000000	64.928579 
2763.000000	64.915943 
2762.000000	64.905166 
2761.000000	64.896869 
2760.000000	64.891386 
2759.000000	64.888858 
2758.000000	64.889621 
2757.000000	64.893841 
2756.000000	64.901614 
2755.000000	64.912748 
2754.000000	64.926385 
2753.000000	64.941072 
2752.000000	64.954805 
2751.000000	64.965343 
2750.000000	64.970684 
2749.000000	64.969491 
2748.000000	64.961528 
2747.000000	64.947724 
2746.000000	64.929938 
2745.000000	64.910745 
2744.000000	64.892649 
2743.000000	64.877843 
2742.000000	64.867758 
2741.000000	64.862895 
2740.000000	64.862942 
2739.000000	64.866995 
2738.000000	64.873981 
2737.000000	64.882755 
2736.000000	64.892435 
2735.000000	64.902043 
2734.000000	64.910888 
2733.000000	64.918112 
2732.000000	64.922952 
2731.000000	64.924693 
2730.000000	64.922809 
2729.000000	64.917278 
2728.000000	64.908599 
2727.000000	64.897775 
2726.000000	64.885854 
2725.000000	64.874339 
2724.000000	64.864182 
2723.000000	64.856123 
2722.000000	64.850234 
2721.000000	64.846110 
2720.000000	64.842915 
2719.000000	64.839839 
2718.000000	64.836144 
2717.000000	64.831423 
2716.000000	64.825654 
2715.000000	64.819359 
2714.000000	64.813256 
2713.000000	64.808154 
2712.000000	64.804744 
2711.000000	64.803314 
2710.000000	64.803862 
2709.000000	64.806008 
2708.000000	64.809274 
2707.000000	64.813137 
2706.000000	64.816999 
2705.000000	64.820623 
2704.000000	64.823913 
2703.000000	64.827179 
2702.000000	64.830732 
2701.000000	64.834880 
2700.000000	64.839911 
2699.000000	64.845752 
2698.000000	64.852213 
2697.000000	64.858722 
2696.000000	64.864516 
2695.000000	64.868640 
2694.000000	64.870405 
2693.000000	64.869117 
2692.000000	64.864492 
2691.000000	64.856696 
2690.000000	64.846372 
2689.000000	64.834666 
2688.000000	64.823174 
2687.000000	64.813804 
2686.000000	64.808249 
2685.000000	64.808154 
2684.000000	64.814543 
2683.000000	64.827775 
2682.000000	64.847183 
2681.000000	64.871215 
2680.000000	64.897418 
2679.000000	64.922857 
2678.000000	64.944601 
2677.000000	64.960026 
2676.000000	64.967393 
2675.000000	64.966106 
2674.000000	64.956879 
2673.000000	64.941692 
2672.000000	64.923310 
2671.000000	64.904832 
2670.000000	64.888930 
2669.000000	64.877796 
2668.000000	64.872217 
2667.000000	64.872002 
2666.000000	64.875769 
2665.000000	64.881491 
2664.000000	64.886856 
2663.000000	64.889907 
2662.000000	64.889430 
2661.000000	64.884972 
2660.000000	64.877128 
2659.000000	64.867234 
2658.000000	64.857316 
2657.000000	64.849328 
2656.000000	64.845108 
2655.000000	64.845848 
2654.000000	64.852046 
2653.000000	64.863228 
2652.000000	64.878106 
2651.000000	64.894533 
2650.000000	64.910101 
2649.000000	64.922261 
2648.000000	64.928746 
2647.000000	64.928030 
2646.000000	64.919614 
2645.000000	64.904308 
2644.000000	64.883947 
2643.000000	64.861297 
2642.000000	64.839434 
2641.000000	64.821338 
2640.000000	64.809560 
2639.000000	64.805459 
2638.000000	64.809131 
2637.000000	64.819622 
2636.000000	64.835190 
2635.000000	64.853620 
2634.000000	64.872717 
2633.000000	64.890646 
2632.000000	64.906048 
2631.000000	64.917945 
2630.000000	64.925861 
2629.000000	64.929437 
2628.000000	64.928388 
2627.000000	64.922714 
2626.000000	64.912700 
2625.000000	64.899110 
2624.000000	64.883184 
2623.000000	64.866614 
2622.000000	64.851403 
2621.000000	64.839410 
2620.000000	64.832067 
2619.000000	64.829754 
2618.000000	64.832186 
2617.000000	64.838051 
2616.000000	64.845538 
2615.000000	64.852738 
2614.000000	64.858150 
2613.000000	64.861083 
2612.000000	64.861512 
2611.000000	64.860129 
2610.000000	64.857959 
2609.000000	64.856004 
2608.000000	64.855003 
2607.000000	64.855074 
2606.000000	64.855861 
2605.000000	64.856719 
2604.000000	64.856982 
2603.000000	64.856076 
2602.000000	64.853692 
2601.000000	64.849805 
2600.000000	64.844536 
2599.000000	64.838361 
2598.000000	64.831566 
2597.000000	64.824557 
2596.000000	64.817667 
2595.000000	64.811420 
2594.000000	64.806652 
2593.000000	64.804172 
2592.000000	64.804792 
2591.000000	64.809155 
2590.000000	64.817357 
2589.000000	64.828824 
2588.000000	64.842081 
2587.000000	64.855170 
2586.000000	64.865756 
2585.000000	64.871954 
2584.000000	64.872694 
2583.000000	64.867925 
2582.000000	64.859032 
2581.000000	64.848184 
2580.000000	64.837908 
2579.000000	64.830565 
2578.000000	64.827537 
2577.000000	64.828777 
2576.000000	64.832782 
2575.000000	64.837050 
2574.000000	64.838647 
2573.000000	64.834880 
2572.000000	64.824295 
2571.000000	64.806699 
2570.000000	64.783811 
2569.000000	64.758539 
2568.000000	64.734745 
2567.000000	64.716053 
2566.000000	64.705300 
2565.000000	64.703750 
2564.000000	64.710879 
2563.000000	64.724850 
2562.000000	64.742636 
2561.000000	64.760971 
2560.000000	64.777064 
2559.000000	64.789056 
2558.000000	64.796423 
2557.000000	64.799880 
2556.000000	64.801144 
2555.000000	64.802026 
2554.000000	64.804458 
2553.000000	64.809846 
2552.000000	64.818882 
2551.000000	64.831328 
2550.000000	64.846277 
2549.000000	64.862227 
2548.000000	64.877438 
2547.000000	64.890146 
2546.000000	64.898633 
2545.000000	64.901447 
2544.000000	64.897847 
2543.000000	64.888095 
2542.000000	64.873147 
2541.000000	64.854931 
2540.000000	64.836120 
2539.000000	64.819574 
2538.000000	64.808082 
2537.000000	64.803385 
2536.000000	64.806103 
2535.000000	64.815425 
2534.000000	64.829301 
2533.000000	64.844799 
2532.000000	64.858698 
2531.000000	64.868140 
2530.000000	64.871311 
2529.000000	64.867615 
2528.000000	64.857602 
2527.000000	64.842820 
2526.000000	64.825463 
2525.000000	64.807724 
2524.000000	64.791631 
2523.000000	64.778947 
2522.000000	64.771103 
2521.000000	64.769220 
2520.000000	64.774227 
2519.000000	64.786672 
2518.000000	64.806485 
2517.000000	64.832878 
2516.000000	64.864134 
2515.000000	64.897823 
2514.000000	64.930510 
2513.000000	64.958739 
2512.000000	64.979147 
2511.000000	64.989113 
2510.000000	64.987230 
2509.000000	64.973568 
2508.000000	64.949750 
2507.000000	64.918661 
2506.000000	64.884138 
2505.000000	64.850378 
2504.000000	64.821219 
2503.000000	64.799737 
2502.000000	64.787840 
2501.000000	64.785909 
2500.000000	64.793014 
2499.000000	64.807271 
2498.000000	64.825963 
2497.000000	64.846229 
2496.000000	64.865565 
2495.000000	64.882349 
2494.000000	64.895772 
2493.000000	64.906001 
2492.000000	64.913654 
2491.000000	64.919686 
2490.000000	64.924907 
2489.000000	64.929747 
2488.000000	64.934110 
2487.000000	64.937186 
2486.000000	64.938259 
2485.000000	64.936375 
2484.000000	64.931273 
2483.000000	64.922904 
2482.000000	64.911866 
2481.000000	64.898991 
2480.000000	64.885401 
2479.000000	64.871954 
2478.000000	64.859414 
2477.000000	64.848113 
2476.000000	64.838099 
2475.000000	64.829277 
2474.000000	64.821457 
2473.000000	64.814352 
2472.000000	64.807558 
2471.000000	64.800620 
2470.000000	64.793109 
2469.000000	64.784717 
2468.000000	64.775228 
2467.000000	64.764928 
2466.000000	64.754438 
2465.000000	64.745116 
2464.000000	64.738440 
2463.000000	64.736104 
2462.000000	64.739203 
2461.000000	64.748120 
2460.000000	64.762163 
2459.000000	64.779448 
2458.000000	64.797735 
2457.000000	64.814424 
2456.000000	64.827585 
2455.000000	64.836001 
2454.000000	64.839792 
2453.000000	64.840126 
2452.000000	64.838910 
2451.000000	64.838099 
2450.000000	64.839172 
2449.000000	64.842438 
2448.000000	64.847254 
2447.000000	64.852213 
2446.000000	64.855575 
2445.000000	64.855933 
2444.000000	64.852881 
2443.000000	64.847111 
2442.000000	64.840292 
2441.000000	64.834690 
2440.000000	64.832472 
2439.000000	64.835309 
2438.000000	64.843893 
2437.000000	64.857745 
2436.000000	64.875435 
2435.000000	64.894652 
2434.000000	64.912891 
2433.000000	64.927673 
2432.000000	64.936876 
2431.000000	64.939141 
2430.000000	64.933824 
2429.000000	64.921331 
2428.000000	64.902782 
2427.000000	64.880084 
2426.000000	64.855837 
2425.000000	64.832711 
2424.000000	64.813351 
2423.000000	64.799618 
2422.000000	64.792466 
2421.000000	64.791727 
2420.000000	64.796161 
2419.000000	64.803886 
2418.000000	64.813041 
2417.000000	64.822196 
2416.000000	64.830493 
2415.000000	64.837861 
2414.000000	64.844655 
2413.000000	64.851236 
2412.000000	64.857411 
2411.000000	64.862585 
2410.000000	64.865374 
2409.000000	64.864063 
2408.000000	64.857101 
2407.000000	64.843678 
2406.000000	64.823913 
2405.000000	64.799141 
2404.000000	64.771723 
2403.000000	64.744782 
2402.000000	64.721632 
2401.000000	64.704895 
2400.000000	64.696240 
2399.000000	64.696216 
2398.000000	64.704108 
2397.000000	64.718365 
2396.000000	64.736652 
2395.000000	64.756345 
2394.000000	64.775109 
2393.000000	64.791083 
2392.000000	64.803051 
2391.000000	64.810490 
2390.000000	64.813590 
2389.000000	64.813041 
2388.000000	64.809727 
2387.000000	64.804363 
2386.000000	64.797568 
2385.000000	64.789676 
2384.000000	64.780783 
2383.000000	64.770936 
2382.000000	64.760351 
2381.000000	64.749217 
2380.000000	64.738059 
2379.000000	64.727306 
2378.000000	64.717364 
2377.000000	64.708495 
2376.000000	64.700555 
2375.000000	64.693331 
2374.000000	64.686465 
2373.000000	64.679980 
2372.000000	64.673995 
2371.000000	64.669394 
2370.000000	64.667272 
2369.000000	64.669036 
2368.000000	64.675807 
2367.000000	64.688253 
2366.000000	64.705967 
2365.000000	64.727663 
2364.000000	64.751148 
2363.000000	64.773654 
2362.000000	64.792466 
2361.000000	64.805531 
2360.000000	64.811873 
2359.000000	64.811754 
2358.000000	64.806795 
2357.000000	64.799356 
2356.000000	64.792108 
2355.000000	64.787507 
2354.000000	64.786934 
2353.000000	64.791083 
2352.000000	64.799261 
2351.000000	64.809894 
2350.000000	64.820933 
2349.000000	64.830374 
2348.000000	64.836335 
2347.000000	64.837622 
2346.000000	64.833974 
2345.000000	64.825773 
2344.000000	64.814257 
2343.000000	64.801073 
2342.000000	64.788198 
2341.000000	64.777541 
2340.000000	64.770722 
2339.000000	64.768743 
2338.000000	64.771819 
2337.000000	64.779305 
2336.000000	64.789795 
2335.000000	64.801454 
2334.000000	64.812445 
2333.000000	64.821338 
2332.000000	64.827322 
2331.000000	64.830279 
2330.000000	64.830565 
2329.000000	64.828634 
2328.000000	64.824771 
2327.000000	64.818739 
2326.000000	64.809870 
2325.000000	64.797210 
2324.000000	64.779973 
2323.000000	64.758110 
2322.000000	64.732551 
2321.000000	64.705443 
2320.000000	64.679813 
2319.000000	64.659023 
2318.000000	64.646100 
2317.000000	64.642930 
2316.000000	64.649724 
2315.000000	64.665031 
2314.000000	64.686083 
2313.000000	64.709353 
2312.000000	64.731144 
2311.000000	64.748644 
2310.000000	64.760255 
2309.000000	64.765787 
2308.000000	64.766168 
2307.000000	64.763355 
2306.000000	64.759659 
2305.000000	64.757180 
2304.000000	64.757394 
2303.000000	64.761018 
2302.000000	64.767670 
2301.000000	64.776468 
2300.000000	64.785814 
2299.000000	64.794158 
2298.000000	64.800119 
2297.000000	64.802885 
2296.000000	64.802217 
2295.000000	64.798212 
2294.000000	64.791464 
2293.000000	64.783048 
2292.000000	64.773821 
2291.000000	64.764523 
2290.000000	64.755368 
2289.000000	64.746499 
2288.000000	64.737534 
2287.000000	64.727783 
2286.000000	64.716506 
2285.000000	64.703273 
2284.000000	64.687800 
2283.000000	64.670467 
2282.000000	64.652061 
2281.000000	64.633679 
2280.000000	64.616894 
2279.000000	64.603304 
2278.000000	64.594149 
2277.000000	64.590120 
2276.000000	64.591145 
2275.000000	64.596557 
2274.000000	64.604973 
2273.000000	64.615011 
2272.000000	64.625310 
2271.000000	64.635229 
2270.000000	64.644646 
2269.000000	64.654374 
2268.000000	64.665508 
2267.000000	64.679479 
2266.000000	64.697122 
2265.000000	64.718723 
2264.000000	64.743733 
2263.000000	64.770817 
2262.000000	64.798164 
2261.000000	64.823651 
2260.000000	64.845466 
2259.000000	64.862179 
2258.000000	64.873099 
2257.000000	64.878106 
2256.000000	64.877486 
2255.000000	64.872002 
2254.000000	64.862489 
2253.000000	64.849734 
2252.000000	64.834475 
2251.000000	64.817643 
2250.000000	64.800095 
2249.000000	64.782857 
2248.000000	64.766788 
2247.000000	64.752745 
2246.000000	64.741253 
2245.000000	64.732551 
2244.000000	64.726448 
2243.000000	64.722394 
2242.000000	64.719581 
2241.000000	64.717173 
2240.000000	64.714670 
2239.000000	64.711618 
2238.000000	64.708042 
2237.000000	64.704155 
2236.000000	64.700388 
2235.000000	64.696931 
2234.000000	64.694046 
2233.000000	64.691829 
2232.000000	64.690375 
2231.000000	64.689707 
2230.000000	64.690065 
2229.000000	64.691877 
2228.000000	64.695620 
2227.000000	64.701795 
2226.000000	64.710664 
2225.000000	64.722037 
2224.000000	64.735198 
2223.000000	64.748859 
2222.000000	64.761519 
2221.000000	64.771580 
2220.000000	64.777922 
2219.000000	64.779829 
2218.000000	64.777421 
2217.000000	64.771413 
2216.000000	64.763116 
2215.000000	64.754080 
2214.000000	64.745879 
2213.000000	64.739727 
2212.000000	64.736413 
2211.000000	64.735984 
2210.000000	64.737915 
2209.000000	64.741134 
2208.000000	64.744472 
2207.000000	64.746928 
2206.000000	64.747834 
2205.000000	64.747095 
2204.000000	64.745235 
2203.000000	64.743256 
2202.000000	64.742279 
2201.000000	64.743185 
2200.000000	64.746379 
2199.000000	64.751720 
2198.000000	64.758205 
2197.000000	64.764475 
2196.000000	64.768862 
2195.000000	64.769840 
2194.000000	64.766359 
2193.000000	64.758157 
2192.000000	64.745569 
2191.000000	64.729380 
2190.000000	64.710903 
2189.000000	64.691424 
2188.000000	64.672279 
2187.000000	64.654779 
2186.000000	64.640092 
2185.000000	64.629364 
2184.000000	64.623498 
2183.000000	64.623117 
2182.000000	64.628386 
2181.000000	64.638781 
2180.000000	64.653062 
2179.000000	64.669251 
2178.000000	64.684987 
2177.000000	64.697766 
2176.000000	64.705252 
2175.000000	64.705801 
2174.000000	64.698863 
2173.000000	64.685058 
2172.000000	64.666032 
2171.000000	64.644193 
2170.000000	64.622426 
2169.000000	64.603638 
2168.000000	64.590263 
2167.000000	64.583897 
2166.000000	64.585232 
2165.000000	64.593911 
2164.000000	64.608621 
2163.000000	64.627194 
2162.000000	64.647221 
2161.000000	64.665889 
2160.000000	64.680552 
2159.000000	64.688992 
2158.000000	64.689731 
2157.000000	64.682340 
2156.000000	64.667344 
2155.000000	64.646172 
2154.000000	64.621233 
2153.000000	64.595222 
2152.000000	64.570999 
2151.000000	64.551043 
2150.000000	64.537286 
2149.000000	64.530849 
2148.000000	64.532113 
2147.000000	64.540696 
2146.000000	64.555597 
2145.000000	64.575457 
2144.000000	64.598679 
2143.000000	64.623451 
2142.000000	64.647769 
2141.000000	64.669609 
2140.000000	64.687132 
2139.000000	64.698886 
2138.000000	64.704155 
2137.000000	64.703106 
2136.000000	64.696884 
2135.000000	64.687633 
2134.000000	64.677977 
2133.000000	64.670491 
2132.000000	64.666914 
2131.000000	64.668297 
2130.000000	64.674258 
2129.000000	64.683628 
2128.000000	64.694523 
2127.000000	64.705157 
2126.000000	64.714193 
2125.000000	64.721035 
2124.000000	64.726018 
2123.000000	64.730119 
2122.000000	64.734387 
2121.000000	64.739489 
2120.000000	64.745402 
2119.000000	64.751243 
2118.000000	64.755344 
2117.000000	64.755725 
2116.000000	64.750599 
2115.000000	64.738869 
2114.000000	64.720511 
2113.000000	64.696669 
2112.000000	64.669346 
2111.000000	64.641380 
2110.000000	64.615511 
2109.000000	64.594507 
2108.000000	64.580202 
2107.000000	64.573550 
2106.000000	64.574623 
2105.000000	64.582777 
2104.000000	64.596605 
2103.000000	64.614415 
2102.000000	64.634394 
2101.000000	64.654994 
2100.000000	64.674711 
2099.000000	64.692521 
2098.000000	64.707541 
2097.000000	64.719057 
2096.000000	64.726495 
2095.000000	64.729380 
2094.000000	64.727473 
2093.000000	64.720726 
2092.000000	64.709544 
2091.000000	64.694976 
2090.000000	64.678812 
2089.000000	64.663457 
2088.000000	64.651417 
2087.000000	64.645051 
2086.000000	64.645957 
2085.000000	64.654541 
2084.000000	64.669513 
2083.000000	64.688253 
2082.000000	64.706993 
2081.000000	64.721608 
2080.000000	64.728474 
2079.000000	64.725089 
2078.000000	64.710831 
2077.000000	64.686918 
2076.000000	64.656448 
2075.000000	64.623522 
2074.000000	64.592552 
2073.000000	64.567351 
2072.000000	64.550447 
2071.000000	64.542913 
2070.000000	64.544177 
2069.000000	64.552259 
2068.000000	64.564371 
2067.000000	64.577341 
2066.000000	64.588189 
2065.000000	64.594388 
2064.000000	64.594316 
2063.000000	64.587497 
2062.000000	64.574408 
2061.000000	64.556527 
2060.000000	64.536046 
2059.000000	64.515495 
2058.000000	64.497542 
2057.000000	64.484477 
2056.000000	64.477539 
2055.000000	64.477038 
2054.000000	64.482140 
2053.000000	64.491248 
2052.000000	64.502191 
2051.000000	64.512968 
2050.000000	64.521956 
2049.000000	64.528536 
2048.000000	64.533066 
2047.000000	64.536619 
2046.000000	64.540696 
2045.000000	64.546513 
2044.000000	64.554548 
2043.000000	64.564490 
2042.000000	64.575195 
2041.000000	64.584970 
2040.000000	64.591956 
2039.000000	64.594817 
2038.000000	64.593124 
2037.000000	64.587545 
2036.000000	64.579677 
2035.000000	64.571642 
2034.000000	64.565467 
2033.000000	64.562630 
2032.000000	64.563798 
2031.000000	64.568567 
2030.000000	64.575743 
2029.000000	64.583873 
2028.000000	64.591598 
2027.000000	64.598155 
2026.000000	64.603400 
2025.000000	64.607763 
2024.000000	64.611840 
2023.000000	64.616060 
2022.000000	64.620471 
2021.000000	64.624404 
2020.000000	64.626669 
2019.000000	64.625978 
2018.000000	64.621520 
2017.000000	64.613151 
2016.000000	64.601755 
2015.000000	64.589095 
2014.000000	64.577507 
2013.000000	64.569306 
2012.000000	64.566183 
2011.000000	64.568734 
2010.000000	64.576339 
2009.000000	64.587473 
2008.000000	64.599990 
2007.000000	64.611577 
2006.000000	64.620256 
2005.000000	64.624857 
2004.000000	64.625096 
2003.000000	64.621496 
2002.000000	64.615011 
2001.000000	64.606976 
2000.000000	64.598774 
1999.000000	64.591693 
1998.000000	64.586663 
1997.000000	64.584469 
1996.000000	64.585757 
1995.000000	64.590859 
1994.000000	64.599704 
1993.000000	64.611816 
1992.000000	64.626264 
1991.000000	64.641427 
1990.000000	64.655447 
1989.000000	64.666056 
1988.000000	64.671349 
1987.000000	64.669680 
1986.000000	64.660191 
1985.000000	64.642882 
1984.000000	64.618682 
1983.000000	64.589142 
1982.000000	64.556431 
1981.000000	64.522910 
1980.000000	64.491081 
1979.000000	64.463305 
1978.000000	64.441537 
1977.000000	64.427304 
1976.000000	64.421391 
1975.000000	64.423680 
1974.000000	64.433264 
1973.000000	64.448165 
1972.000000	64.465975 
1971.000000	64.483904 
1970.000000	64.499354 
1969.000000	64.510416 
1968.000000	64.515805 
1967.000000	64.515280 
1966.000000	64.509296 
1965.000000	64.498972 
1964.000000	64.485597 
1963.000000	64.470505 
1962.000000	64.454913 
1961.000000	64.439606 
1960.000000	64.425325 
1959.000000	64.412713 
1958.000000	64.402461 
1957.000000	64.395260 
1956.000000	64.391732 
1955.000000	64.392399 
1954.000000	64.397454 
1953.000000	64.406728 
1952.000000	64.419698 
1951.000000	64.435577 
1950.000000	64.453506 
1949.000000	64.472866 
1948.000000	64.492869 
1947.000000	64.512872 
1946.000000	64.532351 
1945.000000	64.550828 
1944.000000	64.567804 
1943.000000	64.582633 
1942.000000	64.594674 
1941.000000	64.603281 
1940.000000	64.608025 
1939.000000	64.608502 
1938.000000	64.604711 
1937.000000	64.596652 
1936.000000	64.584851 
1935.000000	64.569807 
1934.000000	64.552354 
1933.000000	64.533448 
1932.000000	64.514040 
1931.000000	64.495158 
1930.000000	64.477753 
1929.000000	64.462733 
1928.000000	64.450693 
1927.000000	64.442038 
1926.000000	64.437055 
1925.000000	64.435791 
1924.000000	64.438247 
1923.000000	64.444327 
1922.000000	64.453697 
1921.000000	64.466166 
1920.000000	64.481019 
1919.000000	64.497280 
1918.000000	64.513540 
1917.000000	64.528203 
1916.000000	64.539623 
1915.000000	64.546179 
1914.000000	64.546918 
1913.000000	64.541721 
1912.000000	64.531254 
1911.000000	64.517211 
1910.000000	64.501714 
1909.000000	64.486932 
1908.000000	64.474630 
1907.000000	64.465856 
1906.000000	64.460539 
1905.000000	64.457631 
1904.000000	64.455509 
1903.000000	64.452481 
1902.000000	64.447307 
1901.000000	64.439511 
1900.000000	64.429712 
1899.000000	64.419198 
1898.000000	64.409685 
1897.000000	64.402461 
1896.000000	64.398169 
1895.000000	64.396548 
1894.000000	64.396524 
1893.000000	64.396572 
1892.000000	64.395308 
1891.000000	64.392066 
1890.000000	64.387035 
1889.000000	64.381694 
1888.000000	64.377832 
1887.000000	64.377808 
1886.000000	64.383411 
1885.000000	64.395570 
1884.000000	64.413928 
1883.000000	64.436912 
1882.000000	64.462137 
1881.000000	64.486932 
1880.000000	64.508748 
1879.000000	64.525818 
1878.000000	64.537453 
1877.000000	64.544081 
1876.000000	64.546847 
1875.000000	64.547371 
1874.000000	64.547157 
1873.000000	64.547467 
1872.000000	64.548873 
1871.000000	64.551377 
1870.000000	64.554238 
1869.000000	64.556622 
1868.000000	64.557838 
1867.000000	64.557313 
1866.000000	64.554977 
1865.000000	64.551234 
1864.000000	64.546823 
1863.000000	64.542531 
1862.000000	64.539027 
1861.000000	64.536571 
1860.000000	64.535045 
1859.000000	64.533948 
1858.000000	64.532446 
1857.000000	64.529538 
1856.000000	64.523983 
1855.000000	64.514780 
1854.000000	64.500999 
1853.000000	64.482092 
1852.000000	64.458298 
1851.000000	64.430522 
1850.000000	64.400577 
1849.000000	64.370775 
1848.000000	64.344048 
1847.000000	64.323282 
1846.000000	64.310908 
1845.000000	64.308452 
1844.000000	64.316153 
1843.000000	64.333200 
1842.000000	64.357471 
1841.000000	64.386081 
1840.000000	64.415884 
1839.000000	64.443874 
1838.000000	64.467692 
1837.000000	64.485597 
1836.000000	64.496731 
1835.000000	64.501094 
1834.000000	64.499139 
1833.000000	64.491939 
1832.000000	64.480924 
1831.000000	64.467573 
1830.000000	64.453792 
1829.000000	64.441227 
1828.000000	64.431452 
1827.000000	64.425516 
1826.000000	64.424037 
1825.000000	64.426827 
1824.000000	64.432954 
1823.000000	64.441013 
1822.000000	64.449262 
1821.000000	64.456105 
1820.000000	64.460134 
1819.000000	64.460635 
1818.000000	64.457678 
1817.000000	64.451813 
1816.000000	64.444231 
1815.000000	64.436388 
1814.000000	64.429688 
1813.000000	64.425539 
1812.000000	64.424753 
1811.000000	64.427733 
1810.000000	64.434051 
1809.000000	64.442801 
1808.000000	64.452314 
1807.000000	64.460420 
1806.000000	64.465093 
1805.000000	64.464735 
1804.000000	64.458703 
1803.000000	64.447307 
1802.000000	64.432096 
1801.000000	64.415526 
1800.000000	64.400434 
1799.000000	64.389586 
1798.000000	64.384746 
1797.000000	64.386391 
1796.000000	64.393711 
1795.000000	64.404654 
1794.000000	64.416670 
1793.000000	64.427256 
1792.000000	64.434361 
1791.000000	64.437079 
1790.000000	64.435505 
1789.000000	64.430665 
1788.000000	64.423823 
1787.000000	64.416408 
1786.000000	64.409589 
1785.000000	64.404416 
1784.000000	64.401340 
1783.000000	64.400601 
1782.000000	64.402198 
1781.000000	64.405941 
1780.000000	64.411425 
1779.000000	64.417934 
1778.000000	64.424514 
1777.000000	64.430117 
1776.000000	64.433479 
1775.000000	64.433979 
1774.000000	64.431524 
1773.000000	64.426827 
1772.000000	64.421248 
1771.000000	64.416503 
1770.000000	64.414286 
1769.000000	64.415693 
1768.000000	64.420843 
1767.000000	64.428901 
1766.000000	64.438104 
1765.000000	64.446163 
1764.000000	64.450716 
1763.000000	64.449810 
1762.000000	64.442443 
1761.000000	64.428329 
1760.000000	64.408135 
1759.000000	64.383268 
1758.000000	64.355468 
1757.000000	64.326739 
1756.000000	64.299082 
1755.000000	64.274072 
1754.000000	64.253067 
1753.000000	64.237070 
1752.000000	64.226436 
1751.000000	64.220905 
1750.000000	64.219570 
1749.000000	64.220929 
1748.000000	64.223217 
1747.000000	64.224553 
1746.000000	64.223265 
1745.000000	64.218258 
1744.000000	64.209055 
1743.000000	64.195847 
1742.000000	64.179277 
1741.000000	64.160370 
1740.000000	64.140295 
1739.000000	64.120221 
1738.000000	64.101195 
1737.000000	64.084434 
1736.000000	64.071035 
1735.000000	64.062237 
1734.000000	64.059066 
1733.000000	64.062285 
1732.000000	64.071893 
1731.000000	64.087319 
1730.000000	64.106917 
1729.000000	64.128637 
1728.000000	64.149975 
1727.000000	64.168810 
1726.000000	64.183831 
1725.000000	64.194679 
1724.000000	64.201760 
1723.000000	64.206242 
1722.000000	64.209532 
1721.000000	64.212989 
1720.000000	64.217305 
1719.000000	64.222574 
1718.000000	64.228487 
1717.000000	64.234447 
1716.000000	64.239907 
1715.000000	64.244604 
1714.000000	64.248657 
1713.000000	64.252257 
1712.000000	64.255452 
1711.000000	64.258003 
1710.000000	64.259099 
1709.000000	64.257550 
1708.000000	64.252138 
1707.000000	64.241933 
1706.000000	64.226698 
1705.000000	64.207196 
1704.000000	64.185261 
1703.000000	64.163327 
1702.000000	64.144396 
1701.000000	64.131212 
1700.000000	64.126038 
1699.000000	64.129924 
1698.000000	64.142560 
1697.000000	64.162349 
1696.000000	64.186549 
1695.000000	64.211797 
1694.000000	64.234590 
1693.000000	64.251971 
1692.000000	64.261984 
1691.000000	64.263939 
1690.000000	64.258480 
1689.000000	64.247369 
1688.000000	64.233112 
1687.000000	64.218497 
1686.000000	64.205718 
1685.000000	64.196062 
1684.000000	64.189743 
1683.000000	64.185857 
1682.000000	64.182782 
1681.000000	64.178705 
1680.000000	64.172148 
1679.000000	64.162302 
1678.000000	64.149093 
1677.000000	64.133596 
1676.000000	64.117097 
1675.000000	64.101433 
1674.000000	64.088392 
1673.000000	64.079403 
1672.000000	64.075326 
1671.000000	64.076566 
1670.000000	64.082789 
1669.000000	64.093255 
1668.000000	64.106869 
1667.000000	64.122366 
1666.000000	64.138484 
1665.000000	64.154243 
1664.000000	64.168906 
1663.000000	64.182400 
1662.000000	64.194869 
1661.000000	64.206886 
1660.000000	64.219045 
1659.000000	64.231777 
1658.000000	64.244914 
1657.000000	64.257812 
1656.000000	64.269471 
1655.000000	64.278626 
1654.000000	64.284300 
1653.000000	64.286041 
1652.000000	64.283967 
1651.000000	64.278793 
1650.000000	64.271616 
1649.000000	64.263558 
1648.000000	64.255523 
1647.000000	64.247965 
1646.000000	64.240860 
1645.000000	64.233922 
1644.000000	64.226818 
1643.000000	64.219355 
1642.000000	64.211535 
1641.000000	64.203882 
1640.000000	64.197301 
1639.000000	64.192771 
1638.000000	64.191412 
1637.000000	64.193892 
1636.000000	64.200568 
1635.000000	64.211440 
1634.000000	64.225935 
1633.000000	64.243006 
1632.000000	64.261221 
1631.000000	64.278721 
1630.000000	64.293408 
1629.000000	64.303183 
1628.000000	64.306044 
1627.000000	64.300751 
1626.000000	64.286804 
1625.000000	64.264941 
1624.000000	64.237236 
1623.000000	64.206838 
1622.000000	64.177536 
1621.000000	64.153265 
1620.000000	64.137434 
1619.000000	64.132070 
1618.000000	64.137792 
1617.000000	64.153409 
1616.000000	64.176201 
1615.000000	64.202475 
1614.000000	64.228343 
1613.000000	64.250493 
1612.000000	64.266443 
1611.000000	64.275240 
1610.000000	64.277148 
1609.000000	64.273643 
1608.000000	64.266729 
1607.000000	64.258551 
1606.000000	64.250898 
1605.000000	64.244794 
1604.000000	64.240479 
1603.000000	64.237403 
1602.000000	64.234542 
1601.000000	64.230728 
1600.000000	64.224958 
1599.000000	64.216470 
1598.000000	64.205074 
1597.000000	64.190959 
1596.000000	64.175033 
1595.000000	64.158391 
1594.000000	64.142441 
1593.000000	64.128613 
1592.000000	64.118075 
1591.000000	64.111828 
1590.000000	64.110136 
1589.000000	64.112591 
1588.000000	64.117980 
1587.000000	64.124584 
1586.000000	64.130282 
1585.000000	64.132952 
1584.000000	64.130926 
1583.000000	64.123249 
1582.000000	64.110040 
1581.000000	64.092707 
1580.000000	64.073514 
1579.000000	64.055180 
1578.000000	64.040398 
1577.000000	64.031243 
1576.000000	64.028882 
1575.000000	64.033460 
1574.000000	64.044070 
1573.000000	64.059233 
1572.000000	64.077067 
1571.000000	64.095902 
1570.000000	64.114165 
1569.000000	64.130663 
1568.000000	64.144468 
1567.000000	64.154958 
1566.000000	64.161729 
1565.000000	64.164781 
1564.000000	64.164376 
1563.000000	64.161157 
1562.000000	64.156150 
1561.000000	64.150357 
1560.000000	64.144968 
1559.000000	64.140701 
1558.000000	64.137673 
1557.000000	64.135360 
1556.000000	64.132738 
1555.000000	64.128470 
1554.000000	64.121627 
1553.000000	64.111852 
1552.000000	64.099860 
1551.000000	64.087200 
1550.000000	64.075946 
1549.000000	64.068365 
1548.000000	64.066267 
1547.000000	64.070749 
1546.000000	64.081621 
1545.000000	64.097642 
1544.000000	64.116573 
1543.000000	64.135718 
1542.000000	64.152288 
1541.000000	64.163827 
1540.000000	64.168763 
1539.000000	64.166474 
1538.000000	64.157581 
1537.000000	64.143419 
1536.000000	64.125967 
1535.000000	64.107370 
1534.000000	64.089798 
1533.000000	64.074945 
1532.000000	64.064002 
1531.000000	64.057612 
1530.000000	64.055752 
1529.000000	64.058041 
1528.000000	64.064049 
1527.000000	64.073491 
1526.000000	64.086151 
1525.000000	64.101910 
1524.000000	64.120578 
1523.000000	64.141607 
1522.000000	64.164042 
1521.000000	64.186429 
1520.000000	64.206933 
1519.000000	64.223456 
1518.000000	64.234375 
1517.000000	64.238381 
1516.000000	64.234972 
1515.000000	64.224147 
1514.000000	64.206910 
1513.000000	64.184999 
1512.000000	64.160633 
1511.000000	64.136385 
1510.000000	64.114713 
1509.000000	64.097428 
1508.000000	64.085555 
1507.000000	64.078903 
1506.000000	64.076304 
1505.000000	64.075732 
1504.000000	64.074635 
1503.000000	64.070844 
1502.000000	64.062952 
1501.000000	64.050912 
1500.000000	64.035987 
1499.000000	64.020681 
1498.000000	64.007973 
1497.000000	64.000606 
1496.000000	64.000439 
1495.000000	64.007902 
1494.000000	64.021873 
1493.000000	64.040493 
1492.000000	64.061450 
1491.000000	64.082646 
1490.000000	64.102363 
1489.000000	64.119338 
1488.000000	64.132809 
1487.000000	64.141845 
1486.000000	64.145708 
1485.000000	64.143967 
1484.000000	64.136648 
1483.000000	64.124560 
1482.000000	64.109325 
1481.000000	64.093136 
1480.000000	64.078474 
1479.000000	64.067769 
1478.000000	64.062666 
1477.000000	64.063787 
1476.000000	64.070534 
1475.000000	64.081382 
1474.000000	64.093899 
1473.000000	64.105558 
1472.000000	64.114046 
1471.000000	64.117670 
1470.000000	64.115548 
1469.000000	64.107728 
1468.000000	64.095020 
1467.000000	64.078807 
1466.000000	64.060759 
1465.000000	64.042353 
1464.000000	64.025259 
1463.000000	64.010691 
1462.000000	63.999342 
1461.000000	63.991594 
1460.000000	63.987064 
1459.000000	63.985300 
1458.000000	63.985538 
1457.000000	63.987421 
1456.000000	63.990640 
1455.000000	63.995313 
1454.000000	64.001679 
1453.000000	64.010071 
1452.000000	64.020633 
1451.000000	64.033293 
1450.000000	64.047598 
1449.000000	64.062666 
1448.000000	64.077544 
1447.000000	64.091110 
1446.000000	64.102482 
1445.000000	64.111208 
1444.000000	64.117217 
1443.000000	64.120864 
1442.000000	64.122891 
1441.000000	64.124131 
1440.000000	64.125466 
1439.000000	64.127421 
1438.000000	64.130258 
1437.000000	64.133882 
1436.000000	64.138007 
1435.000000	64.142060 
1434.000000	64.145469 
1433.000000	64.147830 
1432.000000	64.149069 
1431.000000	64.149403 
1430.000000	64.149332 
1429.000000	64.149594 
1428.000000	64.150786 
1427.000000	64.153289 
1426.000000	64.156842 
1425.000000	64.160728 
1424.000000	64.163565 
1423.000000	64.163923 
1422.000000	64.160323 
1421.000000	64.151763 
1420.000000	64.137935 
1419.000000	64.119482 
1418.000000	64.097785 
1417.000000	64.074754 
1416.000000	64.052724 
1415.000000	64.033913 
1414.000000	64.020180 
1413.000000	64.012527 
1412.000000	64.010977 
1411.000000	64.014744 
1410.000000	64.022254 
1409.000000	64.031553 
1408.000000	64.040517 
1407.000000	64.047479 
1406.000000	64.051318 
1405.000000	64.051699 
1404.000000	64.048838 
1403.000000	64.043641 
1402.000000	64.037299 
1401.000000	64.031100 
1400.000000	64.026117 
1399.000000	64.022874 
1398.000000	64.021492 
1397.000000	64.021325 
1396.000000	64.021539 
1395.000000	64.020991 
1394.000000	64.018344 
1393.000000	64.012575 
1392.000000	64.002943 
1391.000000	63.989186 
1390.000000	63.971686 
1389.000000	63.951373 
1388.000000	63.929724 
1387.000000	63.908553 
1386.000000	63.889741 
1385.000000	63.874936 
1384.000000	63.865613 
1383.000000	63.862347 
1382.000000	63.865494 
1381.000000	63.874888 
1380.000000	63.890218 
1379.000000	63.910889 
1378.000000	63.936138 
1377.000000	63.964986 
1376.000000	63.995933 
1375.000000	64.027070 
1374.000000	64.055824 
1373.000000	64.079356 
1372.000000	64.094781 
1371.000000	64.099836 
1370.000000	64.093184 
1369.000000	64.075016 
1368.000000	64.046978 
1367.000000	64.012312 
1366.000000	63.975143 
1365.000000	63.939905 
1364.000000	63.910603 
1363.000000	63.889956 
1362.000000	63.878965 
1361.000000	63.876748 
1360.000000	63.880848 
1359.000000	63.887643 
1358.000000	63.893222 
1357.000000	63.894224 
1356.000000	63.888216 
1355.000000	63.874578 
1354.000000	63.854074 
1353.000000	63.829135 
1352.000000	63.802933 
1351.000000	63.779067 
1350.000000	63.760590 
1349.000000	63.749837 
1348.000000	63.747763 
1347.000000	63.754129 
1346.000000	63.767671 
1345.000000	63.786268 
1344.000000	63.807630 
1343.000000	63.829493 
1342.000000	63.849949 
1341.000000	63.867855 
1340.000000	63.882493 
1339.000000	63.893818 
1338.000000	63.902115 
1337.000000	63.907957 
1336.000000	63.912153 
1335.000000	63.915276 
1334.000000	63.917660 
1333.000000	63.919687 
1332.000000	63.921618 
1331.000000	63.923454 
1330.000000	63.925027 
1329.000000	63.926076 
1328.000000	63.926410 
1327.000000	63.926005 
1326.000000	63.924884 
1325.000000	63.923311 
1324.000000	63.921880 
1323.000000	63.921260 
1322.000000	63.922381 
1321.000000	63.925886 
1320.000000	63.932037 
1319.000000	63.940620 
1318.000000	63.950705 
1317.000000	63.960933 
1316.000000	63.969492 
1315.000000	63.974690 
1314.000000	63.975143 
1313.000000	63.970208 
1312.000000	63.960242 
1311.000000	63.946676 
1310.000000	63.931751 
1309.000000	63.918066 
1308.000000	63.908338 
1307.000000	63.904666 
1306.000000	63.908338 
1305.000000	63.919305 
1304.000000	63.936305 
1303.000000	63.956952 
1302.000000	63.978266 
1301.000000	63.996934 
1300.000000	64.010000 
1299.000000	64.015245 
1298.000000	64.011359 
1297.000000	63.998293 
1296.000000	63.976979 
1295.000000	63.949203 
1294.000000	63.917303 
1293.000000	63.883948 
1292.000000	63.851785 
1291.000000	63.823103 
1290.000000	63.799810 
1289.000000	63.783144 
1288.000000	63.773608 
1287.000000	63.770914 
1286.000000	63.774061 
1285.000000	63.781547 
1284.000000	63.791537 
1283.000000	63.802266 
1282.000000	63.812160 
1281.000000	63.820195 
1280.000000	63.826179 
1279.000000	63.830351 
1278.000000	63.833522 
1277.000000	63.836431 
1276.000000	63.839578 
1275.000000	63.843131 
1274.000000	63.846683 
1273.000000	63.849472 
1272.000000	63.850545 
1271.000000	63.849163 
1270.000000	63.845133 
1269.000000	63.839006 
1268.000000	63.831901 
1267.000000	63.825321 
1266.000000	63.820695 
1265.000000	63.819146 
1264.000000	63.821101 
1263.000000	63.826251 
1262.000000	63.833808 
1261.000000	63.842391 
1260.000000	63.850784 
1259.000000	63.858008 
1258.000000	63.863468 
1257.000000	63.866829 
1256.000000	63.867878 
1255.000000	63.866591 
1254.000000	63.862848 
1253.000000	63.856673 
1252.000000	63.848352 
1251.000000	63.838577 
1250.000000	63.828682 
1249.000000	63.820505 
1248.000000	63.816142 
1247.000000	63.817334 
1246.000000	63.825178 
1245.000000	63.839435 
1244.000000	63.858413 
1243.000000	63.879323 
1242.000000	63.898682 
1241.000000	63.912916 
1240.000000	63.919258 
1239.000000	63.916468 
1238.000000	63.904762 
1237.000000	63.885903 
1236.000000	63.862609 
1235.000000	63.837885 
1234.000000	63.814449 
1233.000000	63.794255 
1232.000000	63.778257 
1231.000000	63.766574 
1230.000000	63.758945 
1229.000000	63.754844 
1228.000000	63.753986 
1227.000000	63.756346 
1226.000000	63.762092 
1225.000000	63.771080 
1224.000000	63.782715 
1223.000000	63.795804 
1222.000000	63.808751 
1221.000000	63.819479 
1220.000000	63.826298 
1219.000000	63.828158 
1218.000000	63.825225 
1217.000000	63.818717 
1216.000000	63.810873 
1215.000000	63.804244 
1214.000000	63.801074 
1213.000000	63.802862 
1212.000000	63.809704 
1211.000000	63.820528 
1210.000000	63.833093 
1209.000000	63.844752 
1208.000000	63.852906 
1207.000000	63.856005 
1206.000000	63.853621 
1205.000000	63.846588 
1204.000000	63.836908 
1203.000000	63.826799 
1202.000000	63.818478 
1201.000000	63.813614 
1200.000000	63.812541 
1199.000000	63.814353 
1198.000000	63.817167 
1197.000000	63.818478 
1196.000000	63.815736 
1195.000000	63.806939 
1194.000000	63.790988 
1193.000000	63.768339 
1192.000000	63.740587 
1191.000000	63.710856 
1190.000000	63.682556 
1189.000000	63.659095 
1188.000000	63.643193 
1187.000000	63.636350 
1186.000000	63.638472 
1185.000000	63.648033 
1184.000000	63.662338 
1183.000000	63.678288 
1182.000000	63.692831 
1181.000000	63.703799 
1180.000000	63.710069 
1179.000000	63.711762 
1178.000000	63.709831 
1177.000000	63.705849 
1176.000000	63.701438 
1175.000000	63.697981 
1174.000000	63.696146 
1173.000000	63.695979 
1172.000000	63.696885 
1171.000000	63.698220 
1170.000000	63.699293 
1169.000000	63.699245 
1168.000000	63.697314 
1167.000000	63.692975 
1166.000000	63.685941 
1165.000000	63.676166 
1164.000000	63.663983 
1163.000000	63.650274 
1162.000000	63.636636 
1161.000000	63.624930 
1160.000000	63.617134 
1159.000000	63.615083 
1158.000000	63.619709 
1157.000000	63.630914 
1156.000000	63.646936 
1155.000000	63.664984 
1154.000000	63.681411 
1153.000000	63.692355 
1152.000000	63.694477 
1151.000000	63.685894 
1150.000000	63.666510 
1149.000000	63.638043 
1148.000000	63.603878 
1147.000000	63.568377 
1146.000000	63.536286 
1145.000000	63.511824 
1144.000000	63.498139 
1143.000000	63.496851 
1142.000000	63.507962 
1141.000000	63.530278 
1140.000000	63.561272 
1139.000000	63.597798 
1138.000000	63.636541 
1137.000000	63.674497 
1136.000000	63.708925 
1135.000000	63.737607 
1134.000000	63.758659 
1133.000000	63.770914 
1132.000000	63.773894 
1131.000000	63.767743 
1130.000000	63.753509 
1129.000000	63.732814 
1128.000000	63.708376 
1127.000000	63.682961 
1126.000000	63.659501 
1125.000000	63.640379 
1124.000000	63.627219 
1123.000000	63.620662 
1122.000000	63.620758 
1121.000000	63.626551 
1120.000000	63.636565 
1119.000000	63.649058 
1118.000000	63.662242 
1117.000000	63.674426 
1116.000000	63.684105 
1115.000000	63.689684 
1114.000000	63.690185 
1113.000000	63.685035 
1112.000000	63.674569 
1111.000000	63.660264 
1110.000000	63.644480 
1109.000000	63.630342 
1108.000000	63.621020 
1107.000000	63.619351 
1106.000000	63.626909 
1105.000000	63.643622 
1104.000000	63.667631 
1103.000000	63.695931 
1102.000000	63.724446 
1101.000000	63.749504 
1100.000000	63.767528 
1099.000000	63.776040 
1098.000000	63.773465 
1097.000000	63.759469 
1096.000000	63.734722 
1095.000000	63.700652 
1094.000000	63.659572 
1093.000000	63.614416 
1092.000000	63.568544 
1091.000000	63.525557 
1090.000000	63.489055 
1089.000000	63.462162 
1088.000000	63.447046 
1087.000000	63.444304 
1086.000000	63.452959 
1085.000000	63.470458 
1084.000000	63.492870 
1083.000000	63.515758 
1082.000000	63.534760 
1081.000000	63.546848 
1080.000000	63.550424 
1079.000000	63.546013 
1078.000000	63.535785 
1077.000000	63.523411 
1076.000000	63.512754 
1075.000000	63.507294 
1074.000000	63.509368 
1073.000000	63.519334 
1072.000000	63.535881 
1071.000000	63.556051 
1070.000000	63.576221 
1069.000000	63.592934 
1068.000000	63.603854 
1067.000000	63.608193 
1066.000000	63.607025 
1065.000000	63.602876 
1064.000000	63.599228 
1063.000000	63.599586 
1062.000000	63.606595 
1061.000000	63.621473 
1060.000000	63.643622 
1059.000000	63.671183 
1058.000000	63.701248 
1057.000000	63.730359 
1056.000000	63.755464 
1055.000000	63.774418 
1054.000000	63.786268 
1053.000000	63.791155 
1052.000000	63.790202 
1051.000000	63.784909 
1050.000000	63.776993 
1049.000000	63.768172 
1048.000000	63.759732 
1047.000000	63.752770 
1046.000000	63.747859 
1045.000000	63.745594 
1044.000000	63.746023 
1043.000000	63.748979 
1042.000000	63.753247 
1041.000000	63.756799 
1040.000000	63.756871 
1039.000000	63.750410 
1038.000000	63.734769 
1037.000000	63.708305 
1036.000000	63.671064 
1035.000000	63.625335 
1034.000000	63.575315 
1033.000000	63.526678 
1032.000000	63.485455 
1031.000000	63.456797 
1030.000000	63.444066 
1029.000000	63.448166 
1028.000000	63.467073 
1027.000000	63.496661 
1026.000000	63.531446 
1025.000000	63.565707 
1024.000000	63.594079 
1023.000000	63.612747 
1022.000000	63.619732 
1021.000000	63.615012 
1020.000000	63.599944 
1019.000000	63.577485 
1018.000000	63.551235 
1017.000000	63.525557 
1016.000000	63.504767 
1015.000000	63.492822 
1014.000000	63.492798 
1013.000000	63.506293 
1012.000000	63.533186 
1011.000000	63.571357 
1010.000000	63.616919 
1009.000000	63.664698 
1008.000000	63.709139 
1007.000000	63.745355 
1006.000000	63.769841 
1005.000000	63.781428 
1004.000000	63.781046 
1003.000000	63.771343 
1002.000000	63.755798 
1001.000000	63.738131 
1000.000000	63.721203 
999.000000	 63.706755 
998.000000	 63.695287 
997.000000	 63.686490 
996.000000	 63.679575 
995.000000	 63.674211 
994.000000	 63.670539 
993.000000	 63.669133 
992.000000	 63.671040 
991.000000	 63.677191 
990.000000	 63.687872 
989.000000	 63.702273 
988.000000	 63.718581 
987.000000	 63.734102 
986.000000	 63.746070 
985.000000	 63.752245 
984.000000	 63.751530 
983.000000	 63.744330 
982.000000	 63.732624 
981.000000	 63.719582 
980.000000	 63.708829 
979.000000	 63.703393 
978.000000	 63.705182 
977.000000	 63.714027 
976.000000	 63.728022 
975.000000	 63.743495 
974.000000	 63.755893 
973.000000	 63.760733 
972.000000	 63.754630 
971.000000	 63.735866 
970.000000	 63.705015 
969.000000	 63.664460 
968.000000	 63.617968 
967.000000	 63.569998 
966.000000	 63.524627 
965.000000	 63.485217 
964.000000	 63.453674 
963.000000	 63.430905 
962.000000	 63.416600 
961.000000	 63.409996 
960.000000	 63.410043 
959.000000	 63.415813 
958.000000	 63.426637 
957.000000	 63.442182 
956.000000	 63.462018 
955.000000	 63.485431 
954.000000	 63.511466 
953.000000	 63.538599 
952.000000	 63.564991 
951.000000	 63.588714 
950.000000	 63.607764 
949.000000	 63.620495 
948.000000	 63.625669 
947.000000	 63.622832 
946.000000	 63.612246 
945.000000	 63.595199 
944.000000	 63.573455 
943.000000	 63.549447 
942.000000	 63.525485 
941.000000	 63.503623 
940.000000	 63.485264 
939.000000	 63.471007 
938.000000	 63.460993 
937.000000	 63.454699 
936.000000	 63.451623 
935.000000	 63.451337 
934.000000	 63.453745 
933.000000	 63.458871 
932.000000	 63.466835 
931.000000	 63.477635 
930.000000	 63.490843 
929.000000	 63.505506 
928.000000	 63.520264 
927.000000	 63.533592 
926.000000	 63.543987 
925.000000	 63.550353 
924.000000	 63.552308 
923.000000	 63.550019 
922.000000	 63.544154 
921.000000	 63.535547 
920.000000	 63.525080 
919.000000	 63.513588 
918.000000	 63.501763 
917.000000	 63.490295 
916.000000	 63.480067 
915.000000	 63.471913 
914.000000	 63.466334 
913.000000	 63.463687 
912.000000	 63.463854 
911.000000	 63.466334 
910.000000	 63.470315 
909.000000	 63.474845 
908.000000	 63.478922 
907.000000	 63.481760 
906.000000	 63.483047 
905.000000	 63.482809 
904.000000	 63.481402 
903.000000	 63.479709 
902.000000	 63.478946 
901.000000	 63.480520 
900.000000	 63.485646 
899.000000	 63.495135 
898.000000	 63.509345 
897.000000	 63.527822 
896.000000	 63.549613 
895.000000	 63.573122 
894.000000	 63.596630 
893.000000	 63.618636 
892.000000	 63.638281 
891.000000	 63.655591 
890.000000	 63.671183 
889.000000	 63.686203 
888.000000	 63.701486 
887.000000	 63.717269 
886.000000	 63.732314 
885.000000	 63.744425 
884.000000	 63.750553 
883.000000	 63.747811 
882.000000	 63.734126 
881.000000	 63.708972 
880.000000	 63.673806 
879.000000	 63.631772 
878.000000	 63.587260 
877.000000	 63.544917 
876.000000	 63.508915 
875.000000	 63.482260 
874.000000	 63.466310 
873.000000	 63.461112 
872.000000	 63.465738 
871.000000	 63.478875 
870.000000	 63.499140 
869.000000	 63.525247 
868.000000	 63.555860 
867.000000	 63.589572 
866.000000	 63.624215 
865.000000	 63.657093 
864.000000	 63.685178 
863.000000	 63.705492 
862.000000	 63.715863 
861.000000	 63.715076 
860.000000	 63.703370 
859.000000	 63.682246 
858.000000	 63.654398 
857.000000	 63.623261 
856.000000	 63.592362 
855.000000	 63.564753 
854.000000	 63.542675 
853.000000	 63.527369 
852.000000	 63.519263 
851.000000	 63.517999 
850.000000	 63.522696 
849.000000	 63.532090 
848.000000	 63.544821 
847.000000	 63.559627 
846.000000	 63.575315 
845.000000	 63.590431 
844.000000	 63.603687 
843.000000	 63.613557 
842.000000	 63.618803 
841.000000	 63.618493 
840.000000	 63.612723 
839.000000	 63.602352 
838.000000	 63.589692 
837.000000	 63.578343 
836.000000	 63.572645 
835.000000	 63.576817 
834.000000	 63.593983 
833.000000	 63.625836 
832.000000	 63.670897 
831.000000	 63.725042 
830.000000	 63.781189 
829.000000	 63.830757 
828.000000	 63.865160 
827.000000	 63.877654 
826.000000	 63.865327 
825.000000	 63.829874 
824.000000	 63.778018 
823.000000	 63.719654 
822.000000	 63.665556 
821.000000	 63.624715 
820.000000	 63.602209 
819.000000	 63.598513 
818.000000	 63.609886 
817.000000	 63.629865 
816.000000	 63.651537 
815.000000	 63.669109 
814.000000	 63.679385 
813.000000	 63.681888 
812.000000	 63.678073 
811.000000	 63.670682 
810.000000	 63.662505 
809.000000	 63.655185 
808.000000	 63.649129 
807.000000	 63.642883 
806.000000	 63.633990 
805.000000	 63.619780 
804.000000	 63.598322 
803.000000	 63.569307 
802.000000	 63.534545 
801.000000	 63.497924 
800.000000	 63.464188 
799.000000	 63.438367 
798.000000	 63.424396 
797.000000	 63.423943 
796.000000	 63.436126 
795.000000	 63.457822 
794.000000	 63.484358 
793.000000	 63.510537 
792.000000	 63.531994 
791.000000	 63.545441 
790.000000	 63.549733 
789.000000	 63.545703 
788.000000	 63.535976 
787.000000	 63.524103 
786.000000	 63.513708 
785.000000	 63.507580 
784.000000	 63.507032 
783.000000	 63.511919 
782.000000	 63.520264 
781.000000	 63.529109 
780.000000	 63.535094 
779.000000	 63.535547 
778.000000	 63.528895 
777.000000	 63.515210 
776.000000	 63.496041 
775.000000	 63.473701 
774.000000	 63.450813 
773.000000	 63.429546 
772.000000	 63.410973 
771.000000	 63.395166 
770.000000	 63.381409 
769.000000	 63.368892 
768.000000	 63.357496 
767.000000	 63.348102 
766.000000	 63.342809 
765.000000	 63.344264 
764.000000	 63.354897 
763.000000	 63.375711 
762.000000	 63.405752 
761.000000	 63.441324 
760.000000	 63.476896 
759.000000	 63.505649 
758.000000	 63.521099 
757.000000	 63.518428 
756.000000	 63.495421 
755.000000	 63.453292 
754.000000	 63.396263 
753.000000	 63.331198 
752.000000	 63.265967 
751.000000	 63.208460 
750.000000	 63.165163 
749.000000	 63.140368 
748.000000	 63.135504 
747.000000	 63.149380 
746.000000	 63.178730 
745.000000	 63.218784 
744.000000	 63.264203 
743.000000	 63.309693 
742.000000	 63.350415 
741.000000	 63.382768 
740.000000	 63.404369 
739.000000	 63.414192 
738.000000	 63.412404 
737.000000	 63.400602 
736.000000	 63.381075 
735.000000	 63.356924 
734.000000	 63.331317 
733.000000	 63.307547 
732.000000	 63.288116 
731.000000	 63.275051 
730.000000	 63.268971 
729.000000	 63.269257 
728.000000	 63.274526 
727.000000	 63.282561 
726.000000	 63.291573 
725.000000	 63.300704 
724.000000	 63.310194 
723.000000	 63.321328 
722.000000	 63.335371 
721.000000	 63.352894 
720.000000	 63.372969 
719.000000	 63.393282 
718.000000	 63.410210 
717.000000	 63.419818 
716.000000	 63.418841 
715.000000	 63.405728 
714.000000	 63.380932 
713.000000	 63.346886 
712.000000	 63.307023 
711.000000	 63.265395 
710.000000	 63.225579 
709.000000	 63.190388 
708.000000	 63.161659 
707.000000	 63.140439 
706.000000	 63.127493 
705.000000	 63.123464 
704.000000	 63.128757 
703.000000	 63.143491 
702.000000	 63.166880 
701.000000	 63.197255 
700.000000	 63.231325 
699.000000	 63.265442 
698.000000	 63.295292 
697.000000	 63.317561 
696.000000	 63.330507 
695.000000	 63.334679 
694.000000	 63.332700 
693.000000	 63.328194 
692.000000	 63.324832 
691.000000	 63.324832 
690.000000	 63.328409 
689.000000	 63.333582 
688.000000	 63.337087 
687.000000	 63.336086 
686.000000	 63.329339 
685.000000	 63.318324 
684.000000	 63.306665 
683.000000	 63.299393 
682.000000	 63.301038 
681.000000	 63.313794 
680.000000	 63.336706 
679.000000	 63.364887 
678.000000	 63.391470 
677.000000	 63.409233 
676.000000	 63.413476 
675.000000	 63.403606 
674.000000	 63.383364 
673.000000	 63.360309 
672.000000	 63.343167 
671.000000	 63.339352 
670.000000	 63.352465 
669.000000	 63.380885 
668.000000	 63.418364 
667.000000	 63.455820 
666.000000	 63.483953 
665.000000	 63.495898 
664.000000	 63.488888 
663.000000	 63.465213 
662.000000	 63.430118 
661.000000	 63.390231 
660.000000	 63.351464 
659.000000	 63.317537 
658.000000	 63.289499 
657.000000	 63.266515 
656.000000	 63.247156 
655.000000	 63.230299 
654.000000	 63.217616 
653.000000	 63.211941 
652.000000	 63.215875 
651.000000	 63.230347 
650.000000	 63.253259 
649.000000	 63.279914 
648.000000	 63.302516 
647.000000	 63.313627 
646.000000	 63.307237 
645.000000	 63.282036 
644.000000	 63.242602 
643.000000	 63.197731 
642.000000	 63.158345 
641.000000	 63.133096 
640.000000	 63.126158 
639.000000	 63.134431 
638.000000	 63.148283 
637.000000	 63.154292 
636.000000	 63.139462 
635.000000	 63.095426 
634.000000	 63.021802 
633.000000	 62.926697 
632.000000	 62.825989 
631.000000	 62.739133 
630.000000	 62.686038 
629.000000	 62.683320 
628.000000	 62.741088 
627.000000	 62.861800 
626.000000	 63.038659 
625.000000	 63.257622 
624.000000	 63.497638 
623.000000	 63.734674 
622.000000	 63.943529 
621.000000	 64.102387 
620.000000	 64.194560 
619.000000	 64.211153 
618.000000	 64.151620 
617.000000	 64.024448 
616.000000	 63.844943 
615.000000	 63.634252 
614.000000	 63.414883 
613.000000	 63.208436 
612.000000	 63.032388 
611.000000	 62.899279 
610.000000	 62.814831 
609.000000	 62.778759 
608.000000	 62.785577 
607.000000	 62.826538 
606.000000	 62.890243 
605.000000	 62.964868 
604.000000	 63.038492 
603.000000	 63.101029 
602.000000	 63.145256 
601.000000	 63.167262 
600.000000	 63.166880 
599.000000	 63.146138 
598.000000	 63.108682 
597.000000	 63.057708 
596.000000	 62.996006 
595.000000	 62.924885 
594.000000	 62.845301 
593.000000	 62.758302 
592.000000	 62.665653 
591.000000	 62.571668 
590.000000	 62.483310 
589.000000	 62.409973 
588.000000	 62.361049 
587.000000	 62.344861 
586.000000	 62.365984 
585.000000	 62.424755 
584.000000	 62.515950 
583.000000	 62.630486 
582.000000	 62.756276 
581.000000	 62.881088 
580.000000	 62.994384 
579.000000	 63.087463 
578.000000	 63.154697 
577.000000	 63.193821 
576.000000	 63.206028 
575.000000	 63.195490 
574.000000	 63.168501 
573.000000	 63.133406 
572.000000	 63.098335 
571.000000	 63.071179 
570.000000	 63.056993 
569.000000	 63.057589 
568.000000	 63.071155 
567.000000	 63.093590 
566.000000	 63.119697 
565.000000	 63.145613 
564.000000	 63.169074 
563.000000	 63.189530 
562.000000	 63.207983 
561.000000	 63.226795 
560.000000	 63.246726 
559.000000	 63.265752 
558.000000	 63.278746 
557.000000	 63.278245 
556.000000	 63.257288 
555.000000	 63.212108 
554.000000	 63.144564 
553.000000	 63.062858 
552.000000	 62.982130 
551.000000	 62.920713 
550.000000	 62.896347 
549.000000	 62.919974 
548.000000	 62.991833 
547.000000	 63.099360 
546.000000	 63.219189 
545.000000	 63.322544 
544.000000	 63.380956 
543.000000	 63.375854 
542.000000	 63.301348 
541.000000	 63.170170 
540.000000	 63.009834 
539.000000	 62.858510 
538.000000	 62.755608 
537.000000	 62.732148 
536.000000	 62.803816 
535.000000	 62.965393 
534.000000	 63.194155 
533.000000	 63.451528 
532.000000	 63.693785 
531.000000	 63.878488 
530.000000	 63.973951 
529.000000	 63.964796 
528.000000	 63.854336 
527.000000	 63.662862 
526.000000	 63.422536 
525.000000	 63.173389 
524.000000	 62.955641 
523.000000	 62.805080 
522.000000	 62.746095 
521.000000	 62.790322 
520.000000	 62.932515 
519.000000	 63.153409 
518.000000	 63.420796 
517.000000	 63.691997 
516.000000	 63.924622 
515.000000	 64.080142 
514.000000	 64.137721 
513.000000	 64.095258 
512.000000	 63.973593 
511.000000	 63.812375 
510.000000	 63.658499 
509.000000	 63.556194 
508.000000	 63.532090 
507.000000	 63.591885 
506.000000	 63.714504 
505.000000	 63.860368 
504.000000	 63.980293 
503.000000	 64.030146 
502.000000	 63.981819 
501.000000	 63.831377 
500.000000	 63.597941 
499.000000	 63.318276 
498.000000	 63.037586 
497.000000	 62.798714 
496.000000	 62.631344 
495.000000	 62.547969 
494.000000	 62.545299 
493.000000	 62.609148 
492.000000	 62.721371 
491.000000	 62.866544 
490.000000	 63.034820 
489.000000	 63.224411 
488.000000	 63.434934 
487.000000	 63.667750 
486.000000	 63.919568 
485.000000	 64.181971 
484.000000	 64.440226 
483.000000	 64.675116 
482.000000	 64.868235 
481.000000	 65.003347 
480.000000	 65.072751 
479.000000	 65.075087 
478.000000	 65.017104 
477.000000	 64.910387 
476.000000	 64.769983 
475.000000	 64.611196 
474.000000	 64.448428 
473.000000	 64.292073 
472.000000	 64.148545 
471.000000	 64.019060 
470.000000	 63.900852 
469.000000	 63.787341 
468.000000	 63.671278 
467.000000	 63.546085 
466.000000	 63.409304 
465.000000	 63.262844 
464.000000	 63.114857 
463.000000	 62.976431 
462.000000	 62.861514 
461.000000	 62.782073 
460.000000	 62.747764 
459.000000	 62.761497 
458.000000	 62.820982 
457.000000	 62.918877 
456.000000	 63.043570 
455.000000	 63.181734 
454.000000	 63.317465 
453.000000	 63.435792 
452.000000	 63.519930 
451.000000	 63.553476 
450.000000	 63.521170 
449.000000	 63.410687 
448.000000	 63.220334 
447.000000	 62.961769 
446.000000	 62.659239 
445.000000	 62.345814 
444.000000	 62.058782 
443.000000	 61.831831 
442.000000	 61.684799 
441.000000	 61.620497 
440.000000	 61.623644 
439.000000	 61.668395 
438.000000	 61.724090 
437.000000	 61.768889 
436.000000	 61.792445 
435.000000	 61.804699 
434.000000	 61.831855 
433.000000	 61.911201 
432.000000	 62.071895 
431.000000	 62.332344 
430.000000	 62.693786 
429.000000	 63.136482 
428.000000	 63.621616 
427.000000	 64.098787 
426.000000	 64.525794 
425.000000	 64.859986 
424.000000	 65.067338 
423.000000	 65.120673 
422.000000	 65.004754 
421.000000	 64.714479 
420.000000	 64.259076 
419.000000	 63.655805 
418.000000	 62.931370 
417.000000	 62.124800 
416.000000	 61.286973 
415.000000	 60.472846 
414.000000	 59.740471 
413.000000	 59.139609 
412.000000	 58.714103 
411.000000	 58.497023 
410.000000	 58.514547 
409.000000	 58.767247 
408.000000	 59.246921 
407.000000	 59.929108 
406.000000	 60.788655 
405.000000	 61.780929 
404.000000	 62.870049 
403.000000	 64.010500 
402.000000	 65.175366 
401.000000	 66.357278 
400.000000	 67.555618 
399.000000	 68.774437 
398.000000	 69.988822 
397.000000	 71.147775 
396.000000	 72.151041 
395.000000	 72.876977 
394.000000	 73.179531 
393.000000	 72.929286 
392.000000	 72.051501 
391.000000	 70.564723 
390.000000	 68.583297 
389.000000	 66.318058 
388.000000	 64.057040 
387.000000	 62.125730 
386.000000	 60.815882 
385.000000	 60.349082 
384.000000	 60.830593 
383.000000	 62.241268 
382.000000	 64.483785 
381.000000	 67.364001 
380.000000	 70.594429 
379.000000	 73.834252 
378.000000	 76.755785 
377.000000	 79.060316 
376.000000	 80.484580 
375.000000	 80.874776 
374.000000	 80.197811 
373.000000	 78.580808 
372.000000	 76.284527 
371.000000	 73.695015 
370.000000	 71.269941 

