PE IR       SPECTRUM    SPECTRUM    ASCII       PEDS        1.60        
  -1
BZ6F26~1.ASC
17/04/07
20:21:02.00
17/04/07
20:21:02.00
tln
$BZ1503107-1_t0087$<tbV0>[-10.4,5.2,8.0,0.0,27,1,0]
370.000000
64









2002,4.07    
MIRTGS : RIGHTBACK : INTERNAL 2
MIR : ON : INTERNAL 2
OPTKBR

0.200000
8
8.000000
FILLER
RATIO
SPECTRUM
UNLOCKED 256

DOUBLE
64
COMBINED
1
0
0


1.000000
RATIO


1
0
TRUE
51149
0
LEFT NOT FITTED RIGHT NOT FITTED 0
NONE
NONE
15600
12.000000
4.427000
51148
TRUE
1 0 8 72 0 0 0 0 

15798.010000






#HDR
-1
-1
#GR
CM-1
%T
0.00002384185791015625
0.0
5000.000000
-1.000000
4631
8
68.795347
40.682721
#DATA
5000.000000	63.893461 
4999.000000	63.818430 
4998.000000	63.723969 
4997.000000	63.603615 
4996.000000	63.454270 
4995.000000	63.277506 
4994.000000	63.081884 
4993.000000	62.881398 
4992.000000	62.694859 
4991.000000	62.541198 
4990.000000	62.437605 
4989.000000	62.395381 
4988.000000	62.417745 
4987.000000	62.497782 
4986.000000	62.622117 
4985.000000	62.773466 
4984.000000	62.933611 
4983.000000	63.086152 
4982.000000	63.220095 
4981.000000	63.330006 
4980.000000	63.414883 
4979.000000	63.475871 
4978.000000	63.514733 
4977.000000	63.531327 
4976.000000	63.524341 
4975.000000	63.490390 
4974.000000	63.426971 
4973.000000	63.332605 
4972.000000	63.209748 
4971.000000	63.065075 
4970.000000	62.908649 
4969.000000	62.754845 
4968.000000	62.618708 
4967.000000	62.517356 
4966.000000	62.465167 
4965.000000	62.475109 
4964.000000	62.554502 
4963.000000	62.705945 
4962.000000	62.925338 
4961.000000	63.201832 
4960.000000	63.517212 
4959.000000	63.849568 
4958.000000	64.175081 
4957.000000	64.472746 
4956.000000	64.726591 
4955.000000	64.928483 
4954.000000	65.077519 
4953.000000	65.180540 
4952.000000	65.246915 
4951.000000	65.285730 
4950.000000	65.300107 
4949.000000	65.288329 
4948.000000	65.242147 
4947.000000	65.152359 
4946.000000	65.011143 
4945.000000	64.818382 
4944.000000	64.583039 
4943.000000	64.325237 
4942.000000	64.071774 
4941.000000	63.850259 
4940.000000	63.684916 
4939.000000	63.589668 
4938.000000	63.568806 
4937.000000	63.615107 
4936.000000	63.715338 
4935.000000	63.852906 
4934.000000	64.012837 
4933.000000	64.183831 
4932.000000	64.356994 
4931.000000	64.524221 
4930.000000	64.675641 
4929.000000	64.798116 
4928.000000	64.874434 
4927.000000	64.885830 
4926.000000	64.818143 
4925.000000	64.666414 
4924.000000	64.438319 
4923.000000	64.155292 
4922.000000	63.850378 
4921.000000	63.562679 
4920.000000	63.329386 
4919.000000	63.179516 
4918.000000	63.128256 
4917.000000	63.175606 
4916.000000	63.307380 
4915.000000	63.499307 
4914.000000	63.721919 
4913.000000	63.946628 
4912.000000	64.149498 
4911.000000	64.314556 
4910.000000	64.432215 
4909.000000	64.500784 
4908.000000	64.523339 
4907.000000	64.506483 
4906.000000	64.458227 
4905.000000	64.387607 
4904.000000	64.304399 
4903.000000	64.218378 
4902.000000	64.139175 
4901.000000	64.074373 
4900.000000	64.028978 
4899.000000	64.004850 
4898.000000	64.000558 
4897.000000	64.011383 
4896.000000	64.030814 
4895.000000	64.051914 
4894.000000	64.068984 
4893.000000	64.078640 
4892.000000	64.080429 
4891.000000	64.075040 
4890.000000	64.065098 
4889.000000	64.053535 
4888.000000	64.043378 
4887.000000	64.036464 
4886.000000	64.034318 
4885.000000	64.038038 
4884.000000	64.048504 
4883.000000	64.066839 
4882.000000	64.093136 
4881.000000	64.125919 
4880.000000	64.162516 
4879.000000	64.199542 
4878.000000	64.232349 
4877.000000	64.255833 
4876.000000	64.265322 
4875.000000	64.257788 
4874.000000	64.232444 
4873.000000	64.191293 
4872.000000	64.138960 
4871.000000	64.081859 
4870.000000	64.027571 
4869.000000	63.983225 
4868.000000	63.954186 
4867.000000	63.942694 
4866.000000	63.948392 
4865.000000	63.967609 
4864.000000	63.994193 
4863.000000	64.020848 
4862.000000	64.040446 
4861.000000	64.047694 
4860.000000	64.039945 
4859.000000	64.017724 
4858.000000	63.984394 
4857.000000	63.944840 
4856.000000	63.904356 
4855.000000	63.867259 
4854.000000	63.835978 
4853.000000	63.811063 
4852.000000	63.791608 
4851.000000	63.775753 
4850.000000	63.761568 
4849.000000	63.747382 
4848.000000	63.732361 
4847.000000	63.716053 
4846.000000	63.698697 
4845.000000	63.681173 
4844.000000	63.665318 
4843.000000	63.653206 
4842.000000	63.647437 
4841.000000	63.650894 
4840.000000	63.666152 
4839.000000	63.694906 
4838.000000	63.737320 
4837.000000	63.791608 
4836.000000	63.854122 
4835.000000	63.919830 
4834.000000	63.983106 
4833.000000	64.038801 
4832.000000	64.082765 
4831.000000	64.112925 
4830.000000	64.128541 
4829.000000	64.130520 
4828.000000	64.120388 
4827.000000	64.100146 
4826.000000	64.071989 
4825.000000	64.038419 
4824.000000	64.002513 
4823.000000	63.968133 
4822.000000	63.938832 
4821.000000	63.917279 
4820.000000	63.904476 
4819.000000	63.899445 
4818.000000	63.898277 
4817.000000	63.894915 
4816.000000	63.882350 
4815.000000	63.854718 
4814.000000	63.808417 
4813.000000	63.744330 
4812.000000	63.667511 
4811.000000	63.587260 
4810.000000	63.515329 
4809.000000	63.463068 
4808.000000	63.439202 
4807.000000	63.446998 
4806.000000	63.483691 
4805.000000	63.540410 
4804.000000	63.604307 
4803.000000	63.661479 
4802.000000	63.699722 
4801.000000	63.711905 
4800.000000	63.696742 
4799.000000	63.659763 
4798.000000	63.610959 
4797.000000	63.563108 
4796.000000	63.528251 
4795.000000	63.515806 
4794.000000	63.530325 
4793.000000	63.571619 
4792.000000	63.634967 
4791.000000	63.712930 
4790.000000	63.796830 
4789.000000	63.878226 
4788.000000	63.950204 
4787.000000	64.007496 
4786.000000	64.047479 
4785.000000	64.068675 
4784.000000	64.072060 
4783.000000	64.060091 
4782.000000	64.037537 
4781.000000	64.010787 
4780.000000	63.987374 
4779.000000	63.974905 
4778.000000	63.979792 
4777.000000	64.006519 
4776.000000	64.056324 
4775.000000	64.126944 
4774.000000	64.212870 
4773.000000	64.306402 
4772.000000	64.398837 
4771.000000	64.482069 
4770.000000	64.549303 
4769.000000	64.596176 
4768.000000	64.620614 
4767.000000	64.622688 
4766.000000	64.603948 
4765.000000	64.566636 
4764.000000	64.513087 
4763.000000	64.445519 
4762.000000	64.366292 
4761.000000	64.278054 
4760.000000	64.184641 
4759.000000	64.090871 
4758.000000	64.002561 
4757.000000	63.925790 
4756.000000	63.866138 
4755.000000	63.827848 
4754.000000	63.812494 
4753.000000	63.819146 
4752.000000	63.844037 
4751.000000	63.881754 
4750.000000	63.925671 
4749.000000	63.969802 
4748.000000	64.009213 
4747.000000	64.041256 
4746.000000	64.065003 
4745.000000	64.081454 
4744.000000	64.092564 
4743.000000	64.100313 
4742.000000	64.105629 
4741.000000	64.108395 
4740.000000	64.107775 
4739.000000	64.102149 
4738.000000	64.089989 
4737.000000	64.070510 
4736.000000	64.044499 
4735.000000	64.014363 
4734.000000	63.984441 
4733.000000	63.959956 
4732.000000	63.946676 
4731.000000	63.949751 
4730.000000	63.972735 
4729.000000	64.015698 
4728.000000	64.075851 
4727.000000	64.147710 
4726.000000	64.224243 
4725.000000	64.298367 
4724.000000	64.363908 
4723.000000	64.416885 
4722.000000	64.455032 
4721.000000	64.477896 
4720.000000	64.485621 
4719.000000	64.478611 
4718.000000	64.457082 
4717.000000	64.421319 
4716.000000	64.372205 
4715.000000	64.312100 
4714.000000	64.244794 
4713.000000	64.175891 
4712.000000	64.111709 
4711.000000	64.058566 
4710.000000	64.021468 
4709.000000	64.003515 
4708.000000	64.004731 
4707.000000	64.023089 
4706.000000	64.055538 
4705.000000	64.098644 
4704.000000	64.149451 
4703.000000	64.204931 
4702.000000	64.261865 
4701.000000	64.316058 
4700.000000	64.362001 
4699.000000	64.393639 
4698.000000	64.405131 
4697.000000	64.392757 
4696.000000	64.356040 
4695.000000	64.298892 
4694.000000	64.229583 
4693.000000	64.159226 
4692.000000	64.099812 
4691.000000	64.061546 
4690.000000	64.050793 
4689.000000	64.068603 
4688.000000	64.110708 
4687.000000	64.168143 
4686.000000	64.229297 
4685.000000	64.282226 
4684.000000	64.317107 
4683.000000	64.327001 
4682.000000	64.309287 
4681.000000	64.265251 
4680.000000	64.199900 
4679.000000	64.120793 
4678.000000	64.036870 
4677.000000	63.957667 
4676.000000	63.891363 
4675.000000	63.844156 
4674.000000	63.818860 
4673.000000	63.814711 
4672.000000	63.827610 
4671.000000	63.850927 
4670.000000	63.877511 
4669.000000	63.900113 
4668.000000	63.914632 
4667.000000	63.919854 
4666.000000	63.918828 
4665.000000	63.917040 
4664.000000	63.921761 
4663.000000	63.939547 
4662.000000	63.974857 
4661.000000	64.028263 
4660.000000	64.096236 
4659.000000	64.171719 
4658.000000	64.245676 
4657.000000	64.309167 
4656.000000	64.354753 
4655.000000	64.378094 
4654.000000	64.378261 
4653.000000	64.357471 
4652.000000	64.320230 
4651.000000	64.272236 
4650.000000	64.219307 
4649.000000	64.166617 
4648.000000	64.118456 
4647.000000	64.078140 
4646.000000	64.048886 
4645.000000	64.032793 
4644.000000	64.031076 
4643.000000	64.043259 
4642.000000	64.067459 
4641.000000	64.099812 
4640.000000	64.134740 
4639.000000	64.165973 
4638.000000	64.187169 
4637.000000	64.193558 
4636.000000	64.182901 
4635.000000	64.155912 
4634.000000	64.116048 
4633.000000	64.068889 
4632.000000	64.020943 
4631.000000	63.978409 
4630.000000	63.945913 
4629.000000	63.925909 
4628.000000	63.918542 
4627.000000	63.921856 
4626.000000	63.932657 
4625.000000	63.947272 
4624.000000	63.962769 
4623.000000	63.976764 
4622.000000	63.988590 
4621.000000	63.998818 
4620.000000	64.009714 
4619.000000	64.023900 
4618.000000	64.044237 
4617.000000	64.072871 
4616.000000	64.110636 
4615.000000	64.156961 
4614.000000	64.208936 
4613.000000	64.262032 
4612.000000	64.310312 
4611.000000	64.348030 
4610.000000	64.370274 
4609.000000	64.374113 
4608.000000	64.359521 
4607.000000	64.329409 
4606.000000	64.289593 
4605.000000	64.247679 
4604.000000	64.211678 
4603.000000	64.188432 
4602.000000	64.182662 
4601.000000	64.195775 
4600.000000	64.226102 
4599.000000	64.268851 
4598.000000	64.317536 
4597.000000	64.364767 
4596.000000	64.403700 
4595.000000	64.428782 
4594.000000	64.436817 
4593.000000	64.427280 
4592.000000	64.401555 
4591.000000	64.363384 
4590.000000	64.317750 
4589.000000	64.270901 
4588.000000	64.229106 
4587.000000	64.198207 
4586.000000	64.182806 
4585.000000	64.185285 
4584.000000	64.205622 
4583.000000	64.240717 
4582.000000	64.285039 
4581.000000	64.330983 
4580.000000	64.370131 
4579.000000	64.394593 
4578.000000	64.398527 
4577.000000	64.379453 
4576.000000	64.338493 
4575.000000	64.280247 
4574.000000	64.211535 
4573.000000	64.140081 
4572.000000	64.072942 
4571.000000	64.014720 
4570.000000	63.966989 
4569.000000	63.928437 
4568.000000	63.896203 
4567.000000	63.866925 
4566.000000	63.838982 
4565.000000	63.812422 
4564.000000	63.789772 
4563.000000	63.774847 
4562.000000	63.771820 
4561.000000	63.782787 
4560.000000	63.807511 
4559.000000	63.842391 
4558.000000	63.881468 
4557.000000	63.917589 
4556.000000	63.944530 
4555.000000	63.958406 
4554.000000	63.959121 
4553.000000	63.950276 
4552.000000	63.938403 
4551.000000	63.930964 
4550.000000	63.934683 
4549.000000	63.953256 
4548.000000	63.986539 
4547.000000	64.030098 
4546.000000	64.076900 
4545.000000	64.118933 
4544.000000	64.149093 
4543.000000	64.162874 
4542.000000	64.160060 
4541.000000	64.143991 
4540.000000	64.120268 
4539.000000	64.095187 
4538.000000	64.074277 
4537.000000	64.060616 
4536.000000	64.054298 
4535.000000	64.052438 
4534.000000	64.050483 
4533.000000	64.043426 
4532.000000	64.027667 
4531.000000	64.001846 
4530.000000	63.967204 
4529.000000	63.927292 
4528.000000	63.886928 
4527.000000	63.851475 
4526.000000	63.825178 
4525.000000	63.811492 
4524.000000	63.812327 
4523.000000	63.828134 
4522.000000	63.858079 
4521.000000	63.899803 
4520.000000	63.949990 
4519.000000	64.004516 
4518.000000	64.059472 
4517.000000	64.111733 
4516.000000	64.159488 
4515.000000	64.202904 
4514.000000	64.242768 
4513.000000	64.280033 
4512.000000	64.314246 
4511.000000	64.343643 
4510.000000	64.364337 
4509.000000	64.372110 
4508.000000	64.362692 
4507.000000	64.334511 
4506.000000	64.288473 
4505.000000	64.228677 
4504.000000	64.161729 
4503.000000	64.095282 
4502.000000	64.037561 
4501.000000	63.996124 
4500.000000	63.975906 
4499.000000	63.978123 
4498.000000	64.000821 
4497.000000	64.039683 
4496.000000	64.088225 
4495.000000	64.139628 
4494.000000	64.189195 
4493.000000	64.235115 
4492.000000	64.278316 
4491.000000	64.321351 
4490.000000	64.366841 
4489.000000	64.416027 
4488.000000	64.467167 
4487.000000	64.516448 
4486.000000	64.559602 
4485.000000	64.592981 
4484.000000	64.615845 
4483.000000	64.629101 
4482.000000	64.637804 
4481.000000	64.645910 
4480.000000	64.653539 
4479.000000	64.657092 
4478.000000	64.654827 
4477.000000	64.639091 
4476.000000	64.597344 
4475.000000	64.516973 
4474.000000	64.389014 
4473.000000	64.212584 
4472.000000	63.999032 
4471.000000	63.761067 
4470.000000	63.510203 
4469.000000	63.261103 
4468.000000	63.029742 
4467.000000	62.831568 
4466.000000	62.679266 
4465.000000	62.582659 
4464.000000	62.546133 
4463.000000	62.559795 
4462.000000	62.606835 
4461.000000	62.667584 
4460.000000	62.725019 
4459.000000	62.776350 
4458.000000	62.819147 
4457.000000	62.864828 
4456.000000	62.901639 
4455.000000	62.901902 
4454.000000	62.799954 
4453.000000	62.499666 
4452.000000	61.905956 
4451.000000	60.943126 
4450.000000	59.615612 
4449.000000	58.011817 
4448.000000	56.335377 
4447.000000	54.867410 
4446.000000	53.919529 
4445.000000	53.759288 
4444.000000	54.527974 
4443.000000	56.194996 
4442.000000	58.544063 
4441.000000	61.219739 
4440.000000	63.811469 
4439.000000	65.954518 
4438.000000	67.417311 
4437.000000	68.148708 
4436.000000	68.277025 
4435.000000	68.050575 
4434.000000	67.758679 
4433.000000	67.629218 
4432.000000	67.769789 
4431.000000	68.130350 
4430.000000	68.548965 
4429.000000	68.795347 
4428.000000	68.678188 
4427.000000	68.091106 
4426.000000	67.075371 
4425.000000	65.793657 
4424.000000	64.481949 
4423.000000	63.391304 
4422.000000	62.700939 
4421.000000	62.505149 
4420.000000	62.790012 
4419.000000	63.461589 
4418.000000	64.383578 
4417.000000	65.397882 
4416.000000	66.362738 
4415.000000	67.161369 
4414.000000	67.718029 
4413.000000	67.999982 
4412.000000	68.014311 
4411.000000	67.800998 
4410.000000	67.416930 
4409.000000	66.930317 
4408.000000	66.401362 
4407.000000	65.872192 
4406.000000	65.364694 
4405.000000	64.900684 
4404.000000	64.492249 
4403.000000	64.155602 
4402.000000	63.900089 
4401.000000	63.724780 
4400.000000	63.620638 
4399.000000	63.565087 
4398.000000	63.534426 
4397.000000	63.504576 
4396.000000	63.461422 
4395.000000	63.401389 
4394.000000	63.331913 
4393.000000	63.264632 
4392.000000	63.214349 
4391.000000	63.192892 
4390.000000	63.204836 
4389.000000	63.245272 
4388.000000	63.305330 
4387.000000	63.374114 
4386.000000	63.443922 
4385.000000	63.510894 
4384.000000	63.571810 
4383.000000	63.623857 
4382.000000	63.664317 
4381.000000	63.690161 
4380.000000	63.696122 
4379.000000	63.678336 
4378.000000	63.635492 
4377.000000	63.571691 
4376.000000	63.499784 
4375.000000	63.436484 
4374.000000	63.397884 
4373.000000	63.396406 
4372.000000	63.437175 
4371.000000	63.517403 
4370.000000	63.625407 
4369.000000	63.746595 
4368.000000	63.867616 
4367.000000	63.979601 
4366.000000	64.079737 
4365.000000	64.170813 
4364.000000	64.258646 
4363.000000	64.348530 
4362.000000	64.442133 
4361.000000	64.536070 
4360.000000	64.622163 
4359.000000	64.690709 
4358.000000	64.732694 
4357.000000	64.744448 
4356.000000	64.727306 
4355.000000	64.688014 
4354.000000	64.635372 
4353.000000	64.577841 
4352.000000	64.520597 
4351.000000	64.464831 
4350.000000	64.408087 
4349.000000	64.346718 
4348.000000	64.277863 
4347.000000	64.201831 
4346.000000	64.122915 
4345.000000	64.048719 
4344.000000	63.988971 
4343.000000	63.952469 
4342.000000	63.945269 
4341.000000	63.968038 
4340.000000	64.016532 
4339.000000	64.082145 
4338.000000	64.153695 
4337.000000	64.219641 
4336.000000	64.270281 
4335.000000	64.299631 
4334.000000	64.305114 
4333.000000	64.288043 
4332.000000	64.253258 
4331.000000	64.208245 
4330.000000	64.161658 
4329.000000	64.121937 
4328.000000	64.096641 
4327.000000	64.090681 
4326.000000	64.105987 
4325.000000	64.140820 
4324.000000	64.190840 
4323.000000	64.249396 
4322.000000	64.309167 
4321.000000	64.363193 
4320.000000	64.405393 
4319.000000	64.432072 
4318.000000	64.441990 
4317.000000	64.436340 
4316.000000	64.418387 
4315.000000	64.392542 
4314.000000	64.363527 
4313.000000	64.335536 
4312.000000	64.312076 
4311.000000	64.295363 
4310.000000	64.286732 
4309.000000	64.286327 
4308.000000	64.293456 
4307.000000	64.306449 
4306.000000	64.322781 
4305.000000	64.339494 
4304.000000	64.353537 
4303.000000	64.361786 
4302.000000	64.361953 
4301.000000	64.352560 
4300.000000	64.333891 
4299.000000	64.308190 
4298.000000	64.279294 
4297.000000	64.252161 
4296.000000	64.231276 
4295.000000	64.220476 
4294.000000	64.220571 
4293.000000	64.229512 
4292.000000	64.241909 
4291.000000	64.250087 
4290.000000	64.246010 
4289.000000	64.223551 
4288.000000	64.180207 
4287.000000	64.117646 
4286.000000	64.041948 
4285.000000	63.962078 
4284.000000	63.888025 
4283.000000	63.828611 
4282.000000	63.789558 
4281.000000	63.772535 
4280.000000	63.775634 
4279.000000	63.794398 
4278.000000	63.823390 
4277.000000	63.857936 
4276.000000	63.895225 
4275.000000	63.934636 
4274.000000	63.977146 
4273.000000	64.024305 
4272.000000	64.076805 
4271.000000	64.133453 
4270.000000	64.190983 
4269.000000	64.244151 
4268.000000	64.287281 
4267.000000	64.314770 
4266.000000	64.322829 
4265.000000	64.309883 
4264.000000	64.277362 
4263.000000	64.229536 
4262.000000	64.172911 
4261.000000	64.115214 
4260.000000	64.064097 
4259.000000	64.026236 
4258.000000	64.006495 
4257.000000	64.007186 
4256.000000	64.028191 
4255.000000	64.066863 
4254.000000	64.118552 
4253.000000	64.177632 
4252.000000	64.238452 
4251.000000	64.295554 
4250.000000	64.344525 
4249.000000	64.382648 
4248.000000	64.409065 
4247.000000	64.424610 
4246.000000	64.431214 
4245.000000	64.431810 
4244.000000	64.428806 
4243.000000	64.424753 
4242.000000	64.420270 
4241.000000	64.415407 
4240.000000	64.407944 
4239.000000	64.395260 
4238.000000	64.373874 
4237.000000	64.340972 
4236.000000	64.294958 
4235.000000	64.236474 
4234.000000	64.168691 
4233.000000	64.096832 
4232.000000	64.028167 
4231.000000	63.970351 
4230.000000	63.930773 
4229.000000	63.914752 
4228.000000	63.925051 
4227.000000	63.961315 
4226.000000	64.020252 
4225.000000	64.096164 
4224.000000	64.182353 
4223.000000	64.271783 
4222.000000	64.357852 
4221.000000	64.434862 
4220.000000	64.498615 
4219.000000	64.546108 
4218.000000	64.575433 
4217.000000	64.585566 
4216.000000	64.577054 
4215.000000	64.551281 
4214.000000	64.511609 
4213.000000	64.462065 
4212.000000	64.408206 
4211.000000	64.355230 
4210.000000	64.308452 
4209.000000	64.271211 
4208.000000	64.244937 
4207.000000	64.228677 
4206.000000	64.219784 
4205.000000	64.214849 
4204.000000	64.210438 
4203.000000	64.204311 
4202.000000	64.195919 
4201.000000	64.185786 
4200.000000	64.175009 
4199.000000	64.164614 
4198.000000	64.155197 
4197.000000	64.146447 
4196.000000	64.137601 
4195.000000	64.127588 
4194.000000	64.115452 
4193.000000	64.101123 
4192.000000	64.085149 
4191.000000	64.068102 
4190.000000	64.050269 
4189.000000	64.031648 
4188.000000	64.011836 
4187.000000	63.989806 
4186.000000	63.964748 
4185.000000	63.936638 
4184.000000	63.906621 
4183.000000	63.877010 
4182.000000	63.851141 
4181.000000	63.832211 
4180.000000	63.823103 
4179.000000	63.825297 
4178.000000	63.839054 
4177.000000	63.863301 
4176.000000	63.896298 
4175.000000	63.935875 
4174.000000	63.979768 
4173.000000	64.025664 
4172.000000	64.070940 
4171.000000	64.112544 
4170.000000	64.146924 
4169.000000	64.170289 
4168.000000	64.179396 
4167.000000	64.172220 
4166.000000	64.148688 
4165.000000	64.110922 
4164.000000	64.063906 
4163.000000	64.014172 
4162.000000	63.968586 
4161.000000	63.932967 
4160.000000	63.911104 
4159.000000	63.903975 
4158.000000	63.909578 
4157.000000	63.923883 
4156.000000	63.942003 
4155.000000	63.959407 
4154.000000	63.972663 
4153.000000	63.980364 
4152.000000	63.982820 
4151.000000	63.981819 
4150.000000	63.979387 
4149.000000	63.977336 
4148.000000	63.976478 
4147.000000	63.976573 
4146.000000	63.976478 
4145.000000	63.974523 
4144.000000	63.969397 
4143.000000	63.960838 
4142.000000	63.949966 
4141.000000	63.938927 
4140.000000	63.930726 
4139.000000	63.928580 
4138.000000	63.935160 
4137.000000	63.952040 
4136.000000	63.979244 
4135.000000	64.015078 
4134.000000	64.056658 
4133.000000	64.100503 
4132.000000	64.143157 
4131.000000	64.181470 
4130.000000	64.213418 
4129.000000	64.238333 
4128.000000	64.256834 
4127.000000	64.270210 
4126.000000	64.279985 
4125.000000	64.287924 
4124.000000	64.295196 
4123.000000	64.302468 
4122.000000	64.309477 
4121.000000	64.315414 
4120.000000	64.318990 
4119.000000	64.318752 
4118.000000	64.313411 
4117.000000	64.302062 
4116.000000	64.284610 
4115.000000	64.261960 
4114.000000	64.235877 
4113.000000	64.208960 
4112.000000	64.184379 
4111.000000	64.165711 
4110.000000	64.155769 
4109.000000	64.156866 
4108.000000	64.170193 
4107.000000	64.195895 
4106.000000	64.232587 
4105.000000	64.278030 
4104.000000	64.328980 
4103.000000	64.381885 
4102.000000	64.433002 
4101.000000	64.479303 
4100.000000	64.518761 
4099.000000	64.550280 
4098.000000	64.573860 
4097.000000	64.589905 
4096.000000	64.599275 
4095.000000	64.602565 
4094.000000	64.600276 
4093.000000	64.592552 
4092.000000	64.579439 
4091.000000	64.561319 
4090.000000	64.538955 
4089.000000	64.513254 
4088.000000	64.485454 
4087.000000	64.456748 
4086.000000	64.428138 
4085.000000	64.400124 
4084.000000	64.373111 
4083.000000	64.347171 
4082.000000	64.322829 
4081.000000	64.300894 
4080.000000	64.282822 
4079.000000	64.270019 
4078.000000	64.263892 
4077.000000	64.264965 
4076.000000	64.272809 
4075.000000	64.285254 
4074.000000	64.299392 
4073.000000	64.312005 
4072.000000	64.320588 
4071.000000	64.323520 
4070.000000	64.320921 
4069.000000	64.314603 
4068.000000	64.307618 
4067.000000	64.303231 
4066.000000	64.304494 
4065.000000	64.313220 
4064.000000	64.329910 
4063.000000	64.353442 
4062.000000	64.381504 
4061.000000	64.410972 
4060.000000	64.438843 
4059.000000	64.462590 
4058.000000	64.480400 
4057.000000	64.491248 
4056.000000	64.494895 
4055.000000	64.491510 
4054.000000	64.481401 
4053.000000	64.464759 
4052.000000	64.441990 
4051.000000	64.413380 
4050.000000	64.379739 
4049.000000	64.342355 
4048.000000	64.303159 
4047.000000	64.264845 
4046.000000	64.230489 
4045.000000	64.203286 
4044.000000	64.186072 
4043.000000	64.180779 
4042.000000	64.187955 
4041.000000	64.206790 
4040.000000	64.235162 
4039.000000	64.270353 
4038.000000	64.309501 
4037.000000	64.350056 
4036.000000	64.390015 
4035.000000	64.428162 
4034.000000	64.463901 
4033.000000	64.496922 
4032.000000	64.526605 
4031.000000	64.552307 
4030.000000	64.572572 
4029.000000	64.585804 
4028.000000	64.590001 
4027.000000	64.583826 
4026.000000	64.566397 
4025.000000	64.538121 
4024.000000	64.500546 
4023.000000	64.456415 
4022.000000	64.409542 
4021.000000	64.364552 
4020.000000	64.326453 
4019.000000	64.299869 
4018.000000	64.288353 
4017.000000	64.294075 
4016.000000	64.316582 
4015.000000	64.352726 
4014.000000	64.396858 
4013.000000	64.441895 
4012.000000	64.480376 
4011.000000	64.506149 
4010.000000	64.515399 
4009.000000	64.507508 
4008.000000	64.485073 
4007.000000	64.453005 
4006.000000	64.417099 
4005.000000	64.382505 
4004.000000	64.352893 
4003.000000	64.329409 
4002.000000	64.311075 
4001.000000	64.295411 
4000.000000	64.280080 
3999.000000	64.263868 
3998.000000	64.247179 
3997.000000	64.232182 
3996.000000	64.222002 
3995.000000	64.220285 
3994.000000	64.229154 
3993.000000	64.249491 
3992.000000	64.280104 
3991.000000	64.318442 
3990.000000	64.361119 
3989.000000	64.404511 
3988.000000	64.445447 
3987.000000	64.481306 
3986.000000	64.510297 
3985.000000	64.531302 
3984.000000	64.543557 
3983.000000	64.546632 
3982.000000	64.540529 
3981.000000	64.525794 
3980.000000	64.503645 
3979.000000	64.476132 
3978.000000	64.446020 
3977.000000	64.416313 
3976.000000	64.389657 
3975.000000	64.367842 
3974.000000	64.351630 
3973.000000	64.340496 
3972.000000	64.333081 
3971.000000	64.327526 
3970.000000	64.322257 
3969.000000	64.316344 
3968.000000	64.309620 
3967.000000	64.302659 
3966.000000	64.296174 
3965.000000	64.290666 
3964.000000	64.285850 
3963.000000	64.280533 
3962.000000	64.272856 
3961.000000	64.260506 
3960.000000	64.241814 
3959.000000	64.216256 
3958.000000	64.185667 
3957.000000	64.154243 
3956.000000	64.127826 
3955.000000	64.112567 
3954.000000	64.113593 
3953.000000	64.133310 
3952.000000	64.170837 
3951.000000	64.221286 
3950.000000	64.276671 
3949.000000	64.327263 
3948.000000	64.363908 
3947.000000	64.379835 
3946.000000	64.371633 
3945.000000	64.340329 
3944.000000	64.290809 
3943.000000	64.231228 
3942.000000	64.170503 
3941.000000	64.117336 
3940.000000	64.078545 
3939.000000	64.057946 
3938.000000	64.056348 
3937.000000	64.071226 
3936.000000	64.098310 
3935.000000	64.131331 
3934.000000	64.163446 
3933.000000	64.188337 
3932.000000	64.200973 
3931.000000	64.198994 
3930.000000	64.182758 
3929.000000	64.155864 
3928.000000	64.124059 
3927.000000	64.094543 
3926.000000	64.074110 
3925.000000	64.068126 
3924.000000	64.079141 
3923.000000	64.106631 
3922.000000	64.147138 
3921.000000	64.195179 
3920.000000	64.244294 
3919.000000	64.288377 
3918.000000	64.322590 
3917.000000	64.343953 
3916.000000	64.351916 
3915.000000	64.348053 
3914.000000	64.335989 
3913.000000	64.320158 
3912.000000	64.305496 
3911.000000	64.296650 
3910.000000	64.297318 
3909.000000	64.310121 
3908.000000	64.335489 
3907.000000	64.371728 
3906.000000	64.414882 
3905.000000	64.459586 
3904.000000	64.499759 
3903.000000	64.529800 
3902.000000	64.545488 
3901.000000	64.544939 
3900.000000	64.528536 
3899.000000	64.498996 
3898.000000	64.460992 
3897.000000	64.420080 
3896.000000	64.382028 
3895.000000	64.351511 
3894.000000	64.332103 
3893.000000	64.324855 
3892.000000	64.328384 
3891.000000	64.339065 
3890.000000	64.351892 
3889.000000	64.361381 
3888.000000	64.362955 
3887.000000	64.354109 
3886.000000	64.334416 
3885.000000	64.306354 
3884.000000	64.274501 
3883.000000	64.244318 
3882.000000	64.220786 
3881.000000	64.207220 
3880.000000	64.204335 
3879.000000	64.210629 
3878.000000	64.222645 
3877.000000	64.236807 
3876.000000	64.250469 
3875.000000	64.262986 
3874.000000	64.275622 
3873.000000	64.290690 
3872.000000	64.310622 
3871.000000	64.336442 
3870.000000	64.367389 
3869.000000	64.400982 
3868.000000	64.433622 
3867.000000	64.462137 
3866.000000	64.484310 
3865.000000	64.499950 
3864.000000	64.510393 
3863.000000	64.518451 
3862.000000	64.526724 
3861.000000	64.536881 
3860.000000	64.548897 
3859.000000	64.560937 
3858.000000	64.569878 
3857.000000	64.572477 
3856.000000	64.566159 
3855.000000	64.550042 
3854.000000	64.524817 
3853.000000	64.492726 
3852.000000	64.456820 
3851.000000	64.420366 
3850.000000	64.386439 
3849.000000	64.357542 
3848.000000	64.335989 
3847.000000	64.323711 
3846.000000	64.322185 
3845.000000	64.332032 
3844.000000	64.352798 
3843.000000	64.382100 
3842.000000	64.415717 
3841.000000	64.447879 
3840.000000	64.471888 
3839.000000	64.481711 
3838.000000	64.473080 
3837.000000	64.444828 
3836.000000	64.399504 
3835.000000	64.342689 
3834.000000	64.282131 
3833.000000	64.225888 
3832.000000	64.180684 
3831.000000	64.150404 
3830.000000	64.135575 
3829.000000	64.133715 
3828.000000	64.140272 
3827.000000	64.150142 
3826.000000	64.159011 
3825.000000	64.164471 
3824.000000	64.166331 
3823.000000	64.166593 
3822.000000	64.168190 
3821.000000	64.174413 
3820.000000	64.187359 
3819.000000	64.207410 
3818.000000	64.232873 
3817.000000	64.260745 
3816.000000	64.287352 
3815.000000	64.309430 
3814.000000	64.324784 
3813.000000	64.332914 
3812.000000	64.335107 
3811.000000	64.333820 
3810.000000	64.331960 
3809.000000	64.332127 
3808.000000	64.336133 
3807.000000	64.344573 
3806.000000	64.356803 
3805.000000	64.371562 
3804.000000	64.386940 
3803.000000	64.401292 
3802.000000	64.413356 
3801.000000	64.422702 
3800.000000	64.429450 
3799.000000	64.434170 
3798.000000	64.437842 
3797.000000	64.441156 
3796.000000	64.444899 
3795.000000	64.449715 
3794.000000	64.455914 
3793.000000	64.463615 
3792.000000	64.473032 
3791.000000	64.484477 
3790.000000	64.498209 
3789.000000	64.514327 
3788.000000	64.532852 
3787.000000	64.553475 
3786.000000	64.575505 
3785.000000	64.597845 
3784.000000	64.619135 
3783.000000	64.637827 
3782.000000	64.652538 
3781.000000	64.661979 
3780.000000	64.665198 
3779.000000	64.661502 
3778.000000	64.650988 
3777.000000	64.633965 
3776.000000	64.611291 
3775.000000	64.583849 
3774.000000	64.553141 
3773.000000	64.520215 
3772.000000	64.486193 
3771.000000	64.451622 
3770.000000	64.416766 
3769.000000	64.381456 
3768.000000	64.345264 
3767.000000	64.307713 
3766.000000	64.268612 
3765.000000	64.228320 
3764.000000	64.187979 
3763.000000	64.149403 
3762.000000	64.115190 
3761.000000	64.087986 
3760.000000	64.070558 
3759.000000	64.064574 
3758.000000	64.071035 
3757.000000	64.089727 
3756.000000	64.119625 
3755.000000	64.158368 
3754.000000	64.203166 
3753.000000	64.250946 
3752.000000	64.299058 
3751.000000	64.345049 
3750.000000	64.387249 
3749.000000	64.424753 
3748.000000	64.457464 
3747.000000	64.485764 
3746.000000	64.510178 
3745.000000	64.530873 
3744.000000	64.547777 
3743.000000	64.560627 
3742.000000	64.568758 
3741.000000	64.571619 
3740.000000	64.569306 
3739.000000	64.562726 
3738.000000	64.553451 
3737.000000	64.543485 
3736.000000	64.535140 
3735.000000	64.530229 
3734.000000	64.529204 
3733.000000	64.530897 
3732.000000	64.532971 
3731.000000	64.532113 
3730.000000	64.524936 
3729.000000	64.508867 
3728.000000	64.482951 
3727.000000	64.448285 
3726.000000	64.407873 
3725.000000	64.366173 
3724.000000	64.327931 
3723.000000	64.297485 
3722.000000	64.278078 
3721.000000	64.271116 
3720.000000	64.275860 
3719.000000	64.289975 
3718.000000	64.310073 
3717.000000	64.332342 
3716.000000	64.353203 
3715.000000	64.370155 
3714.000000	64.382195 
3713.000000	64.389705 
3712.000000	64.394402 
3711.000000	64.398813 
3710.000000	64.405775 
3709.000000	64.417839 
3708.000000	64.436507 
3707.000000	64.461684 
3706.000000	64.491581 
3705.000000	64.523196 
3704.000000	64.552664 
3703.000000	64.576148 
3702.000000	64.590406 
3701.000000	64.593768 
3700.000000	64.586114 
3699.000000	64.569067 
3698.000000	64.545321 
3697.000000	64.518213 
3696.000000	64.491009 
3695.000000	64.466762 
3694.000000	64.447426 
3693.000000	64.434123 
3692.000000	64.426803 
3691.000000	64.424681 
3690.000000	64.426231 
3689.000000	64.429783 
3688.000000	64.433860 
3687.000000	64.437508 
3686.000000	64.440441 
3685.000000	64.442873 
3684.000000	64.445877 
3683.000000	64.451122 
3682.000000	64.460110 
3681.000000	64.473748 
3680.000000	64.492201 
3679.000000	64.514398 
3678.000000	64.538383 
3677.000000	64.561343 
3676.000000	64.580559 
3675.000000	64.593744 
3674.000000	64.599585 
3673.000000	64.597868 
3672.000000	64.589524 
3671.000000	64.575958 
3670.000000	64.558839 
3669.000000	64.539718 
3668.000000	64.519715 
3667.000000	64.499497 
3666.000000	64.479684 
3665.000000	64.460849 
3664.000000	64.443588 
3663.000000	64.428734 
3662.000000	64.417076 
3661.000000	64.409351 
3660.000000	64.405727 
3659.000000	64.405846 
3658.000000	64.408564 
3657.000000	64.412689 
3656.000000	64.417028 
3655.000000	64.420557 
3654.000000	64.422845 
3653.000000	64.423918 
3652.000000	64.424300 
3651.000000	64.424443 
3650.000000	64.424633 
3649.000000	64.424800 
3648.000000	64.424872 
3647.000000	64.424490 
3646.000000	64.423704 
3645.000000	64.422893 
3644.000000	64.422869 
3643.000000	64.424967 
3642.000000	64.430403 
3641.000000	64.440083 
3640.000000	64.453935 
3639.000000	64.471173 
3638.000000	64.489793 
3637.000000	64.507055 
3636.000000	64.519858 
3635.000000	64.525604 
3634.000000	64.522624 
3633.000000	64.510250 
3632.000000	64.489150 
3631.000000	64.461016 
3630.000000	64.428186 
3629.000000	64.393019 
3628.000000	64.357590 
3627.000000	64.323687 
3626.000000	64.292597 
3625.000000	64.265394 
3624.000000	64.242887 
3623.000000	64.226150 
3622.000000	64.216089 
3621.000000	64.213657 
3620.000000	64.219164 
3619.000000	64.232420 
3618.000000	64.252281 
3617.000000	64.277148 
3616.000000	64.304447 
3615.000000	64.331769 
3614.000000	64.356875 
3613.000000	64.378309 
3612.000000	64.395332 
3611.000000	64.407992 
3610.000000	64.416837 
3609.000000	64.422821 
3608.000000	64.426708 
3607.000000	64.429259 
3606.000000	64.430975 
3605.000000	64.432406 
3604.000000	64.434146 
3603.000000	64.436674 
3602.000000	64.440536 
3601.000000	64.446187 
3600.000000	64.453887 
3599.000000	64.463424 
3598.000000	64.474034 
3597.000000	64.484715 
3596.000000	64.494276 
3595.000000	64.501333 
3594.000000	64.504647 
3593.000000	64.503526 
3592.000000	64.497685 
3591.000000	64.487409 
3590.000000	64.473271 
3589.000000	64.456176 
3588.000000	64.437174 
3587.000000	64.417409 
3586.000000	64.397883 
3585.000000	64.379382 
3584.000000	64.362549 
3583.000000	64.347839 
3582.000000	64.335536 
3581.000000	64.325761 
3580.000000	64.318656 
3579.000000	64.314651 
3578.000000	64.314150 
3577.000000	64.317584 
3576.000000	64.325308 
3575.000000	64.337420 
3574.000000	64.353537 
3573.000000	64.372873 
3572.000000	64.394402 
3571.000000	64.417004 
3570.000000	64.439487 
3569.000000	64.460897 
3568.000000	64.480257 
3567.000000	64.496755 
3566.000000	64.509773 
3565.000000	64.518737 
3564.000000	64.523196 
3563.000000	64.522814 
3562.000000	64.517784 
3561.000000	64.508628 
3560.000000	64.496421 
3559.000000	64.482665 
3558.000000	64.469122 
3557.000000	64.457345 
3556.000000	64.448451 
3555.000000	64.442849 
3554.000000	64.440202 
3553.000000	64.439558 
3552.000000	64.439630 
3551.000000	64.439082 
3550.000000	64.436841 
3549.000000	64.431977 
3548.000000	64.423847 
3547.000000	64.411973 
3546.000000	64.396524 
3545.000000	64.378046 
3544.000000	64.358091 
3543.000000	64.338707 
3542.000000	64.322257 
3541.000000	64.311099 
3540.000000	64.307284 
3539.000000	64.311432 
3538.000000	64.323091 
3537.000000	64.340901 
3536.000000	64.362573 
3535.000000	64.385366 
3534.000000	64.406514 
3533.000000	64.423847 
3532.000000	64.435935 
3531.000000	64.442157 
3530.000000	64.442801 
3529.000000	64.438962 
3528.000000	64.432382 
3527.000000	64.425086 
3526.000000	64.419245 
3525.000000	64.416813 
3524.000000	64.419293 
3523.000000	64.427447 
3522.000000	64.440846 
3521.000000	64.457893 
3520.000000	64.476132 
3519.000000	64.492392 
3518.000000	64.503693 
3517.000000	64.507532 
3516.000000	64.502668 
3515.000000	64.489150 
3514.000000	64.468407 
3513.000000	64.442920 
3512.000000	64.415621 
3511.000000	64.389443 
3510.000000	64.366745 
3509.000000	64.349222 
3508.000000	64.337658 
3507.000000	64.332008 
3506.000000	64.331817 
3505.000000	64.336037 
3504.000000	64.343500 
3503.000000	64.352869 
3502.000000	64.362573 
3501.000000	64.371156 
3500.000000	64.377188 
3499.000000	64.379882 
3498.000000	64.379048 
3497.000000	64.375400 
3496.000000	64.370322 
3495.000000	64.365673 
3494.000000	64.363121 
3493.000000	64.363789 
3492.000000	64.367723 
3491.000000	64.374017 
3490.000000	64.380836 
3489.000000	64.386081 
3488.000000	64.387750 
3487.000000	64.384579 
3486.000000	64.376354 
3485.000000	64.363980 
3484.000000	64.349293 
3483.000000	64.334678 
3482.000000	64.322781 
3481.000000	64.315652 
3480.000000	64.314889 
3479.000000	64.321041 
3478.000000	64.334011 
3477.000000	64.353013 
3476.000000	64.376807 
3475.000000	64.403915 
3474.000000	64.432621 
3473.000000	64.461040 
3472.000000	64.487266 
3471.000000	64.509630 
3470.000000	64.526462 
3469.000000	64.536523 
3468.000000	64.539241 
3467.000000	64.534950 
3466.000000	64.524793 
3465.000000	64.510536 
3464.000000	64.494657 
3463.000000	64.479780 
3462.000000	64.468264 
3461.000000	64.461803 
3460.000000	64.461064 
3459.000000	64.465761 
3458.000000	64.474558 
3457.000000	64.485716 
3456.000000	64.497184 
3455.000000	64.507412 
3454.000000	64.515304 
3453.000000	64.520573 
3452.000000	64.523577 
3451.000000	64.525032 
3450.000000	64.525747 
3449.000000	64.526009 
3448.000000	64.525413 
3447.000000	64.522695 
3446.000000	64.516186 
3445.000000	64.503693 
3444.000000	64.483547 
3443.000000	64.454579 
3442.000000	64.416790 
3441.000000	64.371562 
3440.000000	64.321660 
3439.000000	64.270615 
3438.000000	64.222526 
3437.000000	64.181375 
3436.000000	64.150500 
3435.000000	64.132118 
3434.000000	64.126992 
3433.000000	64.134359 
3432.000000	64.152145 
3431.000000	64.177346 
3430.000000	64.206624 
3429.000000	64.236497 
3428.000000	64.264440 
3427.000000	64.288330 
3426.000000	64.307498 
3425.000000	64.322042 
3424.000000	64.332914 
3423.000000	64.341354 
3422.000000	64.348626 
3421.000000	64.355564 
3420.000000	64.362239 
3419.000000	64.368247 
3418.000000	64.372396 
3417.000000	64.373254 
3416.000000	64.369320 
3415.000000	64.359521 
3414.000000	64.343547 
3413.000000	64.321899 
3412.000000	64.296102 
3411.000000	64.268612 
3410.000000	64.242291 
3409.000000	64.220190 
3408.000000	64.205050 
3407.000000	64.198970 
3406.000000	64.202713 
3405.000000	64.215946 
3404.000000	64.236879 
3403.000000	64.263033 
3402.000000	64.291214 
3401.000000	64.318442 
3400.000000	64.342069 
3399.000000	64.360475 
3398.000000	64.373326 
3397.000000	64.381194 
3396.000000	64.385390 
3395.000000	64.387416 
3394.000000	64.388585 
3393.000000	64.389419 
3392.000000	64.389610 
3391.000000	64.388227 
3390.000000	64.384150 
3389.000000	64.376568 
3388.000000	64.365649 
3387.000000	64.352631 
3386.000000	64.339852 
3385.000000	64.330291 
3384.000000	64.326786 
3383.000000	64.331388 
3382.000000	64.344716 
3381.000000	64.365530 
3380.000000	64.390826 
3379.000000	64.416575 
3378.000000	64.438319 
3377.000000	64.452433 
3376.000000	64.456868 
3375.000000	64.451527 
3374.000000	64.438343 
3373.000000	64.420700 
3372.000000	64.402794 
3371.000000	64.388442 
3370.000000	64.380455 
3369.000000	64.379858 
3368.000000	64.386177 
3367.000000	64.397788 
3366.000000	64.412355 
3365.000000	64.427566 
3364.000000	64.441585 
3363.000000	64.453315 
3362.000000	64.462304 
3361.000000	64.468550 
3360.000000	64.471888 
3359.000000	64.471888 
3358.000000	64.467883 
3357.000000	64.459228 
3356.000000	64.445781 
3355.000000	64.428138 
3354.000000	64.408087 
3353.000000	64.388203 
3352.000000	64.371562 
3351.000000	64.361262 
3350.000000	64.359188 
3349.000000	64.366054 
3348.000000	64.380979 
3347.000000	64.401817 
3346.000000	64.425253 
3345.000000	64.447593 
3344.000000	64.465594 
3343.000000	64.476656 
3342.000000	64.479303 
3341.000000	64.473128 
3340.000000	64.458775 
3339.000000	64.437747 
3338.000000	64.412260 
3337.000000	64.385223 
3336.000000	64.359879 
3335.000000	64.339518 
3334.000000	64.327049 
3333.000000	64.324402 
3332.000000	64.331865 
3331.000000	64.347887 
3330.000000	64.369177 
3329.000000	64.391136 
3328.000000	64.408707 
3327.000000	64.417481 
3326.000000	64.414596 
3325.000000	64.399552 
3324.000000	64.374184 
3323.000000	64.342212 
3322.000000	64.308238 
3321.000000	64.276838 
3320.000000	64.251375 
3319.000000	64.233517 
3318.000000	64.223027 
3317.000000	64.218306 
3316.000000	64.217090 
3315.000000	64.217114 
3314.000000	64.216923 
3313.000000	64.216065 
3312.000000	64.215350 
3311.000000	64.216089 
3310.000000	64.219999 
3309.000000	64.228510 
3308.000000	64.242625 
3307.000000	64.262652 
3306.000000	64.288306 
3305.000000	64.318370 
3304.000000	64.351344 
3303.000000	64.385104 
3302.000000	64.417195 
3301.000000	64.444661 
3300.000000	64.464807 
3299.000000	64.475107 
3298.000000	64.474153 
3297.000000	64.461445 
3296.000000	64.438176 
3295.000000	64.406251 
3294.000000	64.368581 
3293.000000	64.327812 
3292.000000	64.286518 
3291.000000	64.246487 
3290.000000	64.208674 
3289.000000	64.173769 
3288.000000	64.142394 
3287.000000	64.115667 
3286.000000	64.095020 
3285.000000	64.082312 
3284.000000	64.079260 
3283.000000	64.087104 
3282.000000	64.105987 
3281.000000	64.134550 
3280.000000	64.170002 
3279.000000	64.208507 
3278.000000	64.245724 
3277.000000	64.277839 
3276.000000	64.302134 
3275.000000	64.317440 
3274.000000	64.324259 
3273.000000	64.324235 
3272.000000	64.319801 
3271.000000	64.313459 
3270.000000	64.307188 
3269.000000	64.302158 
3268.000000	64.298319 
3267.000000	64.295077 
3266.000000	64.291167 
3265.000000	64.285683 
3264.000000	64.278125 
3263.000000	64.268684 
3262.000000	64.258193 
3261.000000	64.248132 
3260.000000	64.240097 
3259.000000	64.235162 
3258.000000	64.233970 
3257.000000	64.236497 
3256.000000	64.242362 
3255.000000	64.251041 
3254.000000	64.262151 
3253.000000	64.275598 
3252.000000	64.291501 
3251.000000	64.309883 
3250.000000	64.330410 
3249.000000	64.351963 
3248.000000	64.372777 
3247.000000	64.390468 
3246.000000	64.402484 
3245.000000	64.406704 
3244.000000	64.402103 
3243.000000	64.389061 
3242.000000	64.369726 
3241.000000	64.347457 
3240.000000	64.326381 
3239.000000	64.310455 
3238.000000	64.302778 
3237.000000	64.304733 
3236.000000	64.315795 
3235.000000	64.333748 
3234.000000	64.355111 
3233.000000	64.376163 
3232.000000	64.393687 
3231.000000	64.405632 
3230.000000	64.411377 
3229.000000	64.411664 
3228.000000	64.407896 
3227.000000	64.401698 
3226.000000	64.394187 
3225.000000	64.385676 
3224.000000	64.375758 
3223.000000	64.363479 
3222.000000	64.348053 
3221.000000	64.329600 
3220.000000	64.309549 
3219.000000	64.290428 
3218.000000	64.275527 
3217.000000	64.268255 
3216.000000	64.271211 
3215.000000	64.285159 
3214.000000	64.308643 
3213.000000	64.338254 
3212.000000	64.369177 
3211.000000	64.395952 
3210.000000	64.413952 
3209.000000	64.419889 
3208.000000	64.412856 
3207.000000	64.394354 
3206.000000	64.367866 
3205.000000	64.338064 
3204.000000	64.309835 
3203.000000	64.287137 
3202.000000	64.272379 
3201.000000	64.265894 
3200.000000	64.266204 
3199.000000	64.270520 
3198.000000	64.275646 
3197.000000	64.278674 
3196.000000	64.277791 
3195.000000	64.272546 
3194.000000	64.263367 
3193.000000	64.251661 
3192.000000	64.239144 
3191.000000	64.227557 
3190.000000	64.218044 
3189.000000	64.211463 
3188.000000	64.208388 
3187.000000	64.209151 
3186.000000	64.214015 
3185.000000	64.223027 
3184.000000	64.236187 
3183.000000	64.252948 
3182.000000	64.272379 
3181.000000	64.292716 
3180.000000	64.311885 
3179.000000	64.327645 
3178.000000	64.338159 
3177.000000	64.342355 
3176.000000	64.340209 
3175.000000	64.332532 
3174.000000	64.320993 
3173.000000	64.307761 
3172.000000	64.295172 
3171.000000	64.285445 
3170.000000	64.280414 
3169.000000	64.281535 
3168.000000	64.289402 
3167.000000	64.303970 
3166.000000	64.324450 
3165.000000	64.349126 
3164.000000	64.375853 
3163.000000	64.402031 
3162.000000	64.425420 
3161.000000	64.444231 
3160.000000	64.457607 
3159.000000	64.465880 
3158.000000	64.470100 
3157.000000	64.472246 
3156.000000	64.473962 
3155.000000	64.476203 
3154.000000	64.478778 
3153.000000	64.480447 
3152.000000	64.479398 
3151.000000	64.473915 
3150.000000	64.462900 
3149.000000	64.446663 
3148.000000	64.426279 
3147.000000	64.403724 
3146.000000	64.380812 
3145.000000	64.358925 
3144.000000	64.338636 
3143.000000	64.319705 
3142.000000	64.301300 
3141.000000	64.282488 
3140.000000	64.262723 
3139.000000	64.242243 
3138.000000	64.221811 
3137.000000	64.202833 
3136.000000	64.186811 
3135.000000	64.175271 
3134.000000	64.168977 
3133.000000	64.168453 
3132.000000	64.173841 
3131.000000	64.185285 
3130.000000	64.202618 
3129.000000	64.225506 
3128.000000	64.253282 
3127.000000	64.284682 
3126.000000	64.317631 
3125.000000	64.349913 
3124.000000	64.379191 
3123.000000	64.403820 
3122.000000	64.422988 
3121.000000	64.436841 
3120.000000	64.446187 
3119.000000	64.452338 
3118.000000	64.456391 
3117.000000	64.458751 
3116.000000	64.458703 
3115.000000	64.455056 
3114.000000	64.446210 
3113.000000	64.430832 
3112.000000	64.408254 
3111.000000	64.379310 
3110.000000	64.345860 
3109.000000	64.310717 
3108.000000	64.276885 
3107.000000	64.246988 
3106.000000	64.222931 
3105.000000	64.205455 
3104.000000	64.194416 
3103.000000	64.188933 
3102.000000	64.187645 
3101.000000	64.188981 
3100.000000	64.191699 
3099.000000	64.194607 
3098.000000	64.196991 
3097.000000	64.198374 
3096.000000	64.198851 
3095.000000	64.198613 
3094.000000	64.198374 
3093.000000	64.199137 
3092.000000	64.202070 
3091.000000	64.208221 
3090.000000	64.218473 
3089.000000	64.233160 
3088.000000	64.251875 
3087.000000	64.273405 
3086.000000	64.295887 
3085.000000	64.317035 
3084.000000	64.334630 
3083.000000	64.347004 
3082.000000	64.353418 
3081.000000	64.354300 
3080.000000	64.351320 
3079.000000	64.346837 
3078.000000	64.343643 
3077.000000	64.344239 
3076.000000	64.350461 
3075.000000	64.363074 
3074.000000	64.381551 
3073.000000	64.404296 
3072.000000	64.429068 
3071.000000	64.453482 
3070.000000	64.475584 
3069.000000	64.494037 
3068.000000	64.508318 
3067.000000	64.518523 
3066.000000	64.525198 
3065.000000	64.528846 
3064.000000	64.529728 
3063.000000	64.527869 
3062.000000	64.522957 
3061.000000	64.514732 
3060.000000	64.503121 
3059.000000	64.488673 
3058.000000	64.472556 
3057.000000	64.456367 
3056.000000	64.442014 
3055.000000	64.431238 
3054.000000	64.425301 
3053.000000	64.424562 
3052.000000	64.428353 
3051.000000	64.435076 
3050.000000	64.442491 
3049.000000	64.448189 
3048.000000	64.450144 
3047.000000	64.447116 
3046.000000	64.439129 
3045.000000	64.427113 
3044.000000	64.412999 
3043.000000	64.399123 
3042.000000	64.387845 
3041.000000	64.380621 
3040.000000	64.378285 
3039.000000	64.380621 
3038.000000	64.386367 
3037.000000	64.393544 
3036.000000	64.399981 
3035.000000	64.403486 
3034.000000	64.402270 
3033.000000	64.395284 
3032.000000	64.382338 
3031.000000	64.364099 
3030.000000	64.342212 
3029.000000	64.318847 
3028.000000	64.296531 
3027.000000	64.277768 
3026.000000	64.264798 
3025.000000	64.258861 
3024.000000	64.260149 
3023.000000	64.267587 
3022.000000	64.279294 
3021.000000	64.292526 
3020.000000	64.304447 
3019.000000	64.312505 
3018.000000	64.314913 
3017.000000	64.310789 
3016.000000	64.300036 
3015.000000	64.283347 
3014.000000	64.261865 
3013.000000	64.237165 
3012.000000	64.210820 
3011.000000	64.184665 
3010.000000	64.160346 
3009.000000	64.139366 
3008.000000	64.122748 
3007.000000	64.110946 
3006.000000	64.104151 
3005.000000	64.101886 
3004.000000	64.103841 
3003.000000	64.109182 
3002.000000	64.117407 
3001.000000	64.128232 
3000.000000	64.141821 
2999.000000	64.158415 
2998.000000	64.178252 
2997.000000	64.201188 
2996.000000	64.226508 
2995.000000	64.253044 
2994.000000	64.279031 
2993.000000	64.302563 
2992.000000	64.321732 
2991.000000	64.335179 
2990.000000	64.342093 
2989.000000	64.342498 
2988.000000	64.337062 
2987.000000	64.327073 
2986.000000	64.314436 
2985.000000	64.301300 
2984.000000	64.289879 
2983.000000	64.281773 
2982.000000	64.277696 
2981.000000	64.277100 
2980.000000	64.278078 
2979.000000	64.277625 
2978.000000	64.272403 
2977.000000	64.259362 
2976.000000	64.236569 
2975.000000	64.204311 
2974.000000	64.164805 
2973.000000	64.122653 
2972.000000	64.083385 
2971.000000	64.052844 
2970.000000	64.035511 
2969.000000	64.033699 
2968.000000	64.046931 
2967.000000	64.072060 
2966.000000	64.104223 
2965.000000	64.137697 
2964.000000	64.167070 
2963.000000	64.188313 
2962.000000	64.199280 
2961.000000	64.199757 
2960.000000	64.190888 
2959.000000	64.175057 
2958.000000	64.155244 
2957.000000	64.134287 
2956.000000	64.114594 
2955.000000	64.097929 
2954.000000	64.084982 
2953.000000	64.076066 
2952.000000	64.070916 
2951.000000	64.068841 
2950.000000	64.069223 
2949.000000	64.071226 
2948.000000	64.074444 
2947.000000	64.078688 
2946.000000	64.083981 
2945.000000	64.090394 
2944.000000	64.098286 
2943.000000	64.107704 
2942.000000	64.118528 
2941.000000	64.130330 
2940.000000	64.142179 
2939.000000	64.152693 
2938.000000	64.160132 
2937.000000	64.163064 
2936.000000	64.160013 
2935.000000	64.150047 
2934.000000	64.133095 
2933.000000	64.109921 
2932.000000	64.082384 
2931.000000	64.053249 
2930.000000	64.025926 
2929.000000	64.003992 
2928.000000	63.990473 
2927.000000	63.987302 
2926.000000	63.995075 
2925.000000	64.012932 
2924.000000	64.038538 
2923.000000	64.068698 
2922.000000	64.099717 
2921.000000	64.128303 
2920.000000	64.151787 
2919.000000	64.168763 
2918.000000	64.178776 
2917.000000	64.182853 
2916.000000	64.182543 
2915.000000	64.180064 
2914.000000	64.177846 
2913.000000	64.177894 
2912.000000	64.181756 
2911.000000	64.190125 
2910.000000	64.203119 
2909.000000	64.219832 
2908.000000	64.238739 
2907.000000	64.257788 
2906.000000	64.274930 
2905.000000	64.288330 
2904.000000	64.296889 
2903.000000	64.300298 
2902.000000	64.299249 
2901.000000	64.295172 
2900.000000	64.289903 
2899.000000	64.285254 
2898.000000	64.282441 
2897.000000	64.281797 
2896.000000	64.282679 
2895.000000	64.283752 
2894.000000	64.283347 
2893.000000	64.280223 
2892.000000	64.273929 
2891.000000	64.264988 
2890.000000	64.254879 
2889.000000	64.245939 
2888.000000	64.240479 
2887.000000	64.240336 
2886.000000	64.246344 
2885.000000	64.258098 
2884.000000	64.274048 
2883.000000	64.291930 
2882.000000	64.309000 
2881.000000	64.322948 
2880.000000	64.331889 
2879.000000	64.334774 
2878.000000	64.331293 
2877.000000	64.321637 
2876.000000	64.306354 
2875.000000	64.286184 
2874.000000	64.262270 
2873.000000	64.236259 
2872.000000	64.210057 
2871.000000	64.185857 
2870.000000	64.165878 
2869.000000	64.152002 
2868.000000	64.145231 
2867.000000	64.145636 
2866.000000	64.152073 
2865.000000	64.162945 
2864.000000	64.176106 
2863.000000	64.189624 
2862.000000	64.202237 
2861.000000	64.213609 
2860.000000	64.224076 
2859.000000	64.234590 
2858.000000	64.245986 
2857.000000	64.258694 
2856.000000	64.272427 
2855.000000	64.286279 
2854.000000	64.298844 
2853.000000	64.308738 
2852.000000	64.314961 
2851.000000	64.317297 
2850.000000	64.316177 
2849.000000	64.312481 
2848.000000	64.307403 
2847.000000	64.301800 
2846.000000	64.296126 
2845.000000	64.290404 
2844.000000	64.284348 
2843.000000	64.277410 
2842.000000	64.269208 
2841.000000	64.259743 
2840.000000	64.249682 
2839.000000	64.239931 
2838.000000	64.231657 
2837.000000	64.225769 
2836.000000	64.222764 
2835.000000	64.222407 
2834.000000	64.223909 
2833.000000	64.225935 
2832.000000	64.227318 
2831.000000	64.227342 
2830.000000	64.225935 
2829.000000	64.223670 
2828.000000	64.221739 
2827.000000	64.221572 
2826.000000	64.224505 
2825.000000	64.231085 
2824.000000	64.241242 
2823.000000	64.254117 
2822.000000	64.268517 
2821.000000	64.283013 
2820.000000	64.296293 
2819.000000	64.307570 
2818.000000	64.316487 
2817.000000	64.323210 
2816.000000	64.328122 
2815.000000	64.331698 
2814.000000	64.334249 
2813.000000	64.335989 
2812.000000	64.337110 
2811.000000	64.337730 
2810.000000	64.338350 
2809.000000	64.339327 
2808.000000	64.341139 
2807.000000	64.343857 
2806.000000	64.347338 
2805.000000	64.350914 
2804.000000	64.353513 
2803.000000	64.353966 
2802.000000	64.351129 
2801.000000	64.344358 
2800.000000	64.333629 
2799.000000	64.319777 
2798.000000	64.304399 
2797.000000	64.289450 
2796.000000	64.277076 
2795.000000	64.268994 
2794.000000	64.266157 
2793.000000	64.268422 
2792.000000	64.274454 
2791.000000	64.281916 
2790.000000	64.288306 
2789.000000	64.291238 
2788.000000	64.289498 
2787.000000	64.282989 
2786.000000	64.272880 
2785.000000	64.261531 
2784.000000	64.251685 
2783.000000	64.245939 
2782.000000	64.245820 
2781.000000	64.251804 
2780.000000	64.262914 
2779.000000	64.277100 
2778.000000	64.291572 
2777.000000	64.303588 
2776.000000	64.311170 
2775.000000	64.313149 
2774.000000	64.309954 
2773.000000	64.303064 
2772.000000	64.295053 
2771.000000	64.288735 
2770.000000	64.286804 
2769.000000	64.291119 
2768.000000	64.302468 
2767.000000	64.320325 
2766.000000	64.342975 
2765.000000	64.367723 
2764.000000	64.391684 
2763.000000	64.412117 
2762.000000	64.427089 
2761.000000	64.435720 
2760.000000	64.438438 
2759.000000	64.436435 
2758.000000	64.431667 
2757.000000	64.425945 
2756.000000	64.420843 
2755.000000	64.416885 
2754.000000	64.413785 
2753.000000	64.410281 
2752.000000	64.404869 
2751.000000	64.396047 
2750.000000	64.382863 
2749.000000	64.365386 
2748.000000	64.344596 
2747.000000	64.322352 
2746.000000	64.301156 
2745.000000	64.283537 
2744.000000	64.271330 
2743.000000	64.265608 
2742.000000	64.266633 
2741.000000	64.273643 
2740.000000	64.285135 
2739.000000	64.299082 
2738.000000	64.313507 
2737.000000	64.326500 
2736.000000	64.336776 
2735.000000	64.343738 
2734.000000	64.347672 
2733.000000	64.349365 
2732.000000	64.350175 
2731.000000	64.351749 
2730.000000	64.355397 
2729.000000	64.362001 
2728.000000	64.371514 
2727.000000	64.383077 
2726.000000	64.395022 
2725.000000	64.405202 
2724.000000	64.411354 
2723.000000	64.411735 
2722.000000	64.405369 
2721.000000	64.392399 
2720.000000	64.373779 
2719.000000	64.351153 
2718.000000	64.326357 
2717.000000	64.301300 
2716.000000	64.277482 
2715.000000	64.256000 
2714.000000	64.237546 
2713.000000	64.222764 
2712.000000	64.212155 
2711.000000	64.206314 
2710.000000	64.205622 
2709.000000	64.210319 
2708.000000	64.220213 
2707.000000	64.234232 
2706.000000	64.250588 
2705.000000	64.266848 
2704.000000	64.280390 
2703.000000	64.288902 
2702.000000	64.290738 
2701.000000	64.285278 
2700.000000	64.272975 
2699.000000	64.255428 
2698.000000	64.234924 
2697.000000	64.214062 
2696.000000	64.195609 
2695.000000	64.181709 
2694.000000	64.173817 
2693.000000	64.172410 
2692.000000	64.177060 
2691.000000	64.186453 
2690.000000	64.198827 
2689.000000	64.212346 
2688.000000	64.225411 
2687.000000	64.237189 
2686.000000	64.247584 
2685.000000	64.257144 
2684.000000	64.266681 
2683.000000	64.277148 
2682.000000	64.288973 
2681.000000	64.301919 
2680.000000	64.315056 
2679.000000	64.326786 
2678.000000	64.335298 
2677.000000	64.339113 
2676.000000	64.337229 
2675.000000	64.329648 
2674.000000	64.316821 
2673.000000	64.299845 
2672.000000	64.279794 
2671.000000	64.257550 
2670.000000	64.233684 
2669.000000	64.208555 
2668.000000	64.182591 
2667.000000	64.156532 
2666.000000	64.131641 
2665.000000	64.109587 
2664.000000	64.092111 
2663.000000	64.080739 
2662.000000	64.076161 
2661.000000	64.078021 
2660.000000	64.084887 
2659.000000	64.094543 
2658.000000	64.104533 
2657.000000	64.112734 
2656.000000	64.118003 
2655.000000	64.120292 
2654.000000	64.120721 
2653.000000	64.120960 
2652.000000	64.122772 
2651.000000	64.127254 
2650.000000	64.134502 
2649.000000	64.143419 
2648.000000	64.152312 
2647.000000	64.159011 
2646.000000	64.161920 
2645.000000	64.160394 
2644.000000	64.154958 
2643.000000	64.147138 
2642.000000	64.138889 
2641.000000	64.132285 
2640.000000	64.128661 
2639.000000	64.128589 
2638.000000	64.131760 
2637.000000	64.137387 
2636.000000	64.144682 
2635.000000	64.153051 
2634.000000	64.162588 
2633.000000	64.173746 
2632.000000	64.187312 
2631.000000	64.203667 
2630.000000	64.222598 
2629.000000	64.243030 
2628.000000	64.263176 
2627.000000	64.280748 
2626.000000	64.293646 
2625.000000	64.300537 
2624.000000	64.301252 
2623.000000	64.296889 
2622.000000	64.289474 
2621.000000	64.281606 
2620.000000	64.275646 
2619.000000	64.273166 
2618.000000	64.274454 
2617.000000	64.278578 
2616.000000	64.283514 
2615.000000	64.286875 
2614.000000	64.286279 
2613.000000	64.280247 
2612.000000	64.268136 
2611.000000	64.250349 
2610.000000	64.228081 
2609.000000	64.203166 
2608.000000	64.177465 
2607.000000	64.152741 
2606.000000	64.130640 
2605.000000	64.112424 
2604.000000	64.099144 
2603.000000	64.091730 
2602.000000	64.090824 
2601.000000	64.096641 
2600.000000	64.109063 
2599.000000	64.127564 
2598.000000	64.150857 
2597.000000	64.176845 
2596.000000	64.203119 
2595.000000	64.226770 
2594.000000	64.244985 
2593.000000	64.255380 
2592.000000	64.256572 
2591.000000	64.248394 
2590.000000	64.232039 
2589.000000	64.209818 
2588.000000	64.184951 
2587.000000	64.160990 
2586.000000	64.141178 
2585.000000	64.128136 
2584.000000	64.123439 
2583.000000	64.127302 
2582.000000	64.138793 
2581.000000	64.155888 
2580.000000	64.176034 
2579.000000	64.196443 
2578.000000	64.214682 
2577.000000	64.228773 
2576.000000	64.237618 
2575.000000	64.240813 
2574.000000	64.238739 
2573.000000	64.232134 
2572.000000	64.221906 
2571.000000	64.209079 
2570.000000	64.194655 
2569.000000	64.179658 
2568.000000	64.165210 
2567.000000	64.152574 
2566.000000	64.142894 
2565.000000	64.137291 
2564.000000	64.136433 
2563.000000	64.140224 
2562.000000	64.147758 
2561.000000	64.157319 
2560.000000	64.166736 
2559.000000	64.173436 
2558.000000	64.175534 
2557.000000	64.172005 
2556.000000	64.163041 
2555.000000	64.150118 
2554.000000	64.135646 
2553.000000	64.122390 
2552.000000	64.112949 
2551.000000	64.109039 
2550.000000	64.111399 
2549.000000	64.119625 
2548.000000	64.132261 
2547.000000	64.147138 
2546.000000	64.161968 
2545.000000	64.174675 
2544.000000	64.183521 
2543.000000	64.187693 
2542.000000	64.187073 
2541.000000	64.182496 
2540.000000	64.175486 
2539.000000	64.167976 
2538.000000	64.161968 
2537.000000	64.159107 
2536.000000	64.160609 
2535.000000	64.166712 
2534.000000	64.176750 
2533.000000	64.189171 
2532.000000	64.201927 
2531.000000	64.212965 
2530.000000	64.220857 
2529.000000	64.224815 
2528.000000	64.225196 
2527.000000	64.223003 
2526.000000	64.219641 
2525.000000	64.216375 
2524.000000	64.213943 
2523.000000	64.212369 
2522.000000	64.210963 
2521.000000	64.208555 
2520.000000	64.203977 
2519.000000	64.196300 
2518.000000	64.185261 
2517.000000	64.171123 
2516.000000	64.154982 
2515.000000	64.138436 
2514.000000	64.123249 
2513.000000	64.110994 
2512.000000	64.102697 
2511.000000	64.098811 
2510.000000	64.099097 
2509.000000	64.102625 
2508.000000	64.108228 
2507.000000	64.114570 
2506.000000	64.120697 
2505.000000	64.125823 
2504.000000	64.130020 
2503.000000	64.133882 
2502.000000	64.138412 
2501.000000	64.144492 
2500.000000	64.152789 
2499.000000	64.163470 
2498.000000	64.175844 
2497.000000	64.188718 
2496.000000	64.200711 
2495.000000	64.210605 
2494.000000	64.217710 
2493.000000	64.222192 
2492.000000	64.224886 
2491.000000	64.227032 
2490.000000	64.229869 
2489.000000	64.234399 
2488.000000	64.240741 
2487.000000	64.248204 
2486.000000	64.255547 
2485.000000	64.260864 
2484.000000	64.262533 
2483.000000	64.259243 
2482.000000	64.250588 
2481.000000	64.236974 
2480.000000	64.219665 
2479.000000	64.200520 
2478.000000	64.181590 
2477.000000	64.164757 
2476.000000	64.151668 
2475.000000	64.143323 
2474.000000	64.140057 
2473.000000	64.141583 
2472.000000	64.147138 
2471.000000	64.155483 
2470.000000	64.165115 
2469.000000	64.174509 
2468.000000	64.182329 
2467.000000	64.187526 
2466.000000	64.189648 
2465.000000	64.188599 
2464.000000	64.184737 
2463.000000	64.178752 
2462.000000	64.171338 
2461.000000	64.162993 
2460.000000	64.153885 
2459.000000	64.143872 
2458.000000	64.132666 
2457.000000	64.120125 
2456.000000	64.106345 
2455.000000	64.092016 
2454.000000	64.078235 
2453.000000	64.066505 
2452.000000	64.058279 
2451.000000	64.054632 
2450.000000	64.055752 
2449.000000	64.060902 
2448.000000	64.068508 
2447.000000	64.076399 
2446.000000	64.082384 
2445.000000	64.084672 
2444.000000	64.082527 
2443.000000	64.076352 
2442.000000	64.067649 
2441.000000	64.058780 
2440.000000	64.052224 
2439.000000	64.050054 
2438.000000	64.053606 
2437.000000	64.062929 
2436.000000	64.076828 
2435.000000	64.093184 
2434.000000	64.109396 
2433.000000	64.122891 
2432.000000	64.131665 
2431.000000	64.134693 
2430.000000	64.132165 
2429.000000	64.125418 
2428.000000	64.116477 
2427.000000	64.108014 
2426.000000	64.102458 
2425.000000	64.101791 
2424.000000	64.107060 
2423.000000	64.118170 
2422.000000	64.134192 
2421.000000	64.153432 
2420.000000	64.173817 
2419.000000	64.193367 
2418.000000	64.210534 
2417.000000	64.224195 
2416.000000	64.233827 
2415.000000	64.239406 
2414.000000	64.241051 
2413.000000	64.239048 
2412.000000	64.233493 
2411.000000	64.224433 
2410.000000	64.211988 
2409.000000	64.196562 
2408.000000	64.178824 
2407.000000	64.159989 
2406.000000	64.141535 
2405.000000	64.125204 
2404.000000	64.112210 
2403.000000	64.103293 
2402.000000	64.098191 
2401.000000	64.095687 
2400.000000	64.093947 
2399.000000	64.090895 
2398.000000	64.084768 
2397.000000	64.074587 
2396.000000	64.060449 
2395.000000	64.043211 
2394.000000	64.024639 
2393.000000	64.006781 
2392.000000	63.991641 
2391.000000	63.980698 
2390.000000	63.974761 
2389.000000	63.973832 
2388.000000	63.977146 
2387.000000	63.983440 
2386.000000	63.991141 
2385.000000	63.998627 
2384.000000	64.004445 
2383.000000	64.007663 
2382.000000	64.007854 
2381.000000	64.005231 
2380.000000	64.000344 
2379.000000	63.994288 
2378.000000	63.988327 
2377.000000	63.983821 
2376.000000	63.981628 
2375.000000	63.982200 
2374.000000	63.985514 
2373.000000	63.990926 
2372.000000	63.997411 
2371.000000	64.003896 
2370.000000	64.009475 
2369.000000	64.013767 
2368.000000	64.016819 
2367.000000	64.019250 
2366.000000	64.022064 
2365.000000	64.026260 
2364.000000	64.032578 
2363.000000	64.041137 
2362.000000	64.051580 
2361.000000	64.062619 
2360.000000	64.072680 
2359.000000	64.080047 
2358.000000	64.083433 
2357.000000	64.082312 
2356.000000	64.077115 
2355.000000	64.069128 
2354.000000	64.060378 
2353.000000	64.053010 
2352.000000	64.048647 
2351.000000	64.048314 
2350.000000	64.051818 
2349.000000	64.058184 
2348.000000	64.065909 
2347.000000	64.073204 
2346.000000	64.078688 
2345.000000	64.081478 
2344.000000	64.081478 
2343.000000	64.079284 
2342.000000	64.075970 
2341.000000	64.072799 
2340.000000	64.070963 
2339.000000	64.071154 
2338.000000	64.073586 
2337.000000	64.077901 
2336.000000	64.083337 
2335.000000	64.088797 
2334.000000	64.093017 
2333.000000	64.095044 
2332.000000	64.094042 
2331.000000	64.089822 
2330.000000	64.082860 
2329.000000	64.074277 
2328.000000	64.065647 
2327.000000	64.058542 
2326.000000	64.054298 
2325.000000	64.053583 
2324.000000	64.056277 
2323.000000	64.061546 
2322.000000	64.067959 
2321.000000	64.074134 
2320.000000	64.079022 
2319.000000	64.082074 
2318.000000	64.083456 
2317.000000	64.083909 
2316.000000	64.084315 
2315.000000	64.085721 
2314.000000	64.088797 
2313.000000	64.093828 
2312.000000	64.100718 
2311.000000	64.108896 
2310.000000	64.117598 
2309.000000	64.125800 
2308.000000	64.132523 
2307.000000	64.136672 
2306.000000	64.137125 
2305.000000	64.132690 
2304.000000	64.122605 
2303.000000	64.106583 
2302.000000	64.085173 
2301.000000	64.059948 
2300.000000	64.033293 
2299.000000	64.008116 
2298.000000	63.987350 
2297.000000	63.973546 
2296.000000	63.968205 
2295.000000	63.971471 
2294.000000	63.982105 
2293.000000	63.997936 
2292.000000	64.016056 
2291.000000	64.033627 
2290.000000	64.048409 
2289.000000	64.058876 
2288.000000	64.064645 
2287.000000	64.066219 
2286.000000	64.064741 
2285.000000	64.061403 
2284.000000	64.057421 
2283.000000	64.053487 
2282.000000	64.049863 
2281.000000	64.046430 
2280.000000	64.042901 
2279.000000	64.039111 
2278.000000	64.035034 
2277.000000	64.030981 
2276.000000	64.027571 
2275.000000	64.025735 
2274.000000	64.026331 
2273.000000	64.030003 
2272.000000	64.037060 
2271.000000	64.047288 
2270.000000	64.060068 
2269.000000	64.074397 
2268.000000	64.088964 
2267.000000	64.102506 
2266.000000	64.113950 
2265.000000	64.122533 
2264.000000	64.127707 
2263.000000	64.129209 
2262.000000	64.127278 
2261.000000	64.122343 
2260.000000	64.115095 
2259.000000	64.106297 
2258.000000	64.096832 
2257.000000	64.087367 
2256.000000	64.078474 
2255.000000	64.070272 
2254.000000	64.062619 
2253.000000	64.055061 
2252.000000	64.047026 
2251.000000	64.037895 
2250.000000	64.027285 
2249.000000	64.015197 
2248.000000	64.002132 
2247.000000	63.988804 
2246.000000	63.976240 
2245.000000	63.965392 
2244.000000	63.956952 
2243.000000	63.951182 
2242.000000	63.948035 
2241.000000	63.946986 
2240.000000	63.947558 
2239.000000	63.949298 
2238.000000	63.952302 
2237.000000	63.956999 
2236.000000	63.964223 
2235.000000	63.974761 
2234.000000	63.989353 
2233.000000	64.008188 
2232.000000	64.030718 
2231.000000	64.055585 
2230.000000	64.080739 
2229.000000	64.103746 
2228.000000	64.122247 
2227.000000	64.134478 
2226.000000	64.139294 
2225.000000	64.136362 
2224.000000	64.126300 
2223.000000	64.110517 
2222.000000	64.090657 
2221.000000	64.068436 
2220.000000	64.045691 
2219.000000	64.023900 
2218.000000	64.004421 
2217.000000	63.988471 
2216.000000	63.976955 
2215.000000	63.970732 
2214.000000	63.970160 
2213.000000	63.975262 
2212.000000	63.985300 
2211.000000	63.998842 
2210.000000	64.013838 
2209.000000	64.027833 
2208.000000	64.038324 
2207.000000	64.043331 
2206.000000	64.041781 
2205.000000	64.033699 
2204.000000	64.020299 
2203.000000	64.003634 
2202.000000	63.986372 
2201.000000	63.971209 
2200.000000	63.960313 
2199.000000	63.955068 
2198.000000	63.955831 
2197.000000	63.962054 
2196.000000	63.972496 
2195.000000	63.985347 
2194.000000	63.998842 
2193.000000	64.011359 
2192.000000	64.021825 
2191.000000	64.029502 
2190.000000	64.034342 
2189.000000	64.036607 
2188.000000	64.036870 
2187.000000	64.035820 
2186.000000	64.034008 
2185.000000	64.032149 
2184.000000	64.030504 
2183.000000	64.029240 
2182.000000	64.027976 
2181.000000	64.026260 
2180.000000	64.023351 
2179.000000	64.018416 
2178.000000	64.010763 
2177.000000	63.999915 
2176.000000	63.985919 
2175.000000	63.969326 
2174.000000	63.951396 
2173.000000	63.933753 
2172.000000	63.918423 
2171.000000	63.907432 
2170.000000	63.902497 
2169.000000	63.904547 
2168.000000	63.913440 
2167.000000	63.927888 
2166.000000	63.945603 
2165.000000	63.963651 
2164.000000	63.979101 
2163.000000	63.989496 
2162.000000	63.993358 
2161.000000	63.990402 
2160.000000	63.981628 
2159.000000	63.968873 
2158.000000	63.954496 
2157.000000	63.940596 
2156.000000	63.928651 
2155.000000	63.919186 
2154.000000	63.912105 
2153.000000	63.906621 
2152.000000	63.902044 
2151.000000	63.897919 
2150.000000	63.894319 
2149.000000	63.891601 
2148.000000	63.890194 
2147.000000	63.890361 
2146.000000	63.891863 
2145.000000	63.893914 
2144.000000	63.895416 
2143.000000	63.895392 
2142.000000	63.893127 
2141.000000	63.888502 
2140.000000	63.881921 
2139.000000	63.874340 
2138.000000	63.867115 
2137.000000	63.861560 
2136.000000	63.858842 
2135.000000	63.859486 
2134.000000	63.863635 
2133.000000	63.871097 
2132.000000	63.881301 
2131.000000	63.893485 
2130.000000	63.906502 
2129.000000	63.919258 
2128.000000	63.930463 
2127.000000	63.938665 
2126.000000	63.942623 
2125.000000	63.941383 
2124.000000	63.934850 
2123.000000	63.923597 
2122.000000	63.909196 
2121.000000	63.893985 
2120.000000	63.880610 
2119.000000	63.871598 
2118.000000	63.868951 
2117.000000	63.873577 
2116.000000	63.885164 
2115.000000	63.902235 
2114.000000	63.922500 
2113.000000	63.943099 
2112.000000	63.961410 
2111.000000	63.975167 
2110.000000	63.982915 
2109.000000	63.984107 
2108.000000	63.978958 
2107.000000	63.968467 
2106.000000	63.953900 
2105.000000	63.936829 
2104.000000	63.918733 
2103.000000	63.900923 
2102.000000	63.884639 
2101.000000	63.870620 
2100.000000	63.859343 
2099.000000	63.850951 
2098.000000	63.845419 
2097.000000	63.842511 
2096.000000	63.841867 
2095.000000	63.843226 
2094.000000	63.846182 
2093.000000	63.850331 
2092.000000	63.855290 
2091.000000	63.860702 
2090.000000	63.866114 
2089.000000	63.871073 
2088.000000	63.875174 
2087.000000	63.878154 
2086.000000	63.880157 
2085.000000	63.881516 
2084.000000	63.882970 
2083.000000	63.885521 
2082.000000	63.889956 
2081.000000	63.896822 
2080.000000	63.905692 
2079.000000	63.915395 
2078.000000	63.923907 
2077.000000	63.928771 
2076.000000	63.927793 
2075.000000	63.919377 
2074.000000	63.903570 
2073.000000	63.882112 
2072.000000	63.858199 
2071.000000	63.835954 
2070.000000	63.819575 
2069.000000	63.812375 
2068.000000	63.815951 
2067.000000	63.829636 
2066.000000	63.850736 
2065.000000	63.875031 
2064.000000	63.897800 
2063.000000	63.914775 
2062.000000	63.923096 
2061.000000	63.921546 
2060.000000	63.910841 
2059.000000	63.892984 
2058.000000	63.870787 
2057.000000	63.846945 
2056.000000	63.823723 
2055.000000	63.802504 
2054.000000	63.784170 
2053.000000	63.768839 
2052.000000	63.756513 
2051.000000	63.747000 
2050.000000	63.740420 
2049.000000	63.737082 
2048.000000	63.737154 
2047.000000	63.740825 
2046.000000	63.747906 
2045.000000	63.757967 
2044.000000	63.770198 
2043.000000	63.783597 
2042.000000	63.797187 
2041.000000	63.809823 
2040.000000	63.820576 
2039.000000	63.828635 
2038.000000	63.833308 
2037.000000	63.834214 
2036.000000	63.831281 
2035.000000	63.824748 
2034.000000	63.815236 
2033.000000	63.803720 
2032.000000	63.791465 
2031.000000	63.779735 
2030.000000	63.769936 
2029.000000	63.763332 
2028.000000	63.761234 
2027.000000	63.764429 
2026.000000	63.773179 
2025.000000	63.787341 
2024.000000	63.805985 
2023.000000	63.827729 
2022.000000	63.850641 
2021.000000	63.872480 
2020.000000	63.891005 
2019.000000	63.904452 
2018.000000	63.911533 
2017.000000	63.911724 
2016.000000	63.905358 
2015.000000	63.893461 
2014.000000	63.877844 
2013.000000	63.860583 
2012.000000	63.843703 
2011.000000	63.828992 
2010.000000	63.817906 
2009.000000	63.811159 
2008.000000	63.808774 
2007.000000	63.809967 
2006.000000	63.813424 
2005.000000	63.817167 
2004.000000	63.819074 
2003.000000	63.817167 
2002.000000	63.810014 
2001.000000	63.797068 
2000.000000	63.778877 
1999.000000	63.756895 
1998.000000	63.733339 
1997.000000	63.710808 
1996.000000	63.691759 
1995.000000	63.678288 
1994.000000	63.671374 
1993.000000	63.671207 
1992.000000	63.676977 
1991.000000	63.687133 
1990.000000	63.699841 
1989.000000	63.713216 
1988.000000	63.725495 
1987.000000	63.735365 
1986.000000	63.741970 
1985.000000	63.744926 
1984.000000	63.744187 
1983.000000	63.739943 
1982.000000	63.732552 
1981.000000	63.722586 
1980.000000	63.710904 
1979.000000	63.698506 
1978.000000	63.686418 
1977.000000	63.675737 
1976.000000	63.667726 
1975.000000	63.663244 
1974.000000	63.662958 
1973.000000	63.667130 
1972.000000	63.675785 
1971.000000	63.688445 
1970.000000	63.704490 
1969.000000	63.722920 
1968.000000	63.742709 
1967.000000	63.762640 
1966.000000	63.781476 
1965.000000	63.798141 
1964.000000	63.811731 
1963.000000	63.821482 
1962.000000	63.827061 
1961.000000	63.828611 
1960.000000	63.826680 
1959.000000	63.822221 
1958.000000	63.816332 
1957.000000	63.810300 
1956.000000	63.805198 
1955.000000	63.801908 
1954.000000	63.800859 
1953.000000	63.802218 
1952.000000	63.805651 
1951.000000	63.810634 
1950.000000	63.816499 
1949.000000	63.822507 
1948.000000	63.827919 
1947.000000	63.832044 
1946.000000	63.834261 
1945.000000	63.834071 
1944.000000	63.831019 
1943.000000	63.824748 
1942.000000	63.815116 
1941.000000	63.802552 
1940.000000	63.787865 
1939.000000	63.772463 
1938.000000	63.757896 
1937.000000	63.745975 
1936.000000	63.738274 
1935.000000	63.735890 
1934.000000	63.738965 
1933.000000	63.746929 
1932.000000	63.758563 
1931.000000	63.772058 
1930.000000	63.785552 
1929.000000	63.797307 
1928.000000	63.806056 
1927.000000	63.811063 
1926.000000	63.812279 
1925.000000	63.810110 
1924.000000	63.805365 
1923.000000	63.799047 
1922.000000	63.792371 
1921.000000	63.786625 
1920.000000	63.782978 
1919.000000	63.782501 
1918.000000	63.785696 
1917.000000	63.792824 
1916.000000	63.803291 
1915.000000	63.815951 
1914.000000	63.828969 
1913.000000	63.840198 
1912.000000	63.847470 
1911.000000	63.849234 
1910.000000	63.844704 
1909.000000	63.833951 
1908.000000	63.818168 
1907.000000	63.799333 
1906.000000	63.779759 
1905.000000	63.761496 
1904.000000	63.746118 
1903.000000	63.734507 
1902.000000	63.726615 
1901.000000	63.721966 
1900.000000	63.719630 
1899.000000	63.718819 
1898.000000	63.718986 
1897.000000	63.719892 
1896.000000	63.721442 
1895.000000	63.723492 
1894.000000	63.725686 
1893.000000	63.727426 
1892.000000	63.727879 
1891.000000	63.726282 
1890.000000	63.722300 
1889.000000	63.716244 
1888.000000	63.709163 
1887.000000	63.702702 
1886.000000	63.698649 
1885.000000	63.698458 
1884.000000	63.702940 
1883.000000	63.711690 
1882.000000	63.723301 
1881.000000	63.735556 
1880.000000	63.746142 
1879.000000	63.753008 
1878.000000	63.754844 
1877.000000	63.751459 
1876.000000	63.743829 
1875.000000	63.733601 
1874.000000	63.722681 
1873.000000	63.712859 
1872.000000	63.705396 
1871.000000	63.700890 
1870.000000	63.699340 
1869.000000	63.700222 
1868.000000	63.702940 
1867.000000	63.706994 
1866.000000	63.712024 
1865.000000	63.717675 
1864.000000	63.723683 
1863.000000	63.729548 
1862.000000	63.734626 
1861.000000	63.738155 
1860.000000	63.739466 
1859.000000	63.738155 
1858.000000	63.734459 
1857.000000	63.729143 
1856.000000	63.723444 
1855.000000	63.718867 
1854.000000	63.716745 
1853.000000	63.717818 
1852.000000	63.722157 
1851.000000	63.729023 
1850.000000	63.737201 
1849.000000	63.745045 
1848.000000	63.750958 
1847.000000	63.753581 
1846.000000	63.752055 
1845.000000	63.746023 
1844.000000	63.735675 
1843.000000	63.721632 
1842.000000	63.704824 
1841.000000	63.686466 
1840.000000	63.667964 
1839.000000	63.650751 
1838.000000	63.636302 
1837.000000	63.625884 
1836.000000	63.620567 
1835.000000	63.620686 
1834.000000	63.626074 
1833.000000	63.635683 
1832.000000	63.647794 
1831.000000	63.660287 
1830.000000	63.670778 
1829.000000	63.677597 
1828.000000	63.679575 
1827.000000	63.676762 
1826.000000	63.670039 
1825.000000	63.661146 
1824.000000	63.652062 
1823.000000	63.644671 
1822.000000	63.640189 
1821.000000	63.639116 
1820.000000	63.641095 
1819.000000	63.645148 
1818.000000	63.649797 
1817.000000	63.653564 
1816.000000	63.655281 
1815.000000	63.654088 
1814.000000	63.649868 
1813.000000	63.643074 
1812.000000	63.634800 
1811.000000	63.626503 
1810.000000	63.619661 
1809.000000	63.615798 
1808.000000	63.616013 
1807.000000	63.621020 
1806.000000	63.630819 
1805.000000	63.644719 
1804.000000	63.661479 
1803.000000	63.679575 
1802.000000	63.697552 
1801.000000	63.714194 
1800.000000	63.728833 
1799.000000	63.741207 
1798.000000	63.751387 
1797.000000	63.759517 
1796.000000	63.765525 
1795.000000	63.769030 
1794.000000	63.769388 
1793.000000	63.765931 
1792.000000	63.758349 
1791.000000	63.746857 
1790.000000	63.732242 
1789.000000	63.715481 
1788.000000	63.698053 
1787.000000	63.681292 
1786.000000	63.666558 
1785.000000	63.654756 
1784.000000	63.646292 
1783.000000	63.641190 
1782.000000	63.639235 
1781.000000	63.640189 
1780.000000	63.643574 
1779.000000	63.649082 
1778.000000	63.656425 
1777.000000	63.665318 
1776.000000	63.675284 
1775.000000	63.685655 
1774.000000	63.695549 
1773.000000	63.703680 
1772.000000	63.708662 
1771.000000	63.709211 
1770.000000	63.704466 
1769.000000	63.694214 
1768.000000	63.678956 
1767.000000	63.660216 
1766.000000	63.640141 
1765.000000	63.621520 
1764.000000	63.606834 
1763.000000	63.597798 
1762.000000	63.594985 
1761.000000	63.597607 
1760.000000	63.603568 
1759.000000	63.609957 
1758.000000	63.613677 
1757.000000	63.612198 
1756.000000	63.603925 
1755.000000	63.588643 
1754.000000	63.567328 
1753.000000	63.541865 
1752.000000	63.514685 
1751.000000	63.487958 
1750.000000	63.463163 
1749.000000	63.441181 
1748.000000	63.421845 
1747.000000	63.404703 
1746.000000	63.388848 
1745.000000	63.373589 
1744.000000	63.358473 
1743.000000	63.343310 
1742.000000	63.328194 
1741.000000	63.313412 
1740.000000	63.299417 
1739.000000	63.286876 
1738.000000	63.276529 
1737.000000	63.269138 
1736.000000	63.265490 
1735.000000	63.266301 
1734.000000	63.271808 
1733.000000	63.281869 
1732.000000	63.295650 
1731.000000	63.311934 
1730.000000	63.329005 
1729.000000	63.345336 
1728.000000	63.359475 
1727.000000	63.370776 
1726.000000	63.379311 
1725.000000	63.386058 
1724.000000	63.392591 
1723.000000	63.400840 
1722.000000	63.412642 
1721.000000	63.429284 
1720.000000	63.450932 
1719.000000	63.476705 
1718.000000	63.505029 
1717.000000	63.533377 
1716.000000	63.559031 
1715.000000	63.579440 
1714.000000	63.592624 
1713.000000	63.597559 
1712.000000	63.594007 
1711.000000	63.582777 
1710.000000	63.565182 
1709.000000	63.543224 
1708.000000	63.518857 
1707.000000	63.494086 
1706.000000	63.470649 
1705.000000	63.450121 
1704.000000	63.433575 
1703.000000	63.421702 
1702.000000	63.414716 
1701.000000	63.412642 
1700.000000	63.415241 
1699.000000	63.421821 
1698.000000	63.431692 
1697.000000	63.444042 
1696.000000	63.458013 
1695.000000	63.472723 
1694.000000	63.487124 
1693.000000	63.500118 
1692.000000	63.510632 
1691.000000	63.517761 
1690.000000	63.521051 
1689.000000	63.520383 
1688.000000	63.516330 
1687.000000	63.510036 
1686.000000	63.502931 
1685.000000	63.496351 
1684.000000	63.491201 
1683.000000	63.487625 
1682.000000	63.484907 
1681.000000	63.481521 
1680.000000	63.475584 
1679.000000	63.465523 
1678.000000	63.450193 
1677.000000	63.429665 
1676.000000	63.405227 
1675.000000	63.379383 
1674.000000	63.354873 
1673.000000	63.334631 
1672.000000	63.320755 
1671.000000	63.314414 
1670.000000	63.315343 
1669.000000	63.322377 
1668.000000	63.333511 
1667.000000	63.346910 
1666.000000	63.361358 
1665.000000	63.376569 
1664.000000	63.392782 
1663.000000	63.410878 
1662.000000	63.431739 
1661.000000	63.455510 
1660.000000	63.481450 
1659.000000	63.507676 
1658.000000	63.531565 
1657.000000	63.550496 
1656.000000	63.562321 
1655.000000	63.566160 
1654.000000	63.562655 
1653.000000	63.554167 
1652.000000	63.544034 
1651.000000	63.535642 
1650.000000	63.531923 
1649.000000	63.534545 
1648.000000	63.543415 
1647.000000	63.557004 
1646.000000	63.572359 
1645.000000	63.586235 
1644.000000	63.595414 
1643.000000	63.597488 
1642.000000	63.591170 
1641.000000	63.576388 
1640.000000	63.554430 
1639.000000	63.527631 
1638.000000	63.499021 
1637.000000	63.471722 
1636.000000	63.448810 
1635.000000	63.432836 
1634.000000	63.425254 
1633.000000	63.426566 
1632.000000	63.436102 
1631.000000	63.452363 
1630.000000	63.472962 
1629.000000	63.495421 
1628.000000	63.517308 
1627.000000	63.536810 
1626.000000	63.552689 
1625.000000	63.564610 
1624.000000	63.573026 
1623.000000	63.578820 
1622.000000	63.582944 
1621.000000	63.585996 
1620.000000	63.588023 
1619.000000	63.588333 
1618.000000	63.585948 
1617.000000	63.579440 
1616.000000	63.567471 
1615.000000	63.549017 
1614.000000	63.524055 
1613.000000	63.493180 
1612.000000	63.458204 
1611.000000	63.421607 
1610.000000	63.386201 
1609.000000	63.355016 
1608.000000	63.330626 
1607.000000	63.315081 
1606.000000	63.309550 
1605.000000	63.314175 
1604.000000	63.328218 
1603.000000	63.349866 
1602.000000	63.376522 
1601.000000	63.404822 
1600.000000	63.431215 
1599.000000	63.451838 
1598.000000	63.463759 
1597.000000	63.465118 
1596.000000	63.455963 
1595.000000	63.438105 
1594.000000	63.414955 
1593.000000	63.391280 
1592.000000	63.371753 
1591.000000	63.360595 
1590.000000	63.360095 
1589.000000	63.370370 
1588.000000	63.389229 
1587.000000	63.412785 
1586.000000	63.436055 
1585.000000	63.454127 
1584.000000	63.463330 
1583.000000	63.461852 
1582.000000	63.450050 
1581.000000	63.430190 
1580.000000	63.405847 
1579.000000	63.380956 
1578.000000	63.358807 
1577.000000	63.341307 
1576.000000	63.328981 
1575.000000	63.321113 
1574.000000	63.316082 
1573.000000	63.312149 
1572.000000	63.308095 
1571.000000	63.303542 
1570.000000	63.298869 
1569.000000	63.295054 
1568.000000	63.293004 
1567.000000	63.293313 
1566.000000	63.295960 
1565.000000	63.300514 
1564.000000	63.306069 
1563.000000	63.311648 
1562.000000	63.316583 
1561.000000	63.320684 
1560.000000	63.324308 
1559.000000	63.327884 
1558.000000	63.331699 
1557.000000	63.335609 
1556.000000	63.338947 
1555.000000	63.340473 
1554.000000	63.338947 
1553.000000	63.333415 
1552.000000	63.323807 
1551.000000	63.311219 
1550.000000	63.297891 
1549.000000	63.286828 
1548.000000	63.281226 
1547.000000	63.283586 
1546.000000	63.295102 
1545.000000	63.315272 
1544.000000	63.341879 
1543.000000	63.371419 
1542.000000	63.399577 
1541.000000	63.422441 
1540.000000	63.437008 
1539.000000	63.441658 
1538.000000	63.436365 
1537.000000	63.422703 
1536.000000	63.403248 
1535.000000	63.380956 
1534.000000	63.358616 
1533.000000	63.338541 
1532.000000	63.322377 
1531.000000	63.311123 
1530.000000	63.305115 
1529.000000	63.304471 
1528.000000	63.308763 
1527.000000	63.317346 
1526.000000	63.329195 
1525.000000	63.342905 
1524.000000	63.356995 
1523.000000	63.369846 
1522.000000	63.380074 
1521.000000	63.386678 
1520.000000	63.388895 
1519.000000	63.386845 
1518.000000	63.380813 
1517.000000	63.371896 
1516.000000	63.361692 
1515.000000	63.352155 
1514.000000	63.345456 
1513.000000	63.343524 
1512.000000	63.347840 
1511.000000	63.358902 
1510.000000	63.376092 
1509.000000	63.397526 
1508.000000	63.420557 
1507.000000	63.441991 
1506.000000	63.458704 
1505.000000	63.468003 
1504.000000	63.468432 
1503.000000	63.459682 
1502.000000	63.442873 
1501.000000	63.420176 
1500.000000	63.394355 
1499.000000	63.368344 
1498.000000	63.344621 
1497.000000	63.324832 
1496.000000	63.309597 
1495.000000	63.298583 
1494.000000	63.290834 
1493.000000	63.285231 
1492.000000	63.280940 
1491.000000	63.277649 
1490.000000	63.275527 
1489.000000	63.274979 
1488.000000	63.276576 
1487.000000	63.280439 
1486.000000	63.286328 
1485.000000	63.293504 
1484.000000	63.301038 
1483.000000	63.307976 
1482.000000	63.313579 
1481.000000	63.317418 
1480.000000	63.319563 
1479.000000	63.320350 
1478.000000	63.320279 
1477.000000	63.320136 
1476.000000	63.320541 
1475.000000	63.321924 
1474.000000	63.324213 
1473.000000	63.327002 
1472.000000	63.329648 
1471.000000	63.331413 
1470.000000	63.331532 
1469.000000	63.329625 
1468.000000	63.325953 
1467.000000	63.321614 
1466.000000	63.318085 
1465.000000	63.316988 
1464.000000	63.319969 
1463.000000	63.328027 
1462.000000	63.341164 
1461.000000	63.357973 
1460.000000	63.376140 
1459.000000	63.392376 
1458.000000	63.403105 
1457.000000	63.405084 
1456.000000	63.396358 
1455.000000	63.376355 
1454.000000	63.346362 
1453.000000	63.309264 
1452.000000	63.268828 
1451.000000	63.229298 
1450.000000	63.194584 
1449.000000	63.167524 
1448.000000	63.149380 
1447.000000	63.140225 
1446.000000	63.139057 
1445.000000	63.144230 
1444.000000	63.154006 
1443.000000	63.166999 
1442.000000	63.182616 
1441.000000	63.200473 
1440.000000	63.220620 
1439.000000	63.243031 
1438.000000	63.267469 
1437.000000	63.293170 
1436.000000	63.319063 
1435.000000	63.343882 
1434.000000	63.366532 
1433.000000	63.386368 
1432.000000	63.403296 
1431.000000	63.417792 
1430.000000	63.430547 
1429.000000	63.442373 
1428.000000	63.453459 
1427.000000	63.463377 
1426.000000	63.470697 
1425.000000	63.473725 
1424.000000	63.470649 
1423.000000	63.460230 
1422.000000	63.442134 
1421.000000	63.417434 
1420.000000	63.387942 
1419.000000	63.355803 
1418.000000	63.323140 
1417.000000	63.291668 
1416.000000	63.262510 
1415.000000	63.236355 
1414.000000	63.213586 
1413.000000	63.194608 
1412.000000	63.180065 
1411.000000	63.171100 
1410.000000	63.168644 
1409.000000	63.173270 
1408.000000	63.184881 
1407.000000	63.202595 
1406.000000	63.224363 
1405.000000	63.247513 
1404.000000	63.269352 
1403.000000	63.287520 
1402.000000	63.300442 
1401.000000	63.307690 
1400.000000	63.309741 
1399.000000	63.307762 
1398.000000	63.303399 
1397.000000	63.298296 
1396.000000	63.294029 
1395.000000	63.291525 
1394.000000	63.291263 
1393.000000	63.292670 
1392.000000	63.294386 
1391.000000	63.294291 
1390.000000	63.290119 
1389.000000	63.279795 
1388.000000	63.262033 
1387.000000	63.236880 
1386.000000	63.206028 
1385.000000	63.172292 
1384.000000	63.139486 
1383.000000	63.111448 
1382.000000	63.091564 
1381.000000	63.082122 
1380.000000	63.083934 
1379.000000	63.096308 
1378.000000	63.117408 
1377.000000	63.144946 
1376.000000	63.176274 
1375.000000	63.209033 
1374.000000	63.240885 
1373.000000	63.269782 
1372.000000	63.293886 
1371.000000	63.311362 
1370.000000	63.320589 
1369.000000	63.320398 
1368.000000	63.310694 
1367.000000	63.292527 
1366.000000	63.268017 
1365.000000	63.240289 
1364.000000	63.212847 
1363.000000	63.189029 
1362.000000	63.171339 
1361.000000	63.161063 
1360.000000	63.158130 
1359.000000	63.161301 
1358.000000	63.168430 
1357.000000	63.177108 
1356.000000	63.185334 
1355.000000	63.191747 
1354.000000	63.195705 
1353.000000	63.197159 
1352.000000	63.196539 
1351.000000	63.194274 
1350.000000	63.190603 
1349.000000	63.185501 
1348.000000	63.178849 
1347.000000	63.170719 
1346.000000	63.161730 
1345.000000	63.153004 
1344.000000	63.146185 
1343.000000	63.143038 
1342.000000	63.145208 
1341.000000	63.153409 
1340.000000	63.167238 
1339.000000	63.184905 
1338.000000	63.203525 
1337.000000	63.219761 
1336.000000	63.230371 
1335.000000	63.233160 
1334.000000	63.227295 
1333.000000	63.213825 
1332.000000	63.195371 
1331.000000	63.175463 
1330.000000	63.157820 
1329.000000	63.145542 
1328.000000	63.140368 
1327.000000	63.142609 
1326.000000	63.150954 
1325.000000	63.163137 
1324.000000	63.176083 
1323.000000	63.186764 
1322.000000	63.192868 
1321.000000	63.192892 
1320.000000	63.186597 
1319.000000	63.174843 
1318.000000	63.159370 
1317.000000	63.142323 
1316.000000	63.125896 
1315.000000	63.111639 
1314.000000	63.100504 
1313.000000	63.092637 
1312.000000	63.087606 
1311.000000	63.084554 
1310.000000	63.082671 
1309.000000	63.081312 
1308.000000	63.080143 
1307.000000	63.079023 
1306.000000	63.077807 
1305.000000	63.076162 
1304.000000	63.073730 
1303.000000	63.069796 
1302.000000	63.063693 
1301.000000	63.054823 
1300.000000	63.043022 
1299.000000	63.028812 
1298.000000	63.013362 
1297.000000	62.998199 
1296.000000	62.985229 
1295.000000	62.975931 
1294.000000	62.971210 
1293.000000	62.971091 
1292.000000	62.974905 
1291.000000	62.981247 
1290.000000	62.988328 
1289.000000	62.994575 
1288.000000	62.998819 
1287.000000	63.000631 
1286.000000	63.000345 
1285.000000	62.998914 
1284.000000	62.997484 
1283.000000	62.997198 
1282.000000	62.998914 
1281.000000	63.002991 
1280.000000	63.009238 
1279.000000	63.017106 
1278.000000	63.025808 
1277.000000	63.034605 
1276.000000	63.042736 
1275.000000	63.049721 
1274.000000	63.054966 
1273.000000	63.057780 
1272.000000	63.057231 
1271.000000	63.052368 
1270.000000	63.042116 
1269.000000	63.025832 
1268.000000	63.003468 
1267.000000	62.975835 
1266.000000	62.944793 
1265.000000	62.912940 
1264.000000	62.883424 
1263.000000	62.859320 
1262.000000	62.843418 
1261.000000	62.837433 
1260.000000	62.841916 
1259.000000	62.856054 
1258.000000	62.877798 
1257.000000	62.904238 
1256.000000	62.931966 
1255.000000	62.957572 
1254.000000	62.978172 
1253.000000	62.991762 
1252.000000	62.997269 
1251.000000	62.994623 
1250.000000	62.984633 
1249.000000	62.968611 
1248.000000	62.948250 
1247.000000	62.925410 
1246.000000	62.901949 
1245.000000	62.879443 
1244.000000	62.859559 
1243.000000	62.843799 
1242.000000	62.833571 
1241.000000	62.830018 
1240.000000	62.833690 
1239.000000	62.844777 
1238.000000	62.862443 
1237.000000	62.885284 
1236.000000	62.911224 
1235.000000	62.937903 
1234.000000	62.963080 
1233.000000	62.984943 
1232.000000	63.002467 
1231.000000	63.015246 
1230.000000	63.023471 
1229.000000	63.027667 
1228.000000	63.028359 
1227.000000	63.025975 
1226.000000	63.020896 
1225.000000	63.013386 
1224.000000	63.003873 
1223.000000	62.993240 
1222.000000	62.982940 
1221.000000	62.974834 
1220.000000	62.970733 
1219.000000	62.971973 
1218.000000	62.979197 
1217.000000	62.991881 
1216.000000	63.008356 
1215.000000	63.025951 
1214.000000	63.041710 
1213.000000	63.052916 
1212.000000	63.057732 
1211.000000	63.055682 
1210.000000	63.047385 
1209.000000	63.034510 
1208.000000	63.019204 
1207.000000	63.003635 
1206.000000	62.989354 
1205.000000	62.977170 
1204.000000	62.967276 
1203.000000	62.959671 
1202.000000	62.954115 
1201.000000	62.950325 
1200.000000	62.947845 
1199.000000	62.945961 
1198.000000	62.943482 
1197.000000	62.938976 
1196.000000	62.930965 
1195.000000	62.918496 
1194.000000	62.901473 
1193.000000	62.881255 
1192.000000	62.860226 
1191.000000	62.841677 
1190.000000	62.828969 
1189.000000	62.824845 
1188.000000	62.830352 
1187.000000	62.844824 
1186.000000	62.865662 
1185.000000	62.889194 
1184.000000	62.911367 
1183.000000	62.928771 
1182.000000	62.939238 
1181.000000	62.942218 
1180.000000	62.938427 
1179.000000	62.929511 
1178.000000	62.917375 
1177.000000	62.903523 
1176.000000	62.888860 
1175.000000	62.873768 
1174.000000	62.858390 
1173.000000	62.843012 
1172.000000	62.828278 
1171.000000	62.815237 
1170.000000	62.805366 
1169.000000	62.800049 
1168.000000	62.800526 
1167.000000	62.807202 
1166.000000	62.819743 
1165.000000	62.836909 
1164.000000	62.857174 
1163.000000	62.878799 
1162.000000	62.900209 
1161.000000	62.920093 
1160.000000	62.937545 
1159.000000	62.952089 
1158.000000	62.963390 
1157.000000	62.971186 
1156.000000	62.975382 
1155.000000	62.976121 
1154.000000	62.973880 
1153.000000	62.969589 
1152.000000	62.964510 
1151.000000	62.960100 
1150.000000	62.957572 
1149.000000	62.957596 
1148.000000	62.960028 
1147.000000	62.963867 
1146.000000	62.967467 
1145.000000	62.968897 
1144.000000	62.966561 
1143.000000	62.959742 
1142.000000	62.948799 
1141.000000	62.935066 
1140.000000	62.920522 
1139.000000	62.907099 
1138.000000	62.896418 
1137.000000	62.889075 
1136.000000	62.884593 
1135.000000	62.881636 
1134.000000	62.878704 
1133.000000	62.874674 
1132.000000	62.869000 
1131.000000	62.862229 
1130.000000	62.855792 
1129.000000	62.851619 
1128.000000	62.851309 
1127.000000	62.855887 
1126.000000	62.865209 
1125.000000	62.878322 
1124.000000	62.893581 
1123.000000	62.909221 
1122.000000	62.923789 
1121.000000	62.936639 
1120.000000	62.947988 
1119.000000	62.958264 
1118.000000	62.967777 
1117.000000	62.976384 
1116.000000	62.983202 
1115.000000	62.986612 
1114.000000	62.984633 
1113.000000	62.975740 
1112.000000	62.959194 
1111.000000	62.935543 
1110.000000	62.906646 
1109.000000	62.875175 
1108.000000	62.844371 
1107.000000	62.816715 
1106.000000	62.794017 
1105.000000	62.776780 
1104.000000	62.764549 
1103.000000	62.756061 
1102.000000	62.750220 
1101.000000	62.746214 
1100.000000	62.744212 
1099.000000	62.744975 
1098.000000	62.749862 
1097.000000	62.760066 
1096.000000	62.776613 
1095.000000	62.799644 
1094.000000	62.828540 
1093.000000	62.861704 
1092.000000	62.897086 
1091.000000	62.932276 
1090.000000	62.964773 
1089.000000	62.992262 
1088.000000	63.012719 
1087.000000	63.024711 
1086.000000	63.027453 
1085.000000	63.020825 
1084.000000	63.005733 
1083.000000	62.983775 
1082.000000	62.957525 
1081.000000	62.930059 
1080.000000	62.904429 
1079.000000	62.883257 
1078.000000	62.868595 
1077.000000	62.861347 
1076.000000	62.861371 
1075.000000	62.867569 
1074.000000	62.878251 
1073.000000	62.891387 
1072.000000	62.904882 
1071.000000	62.916851 
1070.000000	62.925696 
1069.000000	62.930321 
1068.000000	62.930059 
1067.000000	62.924861 
1066.000000	62.915062 
1065.000000	62.901544 
1064.000000	62.885522 
1063.000000	62.868642 
1062.000000	62.852668 
1061.000000	62.839508 
1060.000000	62.830829 
1059.000000	62.827682 
1058.000000	62.830424 
1057.000000	62.838816 
1056.000000	62.851905 
1055.000000	62.868213 
1054.000000	62.885785 
1053.000000	62.902712 
1052.000000	62.917160 
1051.000000	62.927913 
1050.000000	62.934184 
1049.000000	62.935447 
1048.000000	62.931704 
1047.000000	62.923502 
1046.000000	62.911558 
1045.000000	62.896728 
1044.000000	62.879920 
1043.000000	62.862205 
1042.000000	62.844681 
1041.000000	62.828683 
1040.000000	62.815523 
1039.000000	62.806534 
1038.000000	62.802767 
1037.000000	62.804937 
1036.000000	62.813019 
1035.000000	62.826108 
1034.000000	62.842297 
1033.000000	62.858986 
1032.000000	62.872982 
1031.000000	62.881445 
1030.000000	62.882375 
1029.000000	62.875628 
1028.000000	62.862348 
1027.000000	62.845993 
1026.000000	62.831234 
1025.000000	62.823176 
1024.000000	62.826347 
1023.000000	62.843441 
1022.000000	62.874817 
1021.000000	62.917947 
1020.000000	62.967920 
1019.000000	63.018369 
1018.000000	63.062691 
1017.000000	63.095259 
1016.000000	63.112854 
1015.000000	63.114547 
1014.000000	63.101887 
1013.000000	63.078427 
1012.000000	63.048744 
1011.000000	63.017463 
1010.000000	62.988185 
1009.000000	62.963390 
1008.000000	62.944078 
1007.000000	62.929701 
1006.000000	62.918615 
1005.000000	62.908577 
1004.000000	62.897419 
1003.000000	62.883400 
1002.000000	62.865567 
1001.000000	62.843585 
1000.000000	62.818098 
999.000000	 62.790322 
998.000000	 62.762355 
997.000000	 62.736105 
996.000000	 62.714028 
995.000000	 62.698149 
994.000000	 62.690258 
993.000000	 62.691354 
992.000000	 62.701892 
991.000000	 62.721371 
990.000000	 62.748646 
989.000000	 62.781667 
988.000000	 62.818098 
987.000000	 62.855458 
986.000000	 62.891483 
985.000000	 62.924313 
984.000000	 62.952971 
983.000000	 62.977170 
982.000000	 62.997364 
981.000000	 63.013935 
980.000000	 63.027143 
979.000000	 63.036394 
978.000000	 63.040876 
977.000000	 63.039302 
976.000000	 63.030576 
975.000000	 63.014221 
974.000000	 62.991261 
973.000000	 62.964010 
972.000000	 62.935924 
971.000000	 62.910842 
970.000000	 62.892246 
969.000000	 62.882328 
968.000000	 62.881350 
967.000000	 62.887811 
966.000000	 62.898612 
965.000000	 62.910223 
964.000000	 62.919592 
963.000000	 62.924957 
962.000000	 62.926316 
961.000000	 62.925028 
960.000000	 62.923216 
959.000000	 62.922716 
958.000000	 62.924408 
957.000000	 62.927675 
956.000000	 62.930727 
955.000000	 62.931084 
954.000000	 62.926602 
953.000000	 62.916779 
952.000000	 62.902951 
951.000000	 62.888240 
950.000000	 62.876796 
949.000000	 62.872934 
948.000000	 62.879633 
947.000000	 62.897682 
946.000000	 62.925148 
945.000000	 62.957763 
944.000000	 62.989854 
943.000000	 63.015794 
942.000000	 63.031125 
941.000000	 63.033461 
940.000000	 63.023066 
939.000000	 63.002705 
938.000000	 62.976789 
937.000000	 62.950372 
936.000000	 62.928295 
935.000000	 62.914276 
934.000000	 62.910437 
933.000000	 62.917280 
932.000000	 62.933635 
931.000000	 62.957048 
930.000000	 62.984251 
929.000000	 63.011384 
928.000000	 63.034439 
927.000000	 63.049674 
926.000000	 63.053822 
925.000000	 63.044714 
924.000000	 63.021659 
923.000000	 62.985920 
922.000000	 62.940502 
921.000000	 62.890028 
920.000000	 62.840056 
919.000000	 62.796354 
918.000000	 62.763643 
917.000000	 62.745046 
916.000000	 62.741589 
915.000000	 62.752318 
914.000000	 62.774610 
913.000000	 62.804961 
912.000000	 62.839365 
911.000000	 62.874293 
910.000000	 62.906885 
909.000000	 62.934970 
908.000000	 62.956809 
907.000000	 62.970995 
906.000000	 62.976145 
905.000000	 62.971377 
904.000000	 62.956523 
903.000000	 62.932491 
902.000000	 62.901401 
901.000000	 62.866783 
900.000000	 62.833118 
899.000000	 62.804937 
898.000000	 62.786030 
897.000000	 62.778377 
896.000000	 62.782144 
895.000000	 62.795829 
894.000000	 62.816929 
893.000000	 62.842512 
892.000000	 62.870097 
891.000000	 62.898230 
890.000000	 62.926387 
889.000000	 62.954664 
888.000000	 62.983083 
887.000000	 63.010859 
886.000000	 63.036084 
885.000000	 63.056111 
884.000000	 63.067889 
883.000000	 63.069152 
882.000000	 63.058972 
881.000000	 63.038659 
880.000000	 63.011670 
879.000000	 62.983083 
878.000000	 62.958478 
877.000000	 62.942528 
876.000000	 62.938165 
875.000000	 62.945580 
874.000000	 62.962508 
873.000000	 62.984538 
872.000000	 63.006043 
871.000000	 63.021278 
870.000000	 63.025712 
869.000000	 63.016915 
868.000000	 62.994456 
867.000000	 62.960267 
866.000000	 62.917661 
865.000000	 62.871265 
864.000000	 62.826061 
863.000000	 62.786674 
862.000000	 62.756800 
861.000000	 62.738537 
860.000000	 62.732553 
859.000000	 62.737703 
858.000000	 62.751507 
857.000000	 62.770581 
856.000000	 62.791156 
855.000000	 62.810015 
854.000000	 62.824630 
853.000000	 62.833476 
852.000000	 62.836074 
851.000000	 62.832903 
850.000000	 62.825179 
849.000000	 62.814927 
848.000000	 62.804460 
847.000000	 62.796521 
846.000000	 62.793588 
845.000000	 62.797784 
844.000000	 62.809967 
843.000000	 62.829732 
842.000000	 62.854886 
841.000000	 62.881946 
840.000000	 62.906479 
839.000000	 62.923693 
838.000000	 62.929797 
837.000000	 62.922453 
836.000000	 62.901949 
835.000000	 62.870931 
834.000000	 62.834548 
833.000000	 62.799072 
832.000000	 62.771081 
831.000000	 62.756156 
830.000000	 62.757420 
829.000000	 62.775135 
828.000000	 62.806487 
827.000000	 62.846446 
826.000000	 62.888479 
825.000000	 62.926197 
824.000000	 62.954115 
823.000000	 62.968754 
822.000000	 62.968683 
821.000000	 62.954473 
820.000000	 62.928175 
819.000000	 62.892723 
818.000000	 62.851476 
817.000000	 62.807703 
816.000000	 62.764716 
815.000000	 62.725186 
814.000000	 62.691617 
813.000000	 62.665438 
812.000000	 62.647509 
811.000000	 62.637758 
810.000000	 62.634849 
809.000000	 62.636876 
808.000000	 62.641215 
807.000000	 62.645626 
806.000000	 62.647867 
805.000000	 62.647032 
804.000000	 62.642955 
803.000000	 62.636780 
802.000000	 62.630224 
801.000000	 62.625265 
800.000000	 62.623596 
799.000000	 62.626147 
798.000000	 62.632870 
797.000000	 62.642860 
796.000000	 62.654447 
795.000000	 62.665820 
794.000000	 62.675261 
793.000000	 62.681508 
792.000000	 62.683749 
791.000000	 62.681579 
790.000000	 62.675213 
789.000000	 62.665057 
788.000000	 62.652397 
787.000000	 62.638807 
786.000000	 62.626886 
785.000000	 62.619590 
784.000000	 62.620115 
783.000000	 62.631273 
782.000000	 62.654423 
781.000000	 62.689375 
780.000000	 62.733793 
779.000000	 62.783432 
778.000000	 62.832665 
777.000000	 62.875390 
776.000000	 62.906289 
775.000000	 62.921881 
774.000000	 62.920999 
773.000000	 62.905049 
772.000000	 62.877535 
771.000000	 62.842988 
770.000000	 62.806200 
769.000000	 62.771248 
768.000000	 62.741088 
767.000000	 62.717247 
766.000000	 62.699985 
765.000000	 62.688493 
764.000000	 62.681412 
763.000000	 62.676882 
762.000000	 62.672924 
761.000000	 62.667870 
760.000000	 62.660384 
759.000000	 62.649941 
758.000000	 62.636542 
757.000000	 62.620782 
756.000000	 62.603521 
755.000000	 62.585783 
754.000000	 62.568330 
753.000000	 62.551426 
752.000000	 62.534976 
751.000000	 62.518596 
750.000000	 62.501811 
749.000000	 62.484765 
748.000000	 62.468004 
747.000000	 62.452840 
746.000000	 62.441110 
745.000000	 62.434601 
744.000000	 62.434434 
743.000000	 62.440705 
742.000000	 62.452197 
741.000000	 62.466716 
740.000000	 62.481546 
739.000000	 62.493991 
738.000000	 62.501740 
737.000000	 62.503528 
736.000000	 62.499213 
735.000000	 62.489461 
734.000000	 62.475705 
733.000000	 62.459588 
732.000000	 62.442827 
731.000000	 62.426924 
730.000000	 62.412834 
729.000000	 62.401056 
728.000000	 62.391877 
727.000000	 62.385296 
726.000000	 62.381839 
725.000000	 62.381887 
724.000000	 62.386941 
723.000000	 62.398767 
722.000000	 62.419819 
721.000000	 62.451958 
720.000000	 62.496328 
719.000000	 62.552642 
718.000000	 62.618017 
717.000000	 62.687015 
716.000000	 62.751865 
715.000000	 62.803840 
714.000000	 62.834215 
713.000000	 62.836289 
712.000000	 62.807035 
711.000000	 62.747955 
710.000000	 62.665200 
709.000000	 62.568354 
708.000000	 62.469291 
707.000000	 62.379503 
706.000000	 62.308430 
705.000000	 62.261676 
704.000000	 62.240314 
703.000000	 62.241387 
702.000000	 62.259411 
701.000000	 62.288212 
700.000000	 62.321710 
699.000000	 62.356472 
698.000000	 62.391376 
697.000000	 62.428092 
696.000000	 62.468624 
695.000000	 62.515211 
694.000000	 62.568664 
693.000000	 62.627720 
692.000000	 62.689042 
691.000000	 62.747478 
690.000000	 62.797451 
689.000000	 62.834191 
688.000000	 62.855124 
687.000000	 62.860751 
686.000000	 62.854790 
685.000000	 62.843132 
684.000000	 62.832260 
683.000000	 62.827682 
682.000000	 62.832069 
681.000000	 62.845206 
680.000000	 62.863516 
679.000000	 62.882041 
678.000000	 62.894821 
677.000000	 62.897729 
676.000000	 62.887668 
675.000000	 62.863469 
674.000000	 62.825155 
673.000000	 62.773561 
672.000000	 62.710285 
671.000000	 62.637758 
670.000000	 62.559461 
669.000000	 62.479615 
668.000000	 62.403893 
667.000000	 62.339067 
666.000000	 62.291479 
665.000000	 62.265634 
664.000000	 62.263178 
663.000000	 62.282228 
662.000000	 62.317490 
661.000000	 62.360954 
660.000000	 62.404131 
659.000000	 62.439632 
658.000000	 62.463045 
657.000000	 62.473297 
656.000000	 62.472438 
655.000000	 62.464141 
654.000000	 62.452411 
653.000000	 62.439823 
652.000000	 62.427186 
651.000000	 62.412858 
650.000000	 62.394952 
649.000000	 62.370657 
648.000000	 62.337923 
647.000000	 62.295246 
646.000000	 62.243294 
645.000000	 62.183213 
644.000000	 62.116193 
643.000000	 62.043380 
642.000000	 61.965918 
641.000000	 61.885333 
640.000000	 61.803388 
639.000000	 61.723828 
638.000000	 61.651730 
637.000000	 61.594080 
636.000000	 61.558198 
635.000000	 61.550569 
634.000000	 61.574912 
633.000000	 61.630916 
632.000000	 61.713790 
631.000000	 61.814188 
630.000000	 61.920094 
629.000000	 62.018632 
628.000000	 62.099313 
627.000000	 62.154459 
626.000000	 62.182140 
625.000000	 62.185955 
624.000000	 62.175107 
623.000000	 62.161660 
622.000000	 62.158703 
621.000000	 62.177467 
620.000000	 62.225127 
619.000000	 62.304306 
618.000000	 62.411499 
617.000000	 62.539243 
616.000000	 62.675499 
615.000000	 62.807440 
614.000000	 62.921285 
613.000000	 63.004446 
612.000000	 63.047766 
611.000000	 63.046789 
610.000000	 63.003158 
609.000000	 62.924289 
608.000000	 62.822985 
607.000000	 62.714982 
606.000000	 62.615036 
605.000000	 62.533545 
604.000000	 62.474656 
603.000000	 62.435626 
602.000000	 62.407302 
601.000000	 62.377834 
600.000000	 62.336301 
599.000000	 62.276864 
598.000000	 62.200474 
597.000000	 62.115263 
596.000000	 62.033224 
595.000000	 61.967825 
594.000000	 61.929082 
593.000000	 61.921548 
592.000000	 61.941719 
591.000000	 61.980390 
590.000000	 62.024903 
589.000000	 62.063550 
588.000000	 62.088680 
587.000000	 62.098836 
586.000000	 62.098646 
585.000000	 62.096381 
584.000000	 62.100076 
583.000000	 62.115216 
582.000000	 62.142443 
581.000000	 62.177705 
580.000000	 62.213921 
579.000000	 62.245154 
578.000000	 62.269163 
577.000000	 62.289595 
576.000000	 62.314915 
575.000000	 62.355279 
574.000000	 62.418985 
573.000000	 62.509155 
572.000000	 62.621688 
571.000000	 62.744808 
570.000000	 62.862205 
569.000000	 62.957239 
568.000000	 63.017225 
567.000000	 63.038396 
566.000000	 63.025212 
565.000000	 62.989664 
564.000000	 62.946724 
563.000000	 62.910127 
562.000000	 62.888932 
561.000000	 62.885880 
560.000000	 62.897610 
559.000000	 62.917113 
558.000000	 62.936258 
557.000000	 62.949895 
556.000000	 62.954616 
555.000000	 62.949752 
554.000000	 62.935161 
553.000000	 62.910723 
552.000000	 62.876057 
551.000000	 62.831234 
550.000000	 62.778735 
549.000000	 62.723851 
548.000000	 62.676429 
547.000000	 62.647223 
546.000000	 62.647128 
545.000000	 62.680125 
544.000000	 62.740564 
543.000000	 62.811779 
542.000000	 62.867641 
541.000000	 62.880682 
540.000000	 62.828898 
539.000000	 62.704586 
538.000000	 62.516784 
537.000000	 62.292361 
536.000000	 62.069940 
535.000000	 61.891627 
534.000000	 61.791229 
533.000000	 61.788773 
532.000000	 61.885666 
531.000000	 62.065577 
530.000000	 62.299513 
529.000000	 62.551617 
528.000000	 62.787389 
527.000000	 62.979602 
526.000000	 63.112974 
525.000000	 63.184523 
524.000000	 63.202691 
523.000000	 63.183426 
522.000000	 63.145971 
521.000000	 63.109397 
520.000000	 63.088274 
519.000000	 63.093376 
518.000000	 63.127779 
517.000000	 63.189625 
516.000000	 63.270115 
515.000000	 63.356614 
514.000000	 63.433837 
513.000000	 63.488340 
512.000000	 63.509702 
511.000000	 63.492155 
510.000000	 63.435769 
509.000000	 63.345718 
508.000000	 63.231945 
507.000000	 63.106417 
506.000000	 62.982988 
505.000000	 62.875485 
504.000000	 62.795996 
503.000000	 62.753987 
502.000000	 62.753200 
501.000000	 62.791395 
500.000000	 62.860846 
499.000000	 62.949967 
498.000000	 63.046717 
497.000000	 63.140678 
496.000000	 63.225340 
495.000000	 63.297510 
494.000000	 63.357067 
493.000000	 63.403391 
492.000000	 63.434696 
491.000000	 63.444781 
490.000000	 63.423633 
489.000000	 63.359260 
488.000000	 63.241910 
487.000000	 63.067984 
486.000000	 62.844586 
485.000000	 62.588405 
484.000000	 62.323999 
483.000000	 62.078619 
482.000000	 61.877036 
481.000000	 61.735796 
480.000000	 61.658334 
479.000000	 61.638259 
478.000000	 61.660885 
477.000000	 61.710572 
476.000000	 61.775016 
475.000000	 61.848139 
474.000000	 61.929821 
473.000000	 62.024736 
472.000000	 62.138366 
471.000000	 62.274456 
470.000000	 62.432050 
469.000000	 62.605953 
468.000000	 62.787032 
467.000000	 62.965130 
466.000000	 63.129687 
465.000000	 63.274002 
464.000000	 63.392043 
463.000000	 63.481163 
462.000000	 63.535976 
461.000000	 63.550305 
460.000000	 63.513612 
459.000000	 63.413882 
458.000000	 63.240957 
457.000000	 62.991690 
456.000000	 62.674951 
455.000000	 62.312555 
454.000000	 61.940073 
453.000000	 61.602115 
452.000000	 61.344170 
451.000000	 61.203002 
450.000000	 61.198329 
449.000000	 61.327457 
448.000000	 61.565375 
447.000000	 61.869859 
446.000000	 62.190532 
445.000000	 62.479305 
444.000000	 62.703537 
443.000000	 62.851262 
442.000000	 62.929463 
441.000000	 62.958359 
440.000000	 62.965106 
439.000000	 62.972450 
438.000000	 62.989163 
437.000000	 63.008069 
436.000000	 63.012671 
435.000000	 62.982344 
434.000000	 62.903046 
433.000000	 62.773013 
432.000000	 62.607908 
431.000000	 62.436199 
430.000000	 62.294435 
429.000000	 62.214541 
428.000000	 62.213540 
427.000000	 62.288355 
426.000000	 62.414789 
425.000000	 62.555670 
424.000000	 62.672233 
423.000000	 62.733292 
422.000000	 62.724709 
421.000000	 62.647795 
420.000000	 62.516927 
419.000000	 62.352013 
418.000000	 62.169933 
417.000000	 61.978650 
416.000000	 61.773586 
415.000000	 61.535000 
414.000000	 61.234354 
413.000000	 60.851740 
412.000000	 60.383033 
411.000000	 59.833526 
410.000000	 59.229469 
409.000000	 58.617591 
408.000000	 58.061742 
407.000000	 57.623434 
406.000000	 57.356786 
405.000000	 57.301163 
404.000000	 57.464909 
403.000000	 57.823348 
402.000000	 58.314633 
401.000000	 58.845639 
400.000000	 59.312939 
399.000000	 59.623622 
398.000000	 59.714674 
397.000000	 59.552240 
396.000000	 59.167242 
395.000000	 58.651781 
394.000000	 58.127164 
393.000000	 57.712054 
392.000000	 57.484078 
391.000000	 57.453489 
390.000000	 57.552385 
389.000000	 57.643318 
388.000000	 57.552123 
387.000000	 57.111597 
386.000000	 56.171107 
385.000000	 54.651188 
384.000000	 52.624917 
383.000000	 50.286006 
382.000000	 47.845935 
381.000000	 45.524406 
380.000000	 43.562316 
379.000000	 42.130351 
378.000000	 41.236686 
377.000000	 40.811204 
376.000000	 40.682721 
375.000000	 40.742373 
374.000000	 40.943431 
373.000000	 41.414427 
372.000000	 42.453885 
371.000000	 44.380950 
370.000000	 47.408771 

