PE IR       SPECTRUM    SPECTRUM    ASCII       PEDS        1.60        
  -1
BZ6DA1~1.ASC
17/04/07
14:25:45.00
17/04/07
14:25:45.00
tln
$BZ1503107-1_t0015$<tbV0>[5.2,-10.4,8.0,0.0,27,1,0]
370.000000
64









2002,4.07    
MIRTGS : RIGHTBACK : INTERNAL 2
MIR : ON : INTERNAL 2
OPTKBR

0.200000
8
8.000000
FILLER
RATIO
SPECTRUM
UNLOCKED 256

DOUBLE
64
COMBINED
1
0
0


1.000000
RATIO


1
0
TRUE
51149
0
LEFT NOT FITTED RIGHT NOT FITTED 0
NONE
NONE
15600
12.000000
4.427000
51148
TRUE
1 0 8 72 0 0 0 0 

15798.010000






#HDR
-1
-1
#GR
CM-1
%T
0.00002384185791015625
0.0
5000.000000
-1.000000
4631
8
88.636279
56.544828
#DATA
5000.000000	64.643716 
4999.000000	64.563536 
4998.000000	64.474320 
4997.000000	64.355421 
4996.000000	64.187455 
4995.000000	63.958287 
4994.000000	63.666772 
4993.000000	63.321805 
4992.000000	62.945389 
4991.000000	62.567377 
4990.000000	62.222766 
4989.000000	61.942505 
4988.000000	61.751770 
4987.000000	61.664557 
4986.000000	61.681628 
4985.000000	61.790418 
4984.000000	61.967277 
4983.000000	62.182283 
4982.000000	62.405586 
4981.000000	62.613987 
4980.000000	62.794947 
4979.000000	62.948369 
4978.000000	63.085603 
4977.000000	63.223814 
4976.000000	63.377976 
4975.000000	63.554716 
4974.000000	63.750863 
4973.000000	63.951277 
4972.000000	64.134669 
4971.000000	64.276218 
4970.000000	64.359998 
4969.000000	64.375972 
4968.000000	64.324593 
4967.000000	64.213109 
4966.000000	64.055061 
4965.000000	63.865852 
4964.000000	63.658857 
4963.000000	63.447737 
4962.000000	63.246226 
4961.000000	63.070297 
4960.000000	62.937426 
4959.000000	62.866950 
4958.000000	62.877368 
4957.000000	62.979435 
4956.000000	63.172531 
4955.000000	63.441681 
4954.000000	63.759732 
4953.000000	64.094161 
4952.000000	64.413452 
4951.000000	64.692544 
4950.000000	64.916777 
4949.000000	65.084266 
4948.000000	65.202569 
4947.000000	65.282344 
4946.000000	65.333890 
4945.000000	65.364885 
4944.000000	65.378451 
4943.000000	65.376639 
4942.000000	65.359902 
4941.000000	65.332102 
4940.000000	65.299105 
4939.000000	65.270566 
4938.000000	65.256595 
4937.000000	65.265631 
4936.000000	65.302419 
4935.000000	65.366005 
4934.000000	65.451407 
4933.000000	65.550899 
4932.000000	65.655779 
4931.000000	65.758299 
4930.000000	65.849661 
4929.000000	65.920209 
4928.000000	65.957832 
4927.000000	65.948915 
4926.000000	65.880155 
4925.000000	65.741944 
4924.000000	65.532088 
4923.000000	65.258479 
4922.000000	64.940786 
4921.000000	64.608526 
4920.000000	64.295244 
4919.000000	64.034509 
4918.000000	63.854074 
4917.000000	63.771176 
4916.000000	63.788509 
4915.000000	63.895273 
4914.000000	64.069390 
4913.000000	64.282083 
4912.000000	64.502429 
4911.000000	64.702701 
4910.000000	64.861059 
4909.000000	64.964056 
4908.000000	65.005278 
4907.000000	64.985990 
4906.000000	64.912438 
4905.000000	64.795303 
4904.000000	64.647865 
4903.000000	64.485001 
4902.000000	64.321756 
4901.000000	64.172744 
4900.000000	64.050984 
4899.000000	63.965868 
4898.000000	63.922452 
4897.000000	63.920688 
4896.000000	63.956451 
4895.000000	64.020442 
4894.000000	64.101719 
4893.000000	64.189004 
4892.000000	64.273929 
4891.000000	64.350032 
4890.000000	64.415097 
4889.000000	64.470624 
4888.000000	64.519858 
4887.000000	64.565491 
4886.000000	64.608621 
4885.000000	64.648461 
4884.000000	64.681506 
4883.000000	64.703273 
4882.000000	64.709043 
4881.000000	64.695811 
4880.000000	64.663696 
4879.000000	64.616799 
4878.000000	64.562463 
4877.000000	64.509963 
4876.000000	64.469289 
4875.000000	64.449572 
4874.000000	64.457726 
4873.000000	64.497613 
4872.000000	64.569807 
4871.000000	64.671921 
4870.000000	64.799308 
4869.000000	64.946055 
4868.000000	65.105032 
4867.000000	65.268611 
4866.000000	65.429019 
4865.000000	65.577960 
4864.000000	65.707707 
4863.000000	65.810561 
4862.000000	65.880036 
4861.000000	65.911340 
4860.000000	65.903592 
4859.000000	65.859413 
4858.000000	65.785670 
4857.000000	65.692591 
4856.000000	65.593314 
4855.000000	65.501379 
4854.000000	65.429258 
4853.000000	65.386390 
4852.000000	65.378499 
4851.000000	65.405726 
4850.000000	65.463232 
4849.000000	65.541386 
4848.000000	65.627503 
4847.000000	65.708112 
4846.000000	65.771460 
4845.000000	65.809273 
4844.000000	65.818071 
4843.000000	65.799808 
4842.000000	65.760350 
4841.000000	65.708518 
4840.000000	65.652537 
4839.000000	65.598273 
4838.000000	65.547418 
4837.000000	65.498471 
4836.000000	65.447163 
4835.000000	65.389323 
4834.000000	65.322470 
4833.000000	65.248084 
4832.000000	65.171098 
4831.000000	65.099668 
4830.000000	65.041756 
4829.000000	65.002250 
4828.000000	64.981436 
4827.000000	64.973425 
4826.000000	64.969635 
4825.000000	64.960718 
4824.000000	64.941573 
4823.000000	64.912962 
4822.000000	64.883494 
4821.000000	64.867305 
4820.000000	64.880514 
4819.000000	64.935517 
4818.000000	65.036249 
4817.000000	65.175318 
4816.000000	65.333771 
4815.000000	65.485286 
4814.000000	65.602350 
4813.000000	65.664315 
4812.000000	65.661716 
4811.000000	65.601134 
4810.000000	65.503406 
4809.000000	65.400052 
4808.000000	65.325331 
4807.000000	65.307974 
4806.000000	65.364789 
4805.000000	65.495443 
4804.000000	65.685057 
4803.000000	65.904664 
4802.000000	66.119623 
4801.000000	66.295433 
4800.000000	66.405892 
4799.000000	66.437506 
4798.000000	66.391491 
4797.000000	66.282486 
4796.000000	66.133856 
4795.000000	65.972900 
4794.000000	65.824580 
4793.000000	65.708255 
4792.000000	65.634059 
4791.000000	65.602588 
4790.000000	65.605282 
4789.000000	65.628170 
4788.000000	65.654778 
4787.000000	65.668678 
4786.000000	65.657997 
4785.000000	65.614771 
4784.000000	65.539884 
4783.000000	65.441393 
4782.000000	65.334725 
4781.000000	65.238475 
4780.000000	65.170788 
4779.000000	65.146517 
4778.000000	65.171504 
4777.000000	65.242028 
4776.000000	65.342855 
4775.000000	65.451264 
4774.000000	65.540456 
4773.000000	65.585732 
4772.000000	65.570926 
4771.000000	65.492105 
4770.000000	65.359520 
4769.000000	65.194749 
4768.000000	65.028524 
4767.000000	64.893722 
4766.000000	64.818859 
4765.000000	64.821386 
4764.000000	64.904403 
4763.000000	65.055346 
4762.000000	65.250253 
4761.000000	65.458226 
4760.000000	65.647912 
4759.000000	65.793824 
4758.000000	65.880155 
4757.000000	65.903043 
4756.000000	65.868735 
4755.000000	65.791416 
4754.000000	65.687966 
4753.000000	65.574407 
4752.000000	65.464091 
4751.000000	65.364527 
4750.000000	65.279936 
4749.000000	65.209388 
4748.000000	65.150666 
4747.000000	65.100049 
4746.000000	65.054893 
4745.000000	65.013170 
4744.000000	64.973473 
4743.000000	64.935517 
4742.000000	64.899301 
4741.000000	64.866662 
4740.000000	64.840650 
4739.000000	64.825177 
4738.000000	64.823698 
4737.000000	64.837741 
4736.000000	64.865922 
4735.000000	64.903807 
4734.000000	64.944148 
4733.000000	64.978647 
4732.000000	64.999175 
4731.000000	65.000605 
4730.000000	64.980101 
4729.000000	64.938044 
4728.000000	64.876532 
4727.000000	64.797806 
4726.000000	64.704823 
4725.000000	64.600396 
4724.000000	64.489126 
4723.000000	64.377307 
4722.000000	64.273977 
4721.000000	64.189791 
4720.000000	64.135980 
4719.000000	64.122557 
4718.000000	64.154291 
4717.000000	64.228463 
4716.000000	64.334297 
4715.000000	64.454245 
4714.000000	64.566993 
4713.000000	64.652109 
4712.000000	64.694666 
4711.000000	64.688849 
4710.000000	64.638662 
4709.000000	64.557123 
4708.000000	64.463067 
4707.000000	64.376926 
4706.000000	64.316558 
4705.000000	64.293193 
4704.000000	64.310693 
4703.000000	64.364242 
4702.000000	64.442968 
4701.000000	64.532208 
4700.000000	64.616775 
4699.000000	64.685082 
4698.000000	64.730286 
4697.000000	64.752435 
4696.000000	64.756584 
4695.000000	64.751839 
4694.000000	64.748024 
4693.000000	64.753580 
4692.000000	64.773750 
4691.000000	64.809107 
4690.000000	64.856028 
4689.000000	64.907860 
4688.000000	64.957332 
4687.000000	64.997816 
4686.000000	65.025258 
4685.000000	65.038824 
4684.000000	65.040707 
4683.000000	65.035367 
4682.000000	65.027856 
4681.000000	65.022397 
4680.000000	65.021014 
4679.000000	65.023374 
4678.000000	65.026593 
4677.000000	65.027117 
4676.000000	65.021252 
4675.000000	65.006661 
4674.000000	64.982867 
4673.000000	64.951872 
4672.000000	64.917397 
4671.000000	64.883899 
4670.000000	64.855289 
4669.000000	64.833712 
4668.000000	64.819335 
4667.000000	64.810824 
4666.000000	64.805531 
4665.000000	64.800095 
4664.000000	64.792108 
4663.000000	64.780688 
4662.000000	64.766740 
4661.000000	64.752316 
4660.000000	64.740562 
4659.000000	64.734745 
4658.000000	64.737391 
4657.000000	64.749789 
4656.000000	64.772343 
4655.000000	64.804553 
4654.000000	64.845085 
4653.000000	64.892029 
4652.000000	64.943051 
4651.000000	64.995551 
4650.000000	65.046429 
4649.000000	65.092658 
4648.000000	65.131568 
4647.000000	65.161156 
4646.000000	65.180754 
4645.000000	65.190529 
4644.000000	65.191793 
4643.000000	65.185952 
4642.000000	65.174627 
4641.000000	65.158438 
4640.000000	65.137696 
4639.000000	65.111708 
4638.000000	65.079784 
4637.000000	65.041303 
4636.000000	64.996194 
4635.000000	64.945578 
4634.000000	64.892005 
4633.000000	64.839100 
4632.000000	64.791297 
4631.000000	64.752650 
4630.000000	64.726209 
4629.000000	64.713072 
4628.000000	64.712476 
4627.000000	64.721298 
4626.000000	64.735174 
4625.000000	64.749598 
4624.000000	64.760994 
4623.000000	64.767122 
4622.000000	64.767718 
4621.000000	64.764046 
4620.000000	64.758276 
4619.000000	64.752435 
4618.000000	64.747548 
4617.000000	64.742898 
4616.000000	64.736485 
4615.000000	64.725375 
4614.000000	64.707303 
4613.000000	64.681720 
4612.000000	64.650583 
4611.000000	64.618062 
4610.000000	64.589881 
4609.000000	64.571833 
4608.000000	64.568066 
4607.000000	64.579939 
4606.000000	64.605236 
4605.000000	64.638423 
4604.000000	64.671778 
4603.000000	64.697289 
4602.000000	64.707899 
4601.000000	64.699435 
4600.000000	64.670920 
4599.000000	64.625215 
4598.000000	64.568257 
4597.000000	64.508295 
4596.000000	64.453983 
4595.000000	64.413285 
4594.000000	64.392638 
4593.000000	64.395523 
4592.000000	64.422082 
4591.000000	64.468669 
4590.000000	64.528942 
4589.000000	64.593863 
4588.000000	64.653468 
4587.000000	64.698338 
4586.000000	64.721059 
4585.000000	64.718103 
4584.000000	64.689898 
4583.000000	64.641451 
4582.000000	64.580774 
4581.000000	64.517688 
4580.000000	64.461493 
4579.000000	64.418840 
4578.000000	64.392352 
4577.000000	64.380335 
4576.000000	64.377593 
4575.000000	64.376544 
4574.000000	64.369463 
4573.000000	64.350152 
4572.000000	64.315485 
4571.000000	64.265441 
4570.000000	64.202809 
4569.000000	64.131879 
4568.000000	64.057660 
4567.000000	63.984513 
4566.000000	63.915944 
4565.000000	63.854670 
4564.000000	63.802337 
4563.000000	63.759875 
4562.000000	63.727807 
4561.000000	63.705921 
4560.000000	63.693881 
4559.000000	63.690972 
4558.000000	63.695859 
4557.000000	63.706088 
4556.000000	63.718914 
4555.000000	63.731503 
4554.000000	63.741707 
4553.000000	63.748002 
4552.000000	63.751316 
4551.000000	63.754677 
4550.000000	63.762807 
4549.000000	63.780617 
4548.000000	63.811135 
4547.000000	63.854455 
4546.000000	63.907003 
4545.000000	63.962507 
4544.000000	64.013791 
4543.000000	64.054536 
4542.000000	64.081811 
4541.000000	64.095807 
4540.000000	64.099311 
4539.000000	64.096307 
4538.000000	64.091229 
4537.000000	64.086818 
4536.000000	64.083766 
4535.000000	64.080238 
4534.000000	64.074373 
4533.000000	64.063119 
4532.000000	64.043593 
4531.000000	64.013695 
4530.000000	63.973641 
4529.000000	63.924360 
4528.000000	63.867115 
4527.000000	63.804316 
4526.000000	63.739204 
4525.000000	63.674879 
4524.000000	63.613891 
4523.000000	63.559508 
4522.000000	63.515233 
4521.000000	63.481950 
4520.000000	63.458824 
4519.000000	63.442492 
4518.000000	63.429975 
4517.000000	63.420581 
4516.000000	63.416743 
4515.000000	63.425445 
4514.000000	63.454747 
4513.000000	63.507819 
4512.000000	63.584017 
4511.000000	63.675785 
4510.000000	63.773512 
4509.000000	63.867878 
4508.000000	63.953185 
4507.000000	64.028954 
4506.000000	64.099693 
4505.000000	64.172315 
4504.000000	64.254212 
4503.000000	64.346671 
4502.000000	64.452362 
4501.000000	64.574623 
4500.000000	64.720082 
4499.000000	64.896845 
4498.000000	65.115094 
4497.000000	65.383148 
4496.000000	65.699648 
4495.000000	66.050696 
4494.000000	66.407299 
4493.000000	66.732048 
4492.000000	66.984486 
4491.000000	67.135596 
4490.000000	67.179322 
4489.000000	67.136573 
4488.000000	67.055606 
4487.000000	66.996359 
4486.000000	67.018461 
4485.000000	67.157554 
4484.000000	67.418885 
4483.000000	67.766332 
4482.000000	68.135428 
4481.000000	68.442034 
4480.000000	68.608808 
4479.000000	68.578410 
4478.000000	68.336224 
4477.000000	67.900657 
4476.000000	67.317533 
4475.000000	66.647171 
4474.000000	65.948104 
4473.000000	65.272164 
4472.000000	64.661884 
4471.000000	64.131784 
4470.000000	63.671350 
4469.000000	63.271164 
4468.000000	62.930798 
4467.000000	62.655663 
4466.000000	62.456297 
4465.000000	62.340164 
4464.000000	62.307357 
4463.000000	62.333941 
4462.000000	62.387084 
4461.000000	62.418198 
4460.000000	62.393379 
4459.000000	62.319374 
4458.000000	62.230134 
4457.000000	62.192916 
4456.000000	62.255120 
4455.000000	62.437796 
4454.000000	62.690520 
4453.000000	62.883496 
4452.000000	62.852692 
4451.000000	62.424898 
4450.000000	61.523771 
4449.000000	60.181999 
4448.000000	58.630919 
4447.000000	57.256174 
4446.000000	56.544828 
4445.000000	56.960916 
4444.000000	58.818960 
4443.000000	62.179207 
4442.000000	66.800498 
4441.000000	72.168970 
4440.000000	77.608394 
4439.000000	82.416129 
4438.000000	86.029624 
4437.000000	88.119411 
4436.000000	88.636279 
4435.000000	87.775135 
4434.000000	85.903143 
4433.000000	83.438587 
4432.000000	80.765223 
4431.000000	78.140044 
4430.000000	75.719594 
4429.000000	73.525643 
4428.000000	71.547937 
4427.000000	69.741058 
4426.000000	68.111538 
4425.000000	66.691112 
4424.000000	65.533328 
4423.000000	64.689731 
4422.000000	64.155077 
4421.000000	63.896465 
4420.000000	63.834476 
4419.000000	63.884592 
4418.000000	63.967633 
4417.000000	64.035344 
4416.000000	64.074397 
4415.000000	64.093756 
4414.000000	64.112925 
4413.000000	64.151549 
4412.000000	64.219760 
4411.000000	64.310169 
4410.000000	64.400362 
4409.000000	64.473986 
4408.000000	64.518737 
4407.000000	64.521026 
4406.000000	64.473509 
4405.000000	64.385747 
4404.000000	64.274215 
4403.000000	64.155697 
4402.000000	64.044117 
4401.000000	63.939785 
4400.000000	63.839364 
4399.000000	63.750028 
4398.000000	63.676500 
4397.000000	63.617110 
4396.000000	63.570380 
4395.000000	63.537478 
4394.000000	63.518023 
4393.000000	63.507390 
4392.000000	63.504624 
4391.000000	63.513207 
4390.000000	63.536524 
4389.000000	63.576292 
4388.000000	63.632535 
4387.000000	63.702583 
4386.000000	63.782525 
4385.000000	63.867211 
4384.000000	63.951134 
4383.000000	64.028811 
4382.000000	64.094853 
4381.000000	64.144802 
4380.000000	64.175081 
4379.000000	64.184498 
4378.000000	64.175271 
4377.000000	64.152789 
4376.000000	64.126157 
4375.000000	64.105153 
4374.000000	64.098906 
4373.000000	64.112925 
4372.000000	64.148688 
4371.000000	64.201998 
4370.000000	64.264369 
4369.000000	64.325189 
4368.000000	64.374804 
4367.000000	64.406490 
4366.000000	64.418125 
4365.000000	64.412260 
4364.000000	64.395141 
4363.000000	64.374375 
4362.000000	64.356565 
4361.000000	64.345431 
4360.000000	64.340996 
4359.000000	64.340209 
4358.000000	64.338397 
4357.000000	64.331269 
4356.000000	64.316534 
4355.000000	64.294743 
4354.000000	64.269566 
4353.000000	64.245533 
4352.000000	64.227914 
4351.000000	64.221143 
4350.000000	64.228129 
4349.000000	64.248991 
4348.000000	64.281797 
4347.000000	64.323019 
4346.000000	64.368295 
4345.000000	64.413452 
4344.000000	64.454603 
4343.000000	64.488434 
4342.000000	64.512372 
4341.000000	64.524841 
4340.000000	64.524841 
4339.000000	64.511919 
4338.000000	64.486551 
4337.000000	64.450526 
4336.000000	64.406967 
4335.000000	64.360165 
4334.000000	64.315271 
4333.000000	64.277553 
4332.000000	64.251446 
4331.000000	64.239287 
4330.000000	64.241075 
4329.000000	64.253783 
4328.000000	64.271640 
4327.000000	64.287209 
4326.000000	64.292383 
4325.000000	64.281082 
4324.000000	64.249920 
4323.000000	64.200592 
4322.000000	64.138722 
4321.000000	64.074277 
4320.000000	64.018893 
4319.000000	63.984513 
4318.000000	63.980269 
4317.000000	64.011025 
4316.000000	64.076185 
4315.000000	64.170002 
4314.000000	64.282488 
4313.000000	64.401769 
4312.000000	64.516139 
4311.000000	64.616107 
4310.000000	64.695692 
4309.000000	64.752578 
4308.000000	64.787745 
4307.000000	64.804625 
4306.000000	64.807319 
4305.000000	64.799976 
4304.000000	64.785361 
4303.000000	64.765691 
4302.000000	64.741945 
4301.000000	64.714837 
4300.000000	64.684605 
4299.000000	64.652085 
4298.000000	64.618349 
4297.000000	64.584827 
4296.000000	64.553260 
4295.000000	64.525127 
4294.000000	64.502334 
4293.000000	64.486432 
4292.000000	64.479374 
4291.000000	64.482569 
4290.000000	64.497041 
4289.000000	64.522933 
4288.000000	64.559078 
4287.000000	64.602875 
4286.000000	64.650416 
4285.000000	64.696979 
4284.000000	64.737844 
4283.000000	64.768671 
4282.000000	64.787125 
4281.000000	64.792990 
4280.000000	64.788103 
4279.000000	64.775323 
4278.000000	64.758348 
4277.000000	64.740371 
4276.000000	64.723300 
4275.000000	64.707684 
4274.000000	64.692854 
4273.000000	64.677762 
4272.000000	64.661979 
4271.000000	64.646053 
4270.000000	64.631557 
4269.000000	64.621043 
4268.000000	64.617276 
4267.000000	64.622521 
4266.000000	64.637303 
4265.000000	64.660263 
4264.000000	64.688634 
4263.000000	64.718294 
4262.000000	64.744520 
4261.000000	64.763283 
4260.000000	64.772105 
4259.000000	64.770698 
4258.000000	64.760613 
4257.000000	64.744973 
4256.000000	64.727497 
4255.000000	64.711594 
4254.000000	64.699864 
4253.000000	64.693236 
4252.000000	64.690947 
4251.000000	64.691066 
4250.000000	64.691424 
4249.000000	64.690017 
4248.000000	64.686179 
4247.000000	64.680743 
4246.000000	64.676523 
4245.000000	64.677071 
4244.000000	64.686655 
4243.000000	64.708662 
4242.000000	64.745330 
4241.000000	64.796662 
4240.000000	64.860701 
4239.000000	64.933848 
4238.000000	65.011429 
4237.000000	65.088558 
4236.000000	65.160679 
4235.000000	65.224146 
4234.000000	65.276145 
4233.000000	65.315079 
4232.000000	65.339875 
4231.000000	65.349960 
4230.000000	65.345430 
4229.000000	65.327167 
4228.000000	65.297102 
4227.000000	65.258431 
4226.000000	65.215373 
4225.000000	65.172696 
4224.000000	65.134859 
4223.000000	65.105223 
4222.000000	65.085411 
4221.000000	65.074872 
4220.000000	65.071463 
4219.000000	65.072083 
4218.000000	65.073680 
4217.000000	65.074205 
4216.000000	65.072822 
4215.000000	65.069985 
4214.000000	65.066957 
4213.000000	65.065217 
4212.000000	65.065169 
4211.000000	65.066742 
4210.000000	65.068507 
4209.000000	65.069389 
4208.000000	65.068888 
4207.000000	65.067982 
4206.000000	65.068936 
4205.000000	65.074801 
4204.000000	65.088534 
4203.000000	65.111064 
4202.000000	65.140652 
4201.000000	65.172719 
4200.000000	65.200734 
4199.000000	65.217494 
4198.000000	65.217208 
4197.000000	65.197277 
4196.000000	65.159726 
4195.000000	65.110874 
4194.000000	65.060448 
4193.000000	65.019130 
4192.000000	64.996552 
4191.000000	64.998912 
4190.000000	65.027856 
4189.000000	65.079855 
4188.000000	65.147757 
4187.000000	65.222477 
4186.000000	65.295410 
4185.000000	65.359592 
4184.000000	65.411591 
4183.000000	65.451097 
4182.000000	65.480709 
4181.000000	65.504264 
4180.000000	65.525412 
4179.000000	65.546250 
4178.000000	65.566301 
4177.000000	65.583157 
4176.000000	65.592432 
4175.000000	65.589499 
4174.000000	65.570425 
4173.000000	65.533351 
4172.000000	65.479016 
4171.000000	65.410876 
4170.000000	65.334486 
4169.000000	65.256690 
4168.000000	65.184187 
4167.000000	65.123009 
4166.000000	65.077424 
4165.000000	65.050363 
4164.000000	65.042710 
4163.000000	65.054321 
4162.000000	65.083813 
4161.000000	65.129399 
4160.000000	65.188646 
4159.000000	65.258169 
4158.000000	65.333580 
4157.000000	65.408897 
4156.000000	65.477013 
4155.000000	65.530014 
4154.000000	65.560460 
4153.000000	65.562510 
4152.000000	65.533256 
4151.000000	65.473699 
4150.000000	65.389418 
4149.000000	65.289688 
4148.000000	65.186405 
4147.000000	65.091872 
4146.000000	65.016794 
4145.000000	64.968347 
4144.000000	64.949011 
4143.000000	64.956307 
4142.000000	64.983820 
4141.000000	65.022611 
4140.000000	65.063595 
4139.000000	65.098810 
4138.000000	65.123414 
4137.000000	65.135669 
4136.000000	65.137600 
4135.000000	65.133047 
4134.000000	65.127205 
4133.000000	65.124678 
4132.000000	65.128874 
4131.000000	65.141177 
4130.000000	65.161108 
4129.000000	65.186786 
4128.000000	65.215206 
4127.000000	65.243601 
4126.000000	65.269398 
4125.000000	65.290713 
4124.000000	65.306234 
4123.000000	65.315413 
4122.000000	65.318155 
4121.000000	65.314865 
4120.000000	65.306210 
4119.000000	65.293335 
4118.000000	65.278077 
4117.000000	65.262913 
4116.000000	65.250587 
4115.000000	65.243172 
4114.000000	65.242338 
4113.000000	65.248465 
4112.000000	65.260148 
4111.000000	65.274405 
4110.000000	65.287065 
4109.000000	65.293908 
4108.000000	65.291690 
4107.000000	65.278935 
4106.000000	65.256357 
4105.000000	65.226721 
4104.000000	65.194153 
4103.000000	65.163302 
4102.000000	65.138006 
4101.000000	65.120768 
4100.000000	65.112113 
4099.000000	65.110945 
4098.000000	65.115165 
4097.000000	65.122461 
4096.000000	65.130949 
4095.000000	65.139794 
4094.000000	65.149021 
4093.000000	65.159153 
4092.000000	65.170717 
4091.000000	65.183782 
4090.000000	65.197682 
4089.000000	65.211129 
4088.000000	65.222620 
4087.000000	65.231013 
4086.000000	65.235757 
4085.000000	65.237092 
4084.000000	65.235829 
4083.000000	65.233111 
4082.000000	65.230226 
4081.000000	65.228247 
4080.000000	65.228009 
4079.000000	65.229797 
4078.000000	65.233421 
4077.000000	65.238928 
4076.000000	65.246057 
4075.000000	65.254545 
4074.000000	65.264129 
4073.000000	65.274572 
4072.000000	65.285944 
4071.000000	65.298247 
4070.000000	65.312218 
4069.000000	65.328693 
4068.000000	65.348935 
4067.000000	65.374064 
4066.000000	65.404629 
4065.000000	65.440130 
4064.000000	65.478944 
4063.000000	65.518331 
4062.000000	65.555095 
4061.000000	65.586042 
4060.000000	65.608859 
4059.000000	65.622234 
4058.000000	65.626215 
4057.000000	65.621471 
4056.000000	65.609169 
4055.000000	65.590119 
4054.000000	65.564751 
4053.000000	65.532875 
4052.000000	65.494346 
4051.000000	65.449261 
4050.000000	65.398740 
4049.000000	65.345191 
4048.000000	65.292072 
4047.000000	65.243458 
4046.000000	65.203285 
4045.000000	65.174651 
4044.000000	65.158653 
4043.000000	65.155076 
4042.000000	65.162396 
4041.000000	65.178442 
4040.000000	65.200901 
4039.000000	65.228247 
4038.000000	65.259766 
4037.000000	65.295124 
4036.000000	65.333914 
4035.000000	65.375161 
4034.000000	65.416932 
4033.000000	65.456247 
4032.000000	65.489244 
4031.000000	65.512347 
4030.000000	65.522527 
4029.000000	65.518665 
4028.000000	65.501427 
4027.000000	65.473604 
4026.000000	65.438866 
4025.000000	65.401768 
4024.000000	65.365862 
4023.000000	65.333819 
4022.000000	65.306520 
4021.000000	65.283894 
4020.000000	65.264844 
4019.000000	65.248060 
4018.000000	65.232563 
4017.000000	65.218329 
4016.000000	65.205812 
4015.000000	65.195631 
4014.000000	65.188097 
4013.000000	65.183043 
4012.000000	65.179157 
4011.000000	65.174293 
4010.000000	65.165925 
4009.000000	65.152025 
4008.000000	65.131974 
4007.000000	65.106797 
4006.000000	65.079259 
4005.000000	65.053105 
4004.000000	65.032219 
4003.000000	65.019345 
4002.000000	65.015411 
4001.000000	65.018987 
4000.000000	65.026855 
3999.000000	65.034508 
3998.000000	65.037465 
3997.000000	65.032529 
3996.000000	65.018272 
3995.000000	64.995670 
3994.000000	64.967584 
3993.000000	64.938688 
3992.000000	64.913845 
3991.000000	64.897823 
3990.000000	64.893865 
3989.000000	64.903807 
3988.000000	64.927506 
3987.000000	64.963126 
3986.000000	65.007328 
3985.000000	65.055632 
3984.000000	65.103077 
3983.000000	65.144920 
3982.000000	65.177321 
3981.000000	65.198063 
3980.000000	65.207028 
3979.000000	65.206313 
3978.000000	65.199804 
3977.000000	65.192222 
3976.000000	65.188050 
3975.000000	65.190792 
3974.000000	65.202045 
3973.000000	65.221357 
3972.000000	65.245938 
3971.000000	65.272521 
3970.000000	65.296912 
3969.000000	65.315532 
3968.000000	65.325331 
3967.000000	65.324735 
3966.000000	65.313124 
3965.000000	65.290927 
3964.000000	65.259432 
3963.000000	65.220260 
3962.000000	65.175628 
3961.000000	65.128254 
3960.000000	65.081334 
3959.000000	65.038228 
3958.000000	65.002083 
3957.000000	64.975428 
3956.000000	64.959239 
3955.000000	64.952898 
3954.000000	64.954662 
3953.000000	64.962053 
3952.000000	64.972209 
3951.000000	64.982891 
3950.000000	64.992880 
3949.000000	65.002560 
3948.000000	65.013337 
3947.000000	65.027427 
3946.000000	65.047144 
3945.000000	65.073919 
3944.000000	65.107846 
3943.000000	65.147161 
3942.000000	65.188336 
3941.000000	65.226435 
3940.000000	65.256261 
3939.000000	65.273189 
3938.000000	65.274262 
3937.000000	65.258622 
3936.000000	65.227890 
3935.000000	65.185666 
3934.000000	65.136885 
3933.000000	65.086603 
3932.000000	65.039277 
3931.000000	64.997577 
3930.000000	64.962267 
3929.000000	64.932751 
3928.000000	64.907860 
3927.000000	64.886736 
3926.000000	64.869642 
3925.000000	64.858245 
3924.000000	64.855504 
3923.000000	64.864373 
3922.000000	64.886856 
3921.000000	64.922809 
3920.000000	64.969539 
3919.000000	65.021991 
3918.000000	65.073633 
3917.000000	65.117883 
3916.000000	65.149545 
3915.000000	65.165638 
3914.000000	65.166044 
3913.000000	65.153336 
3912.000000	65.131545 
3911.000000	65.104985 
3910.000000	65.077257 
3909.000000	65.050601 
3908.000000	65.025997 
3907.000000	65.003824 
3906.000000	64.984464 
3905.000000	64.968967 
3904.000000	64.958977 
3903.000000	64.956521 
3902.000000	64.963293 
3901.000000	64.979887 
3900.000000	65.005135 
3899.000000	65.036082 
3898.000000	65.068531 
3897.000000	65.097808 
3896.000000	65.120077 
3895.000000	65.133237 
3894.000000	65.136981 
3893.000000	65.133452 
3892.000000	65.126276 
3891.000000	65.120172 
3890.000000	65.119290 
3889.000000	65.126800 
3888.000000	65.144371 
3887.000000	65.171790 
3886.000000	65.207386 
3885.000000	65.247821 
3884.000000	65.289163 
3883.000000	65.326857 
3882.000000	65.356707 
3881.000000	65.375065 
3880.000000	65.379571 
3879.000000	65.369582 
3878.000000	65.346288 
3877.000000	65.312695 
3876.000000	65.272951 
3875.000000	65.231943 
3874.000000	65.194225 
3873.000000	65.163087 
3872.000000	65.139865 
3871.000000	65.123844 
3870.000000	65.112280 
3869.000000	65.101051 
3868.000000	65.085959 
3867.000000	65.063595 
3866.000000	65.032982 
3865.000000	64.995098 
3864.000000	64.953875 
3863.000000	64.914417 
3862.000000	64.882707 
3861.000000	64.864063 
3860.000000	64.862346 
3859.000000	64.878678 
3858.000000	64.911413 
3857.000000	64.956259 
3856.000000	65.007162 
3855.000000	65.057468 
3854.000000	65.101218 
3853.000000	65.134263 
3852.000000	65.154767 
3851.000000	65.163111 
3850.000000	65.161371 
3849.000000	65.152359 
3848.000000	65.139198 
3847.000000	65.124392 
3846.000000	65.110278 
3845.000000	65.098738 
3844.000000	65.091967 
3843.000000	65.092062 
3842.000000	65.100955 
3841.000000	65.119910 
3840.000000	65.148925 
3839.000000	65.186500 
3838.000000	65.229177 
3837.000000	65.272235 
3836.000000	65.310406 
3835.000000	65.338897 
3834.000000	65.354490 
3833.000000	65.356230 
3832.000000	65.345692 
3831.000000	65.326547 
3830.000000	65.303921 
3829.000000	65.283036 
3828.000000	65.268087 
3827.000000	65.261840 
3826.000000	65.265464 
3825.000000	65.278363 
3824.000000	65.298509 
3823.000000	65.323138 
3822.000000	65.349411 
3821.000000	65.374422 
3820.000000	65.395569 
3819.000000	65.411090 
3818.000000	65.420031 
3817.000000	65.422153 
3816.000000	65.418195 
3815.000000	65.409326 
3814.000000	65.397238 
3813.000000	65.384125 
3812.000000	65.372014 
3811.000000	65.363121 
3810.000000	65.358924 
3809.000000	65.360283 
3808.000000	65.366935 
3807.000000	65.377426 
3806.000000	65.388774 
3805.000000	65.397214 
3804.000000	65.398073 
3803.000000	65.387248 
3802.000000	65.361738 
3801.000000	65.320491 
3800.000000	65.265059 
3799.000000	65.199327 
3798.000000	65.129303 
3797.000000	65.062117 
3796.000000	65.004491 
3795.000000	64.961600 
3794.000000	64.935946 
3793.000000	64.927172 
3792.000000	64.932489 
3791.000000	64.947652 
3790.000000	64.967918 
3789.000000	64.989304 
3788.000000	65.009188 
3787.000000	65.026998 
3786.000000	65.043258 
3785.000000	65.059304 
3784.000000	65.075993 
3783.000000	65.093636 
3782.000000	65.111327 
3781.000000	65.127348 
3780.000000	65.139412 
3779.000000	65.146017 
3778.000000	65.146851 
3777.000000	65.143418 
3776.000000	65.138626 
3775.000000	65.136313 
3774.000000	65.140247 
3773.000000	65.153241 
3772.000000	65.176177 
3771.000000	65.207767 
3770.000000	65.244674 
3769.000000	65.282177 
3768.000000	65.315198 
3767.000000	65.339517 
3766.000000	65.352749 
3765.000000	65.354800 
3764.000000	65.347766 
3763.000000	65.335392 
3762.000000	65.322303 
3761.000000	65.312981 
3760.000000	65.311098 
3759.000000	65.318799 
3758.000000	65.336394 
3757.000000	65.363049 
3756.000000	65.396809 
3755.000000	65.435338 
3754.000000	65.476083 
3753.000000	65.516901 
3752.000000	65.555620 
3751.000000	65.590357 
3750.000000	65.619182 
3749.000000	65.640211 
3748.000000	65.651845 
3747.000000	65.653014 
3746.000000	65.643596 
3745.000000	65.625095 
3744.000000	65.600275 
3743.000000	65.572857 
3742.000000	65.546512 
3741.000000	65.524101 
3740.000000	65.506553 
3739.000000	65.492701 
3738.000000	65.479516 
3737.000000	65.462970 
3736.000000	65.438938 
3735.000000	65.404844 
3734.000000	65.360403 
3733.000000	65.308547 
3732.000000	65.254282 
3731.000000	65.204524 
3730.000000	65.166425 
3729.000000	65.145850 
3728.000000	65.146064 
3727.000000	65.166950 
3726.000000	65.205025 
3725.000000	65.253829 
3724.000000	65.305399 
3723.000000	65.351533 
3722.000000	65.385317 
3721.000000	65.402340 
3720.000000	65.401148 
3719.000000	65.383505 
3718.000000	65.353631 
3717.000000	65.317416 
3716.000000	65.280890 
3715.000000	65.249371 
3714.000000	65.226268 
3713.000000	65.213036 
3712.000000	65.209221 
3711.000000	65.212845 
3710.000000	65.221357 
3709.000000	65.232324 
3708.000000	65.244030 
3707.000000	65.254950 
3706.000000	65.264463 
3705.000000	65.272045 
3704.000000	65.277886 
3703.000000	65.282249 
3702.000000	65.285944 
3701.000000	65.290236 
3700.000000	65.296840 
3699.000000	65.307545 
3698.000000	65.323972 
3697.000000	65.347075 
3696.000000	65.376901 
3695.000000	65.412259 
3694.000000	65.450692 
3693.000000	65.488791 
3692.000000	65.522837 
3691.000000	65.549445 
3690.000000	65.566086 
3689.000000	65.571308 
3688.000000	65.565037 
3687.000000	65.548586 
3686.000000	65.524387 
3685.000000	65.495824 
3684.000000	65.467000 
3683.000000	65.442109 
3682.000000	65.425491 
3681.000000	65.420603 
3680.000000	65.429472 
3679.000000	65.452027 
3678.000000	65.486145 
3677.000000	65.527415 
3676.000000	65.569972 
3675.000000	65.607404 
3674.000000	65.633606 
3673.000000	65.644121 
3672.000000	65.636944 
3671.000000	65.612554 
3670.000000	65.573954 
3669.000000	65.525722 
3668.000000	65.473341 
3667.000000	65.421962 
3666.000000	65.375590 
3665.000000	65.336656 
3664.000000	65.306043 
3663.000000	65.283155 
3662.000000	65.266585 
3661.000000	65.254688 
3660.000000	65.246129 
3659.000000	65.239906 
3658.000000	65.235614 
3657.000000	65.233445 
3656.000000	65.233993 
3655.000000	65.237951 
3654.000000	65.245866 
3653.000000	65.257740 
3652.000000	65.272998 
3651.000000	65.290617 
3650.000000	65.309143 
3649.000000	65.327167 
3648.000000	65.343308 
3647.000000	65.356516 
3646.000000	65.366220 
3645.000000	65.372347 
3644.000000	65.375065 
3643.000000	65.374684 
3642.000000	65.371537 
3641.000000	65.366196 
3640.000000	65.359210 
3639.000000	65.351343 
3638.000000	65.343213 
3637.000000	65.335392 
3636.000000	65.328526 
3635.000000	65.323424 
3634.000000	65.320682 
3633.000000	65.320754 
3632.000000	65.324091 
3631.000000	65.330958 
3630.000000	65.341544 
3629.000000	65.355515 
3628.000000	65.372180 
3627.000000	65.390205 
3626.000000	65.407824 
3625.000000	65.422940 
3624.000000	65.433502 
3623.000000	65.437889 
3622.000000	65.435290 
3621.000000	65.426015 
3620.000000	65.411567 
3619.000000	65.394139 
3618.000000	65.376400 
3617.000000	65.360713 
3616.000000	65.348601 
3615.000000	65.340495 
3614.000000	65.335679 
3613.000000	65.332722 
3612.000000	65.329980 
3611.000000	65.326309 
3610.000000	65.321588 
3609.000000	65.316820 
3608.000000	65.313720 
3607.000000	65.314126 
3606.000000	65.319132 
3605.000000	65.328431 
3604.000000	65.340304 
3603.000000	65.351819 
3602.000000	65.359497 
3601.000000	65.360593 
3600.000000	65.353703 
3599.000000	65.339422 
3598.000000	65.320253 
3597.000000	65.299987 
3596.000000	65.282702 
3595.000000	65.271782 
3594.000000	65.269041 
3593.000000	65.274190 
3592.000000	65.285277 
3591.000000	65.299367 
3590.000000	65.313339 
3589.000000	65.324807 
3588.000000	65.332460 
3587.000000	65.336179 
3586.000000	65.336918 
3585.000000	65.335798 
3584.000000	65.333986 
3583.000000	65.332031 
3582.000000	65.329957 
3581.000000	65.327358 
3580.000000	65.323877 
3579.000000	65.319490 
3578.000000	65.314555 
3577.000000	65.309858 
3576.000000	65.306162 
3575.000000	65.303945 
3574.000000	65.303039 
3573.000000	65.302753 
3572.000000	65.301990 
3571.000000	65.299534 
3570.000000	65.294742 
3569.000000	65.287137 
3568.000000	65.276813 
3567.000000	65.264177 
3566.000000	65.249633 
3565.000000	65.233635 
3564.000000	65.216493 
3563.000000	65.198636 
3562.000000	65.180635 
3561.000000	65.163302 
3560.000000	65.147757 
3559.000000	65.135121 
3558.000000	65.126395 
3557.000000	65.122127 
3556.000000	65.122389 
3555.000000	65.126705 
3554.000000	65.134048 
3553.000000	65.143251 
3552.000000	65.153336 
3551.000000	65.163731 
3550.000000	65.174269 
3549.000000	65.185093 
3548.000000	65.196299 
3547.000000	65.207719 
3546.000000	65.218782 
3545.000000	65.228843 
3544.000000	65.237045 
3543.000000	65.242862 
3542.000000	65.245962 
3541.000000	65.246295 
3540.000000	65.244054 
3539.000000	65.239500 
3538.000000	65.232872 
3537.000000	65.224885 
3536.000000	65.216040 
3535.000000	65.207171 
3534.000000	65.198898 
3533.000000	65.191650 
3532.000000	65.185666 
3531.000000	65.180897 
3530.000000	65.177130 
3529.000000	65.174245 
3528.000000	65.172362 
3527.000000	65.171837 
3526.000000	65.173292 
3525.000000	65.177226 
3524.000000	65.183806 
3523.000000	65.192508 
3522.000000	65.201902 
3521.000000	65.209984 
3520.000000	65.214419 
3519.000000	65.213251 
3518.000000	65.205383 
3517.000000	65.190887 
3516.000000	65.171623 
3515.000000	65.150117 
3514.000000	65.129256 
3513.000000	65.111207 
3512.000000	65.096902 
3511.000000	65.086102 
3510.000000	65.077495 
3509.000000	65.069437 
3508.000000	65.060710 
3507.000000	65.050792 
3506.000000	65.040373 
3505.000000	65.030860 
3504.000000	65.023827 
3503.000000	65.020751 
3502.000000	65.022277 
3501.000000	65.027928 
3500.000000	65.035891 
3499.000000	65.043807 
3498.000000	65.049242 
3497.000000	65.050387 
3496.000000	65.046763 
3495.000000	65.039730 
3494.000000	65.032434 
3493.000000	65.028953 
3492.000000	65.033483 
3491.000000	65.049290 
3490.000000	65.077662 
3489.000000	65.117454 
3488.000000	65.165162 
3487.000000	65.215277 
3486.000000	65.261530 
3485.000000	65.298438 
3484.000000	65.322113 
3483.000000	65.330982 
3482.000000	65.325951 
3481.000000	65.310263 
3480.000000	65.287733 
3479.000000	65.261983 
3478.000000	65.234971 
3477.000000	65.207171 
3476.000000	65.177416 
3475.000000	65.143918 
3474.000000	65.105009 
3473.000000	65.060472 
3472.000000	65.011692 
3471.000000	64.961647 
3470.000000	64.914178 
3469.000000	64.873218 
3468.000000	64.841723 
3467.000000	64.821362 
3466.000000	64.811825 
3465.000000	64.811635 
3464.000000	64.818382 
3463.000000	64.830112 
3462.000000	64.845275 
3461.000000	64.863634 
3460.000000	64.885711 
3459.000000	64.912652 
3458.000000	64.945054 
3457.000000	64.982748 
3456.000000	65.024256 
3455.000000	65.066933 
3454.000000	65.107178 
3453.000000	65.141034 
3452.000000	65.165090 
3451.000000	65.176987 
3450.000000	65.175986 
3449.000000	65.162920 
3448.000000	65.140080 
3447.000000	65.110850 
3446.000000	65.079236 
3445.000000	65.049052 
3444.000000	65.023279 
3443.000000	65.004014 
3442.000000	64.992308 
3441.000000	64.988183 
3440.000000	64.990758 
3439.000000	64.998722 
3438.000000	65.010738 
3437.000000	65.025544 
3436.000000	65.042400 
3435.000000	65.060567 
3434.000000	65.079736 
3433.000000	65.099620 
3432.000000	65.119647 
3431.000000	65.138983 
3430.000000	65.156340 
3429.000000	65.170359 
3428.000000	65.179848 
3427.000000	65.183901 
3426.000000	65.182185 
3425.000000	65.175414 
3424.000000	65.165114 
3423.000000	65.153431 
3422.000000	65.142822 
3421.000000	65.135765 
3420.000000	65.134048 
3419.000000	65.138459 
3418.000000	65.148639 
3417.000000	65.163111 
3416.000000	65.179467 
3415.000000	65.195107 
3414.000000	65.207242 
3413.000000	65.213608 
3412.000000	65.213036 
3411.000000	65.205502 
3410.000000	65.192317 
3409.000000	65.175652 
3408.000000	65.158224 
3407.000000	65.142560 
3406.000000	65.130686 
3405.000000	65.123796 
3404.000000	65.121793 
3403.000000	65.123558 
3402.000000	65.127658 
3401.000000	65.132451 
3400.000000	65.136599 
3399.000000	65.139389 
3398.000000	65.140771 
3397.000000	65.141081 
3396.000000	65.140795 
3395.000000	65.140128 
3394.000000	65.138840 
3393.000000	65.136480 
3392.000000	65.132570 
3391.000000	65.127205 
3390.000000	65.121173 
3389.000000	65.116119 
3388.000000	65.114378 
3387.000000	65.118265 
3386.000000	65.129208 
3385.000000	65.147233 
3384.000000	65.170454 
3383.000000	65.195298 
3382.000000	65.217113 
3381.000000	65.231251 
3380.000000	65.234112 
3379.000000	65.224075 
3378.000000	65.201807 
3377.000000	65.170288 
3376.000000	65.134215 
3375.000000	65.098524 
3374.000000	65.067744 
3373.000000	65.044975 
3372.000000	65.031790 
3371.000000	65.028142 
3370.000000	65.033006 
3369.000000	65.044760 
3368.000000	65.061902 
3367.000000	65.083265 
3366.000000	65.107870 
3365.000000	65.134763 
3364.000000	65.162897 
3363.000000	65.190696 
3362.000000	65.216493 
3361.000000	65.238547 
3360.000000	65.255618 
3359.000000	65.267133 
3358.000000	65.273714 
3357.000000	65.276741 
3356.000000	65.278029 
3355.000000	65.279364 
3354.000000	65.281987 
3353.000000	65.286469 
3352.000000	65.292644 
3351.000000	65.299797 
3350.000000	65.307044 
3349.000000	65.313506 
3348.000000	65.318679 
3347.000000	65.322375 
3346.000000	65.324378 
3345.000000	65.324616 
3344.000000	65.322971 
3343.000000	65.319442 
3342.000000	65.314078 
3341.000000	65.307354 
3340.000000	65.300202 
3339.000000	65.293931 
3338.000000	65.290069 
3337.000000	65.290260 
3336.000000	65.295743 
3335.000000	65.306901 
3334.000000	65.323257 
3333.000000	65.343260 
3332.000000	65.364837 
3331.000000	65.385556 
3330.000000	65.403199 
3329.000000	65.416288 
3328.000000	65.424418 
3327.000000	65.427923 
3326.000000	65.427756 
3325.000000	65.425181 
3324.000000	65.421056 
3323.000000	65.416073 
3322.000000	65.410041 
3321.000000	65.402626 
3320.000000	65.392947 
3319.000000	65.380644 
3318.000000	65.365505 
3317.000000	65.347957 
3316.000000	65.328741 
3315.000000	65.308713 
3314.000000	65.288829 
3313.000000	65.269684 
3312.000000	65.251755 
3311.000000	65.235161 
3310.000000	65.220260 
3309.000000	65.207529 
3308.000000	65.197539 
3307.000000	65.191030 
3306.000000	65.188384 
3305.000000	65.189480 
3304.000000	65.193510 
3303.000000	65.199041 
3302.000000	65.203976 
3301.000000	65.206503 
3300.000000	65.205383 
3299.000000	65.200448 
3298.000000	65.192961 
3297.000000	65.185046 
3296.000000	65.179419 
3295.000000	65.178298 
3294.000000	65.182447 
3293.000000	65.190911 
3292.000000	65.201258 
3291.000000	65.210103 
3290.000000	65.214180 
3289.000000	65.211415 
3288.000000	65.201640 
3287.000000	65.186429 
3286.000000	65.168619 
3285.000000	65.151524 
3284.000000	65.137720 
3283.000000	65.128493 
3282.000000	65.123534 
3281.000000	65.121436 
3280.000000	65.120172 
3279.000000	65.118074 
3278.000000	65.114641 
3277.000000	65.110564 
3276.000000	65.107679 
3275.000000	65.108013 
3274.000000	65.113282 
3273.000000	65.123963 
3272.000000	65.139293 
3271.000000	65.157723 
3270.000000	65.177249 
3269.000000	65.196108 
3268.000000	65.213108 
3267.000000	65.227866 
3266.000000	65.240597 
3265.000000	65.251708 
3264.000000	65.261745 
3263.000000	65.271139 
3262.000000	65.280127 
3261.000000	65.288925 
3260.000000	65.297436 
3259.000000	65.305590 
3258.000000	65.312910 
3257.000000	65.318846 
3256.000000	65.322303 
3255.000000	65.321874 
3254.000000	65.316224 
3253.000000	65.304565 
3252.000000	65.286898 
3251.000000	65.264081 
3250.000000	65.238404 
3249.000000	65.212750 
3248.000000	65.189909 
3247.000000	65.172004 
3246.000000	65.159821 
3245.000000	65.152955 
3244.000000	65.149903 
3243.000000	65.148830 
3242.000000	65.148282 
3241.000000	65.147471 
3240.000000	65.146446 
3239.000000	65.145874 
3238.000000	65.146350 
3237.000000	65.148258 
3236.000000	65.151238 
3235.000000	65.154170 
3234.000000	65.155363 
3233.000000	65.153169 
3232.000000	65.146660 
3231.000000	65.135884 
3230.000000	65.122222 
3229.000000	65.107989 
3228.000000	65.096044 
3227.000000	65.089154 
3226.000000	65.089321 
3225.000000	65.097498 
3224.000000	65.113377 
3223.000000	65.135455 
3222.000000	65.161561 
3221.000000	65.189123 
3220.000000	65.215802 
3219.000000	65.239548 
3218.000000	65.259242 
3217.000000	65.274596 
3216.000000	65.286254 
3215.000000	65.295457 
3214.000000	65.303635 
3213.000000	65.311956 
3212.000000	65.320777 
3211.000000	65.329790 
3210.000000	65.337467 
3209.000000	65.341830 
3208.000000	65.340781 
3207.000000	65.332818 
3206.000000	65.317749 
3205.000000	65.296959 
3204.000000	65.273380 
3203.000000	65.251159 
3202.000000	65.234637 
3201.000000	65.227532 
3200.000000	65.231752 
3199.000000	65.247035 
3198.000000	65.270757 
3197.000000	65.298366 
3196.000000	65.324306 
3195.000000	65.343093 
3194.000000	65.350508 
3193.000000	65.344333 
3192.000000	65.324544 
3191.000000	65.293312 
3190.000000	65.254497 
3189.000000	65.212893 
3188.000000	65.173077 
3187.000000	65.139031 
3186.000000	65.113997 
3185.000000	65.099930 
3184.000000	65.097594 
3183.000000	65.106487 
3182.000000	65.125322 
3181.000000	65.152001 
3180.000000	65.183568 
3179.000000	65.216922 
3178.000000	65.248799 
3177.000000	65.276646 
3176.000000	65.298485 
3175.000000	65.313577 
3174.000000	65.322470 
3173.000000	65.326595 
3172.000000	65.327954 
3171.000000	65.328645 
3170.000000	65.330195 
3169.000000	65.333437 
3168.000000	65.338230 
3167.000000	65.343737 
3166.000000	65.348720 
3165.000000	65.352058 
3164.000000	65.352916 
3163.000000	65.351104 
3162.000000	65.347051 
3161.000000	65.341186 
3160.000000	65.333986 
3159.000000	65.325736 
3158.000000	65.316414 
3157.000000	65.305876 
3156.000000	65.294051 
3155.000000	65.281176 
3154.000000	65.267705 
3153.000000	65.254735 
3152.000000	65.243077 
3151.000000	65.233373 
3150.000000	65.225243 
3149.000000	65.217661 
3148.000000	65.208983 
3147.000000	65.197634 
3146.000000	65.182495 
3145.000000	65.163564 
3144.000000	65.142130 
3143.000000	65.120649 
3142.000000	65.102195 
3141.000000	65.089583 
3140.000000	65.084576 
3139.000000	65.087318 
3138.000000	65.095925 
3137.000000	65.106987 
3136.000000	65.115928 
3135.000000	65.118360 
3134.000000	65.110945 
3133.000000	65.092587 
3132.000000	65.064430 
3131.000000	65.030169 
3130.000000	64.995098 
3129.000000	64.965128 
3128.000000	64.945101 
3127.000000	64.937973 
3126.000000	64.944314 
3125.000000	64.962100 
3124.000000	64.987301 
3123.000000	65.014767 
3122.000000	65.039587 
3121.000000	65.058040 
3120.000000	65.068173 
3119.000000	65.070009 
3118.000000	65.065193 
3117.000000	65.056371 
3116.000000	65.046143 
3115.000000	65.036725 
3114.000000	65.029263 
3113.000000	65.023779 
3112.000000	65.019392 
3111.000000	65.014958 
3110.000000	65.009880 
3109.000000	65.004086 
3108.000000	64.998841 
3107.000000	64.995932 
3106.000000	64.997768 
3105.000000	65.006303 
3104.000000	65.023040 
3103.000000	65.047955 
3102.000000	65.079855 
3101.000000	65.116286 
3100.000000	65.154314 
3099.000000	65.190720 
3098.000000	65.222501 
3097.000000	65.247368 
3096.000000	65.263724 
3095.000000	65.270900 
3094.000000	65.268826 
3093.000000	65.258193 
3092.000000	65.240263 
3091.000000	65.216851 
3090.000000	65.190505 
3089.000000	65.164160 
3088.000000	65.141010 
3087.000000	65.124058 
3086.000000	65.115284 
3085.000000	65.115427 
3084.000000	65.123701 
3083.000000	65.138030 
3082.000000	65.155124 
3081.000000	65.171337 
3080.000000	65.183615 
3079.000000	65.189790 
3078.000000	65.189218 
3077.000000	65.182471 
3076.000000	65.171051 
3075.000000	65.156912 
3074.000000	65.141558 
3073.000000	65.125846 
3072.000000	65.109896 
3071.000000	65.093302 
3070.000000	65.075731 
3069.000000	65.057229 
3068.000000	65.038537 
3067.000000	65.021204 
3066.000000	65.007209 
3065.000000	64.998221 
3064.000000	64.995384 
3063.000000	64.998865 
3062.000000	65.007948 
3061.000000	65.021204 
3060.000000	65.036869 
3059.000000	65.053367 
3058.000000	65.069580 
3057.000000	65.085029 
3056.000000	65.099668 
3055.000000	65.113782 
3054.000000	65.127563 
3053.000000	65.140795 
3052.000000	65.153145 
3051.000000	65.163946 
3050.000000	65.172696 
3049.000000	65.179395 
3048.000000	65.184521 
3047.000000	65.189266 
3046.000000	65.195250 
3045.000000	65.204000 
3044.000000	65.216517 
3043.000000	65.232825 
3042.000000	65.251851 
3041.000000	65.271520 
3040.000000	65.289044 
3039.000000	65.301513 
3038.000000	65.306711 
3037.000000	65.303730 
3036.000000	65.293121 
3035.000000	65.276908 
3034.000000	65.258312 
3033.000000	65.240740 
3032.000000	65.227150 
3031.000000	65.219163 
3030.000000	65.216779 
3029.000000	65.218424 
3028.000000	65.221548 
3027.000000	65.223336 
3026.000000	65.221428 
3025.000000	65.214776 
3024.000000	65.203976 
3023.000000	65.191102 
3022.000000	65.178894 
3021.000000	65.170216 
3020.000000	65.167045 
3019.000000	65.170216 
3018.000000	65.178799 
3017.000000	65.190815 
3016.000000	65.203905 
3015.000000	65.216088 
3014.000000	65.226244 
3013.000000	65.234375 
3012.000000	65.241384 
3011.000000	65.248560 
3010.000000	65.256977 
3009.000000	65.267109 
3008.000000	65.278577 
3007.000000	65.290093 
3006.000000	65.299820 
3005.000000	65.306162 
3004.000000	65.308022 
3003.000000	65.305233 
3002.000000	65.298342 
3001.000000	65.288519 
3000.000000	65.276980 
2999.000000	65.264701 
2998.000000	65.251946 
2997.000000	65.238451 
2996.000000	65.223288 
2995.000000	65.205669 
2994.000000	65.185046 
2993.000000	65.161395 
2992.000000	65.135693 
2991.000000	65.109539 
2990.000000	65.085291 
2989.000000	65.065360 
2988.000000	65.051913 
2987.000000	65.046477 
2986.000000	65.049505 
2985.000000	65.060281 
2984.000000	65.076708 
2983.000000	65.095806 
2982.000000	65.114116 
2981.000000	65.128183 
2980.000000	65.135169 
2979.000000	65.133452 
2978.000000	65.122842 
2977.000000	65.104675 
2976.000000	65.081477 
2975.000000	65.056490 
2974.000000	65.032935 
2973.000000	65.013504 
2972.000000	64.999723 
2971.000000	64.992141 
2970.000000	64.990329 
2969.000000	64.993143 
2968.000000	64.999365 
2967.000000	65.007829 
2966.000000	65.017700 
2965.000000	65.028595 
2964.000000	65.040254 
2963.000000	65.052580 
2962.000000	65.065264 
2961.000000	65.077948 
2960.000000	65.090107 
2959.000000	65.101242 
2958.000000	65.110850 
2957.000000	65.118670 
2956.000000	65.124726 
2955.000000	65.129113 
2954.000000	65.132045 
2953.000000	65.133666 
2952.000000	65.133976 
2951.000000	65.133047 
2950.000000	65.131092 
2949.000000	65.128493 
2948.000000	65.125679 
2947.000000	65.122985 
2946.000000	65.120577 
2945.000000	65.118265 
2944.000000	65.115499 
2943.000000	65.111374 
2942.000000	65.105009 
2941.000000	65.095877 
2940.000000	65.084075 
2939.000000	65.070390 
2938.000000	65.056252 
2937.000000	65.043687 
2936.000000	65.034794 
2935.000000	65.031242 
2934.000000	65.033793 
2933.000000	65.042066 
2932.000000	65.054225 
2931.000000	65.067529 
2930.000000	65.078687 
2929.000000	65.084576 
2928.000000	65.082788 
2927.000000	65.072464 
2926.000000	65.054225 
2925.000000	65.030217 
2924.000000	65.003633 
2923.000000	64.978003 
2922.000000	64.956521 
2921.000000	64.941453 
2920.000000	64.933609 
2919.000000	64.932584 
2918.000000	64.936733 
2917.000000	64.944124 
2916.000000	64.952898 
2915.000000	64.961910 
2914.000000	64.970541 
2913.000000	64.979147 
2912.000000	64.988207 
2911.000000	64.998364 
2910.000000	65.009570 
2909.000000	65.021419 
2908.000000	65.032839 
2907.000000	65.042471 
2906.000000	65.049171 
2905.000000	65.052223 
2904.000000	65.051412 
2903.000000	65.047216 
2902.000000	65.040659 
2901.000000	65.033149 
2900.000000	65.026140 
2899.000000	65.021038 
2898.000000	65.018939 
2897.000000	65.020656 
2896.000000	65.026450 
2895.000000	65.036249 
2894.000000	65.049052 
2893.000000	65.063333 
2892.000000	65.076732 
2891.000000	65.086650 
2890.000000	65.090465 
2889.000000	65.085959 
2888.000000	65.072131 
2887.000000	65.049457 
2886.000000	65.020203 
2885.000000	64.988064 
2884.000000	64.957761 
2883.000000	64.933896 
2882.000000	64.920282 
2881.000000	64.919137 
2880.000000	64.930558 
2879.000000	64.952683 
2878.000000	64.982223 
2877.000000	65.015101 
2876.000000	65.047502 
2875.000000	65.076398 
2874.000000	65.100073 
2873.000000	65.118074 
2872.000000	65.130829 
2871.000000	65.139198 
2870.000000	65.143704 
2869.000000	65.144348 
2868.000000	65.140724 
2867.000000	65.132284 
2866.000000	65.119051 
2865.000000	65.101623 
2864.000000	65.081834 
2863.000000	65.062069 
2862.000000	65.045046 
2861.000000	65.033054 
2860.000000	65.027356 
2859.000000	65.027856 
2858.000000	65.033221 
2857.000000	65.041399 
2856.000000	65.050029 
2855.000000	65.057277 
2854.000000	65.062022 
2853.000000	65.064239 
2852.000000	65.064620 
2851.000000	65.064477 
2850.000000	65.065050 
2849.000000	65.067338 
2848.000000	65.071892 
2847.000000	65.078926 
2846.000000	65.088438 
2845.000000	65.100359 
2844.000000	65.114378 
2843.000000	65.129995 
2842.000000	65.146422 
2841.000000	65.162229 
2840.000000	65.175700 
2839.000000	65.184950 
2838.000000	65.188503 
2837.000000	65.185666 
2836.000000	65.176939 
2835.000000	65.163898 
2834.000000	65.148830 
2833.000000	65.134644 
2832.000000	65.123820 
2831.000000	65.117931 
2830.000000	65.117311 
2829.000000	65.121030 
2828.000000	65.127158 
2827.000000	65.133404 
2826.000000	65.137696 
2825.000000	65.138769 
2824.000000	65.136384 
2823.000000	65.131402 
2822.000000	65.125370 
2821.000000	65.119957 
2820.000000	65.116715 
2819.000000	65.116405 
2818.000000	65.119171 
2817.000000	65.124344 
2816.000000	65.130662 
2815.000000	65.136647 
2814.000000	65.141105 
2813.000000	65.143227 
2812.000000	65.143084 
2811.000000	65.141463 
2810.000000	65.139627 
2809.000000	65.138864 
2808.000000	65.140271 
2807.000000	65.144085 
2806.000000	65.149831 
2805.000000	65.156126 
2804.000000	65.161204 
2803.000000	65.163254 
2802.000000	65.161037 
2801.000000	65.154194 
2800.000000	65.143394 
2799.000000	65.130352 
2798.000000	65.117430 
2797.000000	65.107178 
2796.000000	65.101790 
2795.000000	65.102672 
2794.000000	65.110206 
2793.000000	65.123748 
2792.000000	65.141844 
2791.000000	65.162467 
2790.000000	65.183353 
2789.000000	65.202474 
2788.000000	65.218257 
2787.000000	65.229773 
2786.000000	65.236711 
2785.000000	65.239429 
2784.000000	65.238571 
2783.000000	65.235209 
2782.000000	65.230226 
2781.000000	65.224552 
2780.000000	65.218377 
2779.000000	65.211725 
2778.000000	65.203952 
2777.000000	65.194225 
2776.000000	65.181708 
2775.000000	65.165805 
2774.000000	65.146780 
2773.000000	65.125775 
2772.000000	65.104651 
2771.000000	65.085792 
2770.000000	65.071392 
2769.000000	65.062999 
2768.000000	65.061092 
2767.000000	65.064787 
2766.000000	65.072107 
2765.000000	65.080618 
2764.000000	65.087866 
2763.000000	65.092253 
2762.000000	65.093135 
2761.000000	65.091252 
2760.000000	65.087962 
2759.000000	65.085220 
2758.000000	65.084600 
2757.000000	65.087056 
2756.000000	65.092754 
2755.000000	65.100812 
2754.000000	65.110135 
2753.000000	65.119266 
2752.000000	65.127420 
2751.000000	65.133976 
2750.000000	65.138721 
2749.000000	65.141487 
2748.000000	65.142178 
2747.000000	65.140676 
2746.000000	65.136599 
2745.000000	65.129828 
2744.000000	65.120625 
2743.000000	65.109848 
2742.000000	65.098738 
2741.000000	65.088820 
2740.000000	65.081644 
2739.000000	65.077972 
2738.000000	65.077733 
2737.000000	65.079808 
2736.000000	65.082573 
2735.000000	65.084075 
2734.000000	65.082955 
2733.000000	65.078687 
2732.000000	65.072059 
2731.000000	65.064764 
2730.000000	65.059113 
2729.000000	65.057229 
2728.000000	65.060472 
2727.000000	65.068984 
2726.000000	65.081691 
2725.000000	65.096521 
2724.000000	65.110969 
2723.000000	65.122747 
2722.000000	65.130257 
2721.000000	65.132927 
2720.000000	65.131163 
2719.000000	65.126180 
2718.000000	65.119385 
2717.000000	65.112066 
2716.000000	65.105104 
2715.000000	65.098762 
2714.000000	65.092992 
2713.000000	65.087580 
2712.000000	65.082573 
2711.000000	65.078425 
2710.000000	65.076041 
2709.000000	65.076589 
2708.000000	65.081262 
2707.000000	65.090918 
2706.000000	65.105509 
2705.000000	65.124201 
2704.000000	65.145397 
2703.000000	65.166878 
2702.000000	65.186262 
2701.000000	65.201330 
2700.000000	65.210437 
2699.000000	65.212750 
2698.000000	65.208363 
2697.000000	65.198254 
2696.000000	65.184068 
2695.000000	65.167808 
2694.000000	65.151643 
2693.000000	65.137314 
2692.000000	65.126061 
2691.000000	65.118432 
2690.000000	65.114235 
2689.000000	65.112590 
2688.000000	65.112233 
2687.000000	65.111899 
2686.000000	65.110611 
2685.000000	65.107941 
2684.000000	65.103960 
2683.000000	65.099334 
2682.000000	65.094923 
2681.000000	65.091395 
2680.000000	65.088820 
2679.000000	65.086555 
2678.000000	65.083527 
2677.000000	65.078496 
2676.000000	65.070414 
2675.000000	65.058970 
2674.000000	65.044736 
2673.000000	65.029239 
2672.000000	65.014553 
2671.000000	65.002655 
2670.000000	64.995145 
2669.000000	64.992547 
2668.000000	64.994502 
2667.000000	64.999604 
2666.000000	65.006065 
2665.000000	65.012240 
2664.000000	65.017151 
2663.000000	65.020656 
2662.000000	65.023279 
2661.000000	65.025973 
2660.000000	65.029597 
2659.000000	65.034508 
2658.000000	65.040206 
2657.000000	65.045452 
2656.000000	65.048789 
2655.000000	65.048861 
2654.000000	65.044736 
2653.000000	65.036273 
2652.000000	65.024399 
2651.000000	65.010547 
2650.000000	64.996552 
2649.000000	64.983987 
2648.000000	64.973902 
2647.000000	64.966750 
2646.000000	64.962410 
2645.000000	64.960241 
2644.000000	64.959621 
2643.000000	64.959979 
2642.000000	64.961028 
2641.000000	64.962649 
2640.000000	64.964842 
2639.000000	64.967393 
2638.000000	64.969921 
2637.000000	64.971899 
2636.000000	64.972639 
2635.000000	64.971756 
2634.000000	64.969396 
2633.000000	64.966440 
2632.000000	64.964389 
2631.000000	64.965271 
2630.000000	64.971089 
2629.000000	64.983487 
2628.000000	65.003061 
2627.000000	65.029168 
2626.000000	65.059685 
2625.000000	65.091609 
2624.000000	65.121388 
2623.000000	65.145754 
2622.000000	65.162348 
2621.000000	65.170216 
2620.000000	65.169739 
2619.000000	65.162611 
2618.000000	65.151047 
2617.000000	65.137529 
2616.000000	65.123867 
2615.000000	65.111207 
2614.000000	65.099620 
2613.000000	65.088486 
2612.000000	65.076756 
2611.000000	65.063595 
2610.000000	65.048623 
2609.000000	65.032196 
2608.000000	65.015482 
2607.000000	65.000271 
2606.000000	64.988565 
2605.000000	64.982080 
2604.000000	64.982104 
2603.000000	64.989018 
2602.000000	65.002226 
2601.000000	65.020322 
2600.000000	65.041160 
2599.000000	65.062379 
2598.000000	65.081620 
2597.000000	65.097022 
2596.000000	65.107393 
2595.000000	65.112376 
2594.000000	65.112590 
2593.000000	65.109205 
2592.000000	65.103769 
2591.000000	65.097951 
2590.000000	65.093207 
2589.000000	65.090274 
2588.000000	65.089368 
2587.000000	65.090012 
2586.000000	65.091490 
2585.000000	65.093064 
2584.000000	65.094137 
2583.000000	65.094614 
2582.000000	65.094709 
2581.000000	65.094923 
2580.000000	65.095710 
2579.000000	65.097284 
2578.000000	65.099334 
2577.000000	65.101075 
2576.000000	65.101480 
2575.000000	65.099501 
2574.000000	65.094566 
2573.000000	65.086674 
2572.000000	65.076541 
2571.000000	65.065455 
2570.000000	65.055179 
2569.000000	65.047526 
2568.000000	65.044093 
2567.000000	65.045571 
2566.000000	65.052294 
2565.000000	65.063905 
2564.000000	65.079760 
2563.000000	65.098905 
2562.000000	65.120387 
2561.000000	65.143203 
2560.000000	65.166330 
2559.000000	65.188717 
2558.000000	65.209007 
2557.000000	65.225863 
2556.000000	65.237808 
2555.000000	65.243697 
2554.000000	65.242862 
2553.000000	65.235471 
2552.000000	65.222644 
2551.000000	65.206241 
2550.000000	65.188765 
2549.000000	65.172600 
2548.000000	65.159893 
2547.000000	65.151786 
2546.000000	65.148353 
2545.000000	65.148472 
2544.000000	65.150141 
2543.000000	65.151023 
2542.000000	65.148901 
2541.000000	65.142393 
2540.000000	65.131115 
2539.000000	65.115976 
2538.000000	65.098905 
2537.000000	65.082693 
2536.000000	65.069961 
2535.000000	65.062952 
2534.000000	65.062904 
2533.000000	65.069866 
2532.000000	65.082693 
2531.000000	65.099191 
2530.000000	65.116667 
2529.000000	65.132355 
2528.000000	65.143990 
2527.000000	65.150165 
2526.000000	65.150380 
2525.000000	65.145230 
2524.000000	65.135955 
2523.000000	65.124201 
2522.000000	65.111422 
2521.000000	65.099024 
2520.000000	65.088105 
2519.000000	65.079402 
2518.000000	65.073251 
2517.000000	65.069794 
2516.000000	65.068840 
2515.000000	65.069770 
2514.000000	65.071487 
2513.000000	65.072274 
2512.000000	65.070247 
2511.000000	65.063476 
2510.000000	65.050816 
2509.000000	65.031886 
2508.000000	65.007805 
2507.000000	64.980912 
2506.000000	64.954566 
2505.000000	64.932632 
2504.000000	64.918327 
2503.000000	64.913654 
2502.000000	64.918875 
2501.000000	64.932489 
2500.000000	64.951968 
2499.000000	64.974379 
2498.000000	64.997386 
2497.000000	65.019679 
2496.000000	65.041446 
2495.000000	65.064072 
2494.000000	65.089201 
2493.000000	65.117979 
2492.000000	65.150260 
2491.000000	65.184187 
2490.000000	65.216469 
2489.000000	65.242791 
2488.000000	65.259146 
2487.000000	65.262675 
2486.000000	65.252637 
2485.000000	65.230655 
2484.000000	65.200328 
2483.000000	65.166592 
2482.000000	65.134644 
2481.000000	65.108847 
2480.000000	65.092110 
2479.000000	65.085339 
2478.000000	65.087723 
2477.000000	65.096831 
2476.000000	65.109682 
2475.000000	65.123033 
2474.000000	65.134143 
2473.000000	65.141248 
2472.000000	65.143418 
2471.000000	65.140604 
2470.000000	65.133285 
2469.000000	65.122270 
2468.000000	65.108537 
2467.000000	65.092992 
2466.000000	65.076446 
2465.000000	65.059828 
2464.000000	65.044116 
2463.000000	65.030336 
2462.000000	65.019392 
2461.000000	65.011811 
2460.000000	65.007853 
2459.000000	65.007090 
2458.000000	65.008831 
2457.000000	65.011930 
2456.000000	65.015339 
2455.000000	65.018129 
2454.000000	65.019893 
2453.000000	65.020537 
2452.000000	65.020394 
2451.000000	65.020108 
2450.000000	65.020036 
2449.000000	65.020179 
2448.000000	65.020179 
2447.000000	65.019297 
2446.000000	65.016913 
2445.000000	65.012693 
2444.000000	65.006637 
2443.000000	64.999461 
2442.000000	64.992451 
2441.000000	64.987087 
2440.000000	64.984703 
2439.000000	64.986228 
2438.000000	64.991903 
2437.000000	65.001392 
2436.000000	65.013909 
2435.000000	65.028309 
2434.000000	65.043425 
2433.000000	65.058064 
2432.000000	65.071296 
2431.000000	65.082502 
2430.000000	65.090894 
2429.000000	65.096092 
2428.000000	65.097689 
2427.000000	65.095615 
2426.000000	65.090084 
2425.000000	65.081691 
2424.000000	65.071392 
2423.000000	65.060400 
2422.000000	65.050029 
2421.000000	65.041279 
2420.000000	65.034723 
2419.000000	65.030455 
2418.000000	65.028095 
2417.000000	65.027070 
2416.000000	65.026640 
2415.000000	65.026402 
2414.000000	65.026235 
2413.000000	65.026450 
2412.000000	65.027570 
2411.000000	65.030097 
2410.000000	65.034484 
2409.000000	65.040755 
2408.000000	65.048599 
2407.000000	65.057277 
2406.000000	65.066099 
2405.000000	65.074348 
2404.000000	65.081620 
2403.000000	65.088009 
2402.000000	65.093827 
2401.000000	65.099525 
2400.000000	65.105557 
2399.000000	65.112066 
2398.000000	65.118837 
2397.000000	65.125274 
2396.000000	65.130305 
2395.000000	65.132951 
2394.000000	65.132188 
2393.000000	65.127563 
2392.000000	65.119051 
2391.000000	65.107202 
2390.000000	65.093016 
2389.000000	65.077853 
2388.000000	65.063142 
2387.000000	65.050315 
2386.000000	65.040516 
2385.000000	65.034508 
2384.000000	65.032720 
2383.000000	65.035080 
2382.000000	65.041041 
2381.000000	65.049695 
2380.000000	65.059685 
2379.000000	65.069603 
2378.000000	65.077924 
2377.000000	65.083408 
2376.000000	65.085315 
2375.000000	65.083456 
2374.000000	65.078330 
2373.000000	65.070819 
2372.000000	65.062284 
2371.000000	65.054202 
2370.000000	65.047860 
2369.000000	65.044236 
2368.000000	65.043783 
2367.000000	65.046525 
2366.000000	65.051889 
2365.000000	65.059089 
2364.000000	65.067005 
2363.000000	65.074491 
2362.000000	65.080404 
2361.000000	65.083909 
2360.000000	65.084552 
2359.000000	65.082263 
2358.000000	65.077614 
2357.000000	65.071511 
2356.000000	65.065002 
2355.000000	65.059351 
2354.000000	65.055561 
2353.000000	65.054249 
2352.000000	65.055465 
2351.000000	65.058684 
2350.000000	65.062880 
2349.000000	65.066838 
2348.000000	65.069484 
2347.000000	65.069937 
2346.000000	65.068125 
2345.000000	65.064597 
2344.000000	65.060472 
2343.000000	65.057086 
2342.000000	65.055751 
2341.000000	65.057373 
2340.000000	65.062165 
2339.000000	65.069413 
2338.000000	65.077757 
2337.000000	65.085482 
2336.000000	65.090918 
2335.000000	65.092754 
2334.000000	65.090632 
2333.000000	65.085101 
2332.000000	65.077424 
2331.000000	65.069341 
2330.000000	65.062403 
2329.000000	65.057682 
2328.000000	65.055203 
2327.000000	65.054059 
2326.000000	65.052628 
2325.000000	65.049004 
2324.000000	65.041613 
2323.000000	65.029621 
2322.000000	65.013146 
2321.000000	64.993453 
2320.000000	64.972543 
2319.000000	64.952802 
2318.000000	64.936423 
2317.000000	64.925003 
2316.000000	64.919161 
2315.000000	64.918518 
2314.000000	64.921879 
2313.000000	64.927458 
2312.000000	64.933300 
2311.000000	64.937520 
2310.000000	64.938807 
2309.000000	64.936399 
2308.000000	64.930295 
2307.000000	64.921188 
2306.000000	64.910340 
2305.000000	64.899373 
2304.000000	64.890003 
2303.000000	64.883732 
2302.000000	64.881610 
2301.000000	64.883995 
2300.000000	64.890789 
2299.000000	64.901328 
2298.000000	64.914679 
2297.000000	64.929842 
2296.000000	64.946079 
2295.000000	64.962720 
2294.000000	64.979267 
2293.000000	64.995265 
2292.000000	65.010070 
2291.000000	65.022730 
2290.000000	65.032005 
2289.000000	65.036678 
2288.000000	65.035748 
2287.000000	65.028882 
2286.000000	65.016508 
2285.000000	64.999985 
2284.000000	64.981317 
2283.000000	64.962673 
2282.000000	64.946031 
2281.000000	64.932584 
2280.000000	64.922785 
2279.000000	64.916133 
2278.000000	64.911675 
2277.000000	64.908385 
2276.000000	64.905357 
2275.000000	64.902472 
2274.000000	64.899921 
2273.000000	64.898681 
2272.000000	64.899635 
2271.000000	64.903807 
2270.000000	64.911508 
2269.000000	64.922618 
2268.000000	64.936685 
2267.000000	64.952969 
2266.000000	64.970541 
2265.000000	64.988493 
2264.000000	65.006089 
2263.000000	65.022587 
2262.000000	65.037226 
2261.000000	65.049290 
2260.000000	65.058207 
2259.000000	65.063667 
2258.000000	65.065813 
2257.000000	65.065121 
2256.000000	65.062570 
2255.000000	65.059208 
2254.000000	65.056324 
2253.000000	65.054655 
2252.000000	65.054464 
2251.000000	65.055465 
2250.000000	65.056896 
2249.000000	65.057778 
2248.000000	65.057158 
2247.000000	65.054559 
2246.000000	65.049958 
2245.000000	65.043807 
2244.000000	65.036725 
2243.000000	65.029168 
2242.000000	65.021347 
2241.000000	65.013003 
2240.000000	65.003609 
2239.000000	64.992427 
2238.000000	64.979076 
2237.000000	64.963603 
2236.000000	64.946961 
2235.000000	64.930462 
2234.000000	64.915966 
2233.000000	64.905285 
2232.000000	64.899659 
2231.000000	64.899539 
2230.000000	64.904236 
2229.000000	64.912199 
2228.000000	64.921379 
2227.000000	64.929747 
2226.000000	64.935946 
2225.000000	64.939522 
2224.000000	64.941215 
2223.000000	64.942479 
2222.000000	64.945006 
2221.000000	64.950060 
2220.000000	64.958071 
2219.000000	64.968252 
2218.000000	64.978957 
2217.000000	64.987826 
2216.000000	64.992690 
2215.000000	64.991807 
2214.000000	64.984560 
2213.000000	64.971351 
2212.000000	64.953732 
2211.000000	64.933872 
2210.000000	64.914035 
2209.000000	64.896464 
2208.000000	64.882755 
2207.000000	64.874005 
2206.000000	64.870762 
2205.000000	64.873242 
2204.000000	64.881300 
2203.000000	64.894580 
2202.000000	64.912295 
2201.000000	64.933371 
2200.000000	64.956378 
2199.000000	64.979720 
2198.000000	65.001511 
2197.000000	65.020108 
2196.000000	65.034055 
2195.000000	65.042471 
2194.000000	65.044760 
2193.000000	65.040850 
2192.000000	65.031099 
2191.000000	65.016460 
2190.000000	64.998340 
2189.000000	64.978408 
2188.000000	64.958357 
2187.000000	64.939999 
2186.000000	64.924740 
2185.000000	64.913511 
2184.000000	64.906549 
2183.000000	64.903450 
2182.000000	64.903330 
2181.000000	64.904928 
2180.000000	64.907002 
2179.000000	64.908480 
2178.000000	64.908957 
2177.000000	64.908599 
2176.000000	64.908123 
2175.000000	64.908504 
2174.000000	64.910888 
2173.000000	64.916253 
2172.000000	64.925312 
2171.000000	64.938044 
2170.000000	64.953994 
2169.000000	64.971661 
2168.000000	64.988994 
2167.000000	65.003013 
2166.000000	65.010738 
2165.000000	65.009307 
2164.000000	64.996790 
2163.000000	64.972591 
2162.000000	64.937829 
2161.000000	64.895105 
2160.000000	64.848041 
2159.000000	64.800810 
2158.000000	64.757251 
2157.000000	64.720296 
2156.000000	64.691662 
2155.000000	64.671826 
2154.000000	64.660382 
2153.000000	64.656543 
2152.000000	64.659619 
2151.000000	64.669299 
2150.000000	64.685535 
2149.000000	64.708399 
2148.000000	64.737415 
2147.000000	64.771223 
2146.000000	64.807534 
2145.000000	64.843535 
2144.000000	64.876317 
2143.000000	64.903736 
2142.000000	64.924597 
2141.000000	64.939045 
2140.000000	64.948153 
2139.000000	64.953827 
2138.000000	64.957809 
2137.000000	64.961528 
2136.000000	64.965438 
2135.000000	64.969468 
2134.000000	64.972519 
2133.000000	64.973640 
2132.000000	64.971804 
2131.000000	64.966964 
2130.000000	64.959859 
2129.000000	64.951944 
2128.000000	64.945363 
2127.000000	64.942193 
2126.000000	64.944076 
2125.000000	64.951753 
2124.000000	64.964795 
2123.000000	64.981865 
2122.000000	65.000748 
2121.000000	65.018796 
2120.000000	65.033507 
2119.000000	65.043020 
2118.000000	65.046620 
2117.000000	65.044713 
2116.000000	65.038633 
2115.000000	65.030264 
2114.000000	65.021538 
2113.000000	65.014028 
2112.000000	65.008330 
2111.000000	65.004277 
2110.000000	65.001273 
2109.000000	64.998412 
2108.000000	64.994978 
2107.000000	64.990615 
2106.000000	64.985346 
2105.000000	64.979457 
2104.000000	64.973068 
2103.000000	64.966082 
2102.000000	64.958190 
2101.000000	64.948773 
2100.000000	64.937329 
2099.000000	64.924025 
2098.000000	64.909791 
2097.000000	64.896273 
2096.000000	64.885640 
2095.000000	64.879989 
2094.000000	64.880752 
2093.000000	64.888143 
2092.000000	64.900875 
2091.000000	64.916586 
2090.000000	64.932441 
2089.000000	64.945697 
2088.000000	64.954519 
2087.000000	64.958477 
2086.000000	64.958548 
2085.000000	64.956521 
2084.000000	64.954733 
2083.000000	64.954829 
2082.000000	64.957380 
2081.000000	64.962053 
2080.000000	64.967322 
2079.000000	64.971351 
2078.000000	64.972257 
2077.000000	64.969277 
2076.000000	64.962434 
2075.000000	64.952898 
2074.000000	64.942312 
2073.000000	64.932250 
2072.000000	64.923763 
2071.000000	64.916849 
2070.000000	64.910864 
2069.000000	64.904570 
2068.000000	64.896917 
2067.000000	64.887309 
2066.000000	64.876103 
2065.000000	64.864373 
2064.000000	64.853572 
2063.000000	64.845252 
2062.000000	64.840006 
2061.000000	64.837884 
2060.000000	64.838051 
2059.000000	64.839506 
2058.000000	64.841318 
2057.000000	64.843440 
2056.000000	64.846634 
2055.000000	64.852523 
2054.000000	64.862966 
2053.000000	64.879393 
2052.000000	64.902138 
2051.000000	64.930129 
2050.000000	64.960861 
2049.000000	64.990830 
2048.000000	65.016436 
2047.000000	65.034580 
2046.000000	65.043544 
2045.000000	65.043115 
2044.000000	65.034604 
2043.000000	65.020203 
2042.000000	65.002584 
2041.000000	64.984154 
2040.000000	64.966726 
2039.000000	64.951229 
2038.000000	64.937829 
2037.000000	64.926338 
2036.000000	64.916324 
2035.000000	64.907550 
2034.000000	64.900159 
2033.000000	64.894461 
2032.000000	64.891266 
2031.000000	64.891099 
2030.000000	64.894294 
2029.000000	64.900684 
2028.000000	64.909696 
2027.000000	64.920115 
2026.000000	64.930534 
2025.000000	64.939498 
2024.000000	64.945840 
2023.000000	64.948797 
2022.000000	64.948320 
2021.000000	64.945054 
2020.000000	64.940237 
2019.000000	64.935278 
2018.000000	64.931464 
2017.000000	64.929747 
2016.000000	64.930272 
2015.000000	64.932417 
2014.000000	64.934992 
2013.000000	64.936470 
2012.000000	64.935564 
2011.000000	64.931511 
2010.000000	64.924287 
2009.000000	64.914631 
2008.000000	64.903974 
2007.000000	64.893937 
2006.000000	64.885997 
2005.000000	64.881062 
2004.000000	64.879393 
2003.000000	64.880442 
2002.000000	64.883112 
2001.000000	64.886164 
2000.000000	64.888501 
1999.000000	64.889550 
1998.000000	64.889144 
1997.000000	64.887762 
1996.000000	64.886212 
1995.000000	64.885401 
1994.000000	64.885997 
1993.000000	64.888334 
1992.000000	64.892435 
1991.000000	64.897847 
1990.000000	64.904022 
1989.000000	64.910340 
1988.000000	64.916276 
1987.000000	64.921355 
1986.000000	64.925241 
1985.000000	64.927554 
1984.000000	64.927983 
1983.000000	64.926338 
1982.000000	64.922356 
1981.000000	64.916157 
1980.000000	64.908027 
1979.000000	64.898610 
1978.000000	64.888954 
1977.000000	64.880275 
1976.000000	64.873862 
1975.000000	64.870834 
1974.000000	64.872002 
1973.000000	64.877676 
1972.000000	64.887714 
1971.000000	64.901614 
1970.000000	64.918446 
1969.000000	64.937067 
1968.000000	64.956188 
1967.000000	64.974331 
1966.000000	64.990210 
1965.000000	65.002536 
1964.000000	65.010309 
1963.000000	65.012955 
1962.000000	65.010333 
1961.000000	65.002942 
1960.000000	64.991712 
1959.000000	64.978003 
1958.000000	64.963316 
1957.000000	64.948964 
1956.000000	64.935898 
1955.000000	64.924430 
1954.000000	64.914536 
1953.000000	64.905738 
1952.000000	64.897632 
1951.000000	64.890027 
1950.000000	64.883065 
1949.000000	64.877104 
1948.000000	64.872765 
1947.000000	64.870333 
1946.000000	64.869856 
1945.000000	64.870762 
1944.000000	64.872145 
1943.000000	64.872908 
1942.000000	64.872050 
1941.000000	64.868998 
1940.000000	64.863634 
1939.000000	64.856290 
1938.000000	64.847660 
1937.000000	64.838695 
1936.000000	64.830374 
1935.000000	64.823532 
1934.000000	64.818501 
1933.000000	64.815545 
1932.000000	64.814734 
1931.000000	64.816164 
1930.000000	64.819836 
1929.000000	64.825749 
1928.000000	64.833784 
1927.000000	64.843630 
1926.000000	64.854693 
1925.000000	64.866065 
1924.000000	64.876508 
1923.000000	64.884710 
1922.000000	64.889836 
1921.000000	64.891195 
1920.000000	64.888858 
1919.000000	64.883470 
1918.000000	64.876365 
1917.000000	64.869165 
1916.000000	64.863371 
1915.000000	64.860296 
1914.000000	64.860320 
1913.000000	64.863109 
1912.000000	64.867258 
1911.000000	64.870858 
1910.000000	64.871716 
1909.000000	64.867925 
1908.000000	64.858341 
1907.000000	64.842820 
1906.000000	64.822530 
1905.000000	64.799523 
1904.000000	64.776682 
1903.000000	64.757156 
1902.000000	64.743852 
1901.000000	64.739036 
1900.000000	64.743971 
1899.000000	64.758801 
1898.000000	64.782524 
1897.000000	64.813256 
1896.000000	64.848279 
1895.000000	64.884614 
1894.000000	64.919137 
1893.000000	64.949035 
1892.000000	64.972043 
1891.000000	64.986729 
1890.000000	64.992499 
1889.000000	64.989662 
1888.000000	64.979505 
1887.000000	64.963841 
1886.000000	64.944744 
1885.000000	64.924263 
1884.000000	64.904284 
1883.000000	64.886164 
1882.000000	64.870738 
1881.000000	64.858341 
1880.000000	64.848947 
1879.000000	64.842128 
1878.000000	64.837241 
1877.000000	64.833426 
1876.000000	64.829874 
1875.000000	64.825987 
1874.000000	64.821553 
1873.000000	64.816641 
1872.000000	64.811992 
1871.000000	64.808487 
1870.000000	64.807343 
1869.000000	64.809560 
1868.000000	64.815878 
1867.000000	64.826655 
1866.000000	64.841651 
1865.000000	64.859962 
1864.000000	64.880347 
1863.000000	64.901399 
1862.000000	64.921879 
1861.000000	64.940690 
1860.000000	64.956927 
1859.000000	64.970207 
1858.000000	64.980220 
1857.000000	64.986896 
1856.000000	64.990043 
1855.000000	64.989781 
1854.000000	64.986228 
1853.000000	64.979743 
1852.000000	64.970850 
1851.000000	64.960265 
1850.000000	64.948725 
1849.000000	64.937067 
1848.000000	64.925980 
1847.000000	64.915990 
1846.000000	64.907312 
1845.000000	64.900088 
1844.000000	64.894247 
1843.000000	64.889526 
1842.000000	64.885854 
1841.000000	64.883089 
1840.000000	64.881229 
1839.000000	64.880394 
1838.000000	64.880585 
1837.000000	64.881777 
1836.000000	64.883708 
1835.000000	64.885783 
1834.000000	64.887309 
1833.000000	64.887261 
1832.000000	64.884924 
1831.000000	64.879608 
1830.000000	64.871072 
1829.000000	64.859557 
1828.000000	64.845561 
1827.000000	64.830040 
1826.000000	64.814090 
1825.000000	64.798879 
1824.000000	64.785385 
1823.000000	64.774274 
1822.000000	64.766097 
1821.000000	64.761090 
1820.000000	64.759349 
1819.000000	64.760732 
1818.000000	64.764881 
1817.000000	64.771389 
1816.000000	64.779686 
1815.000000	64.788722 
1814.000000	64.797449 
1813.000000	64.804816 
1812.000000	64.810109 
1811.000000	64.812803 
1810.000000	64.812922 
1809.000000	64.810848 
1808.000000	64.807653 
1807.000000	64.804649 
1806.000000	64.803314 
1805.000000	64.805150 
1804.000000	64.811325 
1803.000000	64.822649 
1802.000000	64.839315 
1801.000000	64.860677 
1800.000000	64.885306 
1799.000000	64.911150 
1798.000000	64.935755 
1797.000000	64.956474 
1796.000000	64.970874 
1795.000000	64.977288 
1794.000000	64.974832 
1793.000000	64.963483 
1792.000000	64.944100 
1791.000000	64.918255 
1790.000000	64.887881 
1789.000000	64.855003 
1788.000000	64.821529 
1787.000000	64.788913 
1786.000000	64.758610 
1785.000000	64.731693 
1784.000000	64.709186 
1783.000000	64.691853 
1782.000000	64.680480 
1781.000000	64.675831 
1780.000000	64.677953 
1779.000000	64.686727 
1778.000000	64.701461 
1777.000000	64.720964 
1776.000000	64.743494 
1775.000000	64.767074 
1774.000000	64.789700 
1773.000000	64.809465 
1772.000000	64.824867 
1771.000000	64.834856 
1770.000000	64.839053 
1769.000000	64.837694 
1768.000000	64.831542 
1767.000000	64.821696 
1766.000000	64.809346 
1765.000000	64.795780 
1764.000000	64.782023 
1763.000000	64.768862 
1762.000000	64.756822 
1761.000000	64.745926 
1760.000000	64.736199 
1759.000000	64.727210 
1758.000000	64.718699 
1757.000000	64.710402 
1756.000000	64.702343 
1755.000000	64.694690 
1754.000000	64.687609 
1753.000000	64.681482 
1752.000000	64.676427 
1751.000000	64.672160 
1750.000000	64.668059 
1749.000000	64.663314 
1748.000000	64.656972 
1747.000000	64.648151 
1746.000000	64.636635 
1745.000000	64.622831 
1744.000000	64.607977 
1743.000000	64.593982 
1742.000000	64.582872 
1741.000000	64.576268 
1740.000000	64.574766 
1739.000000	64.577794 
1738.000000	64.583468 
1737.000000	64.589047 
1736.000000	64.591670 
1735.000000	64.588975 
1734.000000	64.580059 
1733.000000	64.565515 
1732.000000	64.547157 
1731.000000	64.527869 
1730.000000	64.510583 
1729.000000	64.498257 
1728.000000	64.492702 
1727.000000	64.495015 
1726.000000	64.505100 
1725.000000	64.522242 
1724.000000	64.545345 
1723.000000	64.573049 
1722.000000	64.603829 
1721.000000	64.636158 
1720.000000	64.668107 
1719.000000	64.697647 
1718.000000	64.722561 
1717.000000	64.740896 
1716.000000	64.751100 
1715.000000	64.752578 
1714.000000	64.745926 
1713.000000	64.732742 
1712.000000	64.715576 
1711.000000	64.697623 
1710.000000	64.682102 
1709.000000	64.672207 
1708.000000	64.670157 
1707.000000	64.677500 
1706.000000	64.694261 
1705.000000	64.719343 
1704.000000	64.750051 
1703.000000	64.782691 
1702.000000	64.812922 
1701.000000	64.836215 
1700.000000	64.848923 
1699.000000	64.848661 
1698.000000	64.835214 
1697.000000	64.810419 
1696.000000	64.778065 
1695.000000	64.743351 
1694.000000	64.711594 
1693.000000	64.687538 
1692.000000	64.674019 
1691.000000	64.671802 
1690.000000	64.679336 
1689.000000	64.693498 
1688.000000	64.710307 
1687.000000	64.725852 
1686.000000	64.736914 
1685.000000	64.741778 
1684.000000	64.739918 
1683.000000	64.732265 
1682.000000	64.720606 
1681.000000	64.707207 
1680.000000	64.694261 
1679.000000	64.683413 
1678.000000	64.675903 
1677.000000	64.672255 
1676.000000	64.672493 
1675.000000	64.676165 
1674.000000	64.682841 
1673.000000	64.691877 
1672.000000	64.702630 
1671.000000	64.714407 
1670.000000	64.726543 
1669.000000	64.738559 
1668.000000	64.749884 
1667.000000	64.760112 
1666.000000	64.768910 
1665.000000	64.776182 
1664.000000	64.782214 
1663.000000	64.787578 
1662.000000	64.792966 
1661.000000	64.799189 
1660.000000	64.806938 
1659.000000	64.816403 
1658.000000	64.826917 
1657.000000	64.837074 
1656.000000	64.844894 
1655.000000	64.848208 
1654.000000	64.845204 
1653.000000	64.834737 
1652.000000	64.816784 
1651.000000	64.792513 
1650.000000	64.764022 
1649.000000	64.734053 
1648.000000	64.705634 
1647.000000	64.681720 
1646.000000	64.664554 
1645.000000	64.655375 
1644.000000	64.654588 
1643.000000	64.661598 
1642.000000	64.675116 
1641.000000	64.692997 
1640.000000	64.712977 
1639.000000	64.732766 
1638.000000	64.750623 
1637.000000	64.765167 
1636.000000	64.776039 
1635.000000	64.783596 
1634.000000	64.788889 
1633.000000	64.793300 
1632.000000	64.798092 
1631.000000	64.804124 
1630.000000	64.811587 
1629.000000	64.820051 
1628.000000	64.828777 
1627.000000	64.836835 
1626.000000	64.843583 
1625.000000	64.848685 
1624.000000	64.851856 
1623.000000	64.852809 
1622.000000	64.851140 
1621.000000	64.846158 
1620.000000	64.836883 
1619.000000	64.822340 
1618.000000	64.802145 
1617.000000	64.776587 
1616.000000	64.746809 
1615.000000	64.715003 
1614.000000	64.684128 
1613.000000	64.657402 
1612.000000	64.637494 
1611.000000	64.626264 
1610.000000	64.624214 
1609.000000	64.630436 
1608.000000	64.642715 
1607.000000	64.658021 
1606.000000	64.673066 
1605.000000	64.684748 
1604.000000	64.690947 
1603.000000	64.690542 
1602.000000	64.683628 
1601.000000	64.671659 
1600.000000	64.657068 
1599.000000	64.642810 
1598.000000	64.631438 
1597.000000	64.625072 
1596.000000	64.624428 
1595.000000	64.629101 
1594.000000	64.637327 
1593.000000	64.646601 
1592.000000	64.654517 
1591.000000	64.659070 
1590.000000	64.659595 
1589.000000	64.656496 
1588.000000	64.651584 
1587.000000	64.647316 
1586.000000	64.646744 
1585.000000	64.652538 
1584.000000	64.666342 
1583.000000	64.688444 
1582.000000	64.717316 
1581.000000	64.749789 
1580.000000	64.781594 
1579.000000	64.808225 
1578.000000	64.825630 
1577.000000	64.831304 
1576.000000	64.824533 
1575.000000	64.806461 
1574.000000	64.779663 
1573.000000	64.747524 
1572.000000	64.713573 
1571.000000	64.680981 
1570.000000	64.652323 
1569.000000	64.629578 
1568.000000	64.614439 
1567.000000	64.607858 
1566.000000	64.610457 
1565.000000	64.622068 
1564.000000	64.641714 
1563.000000	64.667248 
1562.000000	64.695620 
1561.000000	64.722990 
1560.000000	64.745211 
1559.000000	64.758849 
1558.000000	64.761495 
1557.000000	64.752721 
1556.000000	64.733862 
1555.000000	64.708113 
1554.000000	64.679527 
1553.000000	64.652419 
1552.000000	64.630532 
1551.000000	64.616346 
1550.000000	64.610886 
1549.000000	64.613747 
1548.000000	64.623379 
1547.000000	64.637541 
1546.000000	64.653992 
1545.000000	64.670777 
1544.000000	64.686393 
1543.000000	64.699673 
1542.000000	64.709973 
1541.000000	64.717125 
1540.000000	64.721012 
1539.000000	64.721465 
1538.000000	64.718389 
1537.000000	64.712047 
1536.000000	64.702963 
1535.000000	64.692211 
1534.000000	64.681196 
1533.000000	64.671492 
1532.000000	64.664626 
1531.000000	64.661645 
1530.000000	64.662909 
1529.000000	64.668107 
1528.000000	64.676070 
1527.000000	64.685153 
1526.000000	64.693617 
1525.000000	64.700031 
1524.000000	64.703512 
1523.000000	64.703989 
1522.000000	64.701867 
1521.000000	64.698171 
1520.000000	64.694261 
1519.000000	64.691662 
1518.000000	64.691638 
1517.000000	64.695048 
1516.000000	64.702677 
1515.000000	64.714670 
1514.000000	64.730620 
1513.000000	64.749431 
1512.000000	64.769577 
1511.000000	64.789032 
1510.000000	64.805483 
1509.000000	64.816832 
1508.000000	64.821243 
1507.000000	64.818310 
1506.000000	64.808773 
1505.000000	64.795327 
1504.000000	64.781999 
1503.000000	64.773607 
1502.000000	64.774656 
1501.000000	64.787626 
1500.000000	64.811968 
1499.000000	64.843964 
1498.000000	64.877152 
1497.000000	64.903855 
1496.000000	64.916849 
1495.000000	64.911389 
1494.000000	64.886236 
1493.000000	64.844083 
1492.000000	64.790749 
1491.000000	64.733839 
1490.000000	64.680671 
1489.000000	64.636945 
1488.000000	64.605760 
1487.000000	64.587211 
1486.000000	64.579153 
1485.000000	64.578509 
1484.000000	64.582061 
1483.000000	64.587330 
1482.000000	64.593124 
1481.000000	64.599061 
1480.000000	64.605760 
1479.000000	64.613127 
1478.000000	64.621257 
1477.000000	64.629721 
1476.000000	64.638042 
1475.000000	64.645957 
1474.000000	64.653134 
1473.000000	64.659523 
1472.000000	64.664959 
1471.000000	64.669275 
1470.000000	64.671802 
1469.000000	64.671993 
1468.000000	64.669418 
1467.000000	64.664101 
1466.000000	64.656949 
1465.000000	64.649319 
1464.000000	64.642858 
1463.000000	64.638853 
1462.000000	64.637851 
1461.000000	64.638948 
1460.000000	64.639997 
1459.000000	64.638137 
1458.000000	64.630413 
1457.000000	64.614915 
1456.000000	64.591407 
1455.000000	64.561939 
1454.000000	64.530158 
1453.000000	64.500617 
1452.000000	64.477539 
1451.000000	64.464020 
1450.000000	64.460802 
1449.000000	64.466595 
1448.000000	64.478206 
1447.000000	64.491963 
1446.000000	64.504694 
1445.000000	64.514613 
1444.000000	64.521741 
1443.000000	64.527654 
1442.000000	64.534711 
1441.000000	64.544892 
1440.000000	64.558959 
1439.000000	64.576077 
1438.000000	64.593648 
1437.000000	64.608335 
1436.000000	64.616513 
1435.000000	64.615368 
1434.000000	64.603352 
1433.000000	64.580965 
1432.000000	64.550471 
1431.000000	64.515328 
1430.000000	64.479756 
1429.000000	64.447855 
1428.000000	64.423036 
1427.000000	64.407420 
1426.000000	64.401674 
1425.000000	64.405131 
1424.000000	64.416050 
1423.000000	64.431953 
1422.000000	64.449906 
1421.000000	64.467144 
1420.000000	64.481329 
1419.000000	64.490723 
1418.000000	64.494299 
1417.000000	64.491891 
1416.000000	64.484143 
1415.000000	64.472365 
1414.000000	64.458298 
1413.000000	64.443922 
1412.000000	64.431285 
1411.000000	64.422369 
1410.000000	64.418768 
1409.000000	64.421510 
1408.000000	64.430999 
1407.000000	64.446783 
1406.000000	64.467692 
1405.000000	64.491891 
1404.000000	64.517283 
1403.000000	64.541769 
1402.000000	64.563441 
1401.000000	64.580893 
1400.000000	64.593052 
1399.000000	64.599680 
1398.000000	64.601302 
1397.000000	64.598655 
1396.000000	64.592838 
1395.000000	64.584922 
1394.000000	64.575934 
1393.000000	64.566588 
1392.000000	64.557337 
1391.000000	64.548254 
1390.000000	64.539146 
1389.000000	64.529800 
1388.000000	64.520096 
1387.000000	64.510059 
1386.000000	64.499831 
1385.000000	64.489936 
1384.000000	64.480757 
1383.000000	64.472651 
1382.000000	64.465689 
1381.000000	64.459443 
1380.000000	64.453268 
1379.000000	64.446258 
1378.000000	64.437937 
1377.000000	64.428329 
1376.000000	64.418435 
1375.000000	64.410018 
1374.000000	64.405298 
1373.000000	64.406704 
1372.000000	64.415884 
1371.000000	64.433217 
1370.000000	64.457583 
1369.000000	64.486527 
1368.000000	64.516663 
1367.000000	64.544200 
1366.000000	64.565825 
1365.000000	64.579653 
1364.000000	64.585161 
1363.000000	64.583420 
1362.000000	64.576673 
1361.000000	64.567589 
1360.000000	64.558720 
1359.000000	64.551854 
1358.000000	64.547944 
1357.000000	64.546895 
1356.000000	64.548110 
1355.000000	64.550662 
1354.000000	64.553737 
1353.000000	64.556527 
1352.000000	64.558768 
1351.000000	64.560365 
1350.000000	64.561367 
1349.000000	64.561843 
1348.000000	64.561796 
1347.000000	64.561057 
1346.000000	64.559340 
1345.000000	64.556264 
1344.000000	64.551424 
1343.000000	64.544463 
1342.000000	64.535284 
1341.000000	64.523816 
1340.000000	64.510130 
1339.000000	64.494609 
1338.000000	64.477825 
1337.000000	64.460468 
1336.000000	64.443206 
1335.000000	64.426946 
1334.000000	64.412641 
1333.000000	64.401030 
1332.000000	64.392662 
1331.000000	64.387702 
1330.000000	64.385986 
1329.000000	64.387059 
1328.000000	64.390230 
1327.000000	64.394640 
1326.000000	64.399600 
1325.000000	64.404582 
1324.000000	64.409160 
1323.000000	64.413070 
1322.000000	64.416098 
1321.000000	64.418148 
1320.000000	64.419341 
1319.000000	64.419865 
1318.000000	64.420104 
1317.000000	64.420604 
1316.000000	64.421629 
1315.000000	64.423298 
1314.000000	64.425039 
1313.000000	64.425754 
1312.000000	64.423942 
1311.000000	64.418077 
1310.000000	64.407086 
1309.000000	64.390659 
1308.000000	64.369606 
1307.000000	64.345860 
1306.000000	64.322209 
1305.000000	64.301800 
1304.000000	64.287447 
1303.000000	64.280939 
1302.000000	64.282703 
1301.000000	64.291787 
1300.000000	64.306116 
1299.000000	64.323019 
1298.000000	64.339876 
1297.000000	64.354634 
1296.000000	64.366149 
1295.000000	64.374327 
1294.000000	64.379811 
1293.000000	64.383482 
1292.000000	64.386248 
1291.000000	64.388489 
1290.000000	64.390134 
1289.000000	64.390373 
1288.000000	64.388132 
1287.000000	64.382266 
1286.000000	64.372038 
1285.000000	64.357328 
1284.000000	64.338850 
1283.000000	64.318060 
1282.000000	64.296913 
1281.000000	64.277696 
1280.000000	64.262366 
1279.000000	64.252448 
1278.000000	64.248657 
1277.000000	64.250707 
1276.000000	64.257454 
1275.000000	64.267110 
1274.000000	64.277553 
1273.000000	64.286684 
1272.000000	64.292883 
1271.000000	64.295220 
1270.000000	64.293885 
1269.000000	64.289927 
1268.000000	64.285159 
1267.000000	64.281678 
1266.000000	64.281368 
1265.000000	64.285588 
1264.000000	64.294505 
1263.000000	64.307236 
1262.000000	64.321875 
1261.000000	64.336061 
1260.000000	64.347219 
1259.000000	64.353585 
1258.000000	64.354181 
1257.000000	64.349198 
1256.000000	64.340019 
1255.000000	64.328527 
1254.000000	64.316821 
1253.000000	64.306545 
1252.000000	64.298725 
1251.000000	64.293527 
1250.000000	64.290380 
1249.000000	64.288449 
1248.000000	64.286971 
1247.000000	64.285588 
1246.000000	64.284491 
1245.000000	64.284348 
1244.000000	64.285969 
1243.000000	64.289975 
1242.000000	64.296746 
1241.000000	64.305639 
1240.000000	64.315581 
1239.000000	64.324784 
1238.000000	64.331269 
1237.000000	64.333319 
1236.000000	64.329862 
1235.000000	64.320898 
1234.000000	64.307451 
1233.000000	64.291596 
1232.000000	64.275956 
1231.000000	64.263224 
1230.000000	64.255499 
1229.000000	64.254021 
1228.000000	64.258813 
1227.000000	64.268898 
1226.000000	64.282441 
1225.000000	64.297270 
1224.000000	64.311385 
1223.000000	64.323210 
1222.000000	64.331865 
1221.000000	64.337182 
1220.000000	64.339494 
1219.000000	64.339399 
1218.000000	64.337706 
1217.000000	64.334797 
1216.000000	64.331030 
1215.000000	64.326691 
1214.000000	64.322042 
1213.000000	64.317464 
1212.000000	64.313340 
1211.000000	64.310121 
1210.000000	64.308238 
1209.000000	64.307904 
1208.000000	64.309358 
1207.000000	64.312744 
1206.000000	64.318275 
1205.000000	64.326190 
1204.000000	64.336729 
1203.000000	64.349889 
1202.000000	64.365482 
1201.000000	64.382791 
1200.000000	64.400696 
1199.000000	64.417648 
1198.000000	64.431977 
1197.000000	64.442038 
1196.000000	64.446759 
1195.000000	64.445400 
1194.000000	64.438104 
1193.000000	64.425420 
1192.000000	64.408349 
1191.000000	64.387989 
1190.000000	64.365386 
1189.000000	64.341521 
1188.000000	64.317226 
1187.000000	64.293122 
1186.000000	64.269995 
1185.000000	64.248609 
1184.000000	64.229607 
1183.000000	64.213728 
1182.000000	64.201378 
1181.000000	64.193034 
1180.000000	64.189004 
1179.000000	64.189624 
1178.000000	64.194917 
1177.000000	64.204382 
1176.000000	64.217209 
1175.000000	64.231777 
1174.000000	64.246034 
1173.000000	64.257597 
1172.000000	64.264440 
1171.000000	64.265203 
1170.000000	64.259505 
1169.000000	64.248228 
1168.000000	64.233565 
1167.000000	64.218378 
1166.000000	64.205789 
1165.000000	64.198541 
1164.000000	64.198493 
1163.000000	64.206218 
1162.000000	64.220738 
1161.000000	64.239859 
1160.000000	64.260530 
1159.000000	64.279532 
1158.000000	64.294242 
1157.000000	64.302849 
1156.000000	64.304900 
1155.000000	64.301013 
1154.000000	64.292645 
1153.000000	64.281392 
1152.000000	64.268779 
1151.000000	64.255881 
1150.000000	64.243221 
1149.000000	64.230871 
1148.000000	64.218783 
1147.000000	64.206981 
1146.000000	64.195609 
1145.000000	64.185094 
1144.000000	64.175748 
1143.000000	64.168119 
1142.000000	64.162635 
1141.000000	64.159846 
1140.000000	64.159965 
1139.000000	64.163303 
1138.000000	64.169836 
1137.000000	64.179468 
1136.000000	64.191699 
1135.000000	64.205622 
1134.000000	64.220142 
1133.000000	64.234066 
1132.000000	64.246153 
1131.000000	64.255332 
1130.000000	64.260816 
1129.000000	64.262485 
1128.000000	64.260578 
1127.000000	64.256191 
1126.000000	64.251041 
1125.000000	64.247202 
1124.000000	64.246988 
1123.000000	64.251923 
1122.000000	64.262580 
1121.000000	64.278435 
1120.000000	64.298057 
1119.000000	64.319658 
1118.000000	64.341449 
1117.000000	64.362001 
1116.000000	64.380121 
1115.000000	64.394521 
1114.000000	64.403772 
1113.000000	64.405775 
1112.000000	64.398550 
1111.000000	64.380669 
1110.000000	64.351892 
1109.000000	64.313793 
1108.000000	64.269685 
1107.000000	64.224457 
1106.000000	64.183616 
1105.000000	64.151859 
1104.000000	64.132881 
1103.000000	64.128375 
1102.000000	64.138388 
1101.000000	64.161038 
1100.000000	64.193773 
1099.000000	64.233875 
1098.000000	64.278912 
1097.000000	64.326643 
1096.000000	64.374947 
1095.000000	64.421606 
1094.000000	64.463829 
1093.000000	64.498424 
1092.000000	64.522290 
1091.000000	64.533209 
1090.000000	64.530634 
1089.000000	64.515852 
1088.000000	64.492321 
1087.000000	64.464282 
1086.000000	64.436602 
1085.000000	64.412927 
1084.000000	64.394974 
1083.000000	64.382052 
1082.000000	64.371681 
1081.000000	64.360141 
1080.000000	64.344048 
1079.000000	64.321255 
1078.000000	64.291882 
1077.000000	64.257955 
1076.000000	64.222979 
1075.000000	64.190840 
1074.000000	64.164495 
1073.000000	64.145660 
1072.000000	64.134001 
1071.000000	64.127874 
1070.000000	64.124655 
1069.000000	64.121651 
1068.000000	64.116930 
1067.000000	64.109683 
1066.000000	64.100265 
1065.000000	64.090394 
1064.000000	64.082527 
1063.000000	64.079117 
1062.000000	64.082026 
1061.000000	64.092350 
1060.000000	64.109778 
1059.000000	64.133048 
1058.000000	64.159703 
1057.000000	64.186906 
1056.000000	64.211559 
1055.000000	64.231038 
1054.000000	64.243268 
1053.000000	64.247131 
1052.000000	64.242219 
1051.000000	64.229249 
1050.000000	64.209508 
1049.000000	64.184689 
1048.000000	64.156746 
1047.000000	64.127731 
1046.000000	64.099836 
1045.000000	64.075255 
1044.000000	64.056181 
1043.000000	64.044690 
1042.000000	64.042186 
1041.000000	64.049220 
1040.000000	64.065217 
1039.000000	64.088463 
1038.000000	64.116477 
1037.000000	64.146304 
1036.000000	64.175009 
1035.000000	64.200091 
1034.000000	64.219713 
1033.000000	64.232778 
1032.000000	64.239192 
1031.000000	64.239311 
1030.000000	64.234161 
1029.000000	64.224863 
1028.000000	64.212942 
1027.000000	64.199829 
1026.000000	64.186978 
1025.000000	64.175462 
1024.000000	64.166331 
1023.000000	64.160299 
1022.000000	64.157867 
1021.000000	64.159226 
1020.000000	64.164257 
1019.000000	64.172458 
1018.000000	64.182972 
1017.000000	64.194488 
1016.000000	64.205574 
1015.000000	64.214229 
1014.000000	64.218354 
1013.000000	64.215993 
1012.000000	64.205956 
1011.000000	64.187932 
1010.000000	64.162778 
1009.000000	64.132761 
1008.000000	64.101219 
1007.000000	64.072132 
1006.000000	64.049577 
1005.000000	64.036750 
1004.000000	64.035582 
1003.000000	64.046716 
1002.000000	64.069509 
1001.000000	64.101839 
1000.000000	64.140868 
999.000000	 64.183282 
998.000000	 64.225912 
997.000000	 64.265727 
996.000000	 64.300131 
995.000000	 64.327073 
994.000000	 64.345264 
993.000000	 64.354276 
992.000000	 64.354586 
991.000000	 64.347553 
990.000000	 64.335489 
989.000000	 64.321398 
988.000000	 64.308667 
987.000000	 64.300489 
986.000000	 64.299368 
985.000000	 64.306521 
984.000000	 64.321589 
983.000000	 64.342761 
982.000000	 64.366984 
981.000000	 64.390349 
980.000000	 64.408993 
979.000000	 64.419579 
978.000000	 64.420008 
977.000000	 64.409852 
976.000000	 64.390134 
975.000000	 64.363241 
974.000000	 64.332509 
973.000000	 64.301419 
972.000000	 64.273118 
971.000000	 64.249944 
970.000000	 64.233303 
969.000000	 64.223575 
968.000000	 64.220690 
967.000000	 64.224004 
966.000000	 64.232563 
965.000000	 64.244961 
964.000000	 64.259552 
963.000000	 64.274239 
962.000000	 64.286541 
961.000000	 64.294123 
960.000000	 64.295172 
959.000000	 64.288973 
958.000000	 64.275956 
957.000000	 64.257836 
956.000000	 64.237308 
955.000000	 64.217686 
954.000000	 64.202213 
953.000000	 64.193582 
952.000000	 64.193487 
951.000000	 64.202308 
950.000000	 64.219045 
949.000000	 64.241647 
948.000000	 64.267110 
947.000000	 64.292240 
946.000000	 64.314007 
945.000000	 64.329957 
944.000000	 64.338731 
943.000000	 64.340019 
942.000000	 64.334630 
941.000000	 64.324259 
940.000000	 64.311027 
939.000000	 64.297199 
938.000000	 64.284420 
937.000000	 64.273548 
936.000000	 64.264488 
935.000000	 64.256548 
934.000000	 64.248681 
933.000000	 64.240288 
932.000000	 64.231324 
931.000000	 64.222574 
930.000000	 64.215207 
929.000000	 64.210510 
928.000000	 64.209246 
927.000000	 64.211630 
926.000000	 64.217329 
925.000000	 64.225602 
924.000000	 64.235830 
923.000000	 64.247322 
922.000000	 64.259672 
921.000000	 64.272332 
920.000000	 64.284467 
919.000000	 64.294719 
918.000000	 64.301490 
917.000000	 64.302635 
916.000000	 64.296174 
915.000000	 64.280772 
914.000000	 64.256525 
913.000000	 64.225101 
912.000000	 64.189696 
911.000000	 64.154553 
910.000000	 64.124393 
909.000000	 64.103436 
908.000000	 64.094519 
907.000000	 64.098477 
906.000000	 64.114212 
905.000000	 64.138793 
904.000000	 64.168310 
903.000000	 64.198350 
902.000000	 64.224982 
901.000000	 64.245343 
900.000000	 64.258027 
899.000000	 64.263176 
898.000000	 64.262104 
897.000000	 64.256954 
896.000000	 64.249897 
895.000000	 64.242672 
894.000000	 64.235711 
893.000000	 64.228630 
892.000000	 64.219737 
891.000000	 64.206862 
890.000000	 64.187836 
889.000000	 64.161348 
888.000000	 64.127278 
887.000000	 64.087152 
886.000000	 64.044165 
885.000000	 64.002561 
884.000000	 63.967204 
883.000000	 63.942193 
882.000000	 63.930487 
881.000000	 63.933205 
880.000000	 63.949465 
879.000000	 63.976359 
878.000000	 64.009881 
877.000000	 64.045667 
876.000000	 64.079737 
875.000000	 64.109230 
874.000000	 64.132499 
873.000000	 64.149236 
872.000000	 64.160108 
871.000000	 64.166450 
870.000000	 64.169383 
869.000000	 64.169621 
868.000000	 64.167666 
867.000000	 64.163827 
866.000000	 64.158320 
865.000000	 64.151883 
864.000000	 64.145660 
863.000000	 64.141321 
862.000000	 64.140510 
861.000000	 64.144849 
860.000000	 64.155387 
859.000000	 64.172577 
858.000000	 64.195799 
857.000000	 64.223861 
856.000000	 64.255189 
855.000000	 64.288067 
854.000000	 64.321184 
853.000000	 64.353609 
852.000000	 64.384531 
851.000000	 64.413428 
850.000000	 64.439558 
849.000000	 64.461731 
848.000000	 64.477944 
847.000000	 64.486026 
846.000000	 64.483809 
845.000000	 64.469909 
844.000000	 64.443993 
843.000000	 64.407444 
842.000000	 64.362835 
841.000000	 64.313769 
840.000000	 64.263892 
839.000000	 64.216375 
838.000000	 64.173078 
837.000000	 64.134573 
836.000000	 64.099955 
835.000000	 64.067411 
834.000000	 64.035105 
833.000000	 64.001798 
832.000000	 63.967680 
831.000000	 63.933801 
830.000000	 63.902640 
829.000000	 63.877177 
828.000000	 63.860440 
827.000000	 63.854503 
826.000000	 63.860321 
825.000000	 63.877439 
824.000000	 63.904142 
823.000000	 63.937616 
822.000000	 63.974857 
821.000000	 64.013051 
820.000000	 64.050030 
819.000000	 64.084339 
818.000000	 64.115214 
817.000000	 64.142560 
816.000000	 64.166569 
815.000000	 64.187407 
814.000000	 64.205050 
813.000000	 64.218664 
812.000000	 64.227581 
811.000000	 64.230394 
810.000000	 64.225554 
809.000000	 64.211440 
808.000000	 64.187335 
807.000000	 64.153599 
806.000000	 64.111924 
805.000000	 64.065814 
804.000000	 64.019989 
803.000000	 63.979864 
802.000000	 63.950514 
801.000000	 63.935589 
800.000000	 63.936376 
799.000000	 63.951635 
798.000000	 63.977813 
797.000000	 64.009642 
796.000000	 64.041590 
795.000000	 64.068794 
794.000000	 64.088535 
793.000000	 64.100480 
792.000000	 64.106798 
791.000000	 64.111423 
790.000000	 64.119005 
789.000000	 64.133524 
788.000000	 64.157223 
787.000000	 64.190101 
786.000000	 64.229822 
785.000000	 64.272737 
784.000000	 64.313936 
783.000000	 64.348816 
782.000000	 64.373660 
781.000000	 64.386463 
780.000000	 64.386630 
779.000000	 64.375400 
778.000000	 64.354705 
777.000000	 64.327049 
776.000000	 64.294552 
775.000000	 64.258980 
774.000000	 64.221477 
773.000000	 64.183282 
772.000000	 64.145874 
771.000000	 64.111280 
770.000000	 64.082241 
769.000000	 64.061713 
768.000000	 64.052128 
767.000000	 64.054775 
766.000000	 64.068675 
765.000000	 64.091086 
764.000000	 64.117765 
763.000000	 64.144182 
762.000000	 64.166259 
761.000000	 64.181590 
760.000000	 64.189958 
759.000000	 64.193415 
758.000000	 64.195418 
757.000000	 64.199614 
756.000000	 64.208579 
755.000000	 64.222621 
754.000000	 64.239859 
753.000000	 64.256119 
752.000000	 64.266371 
751.000000	 64.265823 
750.000000	 64.251494 
749.000000	 64.222979 
748.000000	 64.182710 
747.000000	 64.135670 
746.000000	 64.087986 
745.000000	 64.046025 
744.000000	 64.014625 
743.000000	 63.996481 
742.000000	 63.991737 
741.000000	 63.998007 
740.000000	 64.011240 
739.000000	 64.026784 
738.000000	 64.040446 
737.000000	 64.049434 
736.000000	 64.053058 
735.000000	 64.052343 
734.000000	 64.050078 
733.000000	 64.049673 
732.000000	 64.054656 
731.000000	 64.067530 
730.000000	 64.089322 
729.000000	 64.119338 
728.000000	 64.155364 
727.000000	 64.193987 
726.000000	 64.231300 
725.000000	 64.263963 
724.000000	 64.289379 
723.000000	 64.306139 
722.000000	 64.313840 
721.000000	 64.312887 
720.000000	 64.304137 
719.000000	 64.288663 
718.000000	 64.267444 
717.000000	 64.241456 
716.000000	 64.211702 
715.000000	 64.179635 
714.000000	 64.146733 
713.000000	 64.114618 
712.000000	 64.084887 
711.000000	 64.059162 
710.000000	 64.038538 
709.000000	 64.023828 
708.000000	 64.015388 
707.000000	 64.013123 
706.000000	 64.016842 
705.000000	 64.026069 
704.000000	 64.039754 
703.000000	 64.056181 
702.000000	 64.072847 
701.000000	 64.086794 
700.000000	 64.094591 
699.000000	 64.093613 
698.000000	 64.082789 
697.000000	 64.063072 
696.000000	 64.037370 
695.000000	 64.010095 
694.000000	 63.986611 
693.000000	 63.971567 
692.000000	 63.967895 
691.000000	 63.976025 
690.000000	 63.993740 
689.000000	 64.016795 
688.000000	 64.040064 
687.000000	 64.058780 
686.000000	 64.069795 
685.000000	 64.071869 
684.000000	 64.066028 
683.000000	 64.054536 
682.000000	 64.040327 
681.000000	 64.025998 
680.000000	 64.013385 
679.000000	 64.003539 
678.000000	 63.996338 
677.000000	 63.991928 
676.000000	 63.989472 
675.000000	 63.987708 
674.000000	 63.984417 
673.000000	 63.976931 
672.000000	 63.962697 
671.000000	 63.939762 
670.000000	 63.908028 
669.000000	 63.869380 
668.000000	 63.828158 
667.000000	 63.790416 
666.000000	 63.762569 
665.000000	 63.749814 
664.000000	 63.754796 
663.000000	 63.776636 
662.000000	 63.810706 
661.000000	 63.849544 
660.000000	 63.884305 
659.000000	 63.907146 
658.000000	 63.912940 
657.000000	 63.900804 
656.000000	 63.874077 
655.000000	 63.839697 
654.000000	 63.806343 
653.000000	 63.782596 
652.000000	 63.775157 
651.000000	 63.787221 
650.000000	 63.818740 
649.000000	 63.866066 
648.000000	 63.923120 
647.000000	 63.982534 
646.000000	 64.037871 
645.000000	 64.083814 
644.000000	 64.117336 
643.000000	 64.136934 
642.000000	 64.142727 
641.000000	 64.135026 
640.000000	 64.113998 
639.000000	 64.079189 
638.000000	 64.030170 
637.000000	 63.967490 
636.000000	 63.893961 
635.000000	 63.814878 
634.000000	 63.738155 
633.000000	 63.672566 
632.000000	 63.626217 
631.000000	 63.604640 
630.000000	 63.609886 
629.000000	 63.639402 
628.000000	 63.687539 
627.000000	 63.746094 
626.000000	 63.807249 
625.000000	 63.864755 
624.000000	 63.915944 
623.000000	 63.961029 
622.000000	 64.003443 
621.000000	 64.047980 
620.000000	 64.098715 
619.000000	 64.157700 
618.000000	 64.222764 
617.000000	 64.289045 
616.000000	 64.347982 
615.000000	 64.390254 
614.000000	 64.406728 
613.000000	 64.391684 
612.000000	 64.343643 
611.000000	 64.266467 
610.000000	 64.169239 
609.000000	 64.064812 
608.000000	 63.968086 
607.000000	 63.893127 
606.000000	 63.850641 
605.000000	 63.846135 
604.000000	 63.878941 
603.000000	 63.942742 
602.000000	 64.027667 
601.000000	 64.122223 
600.000000	 64.215350 
599.000000	 64.298033 
598.000000	 64.364099 
597.000000	 64.410281 
596.000000	 64.435291 
595.000000	 64.439201 
594.000000	 64.422750 
593.000000	 64.386749 
592.000000	 64.332866 
591.000000	 64.262986 
590.000000	 64.180302 
589.000000	 64.089131 
588.000000	 63.995504 
587.000000	 63.906359 
586.000000	 63.829112 
585.000000	 63.770413 
584.000000	 63.734889 
583.000000	 63.724493 
582.000000	 63.737821 
581.000000	 63.770008 
580.000000	 63.813257 
579.000000	 63.857078 
578.000000	 63.889932 
577.000000	 63.901329 
576.000000	 63.883996 
575.000000	 63.834476 
574.000000	 63.754844 
573.000000	 63.652396 
572.000000	 63.539314 
571.000000	 63.430166 
570.000000	 63.339900 
569.000000	 63.280296 
568.000000	 63.259172 
567.000000	 63.279318 
566.000000	 63.337993 
565.000000	 63.426780 
564.000000	 63.534140 
563.000000	 63.647484 
562.000000	 63.754987 
561.000000	 63.846325 
560.000000	 63.914608 
559.000000	 63.955998 
558.000000	 63.971042 
557.000000	 63.963508 
556.000000	 63.940477 
555.000000	 63.910508 
554.000000	 63.884162 
553.000000	 63.872241 
552.000000	 63.882899 
551.000000	 63.920140 
550.000000	 63.983893 
549.000000	 64.069724 
548.000000	 64.170169 
547.000000	 64.275383 
546.000000	 64.376235 
545.000000	 64.463591 
544.000000	 64.529776 
543.000000	 64.567327 
542.000000	 64.570617 
541.000000	 64.534497 
540.000000	 64.456367 
539.000000	 64.335656 
538.000000	 64.176082 
537.000000	 63.984656 
536.000000	 63.772511 
535.000000	 63.553905 
534.000000	 63.343667 
533.000000	 63.158631 
532.000000	 63.015747 
531.000000	 62.930488 
530.000000	 62.913131 
529.000000	 62.969446 
528.000000	 63.098764 
527.000000	 63.293027 
526.000000	 63.537001 
525.000000	 63.810682 
524.000000	 64.091563 
523.000000	 64.358115 
522.000000	 64.592361 
521.000000	 64.781022 
520.000000	 64.916992 
519.000000	 64.999675 
518.000000	 65.033435 
517.000000	 65.028285 
516.000000	 64.994883 
515.000000	 64.945101 
514.000000	 64.885950 
513.000000	 64.822793 
512.000000	 64.754128 
511.000000	 64.677047 
510.000000	 64.584374 
509.000000	 64.469218 
508.000000	 64.325785 
507.000000	 64.153838 
506.000000	 63.957047 
505.000000	 63.742423 
504.000000	 63.520812 
503.000000	 63.304948 
502.000000	 63.108873 
501.000000	 62.945580 
500.000000	 62.827348 
499.000000	 62.763762 
498.000000	 62.762475 
497.000000	 62.826919 
496.000000	 62.955331 
495.000000	 63.138175 
494.000000	 63.357448 
493.000000	 63.586568 
492.000000	 63.792300 
491.000000	 63.940215 
490.000000	 64.000678 
489.000000	 63.956546 
488.000000	 63.804912 
487.000000	 63.562607 
486.000000	 63.263702 
485.000000	 62.955355 
484.000000	 62.687897 
483.000000	 62.507009 
482.000000	 62.445616 
481.000000	 62.516689 
480.000000	 62.712812 
479.000000	 63.005352 
478.000000	 63.351106 
477.000000	 63.699650 
476.000000	 64.002871 
475.000000	 64.223933 
474.000000	 64.342522 
473.000000	 64.358615 
472.000000	 64.290380 
471.000000	 64.170765 
470.000000	 64.038968 
469.000000	 63.935232 
468.000000	 63.890624 
467.000000	 63.923668 
466.000000	 64.033389 
465.000000	 64.204859 
464.000000	 64.407157 
463.000000	 64.600443 
462.000000	 64.741921 
461.000000	 64.793896 
460.000000	 64.732742 
459.000000	 64.552712 
458.000000	 64.269566 
457.000000	 63.917160 
456.000000	 63.541197 
455.000000	 63.189315 
454.000000	 62.902045 
453.000000	 62.706708 
452.000000	 62.611365 
451.000000	 62.607073 
450.000000	 62.669205 
449.000000	 62.765073 
448.000000	 62.860679 
447.000000	 62.928724 
446.000000	 62.950396 
445.000000	 62.917780 
444.000000	 62.838244 
443.000000	 62.731981 
442.000000	 62.628149 
441.000000	 62.558221 
440.000000	 62.548017 
439.000000	 62.612247 
438.000000	 62.754368 
437.000000	 62.964487 
436.000000	 63.219809 
435.000000	 63.490915 
434.000000	 63.747429 
433.000000	 63.965725 
432.000000	 64.131569 
431.000000	 64.243650 
430.000000	 64.314746 
429.000000	 64.362621 
428.000000	 64.403152 
427.000000	 64.444303 
426.000000	 64.488291 
425.000000	 64.522624 
424.000000	 64.527821 
423.000000	 64.475798 
422.000000	 64.340543 
421.000000	 64.102578 
420.000000	 63.758993 
419.000000	 63.322496 
418.000000	 62.823367 
417.000000	 62.318801 
416.000000	 61.885285 
415.000000	 61.608552 
414.000000	 61.564517 
413.000000	 61.799168 
412.000000	 62.314152 
411.000000	 63.060665 
410.000000	 63.948631 
409.000000	 64.855360 
408.000000	 65.662574 
407.000000	 66.274070 
406.000000	 66.651034 
405.000000	 66.811656 
404.000000	 66.834211 
403.000000	 66.837072 
402.000000	 66.940355 
401.000000	 67.239761 
400.000000	 67.762637 
399.000000	 68.470978 
398.000000	 69.245409 
397.000000	 69.933390 
396.000000	 70.350146 
395.000000	 70.329689 
394.000000	 69.761776 
393.000000	 68.620800 
392.000000	 66.997313 
391.000000	 65.102243 
390.000000	 63.141727 
389.000000	 61.294174 
388.000000	 59.807085 
387.000000	 58.881282 
386.000000	 58.835124 
385.000000	 59.939455 
384.000000	 61.633276 
383.000000	 63.137483 
382.000000	 63.922333 
381.000000	 63.785791 
380.000000	 63.894176 
379.000000	 65.387701 
378.000000	 68.503427 
377.000000	 72.758531 
376.000000	 75.295257 
375.000000	 73.974537 
374.000000	 69.085407 
373.000000	 62.543416 
372.000000	 59.848403 
371.000000	 64.107131 
370.000000	 73.667550 

