PE IR       SPECTRUM    SPECTRUM    ASCII       PEDS        1.60        
  -1
BZ6E24~1.ASC
17/04/07
17:03:40.00
17/04/07
17:03:40.00
tln
$BZ1503107-1_t0046$<tbV0>[10.4,-2.6,8.0,0.0,27,1,0]
370.000000
64









2002,4.07    
MIRTGS : RIGHTBACK : INTERNAL 2
MIR : ON : INTERNAL 2
OPTKBR

0.200000
8
8.000000
FILLER
RATIO
SPECTRUM
UNLOCKED 256

DOUBLE
64
COMBINED
1
0
0


1.000000
RATIO


1
0
TRUE
51149
0
LEFT NOT FITTED RIGHT NOT FITTED 0
NONE
NONE
15600
12.000000
4.427000
51148
TRUE
1 0 8 72 0 0 0 0 

15798.010000






#HDR
-1
-1
#GR
CM-1
%T
0.00002384185791015625
0.0
5000.000000
-1.000000
4631
8
66.878557
44.022297
#DATA
5000.000000	65.751767 
4999.000000	66.107201 
4998.000000	66.362714 
4997.000000	66.499829 
4996.000000	66.519641 
4995.000000	66.438484 
4994.000000	66.282963 
4993.000000	66.080498 
4992.000000	65.858244 
4991.000000	65.642094 
4990.000000	65.453147 
4989.000000	65.311145 
4988.000000	65.228128 
4987.000000	65.210247 
4986.000000	65.253400 
4985.000000	65.344691 
4984.000000	65.463399 
4983.000000	65.584683 
4982.000000	65.685033 
4981.000000	65.746879 
4980.000000	65.761923 
4979.000000	65.731334 
4978.000000	65.664553 
4977.000000	65.574765 
4976.000000	65.473794 
4975.000000	65.369200 
4974.000000	65.263080 
4973.000000	65.153312 
4972.000000	65.037870 
4971.000000	64.916586 
4970.000000	64.795064 
4969.000000	64.682245 
4968.000000	64.589524 
4967.000000	64.526081 
4966.000000	64.493083 
4965.000000	64.485979 
4964.000000	64.494395 
4963.000000	64.506602 
4962.000000	64.512276 
4961.000000	64.506149 
4960.000000	64.488530 
4959.000000	64.465808 
4958.000000	64.447784 
4957.000000	64.444494 
4956.000000	64.462637 
4955.000000	64.504432 
4954.000000	64.566731 
4953.000000	64.642381 
4952.000000	64.722204 
4951.000000	64.797663 
4950.000000	64.862799 
4949.000000	64.914631 
4948.000000	64.953804 
4947.000000	64.983201 
4946.000000	65.007328 
4945.000000	65.030956 
4944.000000	65.057802 
4943.000000	65.091919 
4942.000000	65.133571 
4941.000000	65.180158 
4940.000000	65.225028 
4939.000000	65.259552 
4938.000000	65.274786 
4937.000000	65.264177 
4936.000000	65.225791 
4935.000000	65.163707 
4934.000000	65.087294 
4933.000000	65.009236 
4932.000000	64.943027 
4931.000000	64.899897 
4930.000000	64.886736 
4929.000000	64.904952 
4928.000000	64.950585 
4927.000000	65.015697 
4926.000000	65.090942 
4925.000000	65.167760 
4924.000000	65.239548 
4923.000000	65.302777 
4922.000000	65.356636 
4921.000000	65.402555 
4920.000000	65.442085 
4919.000000	65.476393 
4918.000000	65.506720 
4917.000000	65.532541 
4916.000000	65.553641 
4915.000000	65.567493 
4914.000000	65.571308 
4913.000000	65.560650 
4912.000000	65.531396 
4911.000000	65.480756 
4910.000000	65.408825 
4909.000000	65.319728 
4908.000000	65.221786 
4907.000000	65.126228 
4906.000000	65.045309 
4905.000000	64.989256 
4904.000000	64.964103 
4903.000000	64.969468 
4902.000000	64.998745 
4901.000000	65.040087 
4900.000000	65.079259 
4899.000000	65.102481 
4898.000000	65.100049 
4897.000000	65.067720 
4896.000000	65.008234 
4895.000000	64.929819 
4894.000000	64.844822 
4893.000000	64.765691 
4892.000000	64.702939 
4891.000000	64.663314 
4890.000000	64.648652 
4889.000000	64.656472 
4888.000000	64.680886 
4887.000000	64.714574 
4886.000000	64.750337 
4885.000000	64.782357 
4884.000000	64.807319 
4883.000000	64.824056 
4882.000000	64.833688 
4881.000000	64.838099 
4880.000000	64.839625 
4879.000000	64.839839 
4878.000000	64.839529 
4877.000000	64.838385 
4876.000000	64.835143 
4875.000000	64.827799 
4874.000000	64.814543 
4873.000000	64.794254 
4872.000000	64.766526 
4871.000000	64.732265 
4870.000000	64.693355 
4869.000000	64.652943 
4868.000000	64.614820 
4867.000000	64.583301 
4866.000000	64.562034 
4865.000000	64.554023 
4864.000000	64.560627 
4863.000000	64.581799 
4862.000000	64.615774 
4861.000000	64.659571 
4860.000000	64.709067 
4859.000000	64.759612 
4858.000000	64.806723 
4857.000000	64.846038 
4856.000000	64.874196 
4855.000000	64.888787 
4854.000000	64.888572 
4853.000000	64.873886 
4852.000000	64.846682 
4851.000000	64.810538 
4850.000000	64.770126 
4849.000000	64.730501 
4848.000000	64.696240 
4847.000000	64.670848 
4846.000000	64.656019 
4845.000000	64.651155 
4844.000000	64.653873 
4843.000000	64.660596 
4842.000000	64.667630 
4841.000000	64.672088 
4840.000000	64.672350 
4839.000000	64.668822 
4838.000000	64.663076 
4837.000000	64.656710 
4836.000000	64.650774 
4835.000000	64.644837 
4834.000000	64.637279 
4833.000000	64.625501 
4832.000000	64.607000 
4831.000000	64.580202 
4830.000000	64.545226 
4829.000000	64.504337 
4828.000000	64.461398 
4827.000000	64.420986 
4826.000000	64.387631 
4825.000000	64.364743 
4824.000000	64.354062 
4823.000000	64.355134 
4822.000000	64.365887 
4821.000000	64.383316 
4820.000000	64.404296 
4819.000000	64.426326 
4818.000000	64.447975 
4817.000000	64.469194 
4816.000000	64.491057 
4815.000000	64.515471 
4814.000000	64.544415 
4813.000000	64.579224 
4812.000000	64.620375 
4811.000000	64.666724 
4810.000000	64.715528 
4809.000000	64.762258 
4808.000000	64.802336 
4807.000000	64.831113 
4806.000000	64.845442 
4805.000000	64.843988 
4804.000000	64.828157 
4803.000000	64.801406 
4802.000000	64.769053 
4801.000000	64.736485 
4800.000000	64.708399 
4799.000000	64.687108 
4798.000000	64.672613 
4797.000000	64.662480 
4796.000000	64.653134 
4795.000000	64.641070 
4794.000000	64.624118 
4793.000000	64.602398 
4792.000000	64.578390 
4791.000000	64.555883 
4790.000000	64.539337 
4789.000000	64.531755 
4788.000000	64.534592 
4787.000000	64.547395 
4786.000000	64.568567 
4785.000000	64.595580 
4784.000000	64.626312 
4783.000000	64.659595 
4782.000000	64.695048 
4781.000000	64.732480 
4780.000000	64.770913 
4779.000000	64.808058 
4778.000000	64.839887 
4777.000000	64.861202 
4776.000000	64.866828 
4775.000000	64.853310 
4774.000000	64.820051 
4773.000000	64.770269 
4772.000000	64.710140 
4771.000000	64.647746 
4770.000000	64.591288 
4769.000000	64.547443 
4768.000000	64.520192 
4767.000000	64.510083 
4766.000000	64.514994 
4765.000000	64.530849 
4764.000000	64.552712 
4763.000000	64.575982 
4762.000000	64.596915 
4761.000000	64.612960 
4760.000000	64.622282 
4759.000000	64.623785 
4758.000000	64.616966 
4757.000000	64.602136 
4756.000000	64.580225 
4755.000000	64.553356 
4754.000000	64.524602 
4753.000000	64.497780 
4752.000000	64.477133 
4751.000000	64.466476 
4750.000000	64.468050 
4749.000000	64.482712 
4748.000000	64.509510 
4747.000000	64.546322 
4746.000000	64.590239 
4745.000000	64.637970 
4744.000000	64.686369 
4743.000000	64.732599 
4742.000000	64.774036 
4741.000000	64.808177 
4740.000000	64.832878 
4739.000000	64.846658 
4738.000000	64.849305 
4737.000000	64.842534 
4736.000000	64.830112 
4735.000000	64.817786 
4734.000000	64.812064 
4733.000000	64.819335 
4732.000000	64.843678 
4731.000000	64.885449 
4730.000000	64.940476 
4729.000000	65.001034 
4728.000000	65.057015 
4727.000000	65.097975 
4726.000000	65.116000 
4725.000000	65.107536 
4724.000000	65.074419 
4723.000000	65.023612 
4722.000000	64.965438 
4721.000000	64.910840 
4720.000000	64.868807 
4719.000000	64.844822 
4718.000000	64.839577 
4717.000000	64.849877 
4716.000000	64.869570 
4715.000000	64.891767 
4714.000000	64.909791 
4713.000000	64.918708 
4712.000000	64.915561 
4711.000000	64.899635 
4710.000000	64.871358 
4709.000000	64.831924 
4708.000000	64.782786 
4707.000000	64.725422 
4706.000000	64.661550 
4705.000000	64.593124 
4704.000000	64.522624 
4703.000000	64.453482 
4702.000000	64.389324 
4701.000000	64.334583 
4700.000000	64.292836 
4699.000000	64.267706 
4698.000000	64.262175 
4697.000000	64.278125 
4696.000000	64.314985 
4695.000000	64.369893 
4694.000000	64.437365 
4693.000000	64.510011 
4692.000000	64.578652 
4691.000000	64.635610 
4690.000000	64.675903 
4689.000000	64.699769 
4688.000000	64.712262 
4687.000000	64.722728 
4686.000000	64.742088 
4685.000000	64.780187 
4684.000000	64.842915 
4683.000000	64.930129 
4682.000000	65.035080 
4681.000000	65.146064 
4680.000000	65.248847 
4679.000000	65.330243 
4678.000000	65.380620 
4677.000000	65.397000 
4676.000000	65.382122 
4675.000000	65.343213 
4674.000000	65.288996 
4673.000000	65.228128 
4672.000000	65.165829 
4671.000000	65.103888 
4670.000000	65.040445 
4669.000000	64.973115 
4668.000000	64.899659 
4667.000000	64.820218 
4666.000000	64.737987 
4665.000000	64.658951 
4664.000000	64.591407 
4663.000000	64.543509 
4662.000000	64.521312 
4661.000000	64.526700 
4660.000000	64.557456 
4659.000000	64.607334 
4658.000000	64.667296 
4657.000000	64.727401 
4656.000000	64.779567 
4655.000000	64.819216 
4654.000000	64.845490 
4653.000000	64.861321 
4652.000000	64.871740 
4651.000000	64.882588 
4650.000000	64.898371 
4649.000000	64.921545 
4648.000000	64.952349 
4647.000000	64.988732 
4646.000000	65.027880 
4645.000000	65.066623 
4644.000000	65.103149 
4643.000000	65.136528 
4642.000000	65.167379 
4641.000000	65.196633 
4640.000000	65.224981 
4639.000000	65.252327 
4638.000000	65.277647 
4637.000000	65.299105 
4636.000000	65.314626 
4635.000000	65.322470 
4634.000000	65.322017 
4633.000000	65.313124 
4632.000000	65.296506 
4631.000000	65.273427 
4630.000000	65.245652 
4629.000000	65.215563 
4628.000000	65.186095 
4627.000000	65.160918 
4626.000000	65.143871 
4625.000000	65.138912 
4624.000000	65.148830 
4623.000000	65.174555 
4622.000000	65.214300 
4621.000000	65.263724 
4620.000000	65.315961 
4619.000000	65.362977 
4618.000000	65.396451 
4617.000000	65.409755 
4616.000000	65.398573 
4615.000000	65.362286 
4614.000000	65.303516 
4613.000000	65.227937 
4612.000000	65.142726 
4611.000000	65.055584 
4610.000000	64.973425 
4609.000000	64.901828 
4608.000000	64.844250 
4607.000000	64.802289 
4606.000000	64.775514 
4605.000000	64.762067 
4604.000000	64.758801 
4603.000000	64.762282 
4602.000000	64.769530 
4601.000000	64.778661 
4600.000000	64.788579 
4599.000000	64.799237 
4598.000000	64.811015 
4597.000000	64.824509 
4596.000000	64.840030 
4595.000000	64.857983 
4594.000000	64.877915 
4593.000000	64.899373 
4592.000000	64.922237 
4591.000000	64.946293 
4590.000000	64.970993 
4589.000000	64.995408 
4588.000000	65.018415 
4587.000000	65.038633 
4586.000000	65.054607 
4585.000000	65.065431 
4584.000000	65.071010 
4583.000000	65.072250 
4582.000000	65.071129 
4581.000000	65.069913 
4580.000000	65.070915 
4579.000000	65.074682 
4578.000000	65.079689 
4577.000000	65.082168 
4576.000000	65.077233 
4575.000000	65.059900 
4574.000000	65.027308 
4573.000000	64.979577 
4572.000000	64.921045 
4571.000000	64.859604 
4570.000000	64.805912 
4569.000000	64.770340 
4568.000000	64.762115 
4567.000000	64.787244 
4566.000000	64.847326 
4565.000000	64.939141 
4564.000000	65.055131 
4563.000000	65.184545 
4562.000000	65.314960 
4561.000000	65.434360 
4560.000000	65.532779 
4559.000000	65.603733 
4558.000000	65.644478 
4557.000000	65.656185 
4556.000000	65.642762 
4555.000000	65.609836 
4554.000000	65.563344 
4553.000000	65.509080 
4552.000000	65.451240 
4551.000000	65.392589 
4550.000000	65.335106 
4549.000000	65.280675 
4548.000000	65.231108 
4547.000000	65.188455 
4546.000000	65.154719 
4545.000000	65.131545 
4544.000000	65.119028 
4543.000000	65.116190 
4542.000000	65.119791 
4541.000000	65.126419 
4540.000000	65.132641 
4539.000000	65.136933 
4538.000000	65.139937 
4537.000000	65.144181 
4536.000000	65.153169 
4535.000000	65.169906 
4534.000000	65.195631 
4533.000000	65.228962 
4532.000000	65.265727 
4531.000000	65.300393 
4530.000000	65.326786 
4529.000000	65.341258 
4528.000000	65.343952 
4527.000000	65.339112 
4526.000000	65.333890 
4525.000000	65.337300 
4524.000000	65.357470 
4523.000000	65.399050 
4522.000000	65.461564 
4521.000000	65.538859 
4520.000000	65.620160 
4519.000000	65.692663 
4518.000000	65.744423 
4517.000000	65.767121 
4516.000000	65.758132 
4515.000000	65.721225 
4514.000000	65.665769 
4513.000000	65.603637 
4512.000000	65.547490 
4511.000000	65.507578 
4510.000000	65.490555 
4509.000000	65.499401 
4508.000000	65.532588 
4507.000000	65.586209 
4506.000000	65.653061 
4505.000000	65.724635 
4504.000000	65.791368 
4503.000000	65.843725 
4502.000000	65.873789 
4501.000000	65.876460 
4500.000000	65.849924 
4499.000000	65.796399 
4498.000000	65.720915 
4497.000000	65.630698 
4496.000000	65.533614 
4495.000000	65.437102 
4494.000000	65.347790 
4493.000000	65.270948 
4492.000000	65.210771 
4491.000000	65.170311 
4490.000000	65.150761 
4489.000000	65.151667 
4488.000000	65.170907 
4487.000000	65.204620 
4486.000000	65.246558 
4485.000000	65.289711 
4484.000000	65.326046 
4483.000000	65.349626 
4482.000000	65.356850 
4481.000000	65.348100 
4480.000000	65.327715 
4479.000000	65.302062 
4478.000000	65.277743 
4477.000000	65.259933 
4476.000000	65.250635 
4475.000000	65.249824 
4474.000000	65.256333 
4473.000000	65.268158 
4472.000000	65.283894 
4471.000000	65.300393 
4470.000000	65.313720 
4469.000000	65.319681 
4468.000000	65.315604 
4467.000000	65.303707 
4466.000000	65.292000 
4465.000000	65.290880 
4464.000000	65.311360 
4463.000000	65.369915 
4462.000000	65.479588 
4461.000000	65.633583 
4460.000000	65.813064 
4459.000000	66.000413 
4458.000000	66.176557 
4457.000000	66.323709 
4456.000000	66.429185 
4455.000000	66.487503 
4454.000000	66.499805 
4453.000000	66.475725 
4452.000000	66.426086 
4451.000000	66.357350 
4450.000000	66.274857 
4449.000000	66.186094 
4448.000000	66.095638 
4447.000000	66.003870 
4446.000000	65.918159 
4445.000000	65.852618 
4444.000000	65.832209 
4443.000000	65.882182 
4442.000000	66.027545 
4441.000000	66.270112 
4440.000000	66.568207 
4439.000000	66.820311 
4438.000000	66.878557 
4437.000000	66.562700 
4436.000000	65.694808 
4435.000000	64.146661 
4434.000000	61.877226 
4433.000000	58.972191 
4432.000000	55.631303 
4431.000000	52.169489 
4430.000000	48.945736 
4429.000000	46.330094 
4428.000000	44.623804 
4427.000000	44.022297 
4426.000000	44.565010 
4425.000000	46.145534 
4424.000000	48.522114 
4423.000000	51.375865 
4422.000000	54.350280 
4421.000000	57.134008 
4420.000000	59.490418 
4419.000000	61.300301 
4418.000000	62.546992 
4417.000000	63.311100 
4416.000000	63.723206 
4415.000000	63.935780 
4414.000000	64.078426 
4413.000000	64.240932 
4412.000000	64.454412 
4411.000000	64.715623 
4410.000000	64.988064 
4409.000000	65.229320 
4408.000000	65.399265 
4407.000000	65.482473 
4406.000000	65.484833 
4405.000000	65.425562 
4404.000000	65.334224 
4403.000000	65.241265 
4402.000000	65.172266 
4401.000000	65.138721 
4400.000000	65.142583 
4399.000000	65.188765 
4398.000000	65.273642 
4397.000000	65.385150 
4396.000000	65.507984 
4395.000000	65.626931 
4394.000000	65.728974 
4393.000000	65.806603 
4392.000000	65.854835 
4391.000000	65.868806 
4390.000000	65.851926 
4389.000000	65.816044 
4388.000000	65.766906 
4387.000000	65.703344 
4386.000000	65.626502 
4385.000000	65.539813 
4384.000000	65.448164 
4383.000000	65.358066 
4382.000000	65.278601 
4381.000000	65.218687 
4380.000000	65.184593 
4379.000000	65.178585 
4378.000000	65.198159 
4377.000000	65.236377 
4376.000000	65.281963 
4375.000000	65.323209 
4374.000000	65.349984 
4373.000000	65.356755 
4372.000000	65.342879 
4371.000000	65.313267 
4370.000000	65.276002 
4369.000000	65.240836 
4368.000000	65.216279 
4367.000000	65.207576 
4366.000000	65.215706 
4365.000000	65.237331 
4364.000000	65.266323 
4363.000000	65.295457 
4362.000000	65.318751 
4361.000000	65.332245 
4360.000000	65.335083 
4359.000000	65.329217 
4358.000000	65.318965 
4357.000000	65.309309 
4356.000000	65.304827 
4355.000000	65.308928 
4354.000000	65.322995 
4353.000000	65.346837 
4352.000000	65.378260 
4351.000000	65.414118 
4350.000000	65.450406 
4349.000000	65.483403 
4348.000000	65.509891 
4347.000000	65.527415 
4346.000000	65.535187 
4345.000000	65.533852 
4344.000000	65.525913 
4343.000000	65.515112 
4342.000000	65.505981 
4341.000000	65.503096 
4340.000000	65.509748 
4339.000000	65.527534 
4338.000000	65.555620 
4337.000000	65.590906 
4336.000000	65.628409 
4335.000000	65.662169 
4334.000000	65.686440 
4333.000000	65.696620 
4332.000000	65.690088 
4331.000000	65.666437 
4330.000000	65.627193 
4329.000000	65.575313 
4328.000000	65.514612 
4327.000000	65.449309 
4326.000000	65.383386 
4325.000000	65.320611 
4324.000000	65.264749 
4323.000000	65.219664 
4322.000000	65.188670 
4321.000000	65.174651 
4320.000000	65.179276 
4319.000000	65.202975 
4318.000000	65.243506 
4317.000000	65.296936 
4316.000000	65.357637 
4315.000000	65.419244 
4314.000000	65.475296 
4313.000000	65.520405 
4312.000000	65.550708 
4311.000000	65.564680 
4310.000000	65.562868 
4309.000000	65.547776 
4308.000000	65.523219 
4307.000000	65.493965 
4306.000000	65.464711 
4305.000000	65.439772 
4304.000000	65.422034 
4303.000000	65.412950 
4302.000000	65.411829 
4301.000000	65.416002 
4300.000000	65.421223 
4299.000000	65.422463 
4298.000000	65.415310 
4297.000000	65.396523 
4296.000000	65.365409 
4295.000000	65.324234 
4294.000000	65.277767 
4293.000000	65.231704 
4292.000000	65.192031 
4291.000000	65.163230 
4290.000000	65.147757 
4289.000000	65.145397 
4288.000000	65.153598 
4287.000000	65.168309 
4286.000000	65.185260 
4285.000000	65.200901 
4284.000000	65.212917 
4283.000000	65.220451 
4282.000000	65.224194 
4281.000000	65.225625 
4280.000000	65.226173 
4279.000000	65.226602 
4278.000000	65.226674 
4277.000000	65.225362 
4276.000000	65.221238 
4275.000000	65.213036 
4274.000000	65.200257 
4273.000000	65.183782 
4272.000000	65.165805 
4271.000000	65.149807 
4270.000000	65.140056 
4269.000000	65.140509 
4268.000000	65.153908 
4267.000000	65.180873 
4266.000000	65.219640 
4265.000000	65.266132 
4264.000000	65.314412 
4263.000000	65.358161 
4262.000000	65.391731 
4261.000000	65.411543 
4260.000000	65.416717 
4259.000000	65.408968 
4258.000000	65.392351 
4257.000000	65.371608 
4256.000000	65.351295 
4255.000000	65.334391 
4254.000000	65.322017 
4253.000000	65.313267 
4252.000000	65.305900 
4251.000000	65.297532 
4250.000000	65.286660 
4249.000000	65.273118 
4248.000000	65.258145 
4247.000000	65.243697 
4246.000000	65.231633 
4245.000000	65.222692 
4244.000000	65.216302 
4243.000000	65.210676 
4242.000000	65.203428 
4241.000000	65.192580 
4240.000000	65.177297 
4239.000000	65.158224 
4238.000000	65.137386 
4237.000000	65.117549 
4236.000000	65.101432 
4235.000000	65.090942 
4234.000000	65.086460 
4233.000000	65.086460 
4232.000000	65.088272 
4231.000000	65.088772 
4230.000000	65.085315 
4229.000000	65.076231 
4228.000000	65.061378 
4227.000000	65.042042 
4226.000000	65.020561 
4225.000000	64.999556 
4224.000000	64.981341 
4223.000000	64.967417 
4222.000000	64.958310 
4221.000000	64.953851 
4220.000000	64.953422 
4219.000000	64.956426 
4218.000000	64.962315 
4217.000000	64.970827 
4216.000000	64.981865 
4215.000000	64.995288 
4214.000000	65.010452 
4213.000000	65.026187 
4212.000000	65.040469 
4211.000000	65.050840 
4210.000000	65.054941 
4209.000000	65.050864 
4208.000000	65.037894 
4207.000000	65.016555 
4206.000000	64.989089 
4205.000000	64.958357 
4204.000000	64.927697 
4203.000000	64.900183 
4202.000000	64.878225 
4201.000000	64.863252 
4200.000000	64.855718 
4199.000000	64.855051 
4198.000000	64.859843 
4197.000000	64.868021 
4196.000000	64.877080 
4195.000000	64.884233 
4194.000000	64.886736 
4193.000000	64.882087 
4192.000000	64.868688 
4191.000000	64.846253 
4190.000000	64.815902 
4189.000000	64.779996 
4188.000000	64.741921 
4187.000000	64.705491 
4186.000000	64.674186 
4185.000000	64.650297 
4184.000000	64.634847 
4183.000000	64.627170 
4182.000000	64.625906 
4181.000000	64.629459 
4180.000000	64.636731 
4179.000000	64.647150 
4178.000000	64.660835 
4177.000000	64.677953 
4176.000000	64.698147 
4175.000000	64.720034 
4174.000000	64.740920 
4173.000000	64.757251 
4172.000000	64.765381 
4171.000000	64.762639 
4170.000000	64.748120 
4169.000000	64.723348 
4168.000000	64.692091 
4167.000000	64.660000 
4166.000000	64.633059 
4165.000000	64.616680 
4164.000000	64.614367 
4163.000000	64.627170 
4162.000000	64.653849 
4161.000000	64.690732 
4160.000000	64.733052 
4159.000000	64.775395 
4158.000000	64.812469 
4157.000000	64.839959 
4156.000000	64.854884 
4155.000000	64.856147 
4154.000000	64.844179 
4153.000000	64.821529 
4152.000000	64.792227 
4151.000000	64.761233 
4150.000000	64.733600 
4149.000000	64.713430 
4148.000000	64.703321 
4147.000000	64.703512 
4146.000000	64.712119 
4145.000000	64.725327 
4144.000000	64.738821 
4143.000000	64.748525 
4142.000000	64.752101 
4141.000000	64.749169 
4140.000000	64.741444 
4139.000000	64.731836 
4138.000000	64.723396 
4137.000000	64.718055 
4136.000000	64.716339 
4135.000000	64.717006 
4134.000000	64.718079 
4133.000000	64.717459 
4132.000000	64.714288 
4131.000000	64.709401 
4130.000000	64.705467 
4129.000000	64.706444 
4128.000000	64.716196 
4127.000000	64.737510 
4126.000000	64.770579 
4125.000000	64.812827 
4124.000000	64.859127 
4123.000000	64.902710 
4122.000000	64.937067 
4121.000000	64.957284 
4120.000000	64.961481 
4119.000000	64.950895 
4118.000000	64.929819 
4117.000000	64.904427 
4116.000000	64.881443 
4115.000000	64.866328 
4114.000000	64.862465 
4113.000000	64.870119 
4112.000000	64.886832 
4111.000000	64.908075 
4110.000000	64.928269 
4109.000000	64.942455 
4108.000000	64.947414 
4107.000000	64.942693 
4106.000000	64.930081 
4105.000000	64.913630 
4104.000000	64.898300 
4103.000000	64.889240 
4102.000000	64.890360 
4101.000000	64.903640 
4100.000000	64.929032 
4099.000000	64.964485 
4098.000000	65.006566 
4097.000000	65.051054 
4096.000000	65.093755 
4095.000000	65.130949 
4094.000000	65.159964 
4093.000000	65.179347 
4092.000000	65.188717 
4091.000000	65.188574 
4090.000000	65.179967 
4089.000000	65.164494 
4088.000000	65.143704 
4087.000000	65.119266 
4086.000000	65.092253 
4085.000000	65.063357 
4084.000000	65.032505 
4083.000000	64.999437 
4082.000000	64.963698 
4081.000000	64.925169 
4080.000000	64.884495 
4079.000000	64.842987 
4078.000000	64.803218 
4077.000000	64.768052 
4076.000000	64.740920 
4075.000000	64.724516 
4074.000000	64.720988 
4073.000000	64.730787 
4072.000000	64.753055 
4071.000000	64.785170 
4070.000000	64.823579 
4069.000000	64.864015 
4068.000000	64.902281 
4067.000000	64.934659 
4066.000000	64.958453 
4065.000000	64.972281 
4064.000000	64.975953 
4063.000000	64.970302 
4062.000000	64.956974 
4061.000000	64.937996 
4060.000000	64.915251 
4059.000000	64.890241 
4058.000000	64.864087 
4057.000000	64.837741 
4056.000000	64.811968 
4055.000000	64.788389 
4054.000000	64.769101 
4053.000000	64.757299 
4052.000000	64.756608 
4051.000000	64.770317 
4050.000000	64.800143 
4049.000000	64.845514 
4048.000000	64.903020 
4047.000000	64.966607 
4046.000000	65.028285 
4045.000000	65.080046 
4044.000000	65.115070 
4043.000000	65.129756 
4042.000000	65.124416 
4041.000000	65.103387 
4040.000000	65.073776 
4039.000000	65.043783 
4038.000000	65.020537 
4037.000000	65.008401 
4036.000000	65.007829 
4035.000000	65.015721 
4034.000000	65.026283 
4033.000000	65.032911 
4032.000000	65.030026 
4031.000000	65.014266 
4030.000000	64.985704 
4029.000000	64.947462 
4028.000000	64.905381 
4027.000000	64.866185 
4026.000000	64.836239 
4025.000000	64.820337 
4024.000000	64.820337 
4023.000000	64.835214 
4022.000000	64.861011 
4021.000000	64.892101 
4020.000000	64.922118 
4019.000000	64.945197 
4018.000000	64.957213 
4017.000000	64.956235 
4016.000000	64.943027 
4015.000000	64.920496 
4014.000000	64.893102 
4013.000000	64.865684 
4012.000000	64.842581 
4011.000000	64.826774 
4010.000000	64.819574 
4009.000000	64.820671 
4008.000000	64.828658 
4007.000000	64.841628 
4006.000000	64.857959 
4005.000000	64.876770 
4004.000000	64.897489 
4003.000000	64.920091 
4002.000000	64.944052 
4001.000000	64.968657 
4000.000000	64.992761 
3999.000000	65.014958 
3998.000000	65.033912 
3997.000000	65.048575 
3996.000000	65.058755 
3995.000000	65.065264 
3994.000000	65.069794 
3993.000000	65.074920 
3992.000000	65.083265 
3991.000000	65.097093 
3990.000000	65.117716 
3989.000000	65.145111 
3988.000000	65.178060 
3987.000000	65.214133 
3986.000000	65.250182 
3985.000000	65.282726 
3984.000000	65.308713 
3983.000000	65.326046 
3982.000000	65.333819 
3981.000000	65.332508 
3980.000000	65.323400 
3979.000000	65.308618 
3978.000000	65.289950 
3977.000000	65.268659 
3976.000000	65.244722 
3975.000000	65.217328 
3974.000000	65.185236 
3973.000000	65.147542 
3972.000000	65.104556 
3971.000000	65.057969 
3970.000000	65.010738 
3969.000000	64.967012 
3968.000000	64.930939 
3967.000000	64.905118 
3966.000000	64.890670 
3965.000000	64.886522 
3964.000000	64.890074 
3963.000000	64.897298 
3962.000000	64.904713 
3961.000000	64.910006 
3960.000000	64.912867 
3959.000000	64.914751 
3958.000000	64.918255 
3957.000000	64.925718 
3956.000000	64.938569 
3955.000000	64.956402 
3954.000000	64.977216 
3953.000000	64.997649 
3952.000000	65.014243 
3951.000000	65.024137 
3950.000000	65.025997 
3949.000000	65.020084 
3948.000000	65.008378 
3947.000000	64.993739 
3946.000000	64.979100 
3945.000000	64.966440 
3944.000000	64.957189 
3943.000000	64.950752 
3942.000000	64.945483 
3941.000000	64.938211 
3940.000000	64.925980 
3939.000000	64.906263 
3938.000000	64.877533 
3937.000000	64.840292 
3936.000000	64.796781 
3935.000000	64.751601 
3934.000000	64.710474 
3933.000000	64.679956 
3932.000000	64.665746 
3931.000000	64.671754 
3930.000000	64.698839 
3929.000000	64.744496 
3928.000000	64.802885 
3927.000000	64.866042 
3926.000000	64.925193 
3925.000000	64.972734 
3924.000000	65.003728 
3923.000000	65.016484 
3922.000000	65.012979 
3921.000000	64.998245 
3920.000000	64.979004 
3919.000000	64.962410 
3918.000000	64.953994 
3917.000000	64.957284 
3916.000000	64.972591 
3915.000000	64.997720 
3914.000000	65.028309 
3913.000000	65.059375 
3912.000000	65.086150 
3911.000000	65.104985 
3910.000000	65.114140 
3909.000000	65.113496 
3908.000000	65.104722 
3907.000000	65.090394 
3906.000000	65.073585 
3905.000000	65.057110 
3904.000000	65.043282 
3903.000000	65.033650 
3902.000000	65.029358 
3901.000000	65.031337 
3900.000000	65.040612 
3899.000000	65.058279 
3898.000000	65.085291 
3897.000000	65.121841 
3896.000000	65.167117 
3895.000000	65.218782 
3894.000000	65.272426 
3893.000000	65.322446 
3892.000000	65.362763 
3891.000000	65.388035 
3890.000000	65.394759 
3889.000000	65.382075 
3888.000000	65.352320 
3887.000000	65.310168 
3886.000000	65.262150 
3885.000000	65.214705 
3884.000000	65.172934 
3883.000000	65.139484 
3882.000000	65.114617 
3881.000000	65.096712 
3880.000000	65.083575 
3879.000000	65.073227 
3878.000000	65.064954 
3877.000000	65.059328 
3876.000000	65.057992 
3875.000000	65.062451 
3874.000000	65.073299 
3873.000000	65.089440 
3872.000000	65.108394 
3871.000000	65.126562 
3870.000000	65.140271 
3869.000000	65.146899 
3868.000000	65.145397 
3867.000000	65.136623 
3866.000000	65.122985 
3865.000000	65.107703 
3864.000000	65.093851 
3863.000000	65.083289 
3862.000000	65.076708 
3861.000000	65.073800 
3860.000000	65.073466 
3859.000000	65.074968 
3858.000000	65.077638 
3857.000000	65.081667 
3856.000000	65.087389 
3855.000000	65.095043 
3854.000000	65.103960 
3853.000000	65.112400 
3852.000000	65.117883 
3851.000000	65.117716 
3850.000000	65.109777 
3849.000000	65.093350 
3848.000000	65.069699 
3847.000000	65.042161 
3846.000000	65.015745 
3845.000000	64.995861 
3844.000000	64.987087 
3843.000000	64.991927 
3842.000000	65.010523 
3841.000000	65.040230 
3840.000000	65.076327 
3839.000000	65.112972 
3838.000000	65.144729 
3837.000000	65.167355 
3836.000000	65.178894 
3835.000000	65.179538 
3834.000000	65.171217 
3833.000000	65.157055 
3832.000000	65.140533 
3831.000000	65.124511 
3830.000000	65.110921 
3829.000000	65.100622 
3828.000000	65.093755 
3827.000000	65.090131 
3826.000000	65.090012 
3825.000000	65.093874 
3824.000000	65.102458 
3823.000000	65.116310 
3822.000000	65.135431 
3821.000000	65.158486 
3820.000000	65.182614 
3819.000000	65.203619 
3818.000000	65.216708 
3817.000000	65.217447 
3816.000000	65.202689 
3815.000000	65.171647 
3814.000000	65.126204 
3813.000000	65.070939 
3812.000000	65.012645 
3811.000000	64.958858 
3810.000000	64.916682 
3809.000000	64.891386 
3808.000000	64.885616 
3807.000000	64.898848 
3806.000000	64.927530 
3805.000000	64.965963 
3804.000000	65.007162 
3803.000000	65.044331 
3802.000000	65.071797 
3801.000000	65.085697 
3800.000000	65.084409 
3799.000000	65.068030 
3798.000000	65.038466 
3797.000000	64.998745 
3796.000000	64.952445 
3795.000000	64.903211 
3794.000000	64.854598 
3793.000000	64.810037 
3792.000000	64.772629 
3791.000000	64.745211 
3790.000000	64.729690 
3789.000000	64.727067 
3788.000000	64.736986 
3787.000000	64.758062 
3786.000000	64.787316 
3785.000000	64.821219 
3784.000000	64.856028 
3783.000000	64.888811 
3782.000000	64.917421 
3781.000000	64.941024 
3780.000000	64.959549 
3779.000000	64.973592 
3778.000000	64.983987 
3777.000000	64.991497 
3776.000000	64.996647 
3775.000000	64.999771 
3774.000000	65.001296 
3773.000000	65.002155 
3772.000000	65.003728 
3771.000000	65.007591 
3770.000000	65.015292 
3769.000000	65.027618 
3768.000000	65.044307 
3767.000000	65.063762 
3766.000000	65.083241 
3765.000000	65.099430 
3764.000000	65.109086 
3763.000000	65.110087 
3762.000000	65.101456 
3761.000000	65.083646 
3760.000000	65.058088 
3759.000000	65.026950 
3758.000000	64.992642 
3757.000000	64.957666 
3756.000000	64.924120 
3755.000000	64.894032 
3754.000000	64.868927 
3753.000000	64.850068 
3752.000000	64.838218 
3751.000000	64.833402 
3750.000000	64.835381 
3749.000000	64.843416 
3748.000000	64.856672 
3747.000000	64.874005 
3746.000000	64.894175 
3745.000000	64.916014 
3744.000000	64.938354 
3743.000000	64.959955 
3742.000000	64.979457 
3741.000000	64.995503 
3740.000000	65.006685 
3739.000000	65.011787 
3738.000000	65.009951 
3737.000000	65.001106 
3736.000000	64.986014 
3735.000000	64.966416 
3734.000000	64.944839 
3733.000000	64.924359 
3732.000000	64.908051 
3731.000000	64.898467 
3730.000000	64.897418 
3729.000000	64.905571 
3728.000000	64.922428 
3727.000000	64.945936 
3726.000000	64.972925 
3725.000000	64.999580 
3724.000000	65.021777 
3723.000000	65.036416 
3722.000000	65.041685 
3721.000000	65.037703 
3720.000000	65.026354 
3719.000000	65.011072 
3718.000000	64.995741 
3717.000000	64.984107 
3716.000000	64.978837 
3715.000000	64.981245 
3714.000000	64.991068 
3713.000000	65.006828 
3712.000000	65.026164 
3711.000000	65.046358 
3710.000000	65.064883 
3709.000000	65.079545 
3708.000000	65.088796 
3707.000000	65.091705 
3706.000000	65.088224 
3705.000000	65.078759 
3704.000000	65.064382 
3703.000000	65.047001 
3702.000000	65.028762 
3701.000000	65.011954 
3700.000000	64.998435 
3699.000000	64.989137 
3698.000000	64.983868 
3697.000000	64.981222 
3696.000000	64.979386 
3695.000000	64.976525 
3694.000000	64.971756 
3693.000000	64.965367 
3692.000000	64.958882 
3691.000000	64.954566 
3690.000000	64.954948 
3689.000000	64.961743 
3688.000000	64.975452 
3687.000000	64.994931 
3686.000000	65.017843 
3685.000000	65.040850 
3684.000000	65.060567 
3683.000000	65.074086 
3682.000000	65.079593 
3681.000000	65.076398 
3680.000000	65.065121 
3679.000000	65.047240 
3678.000000	65.024566 
3677.000000	64.998912 
3676.000000	64.972066 
3675.000000	64.945459 
3674.000000	64.920592 
3673.000000	64.898419 
3672.000000	64.879727 
3671.000000	64.865136 
3670.000000	64.855003 
3669.000000	64.849805 
3668.000000	64.849615 
3667.000000	64.854741 
3666.000000	64.865279 
3665.000000	64.881372 
3664.000000	64.902782 
3663.000000	64.928793 
3662.000000	64.957928 
3661.000000	64.988088 
3660.000000	65.016794 
3659.000000	65.041446 
3658.000000	65.059494 
3657.000000	65.069127 
3656.000000	65.069365 
3655.000000	65.060424 
3654.000000	65.043401 
3653.000000	65.020227 
3652.000000	64.993333 
3651.000000	64.965081 
3650.000000	64.937806 
3649.000000	64.913344 
3648.000000	64.893221 
3647.000000	64.878702 
3646.000000	64.871072 
3645.000000	64.871191 
3644.000000	64.879655 
3643.000000	64.896583 
3642.000000	64.921116 
3641.000000	64.951205 
3640.000000	64.983415 
3639.000000	65.013527 
3638.000000	65.036892 
3637.000000	65.049052 
3636.000000	65.046882 
3635.000000	65.029287 
3634.000000	64.997529 
3633.000000	64.955139 
3632.000000	64.907360 
3631.000000	64.860129 
3630.000000	64.819145 
3629.000000	64.788722 
3628.000000	64.771008 
3627.000000	64.765858 
3626.000000	64.771342 
3625.000000	64.784407 
3624.000000	64.801430 
3623.000000	64.819407 
3622.000000	64.836192 
3621.000000	64.851117 
3620.000000	64.864230 
3619.000000	64.876532 
3618.000000	64.888763 
3617.000000	64.901590 
3616.000000	64.915204 
3615.000000	64.929151 
3614.000000	64.942669 
3613.000000	64.954686 
3612.000000	64.964461 
3611.000000	64.971303 
3610.000000	64.975118 
3609.000000	64.975929 
3608.000000	64.973878 
3607.000000	64.969205 
3606.000000	64.962005 
3605.000000	64.952540 
3604.000000	64.941096 
3603.000000	64.928054 
3602.000000	64.913892 
3601.000000	64.899468 
3600.000000	64.885592 
3599.000000	64.873051 
3598.000000	64.862275 
3597.000000	64.853429 
3596.000000	64.846730 
3595.000000	64.842104 
3594.000000	64.839982 
3593.000000	64.840865 
3592.000000	64.845514 
3591.000000	64.854741 
3590.000000	64.868950 
3589.000000	64.887857 
3588.000000	64.910221 
3587.000000	64.933967 
3586.000000	64.956283 
3585.000000	64.974093 
3584.000000	64.984822 
3583.000000	64.986944 
3582.000000	64.980387 
3581.000000	64.966845 
3580.000000	64.949417 
3579.000000	64.932274 
3578.000000	64.919662 
3577.000000	64.915084 
3576.000000	64.920330 
3575.000000	64.934945 
3574.000000	64.956355 
3573.000000	64.980459 
3572.000000	65.002226 
3571.000000	65.017223 
3570.000000	65.022492 
3569.000000	65.017533 
3568.000000	65.004372 
3567.000000	64.987325 
3566.000000	64.971709 
3565.000000	64.962840 
3564.000000	64.964485 
3563.000000	64.977979 
3562.000000	65.002012 
3561.000000	65.032911 
3560.000000	65.065860 
3559.000000	65.095829 
3558.000000	65.118932 
3557.000000	65.133118 
3556.000000	65.138435 
3555.000000	65.136694 
3554.000000	65.130352 
3553.000000	65.122079 
3552.000000	65.113973 
3551.000000	65.107131 
3550.000000	65.101718 
3549.000000	65.097332 
3548.000000	65.093326 
3547.000000	65.089559 
3546.000000	65.086412 
3545.000000	65.084671 
3544.000000	65.085148 
3543.000000	65.088367 
3542.000000	65.094137 
3541.000000	65.101265 
3540.000000	65.108180 
3539.000000	65.112876 
3538.000000	65.113615 
3537.000000	65.109443 
3536.000000	65.100264 
3535.000000	65.087103 
3534.000000	65.071582 
3533.000000	65.055298 
3532.000000	65.039515 
3531.000000	65.024971 
3530.000000	65.011882 
3529.000000	65.000128 
3528.000000	64.989614 
3527.000000	64.980554 
3526.000000	64.973831 
3525.000000	64.971089 
3524.000000	64.974141 
3523.000000	64.984440 
3522.000000	65.002512 
3521.000000	65.027689 
3520.000000	65.057873 
3519.000000	65.089964 
3518.000000	65.120530 
3517.000000	65.146493 
3516.000000	65.165472 
3515.000000	65.176415 
3514.000000	65.179419 
3513.000000	65.175890 
3512.000000	65.167665 
3511.000000	65.157103 
3510.000000	65.146851 
3509.000000	65.139293 
3508.000000	65.136885 
3507.000000	65.141034 
3506.000000	65.152549 
3505.000000	65.170526 
3504.000000	65.193080 
3503.000000	65.216708 
3502.000000	65.237092 
3501.000000	65.249943 
3500.000000	65.251827 
3499.000000	65.241503 
3498.000000	65.219950 
3497.000000	65.190792 
3496.000000	65.159273 
3495.000000	65.131115 
3494.000000	65.110921 
3493.000000	65.101146 
3492.000000	65.101122 
3491.000000	65.107393 
3490.000000	65.114688 
3489.000000	65.117049 
3488.000000	65.109705 
3487.000000	65.090107 
3486.000000	65.058851 
3485.000000	65.018963 
3484.000000	64.975881 
3483.000000	64.935445 
3482.000000	64.903140 
3481.000000	64.882707 
3480.000000	64.875721 
3479.000000	64.881610 
3478.000000	64.897942 
3477.000000	64.921307 
3476.000000	64.947819 
3475.000000	64.973711 
3474.000000	64.995884 
3473.000000	65.011954 
3472.000000	65.020775 
3471.000000	65.022277 
3470.000000	65.017437 
3469.000000	65.007996 
3468.000000	64.996266 
3467.000000	64.984560 
3466.000000	64.974880 
3465.000000	64.968609 
3464.000000	64.966297 
3463.000000	64.967846 
3462.000000	64.972662 
3461.000000	64.979982 
3460.000000	64.989280 
3459.000000	65.000343 
3458.000000	65.013360 
3457.000000	65.028548 
3456.000000	65.045833 
3455.000000	65.064501 
3454.000000	65.083289 
3453.000000	65.100407 
3452.000000	65.113735 
3451.000000	65.121626 
3450.000000	65.123438 
3449.000000	65.119647 
3448.000000	65.111756 
3447.000000	65.101909 
3446.000000	65.092396 
3445.000000	65.085005 
3444.000000	65.080785 
3443.000000	65.079474 
3442.000000	65.079879 
3441.000000	65.080118 
3440.000000	65.078043 
3439.000000	65.072059 
3438.000000	65.061211 
3437.000000	65.045452 
3436.000000	65.025687 
3435.000000	65.003228 
3434.000000	64.979696 
3433.000000	64.956760 
3432.000000	64.936137 
3431.000000	64.919137 
3430.000000	64.907073 
3429.000000	64.901089 
3428.000000	64.902091 
3427.000000	64.910626 
3426.000000	64.926457 
3425.000000	64.948463 
3424.000000	64.974451 
3423.000000	65.001201 
3422.000000	65.024995 
3421.000000	65.042066 
3420.000000	65.049695 
3419.000000	65.046525 
3418.000000	65.033364 
3417.000000	65.012931 
3416.000000	64.989638 
3415.000000	64.968371 
3414.000000	64.953446 
3413.000000	64.947533 
3412.000000	64.950942 
3411.000000	64.961385 
3410.000000	64.974379 
3409.000000	64.984393 
3408.000000	64.986157 
3407.000000	64.976239 
3406.000000	64.953303 
3405.000000	64.919257 
3404.000000	64.878392 
3403.000000	64.836978 
3402.000000	64.801430 
3401.000000	64.777517 
3400.000000	64.768886 
3399.000000	64.776706 
3398.000000	64.799499 
3397.000000	64.833474 
3396.000000	64.873504 
3395.000000	64.914131 
3394.000000	64.950442 
3393.000000	64.978814 
3392.000000	64.996957 
3391.000000	65.004253 
3390.000000	65.001296 
3389.000000	64.989566 
3388.000000	64.971089 
3387.000000	64.948201 
3386.000000	64.923501 
3385.000000	64.899754 
3384.000000	64.879751 
3383.000000	64.866113 
3382.000000	64.861273 
3381.000000	64.866924 
3380.000000	64.884042 
3379.000000	64.912152 
3378.000000	64.949703 
3377.000000	64.993619 
3376.000000	65.039968 
3375.000000	65.084242 
3374.000000	65.122008 
3373.000000	65.149569 
3372.000000	65.164446 
3371.000000	65.165495 
3370.000000	65.153479 
3369.000000	65.130853 
3368.000000	65.101337 
3367.000000	65.069222 
3366.000000	65.038537 
3365.000000	65.012741 
3364.000000	64.993453 
3363.000000	64.980483 
3362.000000	64.971828 
3361.000000	64.964365 
3360.000000	64.954686 
3359.000000	64.940094 
3358.000000	64.919376 
3357.000000	64.893341 
3356.000000	64.864444 
3355.000000	64.836430 
3354.000000	64.812970 
3353.000000	64.797067 
3352.000000	64.790153 
3351.000000	64.791870 
3350.000000	64.800167 
3349.000000	64.812064 
3348.000000	64.824581 
3347.000000	64.835619 
3346.000000	64.843916 
3345.000000	64.849758 
3344.000000	64.854335 
3343.000000	64.859414 
3342.000000	64.866304 
3341.000000	64.876008 
3340.000000	64.888763 
3339.000000	64.904403 
3338.000000	64.922523 
3337.000000	64.942622 
3336.000000	64.964413 
3335.000000	64.987850 
3334.000000	65.012836 
3333.000000	65.038847 
3332.000000	65.064597 
3331.000000	65.088200 
3330.000000	65.107250 
3329.000000	65.119123 
3328.000000	65.121483 
3327.000000	65.113115 
3326.000000	65.093898 
3325.000000	65.065264 
3324.000000	65.029740 
3323.000000	64.990949 
3322.000000	64.952540 
3321.000000	64.918065 
3320.000000	64.890170 
3319.000000	64.870572 
3318.000000	64.859795 
3317.000000	64.857268 
3316.000000	64.861536 
3315.000000	64.870572 
3314.000000	64.882135 
3313.000000	64.893865 
3312.000000	64.903926 
3311.000000	64.910864 
3310.000000	64.914107 
3309.000000	64.913964 
3308.000000	64.911389 
3307.000000	64.907789 
3306.000000	64.904856 
3305.000000	64.903903 
3304.000000	64.905643 
3303.000000	64.909887 
3302.000000	64.915728 
3301.000000	64.921641 
3300.000000	64.926028 
3299.000000	64.927673 
3298.000000	64.926099 
3297.000000	64.921855 
3296.000000	64.916467 
3295.000000	64.912033 
3294.000000	64.910912 
3293.000000	64.915108 
3292.000000	64.925932 
3291.000000	64.943480 
3290.000000	64.966726 
3289.000000	64.993453 
3288.000000	65.021038 
3287.000000	65.046334 
3286.000000	65.066337 
3285.000000	65.078496 
3284.000000	65.081143 
3283.000000	65.073561 
3282.000000	65.056109 
3281.000000	65.030264 
3280.000000	64.998269 
3279.000000	64.963006 
3278.000000	64.927625 
3277.000000	64.895153 
3276.000000	64.868164 
3275.000000	64.848136 
3274.000000	64.835739 
3273.000000	64.830470 
3272.000000	64.831161 
3271.000000	64.836096 
3270.000000	64.843535 
3269.000000	64.851808 
3268.000000	64.859938 
3267.000000	64.867305 
3266.000000	64.873981 
3265.000000	64.880084 
3264.000000	64.885973 
3263.000000	64.891672 
3262.000000	64.897227 
3261.000000	64.902448 
3260.000000	64.906954 
3259.000000	64.910316 
3258.000000	64.912199 
3257.000000	64.912390 
3256.000000	64.910626 
3255.000000	64.906764 
3254.000000	64.900541 
3253.000000	64.891839 
3252.000000	64.880633 
3251.000000	64.867258 
3250.000000	64.852380 
3249.000000	64.837265 
3248.000000	64.823365 
3247.000000	64.812254 
3246.000000	64.805483 
3245.000000	64.803838 
3244.000000	64.807415 
3243.000000	64.815354 
3242.000000	64.825892 
3241.000000	64.836883 
3240.000000	64.846181 
3239.000000	64.852237 
3238.000000	64.854240 
3237.000000	64.852857 
3236.000000	64.849710 
3235.000000	64.847683 
3234.000000	64.849686 
3233.000000	64.858555 
3232.000000	64.875888 
3231.000000	64.901781 
3230.000000	64.934563 
3229.000000	64.970922 
3228.000000	65.006446 
3227.000000	65.036368 
3226.000000	65.056395 
3225.000000	65.063571 
3224.000000	65.056777 
3223.000000	65.036940 
3222.000000	65.006756 
3221.000000	64.969944 
3220.000000	64.930248 
3219.000000	64.891242 
3218.000000	64.855432 
3217.000000	64.824008 
3216.000000	64.796996 
3215.000000	64.773988 
3214.000000	64.754366 
3213.000000	64.737915 
3212.000000	64.725089 
3211.000000	64.716815 
3210.000000	64.714479 
3209.000000	64.719033 
3208.000000	64.730620 
3207.000000	64.748024 
3206.000000	64.768862 
3205.000000	64.789795 
3204.000000	64.807152 
3203.000000	64.817833 
3202.000000	64.819884 
3201.000000	64.813303 
3200.000000	64.799952 
3199.000000	64.783143 
3198.000000	64.767360 
3197.000000	64.757108 
3196.000000	64.755988 
3195.000000	64.766049 
3194.000000	64.787292 
3193.000000	64.817738 
3192.000000	64.854049 
3191.000000	64.892172 
3190.000000	64.928340 
3189.000000	64.959979 
3188.000000	64.985990 
3187.000000	65.006947 
3186.000000	65.024399 
3185.000000	65.040278 
3184.000000	65.056324 
3183.000000	65.073204 
3182.000000	65.090537 
3181.000000	65.106534 
3180.000000	65.119075 
3179.000000	65.125846 
3178.000000	65.125536 
3177.000000	65.117788 
3176.000000	65.103673 
3175.000000	65.085220 
3174.000000	65.065097 
3173.000000	65.045762 
3172.000000	65.029048 
3171.000000	65.015769 
3170.000000	65.005683 
3169.000000	64.997792 
3168.000000	64.990663 
3167.000000	64.983081 
3166.000000	64.974331 
3165.000000	64.964318 
3164.000000	64.953804 
3163.000000	64.944124 
3162.000000	64.936995 
3161.000000	64.933633 
3160.000000	64.934945 
3159.000000	64.941263 
3158.000000	64.952182 
3157.000000	64.966678 
3156.000000	64.982891 
3155.000000	64.998602 
3154.000000	65.011453 
3153.000000	65.019202 
3152.000000	65.020370 
3151.000000	65.014481 
3150.000000	65.002179 
3149.000000	64.985203 
3148.000000	64.966297 
3147.000000	64.948487 
3146.000000	64.934706 
3145.000000	64.927172 
3144.000000	64.927077 
3143.000000	64.934301 
3142.000000	64.947700 
3141.000000	64.965057 
3140.000000	64.983439 
3139.000000	64.999675 
3138.000000	65.010619 
3137.000000	65.014028 
3136.000000	65.008425 
3135.000000	64.993643 
3134.000000	64.970827 
3133.000000	64.942765 
3132.000000	64.913225 
3131.000000	64.886546 
3130.000000	64.867138 
3129.000000	64.858174 
3128.000000	64.861035 
3127.000000	64.874696 
3126.000000	64.896011 
3125.000000	64.920234 
3124.000000	64.942121 
3123.000000	64.956998 
3122.000000	64.961791 
3121.000000	64.955568 
3120.000000	64.939832 
3119.000000	64.917850 
3118.000000	64.893770 
3117.000000	64.871811 
3116.000000	64.855337 
3115.000000	64.846348 
3114.000000	64.845371 
3113.000000	64.851450 
3112.000000	64.862680 
3111.000000	64.876794 
3110.000000	64.891815 
3109.000000	64.906072 
3108.000000	64.918732 
3107.000000	64.929413 
3106.000000	64.938640 
3105.000000	64.947295 
3104.000000	64.956736 
3103.000000	64.968395 
3102.000000	64.983081 
3101.000000	65.000867 
3100.000000	65.020418 
3099.000000	65.039801 
3098.000000	65.055942 
3097.000000	65.065646 
3096.000000	65.065860 
3095.000000	65.054869 
3094.000000	65.032172 
3093.000000	64.998817 
3092.000000	64.957284 
3091.000000	64.911055 
3090.000000	64.864182 
3089.000000	64.820599 
3088.000000	64.783763 
3087.000000	64.756274 
3086.000000	64.739656 
3085.000000	64.734244 
3084.000000	64.739346 
3083.000000	64.753341 
3082.000000	64.773821 
3081.000000	64.798045 
3080.000000	64.822649 
3079.000000	64.844942 
3078.000000	64.862608 
3077.000000	64.874362 
3076.000000	64.879727 
3075.000000	64.879226 
3074.000000	64.874053 
3073.000000	64.865875 
3072.000000	64.856243 
3071.000000	64.846754 
3070.000000	64.838671 
3069.000000	64.833045 
3068.000000	64.830708 
3067.000000	64.832234 
3066.000000	64.837884 
3065.000000	64.847469 
3064.000000	64.860439 
3063.000000	64.875650 
3062.000000	64.891576 
3061.000000	64.906454 
3060.000000	64.918589 
3059.000000	64.926576 
3058.000000	64.929556 
3057.000000	64.927530 
3056.000000	64.921116 
3055.000000	64.911651 
3054.000000	64.900469 
3053.000000	64.889049 
3052.000000	64.878368 
3051.000000	64.869022 
3050.000000	64.860963 
3049.000000	64.853835 
3048.000000	64.847111 
3047.000000	64.840364 
3046.000000	64.833402 
3045.000000	64.826464 
3044.000000	64.820194 
3043.000000	64.815616 
3042.000000	64.814090 
3041.000000	64.816808 
3040.000000	64.824557 
3039.000000	64.837527 
3038.000000	64.855098 
3037.000000	64.875864 
3036.000000	64.897799 
3035.000000	64.918422 
3034.000000	64.935398 
3033.000000	64.946842 
3032.000000	64.951729 
3031.000000	64.949989 
3030.000000	64.942669 
3029.000000	64.931631 
3028.000000	64.919328 
3027.000000	64.908289 
3026.000000	64.900755 
3025.000000	64.897990 
3024.000000	64.900422 
3023.000000	64.907455 
3022.000000	64.917755 
3021.000000	64.929461 
3020.000000	64.940690 
3019.000000	64.949917 
3018.000000	64.956188 
3017.000000	64.959335 
3016.000000	64.959883 
3015.000000	64.958810 
3014.000000	64.957451 
3013.000000	64.957284 
3012.000000	64.959812 
3011.000000	64.966344 
3010.000000	64.977860 
3009.000000	64.994907 
3008.000000	65.017318 
3007.000000	65.044164 
3006.000000	65.073490 
3005.000000	65.102696 
3004.000000	65.128588 
3003.000000	65.147686 
3002.000000	65.156912 
3001.000000	65.154361 
3000.000000	65.139555 
2999.000000	65.113854 
2998.000000	65.080118 
2997.000000	65.042352 
2996.000000	65.005040 
2995.000000	64.972257 
2994.000000	64.947080 
2993.000000	64.931035 
2992.000000	64.923906 
2991.000000	64.923954 
2990.000000	64.928460 
2989.000000	64.934468 
2988.000000	64.939498 
2987.000000	64.941883 
2986.000000	64.941453 
2985.000000	64.938998 
2984.000000	64.936208 
2983.000000	64.934778 
2982.000000	64.935755 
2981.000000	64.938950 
2980.000000	64.943027 
2979.000000	64.945578 
2978.000000	64.943981 
2977.000000	64.935994 
2976.000000	64.920568 
2975.000000	64.898467 
2974.000000	64.872074 
2973.000000	64.844989 
2972.000000	64.821147 
2971.000000	64.803767 
2970.000000	64.794468 
2969.000000	64.793086 
2968.000000	64.797401 
2967.000000	64.804100 
2966.000000	64.809441 
2965.000000	64.810562 
2964.000000	64.805984 
2963.000000	64.796042 
2962.000000	64.782595 
2961.000000	64.768505 
2960.000000	64.756727 
2959.000000	64.749741 
2958.000000	64.748859 
2957.000000	64.754366 
2956.000000	64.765286 
2955.000000	64.779949 
2954.000000	64.796447 
2953.000000	64.813065 
2952.000000	64.828467 
2951.000000	64.841675 
2950.000000	64.852404 
2949.000000	64.860486 
2948.000000	64.866137 
2947.000000	64.869785 
2946.000000	64.871907 
2945.000000	64.873147 
2944.000000	64.873814 
2943.000000	64.874100 
2942.000000	64.873504 
2941.000000	64.871430 
2940.000000	64.867115 
2939.000000	64.859771 
2938.000000	64.849066 
2937.000000	64.835357 
2936.000000	64.819574 
2935.000000	64.803218 
2934.000000	64.788007 
2933.000000	64.775490 
2932.000000	64.766812 
2931.000000	64.762639 
2930.000000	64.763188 
2929.000000	64.768218 
2928.000000	64.777326 
2927.000000	64.789938 
2926.000000	64.805603 
2925.000000	64.823579 
2924.000000	64.842891 
2923.000000	64.862227 
2922.000000	64.879703 
2921.000000	64.893460 
2920.000000	64.901828 
2919.000000	64.903903 
2918.000000	64.899754 
2917.000000	64.890456 
2916.000000	64.877963 
2915.000000	64.864563 
2914.000000	64.852428 
2913.000000	64.843106 
2912.000000	64.837265 
2911.000000	64.834690 
2910.000000	64.834403 
2909.000000	64.835023 
2908.000000	64.835119 
2907.000000	64.833712 
2906.000000	64.830327 
2905.000000	64.825153 
2904.000000	64.818906 
2903.000000	64.812350 
2902.000000	64.806413 
2901.000000	64.801669 
2900.000000	64.798355 
2899.000000	64.796209 
2898.000000	64.794802 
2897.000000	64.793777 
2896.000000	64.792990 
2895.000000	64.792513 
2894.000000	64.792585 
2893.000000	64.793658 
2892.000000	64.796066 
2891.000000	64.799761 
2890.000000	64.804244 
2889.000000	64.808535 
2888.000000	64.811587 
2887.000000	64.812159 
2886.000000	64.809608 
2885.000000	64.803957 
2884.000000	64.796090 
2883.000000	64.787817 
2882.000000	64.781260 
2881.000000	64.778280 
2880.000000	64.780116 
2879.000000	64.787220 
2878.000000	64.798808 
2877.000000	64.813303 
2876.000000	64.828610 
2875.000000	64.842534 
2874.000000	64.853286 
2873.000000	64.859724 
2872.000000	64.861369 
2871.000000	64.858555 
2870.000000	64.852261 
2869.000000	64.843940 
2868.000000	64.835071 
2867.000000	64.827060 
2866.000000	64.820837 
2865.000000	64.816927 
2864.000000	64.815211 
2863.000000	64.815330 
2862.000000	64.816498 
2861.000000	64.818263 
2860.000000	64.820289 
2859.000000	64.822983 
2858.000000	64.827251 
2857.000000	64.834403 
2856.000000	64.845800 
2855.000000	64.862251 
2854.000000	64.883518 
2853.000000	64.908242 
2852.000000	64.933848 
2851.000000	64.957213 
2850.000000	64.975357 
2849.000000	64.986014 
2848.000000	64.988207 
2847.000000	64.982175 
2846.000000	64.969277 
2845.000000	64.951610 
2844.000000	64.931344 
2843.000000	64.910221 
2842.000000	64.889311 
2841.000000	64.869046 
2840.000000	64.849400 
2839.000000	64.830112 
2838.000000	64.811301 
2837.000000	64.793395 
2836.000000	64.777541 
2835.000000	64.764904 
2834.000000	64.756917 
2833.000000	64.754557 
2832.000000	64.758348 
2831.000000	64.768099 
2830.000000	64.782834 
2829.000000	64.800953 
2828.000000	64.820194 
2827.000000	64.838004 
2826.000000	64.851713 
2825.000000	64.859175 
2824.000000	64.859032 
2823.000000	64.851284 
2822.000000	64.837265 
2821.000000	64.819455 
2820.000000	64.801049 
2819.000000	64.785361 
2818.000000	64.775013 
2817.000000	64.771556 
2816.000000	64.775037 
2815.000000	64.784359 
2814.000000	64.797472 
2813.000000	64.812088 
2812.000000	64.826297 
2811.000000	64.838981 
2810.000000	64.849853 
2809.000000	64.859461 
2808.000000	64.868474 
2807.000000	64.877653 
2806.000000	64.887070 
2805.000000	64.896392 
2804.000000	64.904713 
2803.000000	64.910888 
2802.000000	64.914155 
2801.000000	64.914011 
2800.000000	64.910483 
2799.000000	64.904046 
2798.000000	64.895510 
2797.000000	64.885973 
2796.000000	64.876747 
2795.000000	64.869284 
2794.000000	64.864826 
2793.000000	64.864349 
2792.000000	64.868378 
2791.000000	64.876842 
2790.000000	64.888882 
2789.000000	64.902949 
2788.000000	64.916825 
2787.000000	64.928221 
2786.000000	64.935159 
2785.000000	64.936280 
2784.000000	64.931321 
2783.000000	64.921069 
2782.000000	64.907336 
2781.000000	64.892387 
2780.000000	64.878344 
2779.000000	64.866805 
2778.000000	64.858436 
2777.000000	64.853048 
2776.000000	64.849638 
2775.000000	64.846873 
2774.000000	64.843511 
2773.000000	64.838671 
2772.000000	64.832115 
2771.000000	64.824199 
2770.000000	64.815783 
2769.000000	64.807844 
2768.000000	64.801192 
2767.000000	64.796376 
2766.000000	64.793467 
2765.000000	64.792108 
2764.000000	64.791798 
2763.000000	64.792084 
2762.000000	64.792823 
2761.000000	64.794230 
2760.000000	64.796853 
2759.000000	64.801311 
2758.000000	64.808201 
2757.000000	64.817667 
2756.000000	64.829254 
2755.000000	64.842057 
2754.000000	64.854860 
2753.000000	64.866447 
2752.000000	64.875841 
2751.000000	64.882373 
2750.000000	64.885950 
2749.000000	64.886617 
2748.000000	64.884901 
2747.000000	64.881110 
2746.000000	64.875435 
2745.000000	64.867758 
2744.000000	64.857888 
2743.000000	64.845752 
2742.000000	64.831399 
2741.000000	64.815402 
2740.000000	64.798736 
2739.000000	64.782714 
2738.000000	64.768695 
2737.000000	64.757871 
2736.000000	64.751029 
2735.000000	64.748215 
2734.000000	64.748716 
2733.000000	64.751291 
2732.000000	64.754390 
2731.000000	64.756298 
2730.000000	64.755916 
2729.000000	64.752578 
2728.000000	64.746546 
2727.000000	64.738702 
2726.000000	64.730715 
2725.000000	64.724469 
2724.000000	64.721798 
2723.000000	64.724087 
2722.000000	64.732027 
2721.000000	64.745402 
2720.000000	64.762949 
2719.000000	64.782834 
2718.000000	64.802742 
2717.000000	64.820313 
2716.000000	64.833974 
2715.000000	64.842987 
2714.000000	64.847707 
2713.000000	64.849424 
2712.000000	64.849901 
2711.000000	64.850854 
2710.000000	64.853572 
2709.000000	64.858436 
2708.000000	64.864635 
2707.000000	64.870572 
2706.000000	64.874267 
2705.000000	64.874124 
2704.000000	64.869189 
2703.000000	64.859795 
2702.000000	64.847564 
2701.000000	64.834976 
2700.000000	64.824891 
2699.000000	64.819693 
2698.000000	64.820909 
2697.000000	64.828419 
2696.000000	64.840936 
2695.000000	64.856004 
2694.000000	64.870595 
2693.000000	64.881849 
2692.000000	64.887428 
2691.000000	64.886212 
2690.000000	64.878177 
2689.000000	64.864659 
2688.000000	64.847946 
2687.000000	64.830923 
2686.000000	64.816284 
2685.000000	64.806532 
2684.000000	64.803266 
2683.000000	64.807176 
2682.000000	64.817929 
2681.000000	64.834189 
2680.000000	64.853954 
2679.000000	64.874911 
2678.000000	64.894676 
2677.000000	64.911174 
2676.000000	64.922857 
2675.000000	64.928841 
2674.000000	64.928984 
2673.000000	64.923667 
2672.000000	64.913892 
2671.000000	64.901089 
2670.000000	64.886903 
2669.000000	64.873218 
2668.000000	64.861941 
2667.000000	64.854669 
2666.000000	64.852404 
2665.000000	64.855194 
2664.000000	64.862012 
2663.000000	64.870977 
2662.000000	64.879631 
2661.000000	64.885401 
2660.000000	64.886212 
2659.000000	64.880990 
2658.000000	64.869952 
2657.000000	64.854621 
2656.000000	64.837455 
2655.000000	64.821267 
2654.000000	64.808702 
2653.000000	64.801239 
2652.000000	64.799332 
2651.000000	64.802026 
2650.000000	64.807510 
2649.000000	64.813590 
2648.000000	64.818120 
2647.000000	64.819693 
2646.000000	64.817929 
2645.000000	64.813566 
2644.000000	64.807868 
2643.000000	64.802789 
2642.000000	64.800190 
2641.000000	64.801692 
2640.000000	64.808177 
2639.000000	64.819765 
2638.000000	64.835810 
2637.000000	64.855027 
2636.000000	64.875841 
2635.000000	64.896488 
2634.000000	64.915299 
2633.000000	64.930868 
2632.000000	64.942097 
2631.000000	64.948153 
2630.000000	64.948511 
2629.000000	64.943122 
2628.000000	64.932346 
2627.000000	64.916968 
2626.000000	64.898276 
2625.000000	64.878129 
2624.000000	64.858675 
2623.000000	64.842247 
2622.000000	64.830636 
2621.000000	64.825105 
2620.000000	64.825916 
2619.000000	64.832067 
2618.000000	64.841794 
2617.000000	64.852380 
2616.000000	64.861273 
2615.000000	64.866518 
2614.000000	64.867305 
2613.000000	64.864039 
2612.000000	64.858341 
2611.000000	64.852499 
2610.000000	64.848875 
2609.000000	64.849066 
2608.000000	64.853644 
2607.000000	64.861917 
2606.000000	64.872217 
2605.000000	64.882469 
2604.000000	64.890813 
2603.000000	64.896464 
2602.000000	64.899682 
2601.000000	64.901804 
2600.000000	64.904952 
2599.000000	64.911127 
2598.000000	64.921689 
2597.000000	64.936637 
2596.000000	64.954805 
2595.000000	64.973473 
2594.000000	64.989733 
2593.000000	65.000367 
2592.000000	65.003037 
2591.000000	64.996385 
2590.000000	64.980649 
2589.000000	64.957475 
2588.000000	64.929389 
2587.000000	64.899539 
2586.000000	64.871072 
2585.000000	64.846420 
2584.000000	64.827275 
2583.000000	64.814305 
2582.000000	64.807224 
2581.000000	64.805102 
2580.000000	64.806580 
2579.000000	64.810276 
2578.000000	64.814877 
2577.000000	64.819550 
2576.000000	64.823675 
2575.000000	64.826846 
2574.000000	64.828658 
2573.000000	64.828705 
2572.000000	64.826512 
2571.000000	64.821600 
2570.000000	64.813542 
2569.000000	64.802289 
2568.000000	64.788389 
2567.000000	64.772987 
2566.000000	64.757728 
2565.000000	64.744424 
2564.000000	64.734792 
2563.000000	64.729952 
2562.000000	64.730548 
2561.000000	64.736223 
2560.000000	64.746069 
2559.000000	64.758706 
2558.000000	64.772558 
2557.000000	64.785957 
2556.000000	64.797830 
2555.000000	64.807605 
2554.000000	64.815139 
2553.000000	64.820599 
2552.000000	64.824318 
2551.000000	64.826631 
2550.000000	64.827418 
2549.000000	64.826178 
2548.000000	64.822292 
2547.000000	64.815139 
2546.000000	64.804458 
2545.000000	64.790606 
2544.000000	64.774847 
2543.000000	64.759230 
2542.000000	64.746046 
2541.000000	64.737582 
2540.000000	64.735317 
2539.000000	64.739751 
2538.000000	64.749932 
2537.000000	64.763760 
2536.000000	64.778304 
2535.000000	64.790582 
2534.000000	64.798331 
2533.000000	64.800477 
2532.000000	64.797377 
2531.000000	64.790701 
2530.000000	64.782834 
2529.000000	64.776301 
2528.000000	64.773011 
2527.000000	64.773917 
2526.000000	64.778995 
2525.000000	64.787387 
2524.000000	64.797806 
2523.000000	64.809298 
2522.000000	64.821696 
2521.000000	64.835429 
2520.000000	64.851522 
2519.000000	64.871048 
2518.000000	64.894461 
2517.000000	64.921092 
2516.000000	64.949059 
2515.000000	64.975571 
2514.000000	64.997076 
2513.000000	65.010404 
2512.000000	65.013265 
2511.000000	65.004587 
2510.000000	64.984917 
2509.000000	64.956378 
2508.000000	64.922213 
2507.000000	64.886355 
2506.000000	64.852738 
2505.000000	64.824628 
2504.000000	64.804196 
2503.000000	64.792490 
2502.000000	64.789104 
2501.000000	64.792585 
2500.000000	64.800739 
2499.000000	64.811038 
2498.000000	64.821004 
2497.000000	64.828705 
2496.000000	64.832711 
2495.000000	64.832472 
2494.000000	64.828062 
2493.000000	64.820146 
2492.000000	64.809846 
2491.000000	64.798521 
2490.000000	64.787697 
2489.000000	64.778876 
2488.000000	64.773535 
2487.000000	64.772534 
2486.000000	64.776420 
2485.000000	64.784669 
2484.000000	64.796066 
2483.000000	64.808416 
2482.000000	64.818882 
2481.000000	64.824485 
2480.000000	64.822769 
2479.000000	64.812350 
2478.000000	64.793491 
2477.000000	64.768004 
2476.000000	64.738988 
2475.000000	64.710378 
2474.000000	64.686083 
2473.000000	64.669084 
2472.000000	64.660668 
2471.000000	64.660477 
2470.000000	64.666676 
2469.000000	64.676547 
2468.000000	64.687490 
2467.000000	64.697504 
2466.000000	64.705729 
2465.000000	64.712452 
2464.000000	64.718770 
2463.000000	64.725804 
2462.000000	64.734148 
2461.000000	64.743661 
2460.000000	64.753150 
2459.000000	64.760899 
2458.000000	64.764904 
2457.000000	64.763832 
2456.000000	64.757370 
2455.000000	64.746522 
2454.000000	64.733386 
2453.000000	64.720749 
2452.000000	64.711570 
2451.000000	64.708185 
2450.000000	64.711904 
2449.000000	64.722776 
2448.000000	64.739465 
2447.000000	64.759802 
2446.000000	64.781117 
2445.000000	64.800691 
2444.000000	64.816308 
2443.000000	64.826560 
2442.000000	64.831113 
2441.000000	64.830255 
2440.000000	64.825177 
2439.000000	64.817237 
2438.000000	64.807605 
2437.000000	64.796757 
2436.000000	64.784502 
2435.000000	64.769959 
2434.000000	64.752101 
2433.000000	64.730191 
2432.000000	64.704203 
2431.000000	64.675164 
2430.000000	64.645242 
2429.000000	64.617443 
2428.000000	64.595007 
2427.000000	64.580726 
2426.000000	64.576435 
2425.000000	64.582300 
2424.000000	64.596700 
2423.000000	64.616656 
2422.000000	64.638352 
2421.000000	64.658117 
2420.000000	64.673066 
2419.000000	64.681816 
2418.000000	64.684510 
2417.000000	64.682793 
2416.000000	64.679312 
2415.000000	64.677095 
2414.000000	64.678668 
2413.000000	64.685606 
2412.000000	64.697980 
2411.000000	64.714622 
2410.000000	64.733338 
2409.000000	64.751529 
2408.000000	64.766812 
2407.000000	64.777660 
2406.000000	64.783668 
2405.000000	64.785695 
2404.000000	64.785265 
2403.000000	64.784026 
2402.000000	64.783143 
2401.000000	64.783072 
2400.000000	64.783263 
2399.000000	64.782547 
2398.000000	64.779567 
2397.000000	64.773488 
2396.000000	64.764404 
2395.000000	64.753556 
2394.000000	64.742994 
2393.000000	64.735102 
2392.000000	64.731979 
2391.000000	64.734697 
2390.000000	64.742827 
2389.000000	64.754366 
2388.000000	64.766287 
2387.000000	64.775109 
2386.000000	64.777779 
2385.000000	64.772510 
2384.000000	64.758872 
2383.000000	64.738106 
2382.000000	64.712619 
2381.000000	64.685630 
2380.000000	64.660167 
2379.000000	64.638829 
2378.000000	64.623212 
2377.000000	64.613652 
2376.000000	64.609742 
2375.000000	64.610242 
2374.000000	64.613604 
2373.000000	64.618325 
2372.000000	64.623236 
2371.000000	64.627647 
2370.000000	64.631271 
2369.000000	64.634013 
2368.000000	64.635801 
2367.000000	64.636397 
2366.000000	64.635610 
2365.000000	64.632964 
2364.000000	64.627933 
2363.000000	64.620113 
2362.000000	64.609503 
2361.000000	64.596533 
2360.000000	64.582228 
2359.000000	64.568066 
2358.000000	64.555859 
2357.000000	64.547443 
2356.000000	64.544415 
2355.000000	64.547681 
2354.000000	64.557147 
2353.000000	64.571905 
2352.000000	64.589977 
2351.000000	64.608812 
2350.000000	64.625835 
2349.000000	64.638471 
2348.000000	64.644932 
2347.000000	64.644670 
2346.000000	64.638352 
2345.000000	64.627861 
2344.000000	64.616012 
2343.000000	64.605879 
2342.000000	64.600372 
2341.000000	64.601612 
2340.000000	64.610409 
2339.000000	64.626145 
2338.000000	64.647006 
2337.000000	64.670252 
2336.000000	64.692759 
2335.000000	64.711666 
2334.000000	64.724779 
2333.000000	64.730882 
2332.000000	64.729881 
2331.000000	64.722633 
2330.000000	64.710640 
2329.000000	64.695692 
2328.000000	64.679741 
2327.000000	64.664411 
2326.000000	64.651060 
2325.000000	64.640641 
2324.000000	64.633727 
2323.000000	64.630675 
2322.000000	64.631652 
2321.000000	64.636564 
2320.000000	64.644956 
2319.000000	64.656043 
2318.000000	64.668726 
2317.000000	64.681553 
2316.000000	64.692974 
2315.000000	64.701342 
2314.000000	64.705395 
2313.000000	64.704346 
2312.000000	64.698266 
2311.000000	64.688062 
2310.000000	64.675474 
2309.000000	64.662814 
2308.000000	64.652466 
2307.000000	64.646434 
2306.000000	64.645957 
2305.000000	64.651179 
2304.000000	64.661002 
2303.000000	64.673376 
2302.000000	64.685559 
2301.000000	64.694809 
2300.000000	64.698886 
2299.000000	64.696192 
2298.000000	64.686226 
2297.000000	64.669728 
2296.000000	64.648365 
2295.000000	64.624333 
2294.000000	64.600062 
2293.000000	64.577984 
2292.000000	64.560222 
2291.000000	64.548468 
2290.000000	64.543771 
2289.000000	64.546465 
2288.000000	64.556288 
2287.000000	64.572286 
2286.000000	64.592933 
2285.000000	64.616131 
2284.000000	64.639496 
2283.000000	64.660811 
2282.000000	64.678120 
2281.000000	64.690017 
2280.000000	64.695858 
2279.000000	64.695787 
2278.000000	64.690756 
2277.000000	64.682269 
2276.000000	64.672374 
2275.000000	64.663219 
2274.000000	64.656805 
2273.000000	64.655113 
2272.000000	64.659500 
2271.000000	64.670705 
2270.000000	64.688801 
2269.000000	64.712715 
2268.000000	64.740514 
2267.000000	64.769434 
2266.000000	64.796113 
2265.000000	64.817309 
2264.000000	64.829945 
2263.000000	64.832210 
2262.000000	64.823675 
2261.000000	64.805459 
2260.000000	64.779973 
2259.000000	64.750623 
2258.000000	64.721179 
2257.000000	64.695000 
2256.000000	64.674711 
2255.000000	64.661502 
2254.000000	64.655447 
2253.000000	64.655375 
2252.000000	64.659476 
2251.000000	64.665508 
2250.000000	64.671349 
2249.000000	64.675211 
2248.000000	64.675927 
2247.000000	64.672803 
2246.000000	64.665818 
2245.000000	64.655590 
2244.000000	64.643096 
2243.000000	64.629793 
2242.000000	64.617013 
2241.000000	64.606142 
2240.000000	64.598226 
2239.000000	64.593696 
2238.000000	64.592456 
2237.000000	64.593791 
2236.000000	64.596748 
2235.000000	64.600038 
2234.000000	64.602637 
2233.000000	64.603924 
2232.000000	64.603781 
2231.000000	64.602422 
2230.000000	64.600348 
2229.000000	64.598131 
2228.000000	64.596223 
2227.000000	64.594888 
2226.000000	64.594149 
2225.000000	64.593863 
2224.000000	64.593911 
2223.000000	64.594292 
2222.000000	64.595007 
2221.000000	64.596056 
2220.000000	64.597296 
2219.000000	64.598321 
2218.000000	64.598679 
2217.000000	64.597702 
2216.000000	64.594984 
2215.000000	64.590454 
2214.000000	64.584517 
2213.000000	64.578199 
2212.000000	64.572930 
2211.000000	64.569973 
2210.000000	64.570236 
2209.000000	64.573717 
2208.000000	64.579629 
2207.000000	64.586400 
2206.000000	64.592075 
2205.000000	64.594864 
2204.000000	64.593648 
2203.000000	64.588308 
2202.000000	64.579844 
2201.000000	64.570021 
2200.000000	64.560890 
2199.000000	64.554119 
2198.000000	64.550757 
2197.000000	64.550805 
2196.000000	64.553284 
2195.000000	64.556646 
2194.000000	64.559173 
2193.000000	64.559602 
2192.000000	64.557361 
2191.000000	64.552569 
2190.000000	64.546036 
2189.000000	64.538884 
2188.000000	64.532327 
2187.000000	64.527487 
2186.000000	64.525151 
2185.000000	64.525842 
2184.000000	64.529585 
2183.000000	64.536142 
2182.000000	64.544987 
2181.000000	64.555335 
2180.000000	64.566302 
2179.000000	64.576768 
2178.000000	64.585638 
2177.000000	64.591860 
2176.000000	64.594578 
2175.000000	64.593100 
2174.000000	64.587211 
2173.000000	64.577126 
2172.000000	64.563655 
2171.000000	64.548063 
2170.000000	64.531993 
2169.000000	64.517235 
2168.000000	64.505767 
2167.000000	64.499068 
2166.000000	64.498186 
2165.000000	64.503335 
2164.000000	64.513611 
2163.000000	64.527273 
2162.000000	64.541840 
2161.000000	64.554738 
2160.000000	64.563655 
2159.000000	64.567303 
2158.000000	64.565539 
2157.000000	64.559388 
2156.000000	64.550781 
2155.000000	64.542055 
2154.000000	64.535284 
2153.000000	64.531946 
2152.000000	64.532732 
2151.000000	64.537310 
2150.000000	64.544630 
2149.000000	64.553236 
2148.000000	64.561724 
2147.000000	64.568877 
2146.000000	64.573955 
2145.000000	64.576601 
2144.000000	64.576840 
2143.000000	64.574909 
2142.000000	64.571213 
2141.000000	64.566230 
2140.000000	64.560508 
2139.000000	64.554834 
2138.000000	64.549994 
2137.000000	64.546847 
2136.000000	64.546108 
2135.000000	64.548277 
2134.000000	64.553451 
2133.000000	64.561367 
2132.000000	64.571261 
2131.000000	64.582180 
2130.000000	64.592790 
2129.000000	64.601635 
2128.000000	64.607262 
2127.000000	64.608550 
2126.000000	64.604735 
2125.000000	64.595580 
2124.000000	64.581608 
2123.000000	64.563918 
2122.000000	64.544200 
2121.000000	64.524269 
2120.000000	64.505934 
2119.000000	64.490604 
2118.000000	64.478969 
2117.000000	64.471077 
2116.000000	64.466285 
2115.000000	64.463424 
2114.000000	64.461255 
2113.000000	64.458918 
2112.000000	64.455866 
2111.000000	64.452481 
2110.000000	64.449357 
2109.000000	64.447617 
2108.000000	64.448189 
2107.000000	64.451980 
2106.000000	64.459466 
2105.000000	64.470887 
2104.000000	64.486098 
2103.000000	64.504790 
2102.000000	64.526653 
2101.000000	64.551234 
2100.000000	64.577913 
2099.000000	64.605927 
2098.000000	64.634275 
2097.000000	64.661478 
2096.000000	64.685940 
2095.000000	64.705753 
2094.000000	64.719200 
2093.000000	64.724826 
2092.000000	64.721965 
2091.000000	64.710855 
2090.000000	64.692592 
2089.000000	64.669275 
2088.000000	64.643645 
2087.000000	64.618897 
2086.000000	64.598035 
2085.000000	64.583587 
2084.000000	64.577054 
2083.000000	64.578795 
2082.000000	64.587759 
2081.000000	64.601683 
2080.000000	64.617514 
2079.000000	64.631938 
2078.000000	64.641928 
2077.000000	64.645051 
2076.000000	64.639997 
2075.000000	64.626431 
2074.000000	64.605188 
2073.000000	64.577817 
2072.000000	64.546632 
2071.000000	64.514470 
2070.000000	64.484190 
2069.000000	64.458370 
2068.000000	64.439249 
2067.000000	64.428377 
2066.000000	64.426374 
2065.000000	64.432835 
2064.000000	64.446377 
2063.000000	64.465045 
2062.000000	64.486289 
2061.000000	64.507603 
2060.000000	64.526796 
2059.000000	64.542388 
2058.000000	64.553713 
2057.000000	64.560914 
2056.000000	64.564538 
2055.000000	64.565372 
2054.000000	64.564466 
2053.000000	64.562511 
2052.000000	64.560174 
2051.000000	64.557623 
2050.000000	64.555120 
2049.000000	64.552569 
2048.000000	64.549994 
2047.000000	64.546942 
2046.000000	64.542937 
2045.000000	64.537191 
2044.000000	64.528942 
2043.000000	64.517664 
2042.000000	64.503264 
2041.000000	64.486312 
2040.000000	64.468002 
2039.000000	64.450216 
2038.000000	64.435243 
2037.000000	64.425396 
2036.000000	64.422607 
2035.000000	64.427971 
2034.000000	64.441514 
2033.000000	64.462304 
2032.000000	64.488434 
2031.000000	64.517354 
2030.000000	64.546513 
2029.000000	64.573526 
2028.000000	64.596724 
2027.000000	64.615082 
2026.000000	64.628195 
2025.000000	64.636206 
2024.000000	64.639496 
2023.000000	64.638638 
2022.000000	64.634084 
2021.000000	64.626216 
2020.000000	64.615130 
2019.000000	64.601325 
2018.000000	64.585256 
2017.000000	64.567518 
2016.000000	64.548921 
2015.000000	64.530372 
2014.000000	64.512801 
2013.000000	64.496970 
2012.000000	64.483475 
2011.000000	64.472651 
2010.000000	64.464712 
2009.000000	64.459753 
2008.000000	64.457702 
2007.000000	64.458322 
2006.000000	64.461207 
2005.000000	64.465808 
2004.000000	64.471197 
2003.000000	64.476370 
2002.000000	64.480161 
2001.000000	64.481973 
2000.000000	64.481234 
1999.000000	64.478206 
1998.000000	64.473772 
1997.000000	64.469337 
1996.000000	64.466595 
1995.000000	64.467215 
1994.000000	64.472508 
1993.000000	64.482998 
1992.000000	64.498353 
1991.000000	64.517307 
1990.000000	64.537930 
1989.000000	64.557814 
1988.000000	64.574480 
1987.000000	64.585852 
1986.000000	64.590430 
1985.000000	64.587616 
1984.000000	64.577841 
1983.000000	64.562153 
1982.000000	64.542174 
1981.000000	64.520096 
1980.000000	64.498114 
1979.000000	64.478349 
1978.000000	64.462447 
1977.000000	64.451742 
1976.000000	64.446949 
1975.000000	64.448142 
1974.000000	64.454698 
1973.000000	64.465522 
1972.000000	64.479088 
1971.000000	64.493632 
1970.000000	64.507317 
1969.000000	64.518380 
1968.000000	64.525365 
1967.000000	64.527010 
1966.000000	64.522457 
1965.000000	64.511251 
1964.000000	64.493417 
1963.000000	64.469504 
1962.000000	64.440822 
1961.000000	64.409041 
1960.000000	64.376640 
1959.000000	64.346432 
1958.000000	64.321351 
1957.000000	64.303946 
1956.000000	64.296078 
1955.000000	64.298582 
1954.000000	64.310956 
1953.000000	64.331555 
1952.000000	64.357590 
1951.000000	64.385938 
1950.000000	64.413475 
1949.000000	64.437699 
1948.000000	64.456892 
1947.000000	64.470624 
1946.000000	64.479112 
1945.000000	64.483475 
1944.000000	64.485120 
1943.000000	64.485192 
1942.000000	64.484715 
1941.000000	64.483928 
1940.000000	64.482665 
1939.000000	64.480257 
1938.000000	64.476037 
1937.000000	64.469456 
1936.000000	64.460468 
1935.000000	64.449453 
1934.000000	64.437317 
1933.000000	64.425301 
1932.000000	64.414691 
1931.000000	64.406728 
1930.000000	64.402341 
1929.000000	64.402174 
1928.000000	64.406394 
1927.000000	64.415025 
1926.000000	64.427566 
1925.000000	64.443159 
1924.000000	64.460492 
1923.000000	64.477944 
1922.000000	64.493489 
1921.000000	64.505267 
1920.000000	64.511537 
1919.000000	64.511179 
1918.000000	64.503836 
1917.000000	64.490365 
1916.000000	64.472675 
1915.000000	64.453291 
1914.000000	64.435124 
1913.000000	64.420747 
1912.000000	64.411687 
1911.000000	64.408588 
1910.000000	64.410781 
1909.000000	64.416599 
1908.000000	64.423799 
1907.000000	64.430260 
1906.000000	64.434170 
1905.000000	64.434409 
1904.000000	64.430713 
1903.000000	64.423561 
1902.000000	64.414024 
1901.000000	64.403295 
1900.000000	64.392638 
1899.000000	64.382958 
1898.000000	64.374709 
1897.000000	64.367699 
1896.000000	64.361405 
1895.000000	64.355111 
1894.000000	64.348196 
1893.000000	64.340639 
1892.000000	64.332652 
1891.000000	64.325118 
1890.000000	64.319300 
1889.000000	64.316582 
1888.000000	64.317941 
1887.000000	64.323759 
1886.000000	64.333653 
1885.000000	64.346480 
1884.000000	64.360523 
1883.000000	64.374017 
1882.000000	64.385366 
1881.000000	64.393830 
1880.000000	64.399600 
1879.000000	64.403605 
1878.000000	64.407348 
1877.000000	64.412283 
1876.000000	64.419627 
1875.000000	64.429759 
1874.000000	64.442157 
1873.000000	64.455747 
1872.000000	64.468765 
1871.000000	64.479255 
1870.000000	64.485454 
1869.000000	64.486169 
1868.000000	64.480924 
1867.000000	64.469814 
1866.000000	64.453744 
1865.000000	64.434027 
1864.000000	64.412403 
1863.000000	64.390707 
1862.000000	64.370870 
1861.000000	64.354586 
1860.000000	64.343428 
1859.000000	64.338588 
1858.000000	64.340758 
1857.000000	64.350056 
1856.000000	64.366006 
1855.000000	64.387464 
1854.000000	64.412736 
1853.000000	64.439582 
1852.000000	64.465665 
1851.000000	64.488840 
1850.000000	64.507246 
1849.000000	64.519691 
1848.000000	64.525675 
1847.000000	64.525508 
1846.000000	64.520192 
1845.000000	64.511251 
1844.000000	64.500498 
1843.000000	64.489769 
1842.000000	64.480710 
1841.000000	64.474534 
1840.000000	64.471983 
1839.000000	64.473056 
1838.000000	64.477252 
1837.000000	64.483642 
1836.000000	64.490985 
1835.000000	64.498043 
1834.000000	64.503693 
1833.000000	64.507222 
1832.000000	64.508223 
1831.000000	64.506769 
1830.000000	64.502978 
1829.000000	64.497256 
1828.000000	64.489817 
1827.000000	64.480781 
1826.000000	64.470243 
1825.000000	64.458274 
1824.000000	64.445185 
1823.000000	64.431428 
1822.000000	64.417743 
1821.000000	64.404940 
1820.000000	64.393877 
1819.000000	64.384889 
1818.000000	64.377999 
1817.000000	64.372777 
1816.000000	64.368462 
1815.000000	64.364075 
1814.000000	64.358949 
1813.000000	64.352798 
1812.000000	64.345884 
1811.000000	64.338827 
1810.000000	64.332580 
1809.000000	64.327669 
1808.000000	64.324355 
1807.000000	64.322137 
1806.000000	64.320182 
1805.000000	64.317464 
1804.000000	64.313220 
1803.000000	64.307284 
1802.000000	64.300298 
1801.000000	64.293670 
1800.000000	64.289331 
1799.000000	64.289188 
1798.000000	64.294672 
1797.000000	64.306259 
1796.000000	64.323425 
1795.000000	64.344668 
1794.000000	64.367628 
1793.000000	64.389753 
1792.000000	64.408540 
1791.000000	64.422249 
1790.000000	64.429783 
1789.000000	64.431142 
1788.000000	64.427113 
1787.000000	64.419078 
1786.000000	64.408802 
1785.000000	64.397644 
1784.000000	64.387011 
1783.000000	64.377546 
1782.000000	64.369320 
1781.000000	64.361906 
1780.000000	64.354562 
1779.000000	64.346528 
1778.000000	64.337539 
1777.000000	64.327907 
1776.000000	64.318585 
1775.000000	64.311003 
1774.000000	64.306592 
1773.000000	64.306569 
1772.000000	64.311289 
1771.000000	64.320158 
1770.000000	64.331722 
1769.000000	64.343786 
1768.000000	64.353823 
1767.000000	64.359593 
1766.000000	64.359736 
1765.000000	64.353775 
1764.000000	64.342474 
1763.000000	64.327573 
1762.000000	64.311480 
1761.000000	64.296674 
1760.000000	64.285111 
1759.000000	64.277982 
1758.000000	64.275193 
1757.000000	64.275765 
1756.000000	64.277768 
1755.000000	64.278936 
1754.000000	64.276957 
1753.000000	64.270401 
1752.000000	64.258909 
1751.000000	64.243245 
1750.000000	64.225316 
1749.000000	64.207625 
1748.000000	64.192581 
1747.000000	64.181852 
1746.000000	64.175772 
1745.000000	64.173388 
1744.000000	64.172339 
1743.000000	64.169716 
1742.000000	64.162611 
1741.000000	64.149022 
1740.000000	64.128375 
1739.000000	64.101886 
1738.000000	64.072203 
1737.000000	64.043092 
1736.000000	64.018392 
1735.000000	64.001679 
1734.000000	63.995146 
1733.000000	63.999605 
1732.000000	64.014267 
1731.000000	64.036989 
1730.000000	64.064908 
1729.000000	64.094972 
1728.000000	64.123940 
1727.000000	64.149427 
1726.000000	64.169549 
1725.000000	64.183640 
1724.000000	64.191675 
1723.000000	64.194512 
1722.000000	64.193534 
1721.000000	64.190340 
1720.000000	64.186549 
1719.000000	64.183354 
1718.000000	64.181637 
1717.000000	64.181590 
1716.000000	64.183020 
1715.000000	64.185333 
1714.000000	64.188051 
1713.000000	64.190769 
1712.000000	64.193439 
1711.000000	64.196252 
1710.000000	64.199733 
1709.000000	64.204454 
1708.000000	64.210987 
1707.000000	64.219594 
1706.000000	64.230465 
1705.000000	64.243650 
1704.000000	64.259052 
1703.000000	64.276885 
1702.000000	64.297080 
1701.000000	64.319467 
1700.000000	64.343333 
1699.000000	64.367628 
1698.000000	64.390683 
1697.000000	64.410734 
1696.000000	64.426136 
1695.000000	64.435553 
1694.000000	64.438343 
1693.000000	64.434862 
1692.000000	64.425992 
1691.000000	64.413332 
1690.000000	64.398503 
1689.000000	64.383029 
1688.000000	64.367890 
1687.000000	64.353537 
1686.000000	64.339876 
1685.000000	64.326477 
1684.000000	64.312720 
1683.000000	64.298367 
1682.000000	64.283394 
1681.000000	64.268517 
1680.000000	64.254474 
1679.000000	64.242362 
1678.000000	64.233112 
1677.000000	64.227414 
1676.000000	64.225435 
1675.000000	64.226889 
1674.000000	64.230918 
1673.000000	64.236426 
1672.000000	64.242196 
1671.000000	64.247226 
1670.000000	64.250993 
1669.000000	64.253401 
1668.000000	64.254832 
1667.000000	64.255738 
1666.000000	64.256572 
1665.000000	64.257264 
1664.000000	64.257335 
1663.000000	64.255857 
1662.000000	64.251708 
1661.000000	64.243960 
1660.000000	64.232039 
1659.000000	64.216136 
1658.000000	64.197087 
1657.000000	64.176249 
1656.000000	64.155459 
1655.000000	64.136719 
1654.000000	64.121913 
1653.000000	64.112448 
1652.000000	64.109134 
1651.000000	64.112281 
1650.000000	64.121603 
1649.000000	64.136219 
1648.000000	64.154958 
1647.000000	64.176249 
1646.000000	64.198589 
1645.000000	64.220499 
1644.000000	64.240789 
1643.000000	64.258503 
1642.000000	64.273166 
1641.000000	64.284610 
1640.000000	64.292931 
1639.000000	64.298486 
1638.000000	64.301633 
1637.000000	64.302825 
1636.000000	64.302277 
1635.000000	64.300322 
1634.000000	64.297080 
1633.000000	64.292621 
1632.000000	64.286732 
1631.000000	64.279079 
1630.000000	64.269089 
1629.000000	64.256072 
1628.000000	64.239311 
1627.000000	64.218640 
1626.000000	64.194130 
1625.000000	64.166927 
1624.000000	64.138770 
1623.000000	64.112448 
1622.000000	64.090800 
1621.000000	64.076757 
1620.000000	64.072537 
1619.000000	64.079284 
1618.000000	64.096403 
1617.000000	64.121794 
1616.000000	64.152002 
1615.000000	64.182877 
1614.000000	64.209985 
1613.000000	64.229917 
1612.000000	64.240837 
1611.000000	64.242506 
1610.000000	64.236450 
1609.000000	64.225292 
1608.000000	64.212131 
1607.000000	64.199614 
1606.000000	64.189600 
1605.000000	64.182734 
1604.000000	64.178538 
1603.000000	64.176058 
1602.000000	64.173984 
1601.000000	64.171338 
1600.000000	64.167714 
1599.000000	64.163160 
1598.000000	64.158535 
1597.000000	64.154481 
1596.000000	64.151740 
1595.000000	64.150714 
1594.000000	64.151501 
1593.000000	64.153695 
1592.000000	64.156937 
1591.000000	64.160799 
1590.000000	64.164757 
1589.000000	64.168357 
1588.000000	64.170980 
1587.000000	64.172005 
1586.000000	64.170885 
1585.000000	64.167332 
1584.000000	64.161539 
1583.000000	64.154028 
1582.000000	64.145660 
1581.000000	64.137649 
1580.000000	64.131093 
1579.000000	64.126753 
1578.000000	64.124941 
1577.000000	64.125657 
1576.000000	64.128518 
1575.000000	64.133095 
1574.000000	64.138865 
1573.000000	64.145541 
1572.000000	64.152932 
1571.000000	64.161014 
1570.000000	64.169979 
1569.000000	64.180040 
1568.000000	64.191246 
1567.000000	64.203476 
1566.000000	64.216279 
1565.000000	64.228844 
1564.000000	64.240312 
1563.000000	64.249587 
1562.000000	64.255809 
1561.000000	64.258337 
1560.000000	64.256787 
1559.000000	64.251232 
1558.000000	64.242219 
1557.000000	64.230537 
1556.000000	64.217305 
1555.000000	64.203786 
1554.000000	64.191436 
1553.000000	64.181590 
1552.000000	64.175248 
1551.000000	64.172887 
1550.000000	64.174294 
1549.000000	64.178609 
1548.000000	64.184379 
1547.000000	64.189743 
1546.000000	64.192795 
1545.000000	64.192008 
1544.000000	64.186596 
1543.000000	64.176678 
1542.000000	64.163446 
1541.000000	64.148807 
1540.000000	64.135026 
1539.000000	64.124035 
1538.000000	64.117145 
1537.000000	64.114689 
1536.000000	64.115953 
1535.000000	64.119482 
1534.000000	64.123296 
1533.000000	64.125490 
1532.000000	64.124536 
1531.000000	64.119410 
1530.000000	64.109873 
1529.000000	64.096307 
1528.000000	64.079904 
1527.000000	64.062356 
1526.000000	64.045810 
1525.000000	64.032411 
1524.000000	64.023923 
1523.000000	64.021468 
1522.000000	64.025306 
1521.000000	64.034843 
1520.000000	64.048647 
1519.000000	64.064931 
1518.000000	64.081835 
1517.000000	64.097785 
1516.000000	64.111542 
1515.000000	64.122676 
1514.000000	64.130973 
1513.000000	64.136886 
1512.000000	64.141011 
1511.000000	64.143967 
1510.000000	64.146327 
1509.000000	64.148402 
1508.000000	64.150476 
1507.000000	64.152598 
1506.000000	64.154887 
1505.000000	64.157462 
1504.000000	64.160704 
1503.000000	64.164733 
1502.000000	64.169597 
1501.000000	64.175033 
1500.000000	64.180541 
1499.000000	64.185261 
1498.000000	64.188456 
1497.000000	64.189553 
1496.000000	64.188480 
1495.000000	64.186000 
1494.000000	64.183449 
1493.000000	64.182734 
1492.000000	64.185523 
1491.000000	64.193058 
1490.000000	64.205527 
1489.000000	64.221811 
1488.000000	64.239668 
1487.000000	64.256095 
1486.000000	64.267945 
1485.000000	64.272952 
1484.000000	64.269948 
1483.000000	64.259290 
1482.000000	64.242482 
1481.000000	64.221835 
1480.000000	64.199900 
1479.000000	64.178729 
1478.000000	64.159822 
1477.000000	64.144086 
1476.000000	64.131784 
1475.000000	64.123082 
1474.000000	64.118075 
1473.000000	64.116978 
1472.000000	64.119839 
1471.000000	64.126396 
1470.000000	64.135694 
1469.000000	64.146184 
1468.000000	64.155626 
1467.000000	64.161610 
1466.000000	64.162135 
1465.000000	64.155983 
1464.000000	64.143252 
1463.000000	64.125108 
1462.000000	64.103460 
1461.000000	64.080333 
1460.000000	64.057469 
1459.000000	64.036154 
1458.000000	64.016842 
1457.000000	63.999533 
1456.000000	63.984203 
1455.000000	63.970661 
1454.000000	63.958978 
1453.000000	63.949251 
1452.000000	63.941526 
1451.000000	63.935542 
1450.000000	63.930463 
1449.000000	63.924980 
1448.000000	63.917613 
1447.000000	63.906955 
1446.000000	63.892102 
1445.000000	63.873219 
1444.000000	63.851594 
1443.000000	63.829565 
1442.000000	63.810276 
1441.000000	63.796997 
1440.000000	63.792443 
1439.000000	63.798308 
1438.000000	63.814878 
1437.000000	63.840985 
1436.000000	63.873982 
1435.000000	63.910436 
1434.000000	63.946509 
1433.000000	63.978672 
1432.000000	64.004588 
1431.000000	64.023137 
1430.000000	64.034891 
1429.000000	64.041805 
1428.000000	64.046502 
1427.000000	64.051651 
1426.000000	64.059138 
1425.000000	64.070010 
1424.000000	64.083909 
1423.000000	64.099431 
1422.000000	64.114570 
1421.000000	64.127564 
1420.000000	64.137077 
1419.000000	64.142799 
1418.000000	64.145207 
1417.000000	64.145612 
1416.000000	64.145588 
1415.000000	64.146327 
1414.000000	64.148616 
1413.000000	64.152216 
1412.000000	64.156270 
1411.000000	64.159417 
1410.000000	64.160418 
1409.000000	64.158272 
1408.000000	64.152812 
1407.000000	64.144444 
1406.000000	64.134216 
1405.000000	64.123463 
1404.000000	64.113664 
1403.000000	64.105892 
1402.000000	64.100527 
1401.000000	64.097380 
1400.000000	64.095807 
1399.000000	64.094805 
1398.000000	64.093303 
1397.000000	64.090490 
1396.000000	64.086055 
1395.000000	64.080142 
1394.000000	64.073395 
1393.000000	64.066505 
1392.000000	64.060330 
1391.000000	64.055323 
1390.000000	64.051604 
1389.000000	64.048886 
1388.000000	64.046430 
1387.000000	64.043283 
1386.000000	64.038610 
1385.000000	64.031791 
1384.000000	64.022707 
1383.000000	64.011645 
1382.000000	63.999390 
1381.000000	63.986849 
1380.000000	63.975095 
1379.000000	63.964962 
1378.000000	63.956809 
1377.000000	63.950872 
1376.000000	63.947010 
1375.000000	63.944911 
1374.000000	63.944292 
1373.000000	63.944745 
1372.000000	63.946104 
1371.000000	63.948202 
1370.000000	63.951158 
1369.000000	63.954949 
1368.000000	63.959860 
1367.000000	63.965988 
1366.000000	63.973426 
1365.000000	63.982129 
1364.000000	63.991856 
1363.000000	64.002275 
1362.000000	64.012956 
1361.000000	64.023375 
1360.000000	64.032912 
1359.000000	64.040899 
1358.000000	64.046525 
1357.000000	64.048814 
1356.000000	64.046955 
1355.000000	64.040350 
1354.000000	64.028716 
1353.000000	64.012455 
1352.000000	63.992691 
1351.000000	63.971090 
1350.000000	63.950037 
1349.000000	63.931918 
1348.000000	63.918900 
1347.000000	63.912415 
1346.000000	63.912796 
1345.000000	63.919305 
1344.000000	63.929915 
1343.000000	63.942170 
1342.000000	63.953471 
1341.000000	63.961648 
1340.000000	63.965415 
1339.000000	63.964653 
1338.000000	63.960218 
1337.000000	63.953757 
1336.000000	63.947176 
1335.000000	63.942432 
1334.000000	63.941025 
1333.000000	63.943839 
1332.000000	63.950824 
1331.000000	63.961410 
1330.000000	63.974261 
1329.000000	63.987588 
1328.000000	63.999581 
1327.000000	64.008378 
1326.000000	64.012455 
1325.000000	64.010858 
1324.000000	64.003396 
1323.000000	63.990616 
1322.000000	63.973760 
1321.000000	63.954687 
1320.000000	63.935375 
1319.000000	63.917493 
1318.000000	63.902378 
1317.000000	63.890719 
1316.000000	63.882732 
1315.000000	63.878250 
1314.000000	63.876914 
1313.000000	63.878369 
1312.000000	63.882517 
1311.000000	63.889408 
1310.000000	63.898921 
1309.000000	63.910555 
1308.000000	63.923454 
1307.000000	63.936328 
1306.000000	63.947629 
1305.000000	63.955950 
1304.000000	63.960337 
1303.000000	63.960528 
1302.000000	63.957333 
1301.000000	63.952112 
1300.000000	63.946580 
1299.000000	63.942193 
1298.000000	63.940048 
1297.000000	63.940334 
1296.000000	63.942718 
1295.000000	63.946413 
1294.000000	63.950657 
1293.000000	63.955068 
1292.000000	63.959622 
1291.000000	63.964724 
1290.000000	63.970851 
1289.000000	63.978123 
1288.000000	63.986134 
1287.000000	63.993740 
1286.000000	63.999199 
1285.000000	64.000749 
1284.000000	63.997268 
1283.000000	63.988590 
1282.000000	63.975620 
1281.000000	63.960361 
1280.000000	63.945412 
1279.000000	63.933300 
1278.000000	63.925957 
1277.000000	63.924288 
1276.000000	63.928246 
1275.000000	63.936924 
1274.000000	63.949012 
1273.000000	63.963103 
1272.000000	63.978219 
1271.000000	63.993549 
1270.000000	64.008879 
1269.000000	64.024114 
1268.000000	64.038991 
1267.000000	64.052963 
1266.000000	64.064884 
1265.000000	64.073395 
1264.000000	64.076828 
1263.000000	64.073991 
1262.000000	64.063930 
1261.000000	64.046645 
1260.000000	64.022660 
1259.000000	63.993382 
1258.000000	63.960456 
1257.000000	63.925766 
1256.000000	63.890910 
1255.000000	63.857507 
1254.000000	63.826775 
1253.000000	63.799905 
1252.000000	63.777875 
1251.000000	63.761639 
1250.000000	63.752007 
1249.000000	63.749670 
1248.000000	63.754582 
1247.000000	63.766050 
1246.000000	63.782453 
1245.000000	63.801550 
1244.000000	63.820266 
1243.000000	63.835740 
1242.000000	63.845443 
1241.000000	63.848257 
1240.000000	63.844156 
1239.000000	63.834786 
1238.000000	63.822722 
1237.000000	63.811230 
1236.000000	63.803505 
1235.000000	63.801836 
1234.000000	63.807296 
1233.000000	63.819408 
1232.000000	63.836503 
1231.000000	63.856005 
1230.000000	63.875007 
1229.000000	63.891124 
1228.000000	63.902688 
1227.000000	63.909125 
1226.000000	63.910627 
1225.000000	63.908386 
1224.000000	63.903617 
1223.000000	63.897371 
1222.000000	63.889980 
1221.000000	63.881301 
1220.000000	63.870763 
1219.000000	63.857579 
1218.000000	63.841247 
1217.000000	63.821959 
1216.000000	63.800787 
1215.000000	63.779830 
1214.000000	63.761973 
1213.000000	63.750076 
1212.000000	63.746881 
1211.000000	63.754177 
1210.000000	63.772368 
1209.000000	63.800263 
1208.000000	63.835191 
1207.000000	63.873338 
1206.000000	63.910388 
1205.000000	63.942193 
1204.000000	63.965368 
1203.000000	63.977789 
1202.000000	63.978815 
1201.000000	63.969373 
1200.000000	63.951945 
1199.000000	63.929700 
1198.000000	63.906288 
1197.000000	63.884925 
1196.000000	63.867950 
1195.000000	63.856530 
1194.000000	63.850522 
1193.000000	63.848829 
1192.000000	63.849806 
1191.000000	63.851809 
1190.000000	63.853430 
1189.000000	63.854050 
1188.000000	63.853406 
1187.000000	63.851881 
1186.000000	63.849902 
1185.000000	63.848114 
1184.000000	63.846945 
1183.000000	63.846850 
1182.000000	63.848233 
1181.000000	63.851499 
1180.000000	63.857126 
1179.000000	63.865280 
1178.000000	63.875913 
1177.000000	63.888216 
1176.000000	63.900852 
1175.000000	63.911676 
1174.000000	63.918399 
1173.000000	63.918995 
1172.000000	63.912177 
1171.000000	63.898086 
1170.000000	63.878083 
1169.000000	63.854479 
1168.000000	63.829779 
1167.000000	63.806438 
1166.000000	63.785958 
1165.000000	63.768839 
1164.000000	63.754630 
1163.000000	63.742089 
1162.000000	63.730120 
1161.000000	63.718008 
1160.000000	63.705968 
1159.000000	63.694763 
1158.000000	63.685822 
1157.000000	63.680720 
1156.000000	63.680624 
1155.000000	63.685679 
1154.000000	63.695073 
1153.000000	63.707113 
1152.000000	63.719558 
1151.000000	63.730239 
1150.000000	63.737726 
1149.000000	63.741540 
1148.000000	63.742470 
1147.000000	63.742280 
1146.000000	63.743424 
1145.000000	63.748502 
1144.000000	63.759541 
1143.000000	63.777470 
1142.000000	63.801741 
1141.000000	63.830232 
1140.000000	63.859868 
1139.000000	63.886904 
1138.000000	63.907814 
1137.000000	63.919591 
1136.000000	63.920855 
1135.000000	63.911271 
1134.000000	63.891816 
1133.000000	63.864111 
1132.000000	63.830542 
1131.000000	63.793754 
1130.000000	63.756418 
1129.000000	63.721203 
1128.000000	63.690614 
1127.000000	63.666939 
1126.000000	63.651990 
1125.000000	63.646984 
1124.000000	63.652062 
1123.000000	63.666296 
1122.000000	63.687872 
1121.000000	63.714122 
1120.000000	63.741731 
1119.000000	63.767600 
1118.000000	63.789057 
1117.000000	63.804316 
1116.000000	63.812494 
1115.000000	63.813662 
1114.000000	63.808488 
1113.000000	63.798046 
1112.000000	63.783597 
1111.000000	63.766717 
1110.000000	63.748741 
1109.000000	63.731265 
1108.000000	63.715648 
1107.000000	63.703155 
1106.000000	63.694500 
1105.000000	63.690090 
1104.000000	63.689732 
1103.000000	63.692784 
1102.000000	63.698220 
1101.000000	63.704967 
1100.000000	63.711857 
1099.000000	63.717627 
1098.000000	63.721251 
1097.000000	63.722181 
1096.000000	63.720178 
1095.000000	63.715338 
1094.000000	63.708257 
1093.000000	63.699913 
1092.000000	63.691353 
1091.000000	63.683485 
1090.000000	63.676929 
1089.000000	63.671827 
1088.000000	63.667964 
1087.000000	63.664865 
1086.000000	63.661909 
1085.000000	63.658714 
1084.000000	63.655543 
1083.000000	63.653230 
1082.000000	63.653159 
1081.000000	63.656687 
1080.000000	63.664770 
1079.000000	63.677597 
1078.000000	63.694310 
1077.000000	63.713383 
1076.000000	63.732624 
1075.000000	63.750147 
1074.000000	63.764572 
1073.000000	63.775706 
1072.000000	63.784408 
1071.000000	63.792490 
1070.000000	63.802123 
1069.000000	63.815283 
1068.000000	63.833117 
1067.000000	63.855624 
1066.000000	63.881444 
1065.000000	63.908290 
1064.000000	63.933157 
1063.000000	63.952970 
1062.000000	63.965010 
1061.000000	63.967132 
1060.000000	63.958215 
1059.000000	63.938307 
1058.000000	63.908743 
1057.000000	63.871979 
1056.000000	63.831496 
1055.000000	63.791608 
1054.000000	63.756489 
1053.000000	63.729453 
1052.000000	63.712167 
1051.000000	63.704466 
1050.000000	63.704609 
1049.000000	63.709735 
1048.000000	63.716626 
1047.000000	63.722348 
1046.000000	63.725233 
1045.000000	63.725113 
1044.000000	63.723063 
1043.000000	63.720560 
1042.000000	63.719177 
1041.000000	63.719582 
1040.000000	63.721203 
1039.000000	63.722205 
1038.000000	63.720107 
1037.000000	63.712453 
1036.000000	63.697934 
1035.000000	63.676810 
1034.000000	63.651561 
1033.000000	63.626599 
1032.000000	63.607144 
1031.000000	63.598370 
1030.000000	63.604116 
1029.000000	63.625884 
1028.000000	63.662505 
1027.000000	63.709759 
1026.000000	63.761520 
1025.000000	63.810348 
1024.000000	63.849329 
1023.000000	63.873100 
1022.000000	63.878703 
1021.000000	63.866186 
1020.000000	63.838434 
1019.000000	63.800406 
1018.000000	63.758039 
1017.000000	63.717269 
1016.000000	63.683104 
1015.000000	63.658857 
1014.000000	63.646054 
1013.000000	63.644385 
1012.000000	63.652133 
1011.000000	63.666415 
1010.000000	63.683819 
1009.000000	63.700771 
1008.000000	63.714480 
1007.000000	63.722872 
1006.000000	63.725328 
1005.000000	63.722395 
1004.000000	63.715839 
1003.000000	63.708066 
1002.000000	63.701581 
1001.000000	63.698410 
1000.000000	63.699626 
999.000000	 63.705205 
998.000000	 63.713908 
997.000000	 63.723683 
996.000000	 63.732194 
995.000000	 63.737607 
994.000000	 63.738775 
993.000000	 63.735342 
992.000000	 63.727903 
991.000000	 63.717770 
990.000000	 63.706612 
989.000000	 63.695764 
988.000000	 63.686275 
987.000000	 63.678812 
986.000000	 63.673830 
985.000000	 63.671779 
984.000000	 63.673019 
983.000000	 63.677811 
982.000000	 63.686418 
981.000000	 63.698935 
980.000000	 63.715267 
979.000000	 63.734936 
978.000000	 63.757014 
977.000000	 63.779735 
976.000000	 63.801074 
975.000000	 63.818621 
974.000000	 63.830041 
973.000000	 63.833475 
972.000000	 63.827991 
971.000000	 63.813781 
970.000000	 63.792347 
969.000000	 63.765954 
968.000000	 63.737463 
967.000000	 63.709211 
966.000000	 63.683176 
965.000000	 63.660144 
964.000000	 63.639950 
963.000000	 63.621735 
962.000000	 63.604450 
961.000000	 63.587570 
960.000000	 63.571310 
959.000000	 63.556790 
958.000000	 63.545727 
957.000000	 63.539576 
956.000000	 63.538813 
955.000000	 63.542461 
954.000000	 63.548350 
953.000000	 63.553357 
952.000000	 63.554382 
951.000000	 63.548994 
950.000000	 63.536477 
949.000000	 63.517928 
948.000000	 63.496184 
947.000000	 63.474941 
946.000000	 63.458013 
945.000000	 63.448667 
944.000000	 63.448905 
943.000000	 63.459014 
942.000000	 63.477587 
941.000000	 63.502025 
940.000000	 63.529086 
939.000000	 63.555622 
938.000000	 63.578963 
937.000000	 63.597178 
936.000000	 63.609504 
935.000000	 63.616394 
934.000000	 63.619518 
933.000000	 63.621139 
932.000000	 63.624072 
931.000000	 63.631010 
930.000000	 63.644075 
929.000000	 63.664197 
928.000000	 63.690900 
927.000000	 63.722276 
926.000000	 63.755297 
925.000000	 63.786315 
924.000000	 63.811850 
923.000000	 63.828945 
922.000000	 63.835763 
921.000000	 63.831639 
920.000000	 63.817071 
919.000000	 63.793659 
918.000000	 63.763499 
917.000000	 63.729500 
916.000000	 63.694858 
915.000000	 63.663101 
914.000000	 63.638043 
913.000000	 63.623237 
912.000000	 63.621640 
911.000000	 63.634920 
910.000000	 63.663125 
909.000000	 63.704013 
908.000000	 63.752937 
907.000000	 63.803696 
906.000000	 63.849496 
905.000000	 63.883876 
904.000000	 63.902091 
903.000000	 63.902115 
902.000000	 63.884997 
901.000000	 63.854479 
900.000000	 63.816094 
899.000000	 63.776111 
898.000000	 63.740253 
897.000000	 63.712739 
896.000000	 63.695764 
895.000000	 63.689827 
894.000000	 63.693714 
893.000000	 63.705730 
892.000000	 63.723731 
891.000000	 63.745403 
890.000000	 63.768434 
889.000000	 63.790535 
888.000000	 63.809299 
887.000000	 63.821935 
886.000000	 63.825964 
885.000000	 63.819622 
884.000000	 63.802218 
883.000000	 63.774561 
882.000000	 63.738918 
881.000000	 63.698959 
880.000000	 63.658714 
879.000000	 63.621950 
878.000000	 63.591241 
877.000000	 63.567519 
876.000000	 63.549923 
875.000000	 63.536453 
874.000000	 63.524317 
873.000000	 63.511443 
872.000000	 63.496732 
871.000000	 63.481187 
870.000000	 63.466978 
869.000000	 63.457751 
868.000000	 63.457155 
867.000000	 63.468456 
866.000000	 63.493418 
865.000000	 63.532090 
864.000000	 63.582491 
863.000000	 63.641166 
862.000000	 63.703680 
861.000000	 63.765430 
860.000000	 63.822078 
859.000000	 63.870120 
858.000000	 63.906979 
857.000000	 63.931202 
856.000000	 63.942217 
855.000000	 63.940596 
854.000000	 63.927912 
853.000000	 63.906908 
852.000000	 63.881278 
851.000000	 63.855385 
850.000000	 63.833689 
849.000000	 63.819766 
848.000000	 63.815402 
847.000000	 63.820314 
846.000000	 63.832068 
845.000000	 63.846421 
844.000000	 63.858509 
843.000000	 63.863682 
842.000000	 63.859343 
841.000000	 63.845276 
840.000000	 63.824081 
839.000000	 63.800072 
838.000000	 63.778662 
837.000000	 63.764643 
836.000000	 63.761377 
835.000000	 63.769626 
834.000000	 63.787651 
833.000000	 63.811874 
832.000000	 63.837766 
831.000000	 63.860845 
830.000000	 63.877820 
829.000000	 63.887000 
828.000000	 63.888382 
827.000000	 63.882946 
826.000000	 63.872480 
825.000000	 63.858985 
824.000000	 63.844203 
823.000000	 63.829421 
822.000000	 63.815355 
821.000000	 63.802313 
820.000000	 63.790512 
819.000000	 63.780140 
818.000000	 63.771080 
817.000000	 63.763022 
816.000000	 63.755345 
815.000000	 63.747096 
814.000000	 63.737010 
813.000000	 63.724112 
812.000000	 63.707494 
811.000000	 63.687205 
810.000000	 63.664102 
809.000000	 63.640046 
808.000000	 63.617348 
807.000000	 63.598752 
806.000000	 63.586640 
805.000000	 63.582730 
804.000000	 63.587450 
803.000000	 63.599944 
802.000000	 63.618063 
801.000000	 63.638544 
800.000000	 63.657999 
799.000000	 63.673591 
798.000000	 63.683629 
797.000000	 63.687992 
796.000000	 63.688158 
795.000000	 63.686537 
794.000000	 63.685846 
793.000000	 63.688397 
792.000000	 63.695430 
791.000000	 63.706707 
790.000000	 63.720488 
789.000000	 63.734126 
788.000000	 63.744521 
787.000000	 63.749003 
786.000000	 63.745689 
785.000000	 63.733911 
784.000000	 63.714337 
783.000000	 63.688683 
782.000000	 63.659596 
781.000000	 63.629674 
780.000000	 63.601684 
779.000000	 63.577771 
778.000000	 63.559651 
777.000000	 63.548326 
776.000000	 63.544130 
775.000000	 63.546776 
774.000000	 63.555526 
773.000000	 63.569355 
772.000000	 63.587379 
771.000000	 63.608837 
770.000000	 63.633322 
769.000000	 63.660335 
768.000000	 63.689351 
767.000000	 63.719606 
766.000000	 63.749742 
765.000000	 63.777732 
764.000000	 63.801312 
763.000000	 63.817977 
762.000000	 63.825774 
761.000000	 63.823056 
760.000000	 63.809299 
759.000000	 63.784670 
758.000000	 63.750433 
757.000000	 63.708424 
756.000000	 63.660907 
755.000000	 63.610410 
754.000000	 63.559675 
753.000000	 63.511800 
752.000000	 63.470029 
751.000000	 63.437604 
750.000000	 63.417363 
749.000000	 63.410949 
748.000000	 63.418340 
747.000000	 63.437604 
746.000000	 63.464999 
745.000000	 63.495826 
744.000000	 63.525009 
743.000000	 63.548398 
742.000000	 63.563275 
741.000000	 63.569021 
740.000000	 63.566684 
739.000000	 63.558316 
738.000000	 63.545966 
737.000000	 63.531327 
736.000000	 63.515472 
735.000000	 63.498449 
734.000000	 63.480067 
733.000000	 63.460755 
732.000000	 63.441777 
731.000000	 63.425636 
730.000000	 63.414955 
729.000000	 63.411521 
728.000000	 63.415884 
727.000000	 63.426208 
726.000000	 63.439726 
725.000000	 63.452529 
724.000000	 63.461804 
723.000000	 63.466453 
722.000000	 63.467550 
721.000000	 63.467764 
720.000000	 63.470721 
719.000000	 63.479828 
718.000000	 63.496971 
717.000000	 63.521552 
716.000000	 63.550591 
715.000000	 63.579106 
714.000000	 63.600564 
713.000000	 63.608312 
712.000000	 63.597083 
711.000000	 63.564395 
710.000000	 63.510465 
709.000000	 63.439106 
708.000000	 63.357138 
707.000000	 63.273525 
706.000000	 63.197708 
705.000000	 63.138031 
704.000000	 63.100481 
703.000000	 63.087534 
702.000000	 63.098049 
701.000000	 63.127613 
700.000000	 63.169169 
699.000000	 63.215255 
698.000000	 63.259243 
697.000000	 63.297033 
696.000000	 63.326764 
695.000000	 63.349533 
694.000000	 63.368129 
693.000000	 63.385844 
692.000000	 63.404846 
691.000000	 63.425993 
690.000000	 63.448524 
689.000000	 63.471150 
688.000000	 63.492918 
687.000000	 63.514685 
686.000000	 63.539409 
685.000000	 63.572239 
684.000000	 63.619041 
683.000000	 63.684511 
682.000000	 63.769674 
681.000000	 63.871455 
680.000000	 63.981509 
679.000000	 64.087939 
678.000000	 64.176630 
677.000000	 64.235734 
676.000000	 64.256834 
675.000000	 64.237523 
674.000000	 64.180850 
673.000000	 64.095425 
672.000000	 63.992285 
671.000000	 63.883423 
670.000000	 63.778281 
669.000000	 63.682794 
668.000000	 63.599133 
667.000000	 63.527274 
666.000000	 63.465547 
665.000000	 63.412189 
664.000000	 63.367009 
663.000000	 63.332176 
662.000000	 63.310909 
661.000000	 63.306498 
660.000000	 63.321089 
659.000000	 63.354754 
658.000000	 63.405489 
657.000000	 63.469624 
656.000000	 63.542342 
655.000000	 63.618755 
654.000000	 63.695573 
653.000000	 63.770532 
652.000000	 63.841748 
651.000000	 63.906931 
650.000000	 63.963150 
649.000000	 64.005851 
648.000000	 64.030504 
647.000000	 64.031624 
646.000000	 64.005899 
645.000000	 63.951110 
644.000000	 63.868522 
643.000000	 63.761091 
642.000000	 63.634562 
641.000000	 63.495135 
640.000000	 63.349270 
639.000000	 63.203144 
638.000000	 63.062500 
637.000000	 62.933492 
636.000000	 62.823057 
635.000000	 62.738990 
634.000000	 62.689638 
633.000000	 62.683558 
632.000000	 62.728404 
631.000000	 62.828087 
630.000000	 62.981629 
629.000000	 63.182854 
628.000000	 63.420367 
627.000000	 63.678097 
626.000000	 63.937091 
625.000000	 64.177680 
624.000000	 64.381885 
623.000000	 64.535784 
622.000000	 64.631080 
621.000000	 64.666843 
620.000000	 64.648342 
619.000000	 64.587450 
618.000000	 64.498472 
617.000000	 64.397740 
616.000000	 64.298439 
615.000000	 64.211869 
614.000000	 64.142394 
613.000000	 64.089488 
612.000000	 64.046907 
611.000000	 64.006853 
610.000000	 63.959407 
609.000000	 63.895821 
608.000000	 63.809800 
607.000000	 63.699460 
606.000000	 63.567352 
605.000000	 63.420653 
604.000000	 63.269662 
603.000000	 63.126802 
602.000000	 63.005447 
601.000000	 62.917590 
600.000000	 62.871670 
599.000000	 62.870836 
598.000000	 62.912583 
597.000000	 62.988519 
596.000000	 63.084030 
595.000000	 63.182020 
594.000000	 63.264799 
593.000000	 63.319253 
592.000000	 63.336849 
591.000000	 63.318681 
590.000000	 63.273930 
589.000000	 63.219332 
588.000000	 63.174962 
587.000000	 63.159298 
586.000000	 63.184618 
585.000000	 63.253903 
584.000000	 63.360595 
583.000000	 63.488292 
582.000000	 63.614630 
581.000000	 63.716292 
580.000000	 63.774585 
579.000000	 63.778114 
578.000000	 63.725066 
577.000000	 63.623142 
576.000000	 63.487505 
575.000000	 63.336277 
574.000000	 63.187789 
573.000000	 63.057756 
572.000000	 62.957906 
571.000000	 62.895798 
570.000000	 62.874674 
569.000000	 62.894463 
568.000000	 62.952136 
567.000000	 63.042449 
566.000000	 63.158512 
565.000000	 63.289165 
564.000000	 63.423156 
563.000000	 63.548684 
562.000000	 63.656806 
561.000000	 63.741517 
560.000000	 63.801980 
559.000000	 63.842153 
558.000000	 63.869357 
557.000000	 63.892865 
556.000000	 63.920044 
555.000000	 63.954567 
554.000000	 63.996171 
553.000000	 64.041543 
552.000000	 64.086675 
551.000000	 64.128565 
550.000000	 64.167666 
549.000000	 64.206504 
548.000000	 64.249038 
547.000000	 64.296388 
546.000000	 64.345693 
545.000000	 64.387536 
544.000000	 64.407205 
543.000000	 64.387154 
542.000000	 64.312648 
541.000000	 64.175677 
540.000000	 63.978981 
539.000000	 63.737082 
538.000000	 63.474369 
537.000000	 63.221621 
536.000000	 63.009285 
535.000000	 62.862634 
534.000000	 62.795090 
533.000000	 62.809014 
532.000000	 62.895989 
531.000000	 63.039398 
530.000000	 63.217830 
529.000000	 63.409447 
528.000000	 63.595414 
527.000000	 63.760995 
526.000000	 63.895940 
525.000000	 63.995933 
524.000000	 64.061284 
523.000000	 64.096570 
522.000000	 64.108443 
521.000000	 64.104509 
520.000000	 64.090514 
519.000000	 64.071393 
518.000000	 64.048790 
517.000000	 64.022612 
516.000000	 63.990783 
515.000000	 63.951539 
514.000000	 63.903594 
513.000000	 63.848233 
512.000000	 63.788318 
511.000000	 63.728404 
510.000000	 63.673043 
509.000000	 63.625741 
508.000000	 63.587617 
507.000000	 63.557195 
506.000000	 63.530540 
505.000000	 63.502049 
504.000000	 63.466882 
503.000000	 63.422608 
502.000000	 63.368964 
501.000000	 63.308072 
500.000000	 63.244032 
499.000000	 63.182115 
498.000000	 63.128876 
497.000000	 63.091039 
496.000000	 63.074827 
495.000000	 63.084793 
494.000000	 63.122773 
493.000000	 63.187003 
492.000000	 63.272571 
491.000000	 63.370585 
490.000000	 63.469362 
489.000000	 63.555216 
488.000000	 63.615298 
487.000000	 63.638758 
486.000000	 63.618850 
485.000000	 63.553810 
484.000000	 63.447165 
483.000000	 63.308262 
482.000000	 63.151049 
481.000000	 62.992572 
480.000000	 62.850451 
479.000000	 62.740516 
478.000000	 62.674832 
477.000000	 62.659716 
476.000000	 62.694978 
475.000000	 62.774062 
474.000000	 62.885379 
473.000000	 63.014245 
472.000000	 63.145709 
471.000000	 63.268756 
470.000000	 63.378906 
469.000000	 63.477945 
468.000000	 63.573074 
467.000000	 63.675427 
466.000000	 63.795065 
465.000000	 63.938236 
464.000000	 64.102530 
463.000000	 64.278745 
462.000000	 64.448499 
461.000000	 64.591145 
460.000000	 64.684104 
459.000000	 64.708828 
458.000000	 64.653968 
457.000000	 64.520573 
456.000000	 64.320969 
455.000000	 64.076542 
454.000000	 63.814926 
453.000000	 63.567519 
452.000000	 63.360357 
451.000000	 63.210201 
450.000000	 63.121008 
449.000000	 63.085198 
448.000000	 63.085126 
447.000000	 63.098978 
446.000000	 63.103222 
445.000000	 63.077664 
444.000000	 63.011217 
443.000000	 62.903547 
442.000000	 62.758922 
441.000000	 62.585449 
440.000000	 62.395572 
439.000000	 62.204146 
438.000000	 62.020850 
437.000000	 61.854743 
436.000000	 61.714243 
435.000000	 61.611652 
434.000000	 61.559748 
433.000000	 61.575984 
432.000000	 61.674141 
431.000000	 61.867737 
430.000000	 62.162089 
429.000000	 62.554955 
428.000000	 63.032746 
427.000000	 63.569831 
426.000000	 64.131569 
425.000000	 64.673471 
424.000000	 65.148544 
423.000000	 65.509510 
422.000000	 65.719270 
421.000000	 65.749049 
420.000000	 65.584945 
419.000000	 65.224933 
418.000000	 64.679789 
417.000000	 63.972043 
416.000000	 63.133764 
415.000000	 62.197136 
414.000000	 61.195802 
413.000000	 60.163927 
412.000000	 59.143185 
411.000000	 58.181166 
410.000000	 57.337808 
409.000000	 56.675624 
408.000000	 56.258440 
407.000000	 56.133365 
406.000000	 56.323933 
405.000000	 56.819224 
404.000000	 57.568979 
403.000000	 58.473229 
402.000000	 59.410715 
401.000000	 60.248923 
400.000000	 60.883331 
399.000000	 61.255574 
398.000000	 61.363506 
397.000000	 61.256790 
396.000000	 61.014342 
395.000000	 60.722637 
394.000000	 60.437273 
393.000000	 60.174608 
392.000000	 59.875178 
391.000000	 59.426164 
390.000000	 58.707284 
389.000000	 57.642364 
388.000000	 56.238603 
387.000000	 54.608464 
386.000000	 52.962327 
385.000000	 51.561427 
384.000000	 50.659704 
383.000000	 50.421833 
382.000000	 50.885415 
381.000000	 51.920557 
380.000000	 53.239846 
379.000000	 54.478716 
378.000000	 55.238127 
377.000000	 55.255246 
376.000000	 54.469394 
375.000000	 53.071212 
374.000000	 51.440548 
373.000000	 50.064063 
372.000000	 49.432325 
371.000000	 49.831485 
370.000000	 51.261186 

