PE IR       SPECTRUM    SPECTRUM    ASCII       PEDS        1.60        
  -1
BZ6A21~1.ASC
17/04/07
18:18:13.00
17/04/07
18:18:13.00
tln
$BZ1503107-1_t0062$<tbV0>[-2.6,0.0,8.0,0.0,27,1,0]
370.000000
64









2002,4.07    
MIRTGS : RIGHTBACK : INTERNAL 2
MIR : ON : INTERNAL 2
OPTKBR

0.200000
8
8.000000
FILLER
RATIO
SPECTRUM
UNLOCKED 256

DOUBLE
64
COMBINED
1
0
0


1.000000
RATIO


1
0
TRUE
51149
0
LEFT NOT FITTED RIGHT NOT FITTED 0
NONE
NONE
15600
12.000000
4.427000
51148
TRUE
1 0 8 72 0 0 0 0 

15798.010000






#HDR
-1
-1
#GR
CM-1
%T
0.00002384185791015625
0.0
5000.000000
-1.000000
4631
8
77.843070
45.646739
#DATA
5000.000000	65.660047 
4999.000000	66.019892 
4998.000000	66.247320 
4997.000000	66.336560 
4996.000000	66.310620 
4995.000000	66.214275 
4994.000000	66.103744 
4993.000000	66.036605 
4992.000000	66.052770 
4991.000000	66.170525 
4990.000000	66.375207 
4989.000000	66.628479 
4988.000000	66.872310 
4987.000000	67.047238 
4986.000000	67.104220 
4985.000000	67.018675 
4984.000000	66.793632 
4983.000000	66.459512 
4982.000000	66.065931 
4981.000000	65.671157 
4980.000000	65.330195 
4979.000000	65.085196 
4978.000000	64.960527 
4977.000000	64.960670 
4976.000000	65.074276 
4975.000000	65.278553 
4974.000000	65.544390 
4973.000000	65.842771 
4972.000000	66.147398 
4971.000000	66.438078 
4970.000000	66.694998 
4969.000000	66.904520 
4968.000000	67.058944 
4967.000000	67.155075 
4966.000000	67.194485 
4965.000000	67.180633 
4964.000000	67.120242 
4963.000000	67.019915 
4962.000000	66.888546 
4961.000000	66.734194 
4960.000000	66.565752 
4959.000000	66.392827 
4958.000000	66.227078 
4957.000000	66.079807 
4956.000000	65.961170 
4955.000000	65.877652 
4954.000000	65.830588 
4953.000000	65.815806 
4952.000000	65.824222 
4951.000000	65.843558 
4950.000000	65.860486 
4949.000000	65.862417 
4948.000000	65.839529 
4947.000000	65.786814 
4946.000000	65.703701 
4945.000000	65.592217 
4944.000000	65.457797 
4943.000000	65.305185 
4942.000000	65.142846 
4941.000000	64.982104 
4940.000000	64.838218 
4939.000000	64.726901 
4938.000000	64.664220 
4937.000000	64.663505 
4936.000000	64.731407 
4935.000000	64.864635 
4934.000000	65.050339 
4933.000000	65.266990 
4932.000000	65.488815 
4931.000000	65.690207 
4930.000000	65.850067 
4929.000000	65.954947 
4928.000000	66.001510 
4927.000000	65.995740 
4926.000000	65.949726 
4925.000000	65.878009 
4924.000000	65.795278 
4923.000000	65.712761 
4922.000000	65.638470 
4921.000000	65.575194 
4920.000000	65.524578 
4919.000000	65.484786 
4918.000000	65.453267 
4917.000000	65.425705 
4916.000000	65.396404 
4915.000000	65.359759 
4914.000000	65.310359 
4913.000000	65.245676 
4912.000000	65.165734 
4911.000000	65.075588 
4910.000000	64.983606 
4909.000000	64.902091 
4908.000000	64.844083 
4907.000000	64.821600 
4906.000000	64.842486 
4905.000000	64.908623 
4904.000000	65.014863 
4903.000000	65.149140 
4902.000000	65.294599 
4901.000000	65.431785 
4900.000000	65.542125 
4899.000000	65.612173 
4898.000000	65.635681 
4897.000000	65.613913 
4896.000000	65.554523 
4895.000000	65.470385 
4894.000000	65.375518 
4893.000000	65.283536 
4892.000000	65.203261 
4891.000000	65.138769 
4890.000000	65.087842 
4889.000000	65.045428 
4888.000000	65.004396 
4887.000000	64.958357 
4886.000000	64.903950 
4885.000000	64.841413 
4884.000000	64.775466 
4883.000000	64.712929 
4882.000000	64.662361 
4881.000000	64.630889 
4880.000000	64.623641 
4879.000000	64.642047 
4878.000000	64.683938 
4877.000000	64.743757 
4876.000000	64.813065 
4875.000000	64.881920 
4874.000000	64.940047 
4873.000000	64.978528 
4872.000000	64.991521 
4871.000000	64.976930 
4870.000000	64.936423 
4869.000000	64.874935 
4868.000000	64.800214 
4867.000000	64.720988 
4866.000000	64.645361 
4865.000000	64.579677 
4864.000000	64.527463 
4863.000000	64.489841 
4862.000000	64.466238 
4861.000000	64.455199 
4860.000000	64.454913 
4859.000000	64.464306 
4858.000000	64.483094 
4857.000000	64.511513 
4856.000000	64.548754 
4855.000000	64.593291 
4854.000000	64.642024 
4853.000000	64.691114 
4852.000000	64.736199 
4851.000000	64.773726 
4850.000000	64.801549 
4849.000000	64.818763 
4848.000000	64.825367 
4847.000000	64.821672 
4846.000000	64.808034 
4845.000000	64.784622 
4844.000000	64.751672 
4843.000000	64.709639 
4842.000000	64.659881 
4841.000000	64.605116 
4840.000000	64.549469 
4839.000000	64.497900 
4838.000000	64.455580 
4837.000000	64.426732 
4836.000000	64.414310 
4835.000000	64.418625 
4834.000000	64.438295 
4833.000000	64.469647 
4832.000000	64.508342 
4831.000000	64.550185 
4830.000000	64.591979 
4829.000000	64.631295 
4828.000000	64.667272 
4827.000000	64.699816 
4826.000000	64.729499 
4825.000000	64.756655 
4824.000000	64.781093 
4823.000000	64.801931 
4822.000000	64.817047 
4821.000000	64.823770 
4820.000000	64.819526 
4819.000000	64.802622 
4818.000000	64.773225 
4817.000000	64.733314 
4816.000000	64.687013 
4815.000000	64.639163 
4814.000000	64.594030 
4813.000000	64.554142 
4812.000000	64.519619 
4811.000000	64.488792 
4810.000000	64.458513 
4809.000000	64.426708 
4808.000000	64.392995 
4807.000000	64.360356 
4806.000000	64.334225 
4805.000000	64.322042 
4804.000000	64.330863 
4803.000000	64.365506 
4802.000000	64.426326 
4801.000000	64.508795 
4800.000000	64.603495 
4799.000000	64.698672 
4798.000000	64.782691 
4797.000000	64.846611 
4796.000000	64.885950 
4795.000000	64.901590 
4794.000000	64.899110 
4793.000000	64.886736 
4792.000000	64.872860 
4791.000000	64.864182 
4790.000000	64.863872 
4789.000000	64.871621 
4788.000000	64.883780 
4787.000000	64.895176 
4786.000000	64.900732 
4785.000000	64.897131 
4784.000000	64.883995 
4783.000000	64.864015 
4782.000000	64.842486 
4781.000000	64.825534 
4780.000000	64.818739 
4779.000000	64.825725 
4778.000000	64.847135 
4777.000000	64.880895 
4776.000000	64.922165 
4775.000000	64.964818 
4774.000000	65.002489 
4773.000000	65.030193 
4772.000000	65.044736 
4771.000000	65.045046 
4770.000000	65.031933 
4769.000000	65.007591 
4768.000000	64.975047 
4767.000000	64.937496 
4766.000000	64.897918 
4765.000000	64.858484 
4764.000000	64.821100 
4763.000000	64.787054 
4762.000000	64.757347 
4761.000000	64.732170 
4760.000000	64.710903 
4759.000000	64.692163 
4758.000000	64.673423 
4757.000000	64.652395 
4756.000000	64.626932 
4755.000000	64.596652 
4754.000000	64.562129 
4753.000000	64.526343 
4752.000000	64.493274 
4751.000000	64.468169 
4750.000000	64.455509 
4749.000000	64.458966 
4748.000000	64.479851 
4747.000000	64.517188 
4746.000000	64.567637 
4745.000000	64.626359 
4744.000000	64.687776 
4743.000000	64.746499 
4742.000000	64.798140 
4741.000000	64.839982 
4740.000000	64.871096 
4739.000000	64.892125 
4738.000000	64.904928 
4737.000000	64.912199 
4736.000000	64.916300 
4735.000000	64.919400 
4734.000000	64.922332 
4733.000000	64.924502 
4732.000000	64.923882 
4731.000000	64.917969 
4730.000000	64.904499 
4729.000000	64.882111 
4728.000000	64.851236 
4727.000000	64.814829 
4726.000000	64.777493 
4725.000000	64.744544 
4724.000000	64.720773 
4723.000000	64.709568 
4722.000000	64.711618 
4721.000000	64.724564 
4720.000000	64.743924 
4719.000000	64.764213 
4718.000000	64.780592 
4717.000000	64.790201 
4716.000000	64.792656 
4715.000000	64.789915 
4714.000000	64.784932 
4713.000000	64.780330 
4712.000000	64.776945 
4711.000000	64.773249 
4710.000000	64.765763 
4709.000000	64.750480 
4708.000000	64.724111 
4707.000000	64.686226 
4706.000000	64.639663 
4705.000000	64.590978 
4704.000000	64.548540 
4703.000000	64.521622 
4702.000000	64.517259 
4701.000000	64.539670 
4700.000000	64.588499 
4699.000000	64.659452 
4698.000000	64.745593 
4697.000000	64.838385 
4696.000000	64.929604 
4695.000000	65.011954 
4694.000000	65.079808 
4693.000000	65.129375 
4692.000000	65.158343 
4691.000000	65.166401 
4690.000000	65.154814 
4689.000000	65.126943 
4688.000000	65.088295 
4687.000000	65.045547 
4686.000000	65.005874 
4685.000000	64.975786 
4684.000000	64.959955 
4683.000000	64.960169 
4682.000000	64.974999 
4681.000000	65.000271 
4680.000000	65.030169 
4679.000000	65.058398 
4678.000000	65.079832 
4677.000000	65.091705 
4676.000000	65.093779 
4675.000000	65.088343 
4674.000000	65.078711 
4673.000000	65.068197 
4672.000000	65.058970 
4671.000000	65.051603 
4670.000000	65.044856 
4669.000000	65.036344 
4668.000000	65.023684 
4667.000000	65.005874 
4666.000000	64.983797 
4665.000000	64.959931 
4664.000000	64.938712 
4663.000000	64.925289 
4662.000000	64.924168 
4661.000000	64.937925 
4660.000000	64.966440 
4659.000000	65.006732 
4658.000000	65.053486 
4657.000000	65.100288 
4656.000000	65.141534 
4655.000000	65.173602 
4654.000000	65.195465 
4653.000000	65.208435 
4652.000000	65.215301 
4651.000000	65.218830 
4650.000000	65.221023 
4649.000000	65.221619 
4648.000000	65.219044 
4647.000000	65.209794 
4646.000000	65.190815 
4645.000000	65.159130 
4644.000000	65.113711 
4643.000000	65.055418 
4642.000000	64.987111 
4641.000000	64.913773 
4640.000000	64.841437 
4639.000000	64.777112 
4638.000000	64.727115 
4637.000000	64.696907 
4636.000000	64.689898 
4635.000000	64.706444 
4634.000000	64.743852 
4633.000000	64.795565 
4632.000000	64.852094 
4631.000000	64.902138 
4630.000000	64.934921 
4629.000000	64.942336 
4628.000000	64.920806 
4627.000000	64.872264 
4626.000000	64.803791 
4625.000000	64.726138 
4624.000000	64.651322 
4623.000000	64.589834 
4622.000000	64.548540 
4621.000000	64.529848 
4620.000000	64.531517 
4619.000000	64.548015 
4618.000000	64.571952 
4617.000000	64.595985 
4616.000000	64.614319 
4615.000000	64.623427 
4614.000000	64.622497 
4613.000000	64.612078 
4612.000000	64.594626 
4611.000000	64.573049 
4610.000000	64.551043 
4609.000000	64.532327 
4608.000000	64.520955 
4607.000000	64.521002 
4606.000000	64.535045 
4605.000000	64.563727 
4604.000000	64.604926 
4603.000000	64.654183 
4602.000000	64.705395 
4601.000000	64.751768 
4600.000000	64.787554 
4599.000000	64.808821 
4598.000000	64.814352 
4597.000000	64.805507 
4596.000000	64.785528 
4595.000000	64.758753 
4594.000000	64.729213 
4593.000000	64.700317 
4592.000000	64.674663 
4591.000000	64.653944 
4590.000000	64.638853 
4589.000000	64.629650 
4588.000000	64.626574 
4587.000000	64.629721 
4586.000000	64.638948 
4585.000000	64.653658 
4584.000000	64.672350 
4583.000000	64.693522 
4582.000000	64.715433 
4581.000000	64.736914 
4580.000000	64.757490 
4579.000000	64.777183 
4578.000000	64.795994 
4577.000000	64.813590 
4576.000000	64.828968 
4575.000000	64.840269 
4574.000000	64.845275 
4573.000000	64.841723 
4572.000000	64.828348 
4571.000000	64.805555 
4570.000000	64.775872 
4569.000000	64.743638 
4568.000000	64.714527 
4567.000000	64.694547 
4566.000000	64.688515 
4565.000000	64.699292 
4564.000000	64.726257 
4563.000000	64.765429 
4562.000000	64.810252 
4561.000000	64.852833 
4560.000000	64.886045 
4559.000000	64.905261 
4558.000000	64.909362 
4557.000000	64.901041 
4556.000000	64.885735 
4555.000000	64.869785 
4554.000000	64.858651 
4553.000000	64.855527 
4552.000000	64.860677 
4551.000000	64.871597 
4550.000000	64.884018 
4549.000000	64.893460 
4548.000000	64.896106 
4547.000000	64.889907 
4546.000000	64.874768 
4545.000000	64.852476 
4544.000000	64.826512 
4543.000000	64.801168 
4542.000000	64.780426 
4541.000000	64.767217 
4540.000000	64.762759 
4539.000000	64.766478 
4538.000000	64.776325 
4537.000000	64.789533 
4536.000000	64.803290 
4535.000000	64.815950 
4534.000000	64.826941 
4533.000000	64.837288 
4532.000000	64.848709 
4531.000000	64.863181 
4530.000000	64.882135 
4529.000000	64.906215 
4528.000000	64.935088 
4527.000000	64.967608 
4526.000000	65.001893 
4525.000000	65.035486 
4524.000000	65.065693 
4523.000000	65.089893 
4522.000000	65.105700 
4521.000000	65.111207 
4520.000000	65.105271 
4519.000000	65.087556 
4518.000000	65.058779 
4517.000000	65.020775 
4516.000000	64.976477 
4515.000000	64.929699 
4514.000000	64.884901 
4513.000000	64.846658 
4512.000000	64.819049 
4511.000000	64.804887 
4510.000000	64.805269 
4509.000000	64.819502 
4508.000000	64.845037 
4507.000000	64.877653 
4506.000000	64.912366 
4505.000000	64.943957 
4504.000000	64.968419 
4503.000000	64.982914 
4502.000000	64.987635 
4501.000000	64.985346 
4500.000000	64.980816 
4499.000000	64.979529 
4498.000000	64.984965 
4497.000000	64.997696 
4496.000000	65.014147 
4495.000000	65.027809 
4494.000000	65.032434 
4493.000000	65.023565 
4492.000000	65.001320 
4491.000000	64.969301 
4490.000000	64.932656 
4489.000000	64.896559 
4488.000000	64.863419 
4487.000000	64.833188 
4486.000000	64.804363 
4485.000000	64.774465 
4484.000000	64.743232 
4483.000000	64.710903 
4482.000000	64.677906 
4481.000000	64.645028 
4480.000000	64.611220 
4479.000000	64.576840 
4478.000000	64.543986 
4477.000000	64.516401 
4476.000000	64.499163 
4475.000000	64.496397 
4474.000000	64.509367 
4473.000000	64.536952 
4472.000000	64.577102 
4471.000000	64.620256 
4470.000000	64.650368 
4469.000000	64.656019 
4468.000000	64.633679 
4467.000000	64.585185 
4466.000000	64.517998 
4465.000000	64.447283 
4464.000000	64.390110 
4463.000000	64.358830 
4462.000000	64.359235 
4461.000000	64.381289 
4460.000000	64.409518 
4459.000000	64.437437 
4458.000000	64.463233 
4457.000000	64.494442 
4456.000000	64.536952 
4455.000000	64.593982 
4454.000000	64.656162 
4453.000000	64.692544 
4452.000000	64.669752 
4451.000000	64.557409 
4450.000000	64.351916 
4449.000000	64.075946 
4448.000000	63.797068 
4447.000000	63.611721 
4446.000000	63.638782 
4445.000000	63.987326 
4444.000000	64.744806 
4443.000000	65.948343 
4442.000000	67.577075 
4441.000000	69.540143 
4440.000000	71.684288 
4439.000000	73.803520 
4438.000000	75.674033 
4437.000000	77.077770 
4436.000000	77.838206 
4435.000000	77.843070 
4434.000000	77.072739 
4433.000000	75.596284 
4432.000000	73.571538 
4431.000000	71.208071 
4430.000000	68.756031 
4429.000000	66.442251 
4428.000000	64.454245 
4427.000000	62.899065 
4426.000000	61.808395 
4425.000000	61.139249 
4424.000000	60.800814 
4423.000000	60.684633 
4422.000000	60.685920 
4421.000000	60.735583 
4420.000000	60.797929 
4419.000000	60.877370 
4418.000000	60.991668 
4417.000000	61.175751 
4416.000000	61.456918 
4415.000000	61.848688 
4414.000000	62.339115 
4413.000000	62.894868 
4412.000000	63.464903 
4411.000000	63.988685 
4410.000000	64.409518 
4409.000000	64.692091 
4408.000000	64.827418 
4407.000000	64.830875 
4406.000000	64.738368 
4405.000000	64.598464 
4404.000000	64.459443 
4403.000000	64.359450 
4402.000000	64.319753 
4401.000000	64.344692 
4400.000000	64.423537 
4399.000000	64.548373 
4398.000000	64.704346 
4397.000000	64.871072 
4396.000000	65.030193 
4395.000000	65.170288 
4394.000000	65.281724 
4393.000000	65.354514 
4392.000000	65.383529 
4391.000000	65.368652 
4390.000000	65.314912 
4389.000000	65.231919 
4388.000000	65.132164 
4387.000000	65.028882 
4386.000000	64.934659 
4385.000000	64.859628 
4384.000000	64.809131 
4383.000000	64.783835 
4382.000000	64.782285 
4381.000000	64.800763 
4380.000000	64.833307 
4379.000000	64.872741 
4378.000000	64.912748 
4377.000000	64.947271 
4376.000000	64.968204 
4375.000000	64.969205 
4374.000000	64.945602 
4373.000000	64.897584 
4372.000000	64.829993 
4371.000000	64.753103 
4370.000000	64.680504 
4369.000000	64.626884 
4368.000000	64.604568 
4367.000000	64.621043 
4366.000000	64.677166 
4365.000000	64.766407 
4364.000000	64.876270 
4363.000000	64.991521 
4362.000000	65.097284 
4361.000000	65.182256 
4360.000000	65.240359 
4359.000000	65.270876 
4358.000000	65.277481 
4357.000000	65.266537 
4356.000000	65.244722 
4355.000000	65.217185 
4354.000000	65.186429 
4353.000000	65.153694 
4352.000000	65.118527 
4351.000000	65.080761 
4350.000000	65.040135 
4349.000000	64.997792 
4348.000000	64.955496 
4347.000000	64.915370 
4346.000000	64.879679 
4345.000000	64.849185 
4344.000000	64.824652 
4343.000000	64.806294 
4342.000000	64.794945 
4341.000000	64.791703 
4340.000000	64.798378 
4339.000000	64.816641 
4338.000000	64.847779 
4337.000000	64.891791 
4336.000000	64.947199 
4335.000000	65.010786 
4334.000000	65.078425 
4333.000000	65.145492 
4332.000000	65.208077 
4331.000000	65.263319 
4330.000000	65.309572 
4329.000000	65.346002 
4328.000000	65.372776 
4327.000000	65.389966 
4326.000000	65.397429 
4325.000000	65.394067 
4324.000000	65.379095 
4323.000000	65.351462 
4322.000000	65.311408 
4321.000000	65.260171 
4320.000000	65.200424 
4319.000000	65.136241 
4318.000000	65.072345 
4317.000000	65.014100 
4316.000000	64.966535 
4315.000000	64.933991 
4314.000000	64.919281 
4313.000000	64.923334 
4312.000000	64.944815 
4311.000000	64.980602 
4310.000000	65.026021 
4309.000000	65.076088 
4308.000000	65.126276 
4307.000000	65.173292 
4306.000000	65.215039 
4305.000000	65.250611 
4304.000000	65.279316 
4303.000000	65.300321 
4302.000000	65.311646 
4301.000000	65.310740 
4300.000000	65.294098 
4299.000000	65.258884 
4298.000000	65.203475 
4297.000000	65.129089 
4296.000000	65.039682 
4295.000000	64.941978 
4294.000000	64.844274 
4293.000000	64.755225 
4292.000000	64.682245 
4291.000000	64.629840 
4290.000000	64.599585 
4289.000000	64.589762 
4288.000000	64.596867 
4287.000000	64.615964 
4286.000000	64.642524 
4285.000000	64.672803 
4284.000000	64.704966 
4283.000000	64.738297 
4282.000000	64.773511 
4281.000000	64.811682 
4280.000000	64.854025 
4279.000000	64.900946 
4278.000000	64.952278 
4277.000000	65.006828 
4276.000000	65.062665 
4275.000000	65.116977 
4274.000000	65.166950 
4273.000000	65.209126 
4272.000000	65.240788 
4271.000000	65.259289 
4270.000000	65.262818 
4269.000000	65.250253 
4268.000000	65.222215 
4267.000000	65.180611 
4266.000000	65.128660 
4265.000000	65.070390 
4264.000000	65.010905 
4263.000000	64.954710 
4262.000000	64.905190 
4261.000000	64.864468 
4260.000000	64.833402 
4259.000000	64.811849 
4258.000000	64.799189 
4257.000000	64.794707 
4256.000000	64.797806 
4255.000000	64.808225 
4254.000000	64.825677 
4253.000000	64.849185 
4252.000000	64.876818 
4251.000000	64.905762 
4250.000000	64.932942 
4249.000000	64.955163 
4248.000000	64.970159 
4247.000000	64.977478 
4246.000000	64.978337 
4245.000000	64.975547 
4244.000000	64.972686 
4243.000000	64.972662 
4242.000000	64.977407 
4241.000000	64.986920 
4240.000000	64.999747 
4239.000000	65.013766 
4238.000000	65.026760 
4237.000000	65.037894 
4236.000000	65.047049 
4235.000000	65.054869 
4234.000000	65.062236 
4233.000000	65.069746 
4232.000000	65.076899 
4231.000000	65.082168 
4230.000000	65.083575 
4229.000000	65.079545 
4228.000000	65.069246 
4227.000000	65.053296 
4226.000000	65.033721 
4225.000000	65.013599 
4224.000000	64.996051 
4223.000000	64.983749 
4222.000000	64.977812 
4221.000000	64.977908 
4220.000000	64.982724 
4219.000000	64.990568 
4218.000000	64.999938 
4217.000000	65.009856 
4216.000000	65.020298 
4215.000000	65.031671 
4214.000000	65.044212 
4213.000000	65.057754 
4212.000000	65.071582 
4211.000000	65.084433 
4210.000000	65.094804 
4209.000000	65.101647 
4208.000000	65.104317 
4207.000000	65.103173 
4206.000000	65.099573 
4205.000000	65.095448 
4204.000000	65.092992 
4203.000000	65.093994 
4202.000000	65.099620 
4201.000000	65.109872 
4200.000000	65.123486 
4199.000000	65.138483 
4198.000000	65.152549 
4197.000000	65.163254 
4196.000000	65.168499 
4195.000000	65.166974 
4194.000000	65.158271 
4193.000000	65.142655 
4192.000000	65.120935 
4191.000000	65.094351 
4190.000000	65.064215 
4189.000000	65.031814 
4188.000000	64.998602 
4187.000000	64.965724 
4186.000000	64.934849 
4185.000000	64.908313 
4184.000000	64.888930 
4183.000000	64.879179 
4182.000000	64.881277 
4181.000000	64.896392 
4180.000000	64.924287 
4179.000000	64.962673 
4178.000000	65.007948 
4177.000000	65.055537 
4176.000000	65.100932 
4175.000000	65.140342 
4174.000000	65.171813 
4173.000000	65.195345 
4172.000000	65.212750 
4171.000000	65.226840 
4170.000000	65.240430 
4169.000000	65.255260 
4168.000000	65.271663 
4167.000000	65.288257 
4166.000000	65.302610 
4165.000000	65.311336 
4164.000000	65.311932 
4163.000000	65.302252 
4162.000000	65.281224 
4161.000000	65.248489 
4160.000000	65.204644 
4159.000000	65.151023 
4158.000000	65.089344 
4157.000000	65.022110 
4156.000000	64.952850 
4155.000000	64.885687 
4154.000000	64.825034 
4153.000000	64.775037 
4152.000000	64.738893 
4151.000000	64.718055 
4150.000000	64.711833 
4149.000000	64.717364 
4148.000000	64.729928 
4147.000000	64.744806 
4146.000000	64.758062 
4145.000000	64.767599 
4144.000000	64.773154 
4143.000000	64.776396 
4142.000000	64.779973 
4141.000000	64.786219 
4140.000000	64.796638 
4139.000000	64.811372 
4138.000000	64.829397 
4137.000000	64.848875 
4136.000000	64.868068 
4135.000000	64.885854 
4134.000000	64.902329 
4133.000000	64.918565 
4132.000000	64.936566 
4131.000000	64.958500 
4130.000000	64.985942 
4129.000000	65.019607 
4128.000000	65.058350 
4127.000000	65.099453 
4126.000000	65.138673 
4125.000000	65.171456 
4124.000000	65.193176 
4123.000000	65.200209 
4122.000000	65.190911 
4121.000000	65.166091 
4120.000000	65.129375 
4119.000000	65.086579 
4118.000000	65.045070 
4117.000000	65.012168 
4116.000000	64.993667 
4115.000000	64.992380 
4114.000000	65.007519 
4113.000000	65.035080 
4112.000000	65.068721 
4111.000000	65.101599 
4110.000000	65.127539 
4109.000000	65.142822 
4108.000000	65.146732 
4107.000000	65.141439 
4106.000000	65.130853 
4105.000000	65.119528 
4104.000000	65.111422 
4103.000000	65.108752 
4102.000000	65.111756 
4101.000000	65.118503 
4100.000000	65.125966 
4099.000000	65.130472 
4098.000000	65.129160 
4097.000000	65.119862 
4096.000000	65.102076 
4095.000000	65.076470 
4094.000000	65.044641 
4093.000000	65.009498 
4092.000000	64.974546 
4091.000000	64.943695 
4090.000000	64.920711 
4089.000000	64.908385 
4088.000000	64.907884 
4087.000000	64.918613 
4086.000000	64.937734 
4085.000000	64.960217 
4084.000000	64.979767 
4083.000000	64.990162 
4082.000000	64.986705 
4081.000000	64.967131 
4080.000000	64.932680 
4079.000000	64.887809 
4078.000000	64.839649 
4077.000000	64.796328 
4076.000000	64.765405 
4075.000000	64.752292 
4074.000000	64.758825 
4073.000000	64.783358 
4072.000000	64.820742 
4071.000000	64.863872 
4070.000000	64.904856 
4069.000000	64.936614 
4068.000000	64.954161 
4067.000000	64.955401 
4066.000000	64.941382 
4065.000000	64.915919 
4064.000000	64.884710 
4063.000000	64.854216 
4062.000000	64.830589 
4061.000000	64.818501 
4060.000000	64.820647 
4059.000000	64.837288 
4058.000000	64.866423 
4057.000000	64.904475 
4056.000000	64.946842 
4055.000000	64.989280 
4054.000000	65.028524 
4053.000000	65.063071 
4052.000000	65.092921 
4051.000000	65.119314 
4050.000000	65.143752 
4049.000000	65.167498 
4048.000000	65.190887 
4047.000000	65.212988 
4046.000000	65.231871 
4045.000000	65.245294 
4044.000000	65.251636 
4043.000000	65.250110 
4042.000000	65.241527 
4041.000000	65.227746 
4040.000000	65.211367 
4039.000000	65.194845 
4038.000000	65.179848 
4037.000000	65.166687 
4036.000000	65.154290 
4035.000000	65.140676 
4034.000000	65.123724 
4033.000000	65.101861 
4032.000000	65.074849 
4031.000000	65.043306 
4030.000000	65.009379 
4029.000000	64.975595 
4028.000000	64.945006 
4027.000000	64.920163 
4026.000000	64.903187 
4025.000000	64.895343 
4024.000000	64.896917 
4023.000000	64.907574 
4022.000000	64.926099 
4021.000000	64.950394 
4020.000000	64.977645 
4019.000000	65.004563 
4018.000000	65.027856 
4017.000000	65.044188 
4016.000000	65.051412 
4015.000000	65.048789 
4014.000000	65.037250 
4013.000000	65.019178 
4012.000000	64.998006 
4011.000000	64.977288 
4010.000000	64.960169 
4009.000000	64.948749 
4008.000000	64.943671 
4007.000000	64.944195 
4006.000000	64.948725 
4005.000000	64.955592 
4004.000000	64.963293 
4003.000000	64.971137 
4002.000000	64.978957 
4001.000000	64.987444 
4000.000000	64.997363 
3999.000000	65.009737 
3998.000000	65.024924 
3997.000000	65.042471 
3996.000000	65.061235 
3995.000000	65.079259 
3994.000000	65.094542 
3993.000000	65.104722 
3992.000000	65.107798 
3991.000000	65.102267 
3990.000000	65.087580 
3989.000000	65.064597 
3988.000000	65.035629 
3987.000000	65.004420 
3986.000000	64.975523 
3985.000000	64.953923 
3984.000000	64.944100 
3983.000000	64.949035 
3982.000000	64.969468 
3981.000000	65.003633 
3980.000000	65.047240 
3979.000000	65.094256 
3978.000000	65.137696 
3977.000000	65.170669 
3976.000000	65.187549 
3975.000000	65.185189 
3974.000000	65.163230 
3973.000000	65.124201 
3972.000000	65.073156 
3971.000000	65.016651 
3970.000000	64.961814 
3969.000000	64.915394 
3968.000000	64.882302 
3967.000000	64.865303 
3966.000000	64.864158 
3965.000000	64.876508 
3964.000000	64.897775 
3963.000000	64.922404 
3962.000000	64.944791 
3961.000000	64.960408 
3960.000000	64.966440 
3959.000000	64.962005 
3958.000000	64.948129 
3957.000000	64.926910 
3956.000000	64.901375 
3955.000000	64.874720 
3954.000000	64.849734 
3953.000000	64.828705 
3952.000000	64.813590 
3951.000000	64.806199 
3950.000000	64.807963 
3949.000000	64.819908 
3948.000000	64.842319 
3947.000000	64.874053 
3946.000000	64.912629 
3945.000000	64.953827 
3944.000000	64.992165 
3943.000000	65.021562 
3942.000000	65.036392 
3941.000000	65.032958 
3940.000000	65.010285 
3939.000000	64.970660 
3938.000000	64.919352 
3937.000000	64.863657 
3936.000000	64.811658 
3935.000000	64.770269 
3934.000000	64.744186 
3933.000000	64.735054 
3932.000000	64.741468 
3931.000000	64.760231 
3930.000000	64.787244 
3929.000000	64.818882 
3928.000000	64.852881 
3927.000000	64.888477 
3926.000000	64.925932 
3925.000000	64.965677 
3924.000000	65.007591 
3923.000000	65.049982 
3922.000000	65.089726 
3921.000000	65.123057 
3920.000000	65.146374 
3919.000000	65.157461 
3918.000000	65.155720 
3917.000000	65.143513 
3916.000000	65.124249 
3915.000000	65.102386 
3914.000000	65.081286 
3913.000000	65.062952 
3912.000000	65.047359 
3911.000000	65.033030 
3910.000000	65.017676 
3909.000000	64.999413 
3908.000000	64.977383 
3907.000000	64.952373 
3906.000000	64.926528 
3905.000000	64.902806 
3904.000000	64.884281 
3903.000000	64.873337 
3902.000000	64.871168 
3901.000000	64.877676 
3900.000000	64.891743 
3899.000000	64.911651 
3898.000000	64.935612 
3897.000000	64.962339 
3896.000000	64.991331 
3895.000000	65.022659 
3894.000000	65.056395 
3893.000000	65.092372 
3892.000000	65.129756 
3891.000000	65.166950 
3890.000000	65.201711 
3889.000000	65.231275 
3888.000000	65.253472 
3887.000000	65.266442 
3886.000000	65.269780 
3885.000000	65.263700 
3884.000000	65.249347 
3883.000000	65.228033 
3882.000000	65.201425 
3881.000000	65.170741 
3880.000000	65.137004 
3879.000000	65.101170 
3878.000000	65.064573 
3877.000000	65.029311 
3876.000000	64.998388 
3875.000000	64.975237 
3874.000000	64.963173 
3873.000000	64.964485 
3872.000000	64.979600 
3871.000000	65.006613 
3870.000000	65.041589 
3869.000000	65.078878 
3868.000000	65.112376 
3867.000000	65.136766 
3866.000000	65.148758 
3865.000000	65.147376 
3864.000000	65.134525 
3863.000000	65.113687 
3862.000000	65.089654 
3861.000000	65.067458 
3860.000000	65.051221 
3859.000000	65.043687 
3858.000000	65.045690 
3857.000000	65.056800 
3856.000000	65.075087 
3855.000000	65.097928 
3854.000000	65.121984 
3853.000000	65.143895 
3852.000000	65.160179 
3851.000000	65.167927 
3850.000000	65.165138 
3849.000000	65.151143 
3848.000000	65.127205 
3847.000000	65.096402 
3846.000000	65.063524 
3845.000000	65.034246 
3844.000000	65.014314 
3843.000000	65.008211 
3842.000000	65.018391 
3841.000000	65.044355 
3840.000000	65.082859 
3839.000000	65.128207 
3838.000000	65.173530 
3837.000000	65.211915 
3836.000000	65.237736 
3835.000000	65.247631 
3834.000000	65.240955 
3833.000000	65.219545 
3832.000000	65.187168 
3831.000000	65.148425 
3830.000000	65.107774 
3829.000000	65.068697 
3828.000000	65.033507 
3827.000000	65.003108 
3826.000000	64.977765 
3825.000000	64.957141 
3824.000000	64.940690 
3823.000000	64.928126 
3822.000000	64.919376 
3821.000000	64.914202 
3820.000000	64.912128 
3819.000000	64.912176 
3818.000000	64.912939 
3817.000000	64.912843 
3816.000000	64.910483 
3815.000000	64.904570 
3814.000000	64.894652 
3813.000000	64.881229 
3812.000000	64.865899 
3811.000000	64.850735 
3810.000000	64.838552 
3809.000000	64.831948 
3808.000000	64.833211 
3807.000000	64.843893 
3806.000000	64.864158 
3805.000000	64.892864 
3804.000000	64.926958 
3803.000000	64.962005 
3802.000000	64.992356 
3801.000000	65.012264 
3800.000000	65.016889 
3799.000000	65.003395 
3798.000000	64.971733 
3797.000000	64.925146 
3796.000000	64.869356 
3795.000000	64.811825 
3794.000000	64.760518 
3793.000000	64.722657 
3792.000000	64.703702 
3791.000000	64.706611 
3790.000000	64.731645 
3789.000000	64.776539 
3788.000000	64.836621 
3787.000000	64.905929 
3786.000000	64.977598 
3785.000000	65.045094 
3784.000000	65.102887 
3783.000000	65.147423 
3782.000000	65.177273 
3781.000000	65.193009 
3780.000000	65.197038 
3779.000000	65.192532 
3778.000000	65.183353 
3777.000000	65.172338 
3776.000000	65.161466 
3775.000000	65.150928 
3774.000000	65.140151 
3773.000000	65.127897 
3772.000000	65.113186 
3771.000000	65.095782 
3770.000000	65.076565 
3769.000000	65.057492 
3768.000000	65.041065 
3767.000000	65.029597 
3766.000000	65.024447 
3765.000000	65.025830 
3764.000000	65.032553 
3763.000000	65.042281 
3762.000000	65.052342 
3761.000000	65.060186 
3760.000000	65.064096 
3759.000000	65.063381 
3758.000000	65.058684 
3757.000000	65.051484 
3756.000000	65.044116 
3755.000000	65.038490 
3754.000000	65.036129 
3753.000000	65.037918 
3752.000000	65.043950 
3751.000000	65.053510 
3750.000000	65.065360 
3749.000000	65.078234 
3748.000000	65.090942 
3747.000000	65.102553 
3746.000000	65.112709 
3745.000000	65.121626 
3744.000000	65.129756 
3743.000000	65.137887 
3742.000000	65.146660 
3741.000000	65.156221 
3740.000000	65.166211 
3739.000000	65.175747 
3738.000000	65.183353 
3737.000000	65.187287 
3736.000000	65.186214 
3735.000000	65.179204 
3734.000000	65.165853 
3733.000000	65.146493 
3732.000000	65.122222 
3731.000000	65.094900 
3730.000000	65.066862 
3729.000000	65.040755 
3728.000000	65.019106 
3727.000000	65.004038 
3726.000000	64.996838 
3725.000000	64.997959 
3724.000000	65.006756 
3723.000000	65.021777 
3722.000000	65.041065 
3721.000000	65.062594 
3720.000000	65.084338 
3719.000000	65.104722 
3718.000000	65.122795 
3717.000000	65.138220 
3716.000000	65.150976 
3715.000000	65.161466 
3714.000000	65.170431 
3713.000000	65.178894 
3712.000000	65.187668 
3711.000000	65.197825 
3710.000000	65.210151 
3709.000000	65.225338 
3708.000000	65.243363 
3707.000000	65.263485 
3706.000000	65.284109 
3705.000000	65.303158 
3704.000000	65.318250 
3703.000000	65.327405 
3702.000000	65.329360 
3701.000000	65.324330 
3700.000000	65.313410 
3699.000000	65.298247 
3698.000000	65.280723 
3697.000000	65.262413 
3696.000000	65.244293 
3695.000000	65.226817 
3694.000000	65.209889 
3693.000000	65.193462 
3692.000000	65.177369 
3691.000000	65.161633 
3690.000000	65.146517 
3689.000000	65.132236 
3688.000000	65.118908 
3687.000000	65.106296 
3686.000000	65.093946 
3685.000000	65.081214 
3684.000000	65.067672 
3683.000000	65.053415 
3682.000000	65.038943 
3681.000000	65.025186 
3680.000000	65.013217 
3679.000000	65.004181 
3678.000000	64.998579 
3677.000000	64.996528 
3676.000000	64.997768 
3675.000000	65.001630 
3674.000000	65.007591 
3673.000000	65.014815 
3672.000000	65.022230 
3671.000000	65.028715 
3670.000000	65.032958 
3669.000000	65.034103 
3668.000000	65.031623 
3667.000000	65.026021 
3666.000000	65.018701 
3665.000000	65.012049 
3664.000000	65.008831 
3663.000000	65.011692 
3662.000000	65.022325 
3661.000000	65.041089 
3660.000000	65.066623 
3659.000000	65.096163 
3658.000000	65.125966 
3657.000000	65.152049 
3656.000000	65.171098 
3655.000000	65.181207 
3654.000000	65.182113 
3653.000000	65.175127 
3652.000000	65.163111 
3651.000000	65.149426 
3650.000000	65.138006 
3649.000000	65.132403 
3648.000000	65.135693 
3647.000000	65.150022 
3646.000000	65.176153 
3645.000000	65.213704 
3644.000000	65.260386 
3643.000000	65.312576 
3642.000000	65.365242 
3641.000000	65.412902 
3640.000000	65.450096 
3639.000000	65.472388 
3638.000000	65.477156 
3637.000000	65.463972 
3636.000000	65.434908 
3635.000000	65.394306 
3634.000000	65.347957 
3633.000000	65.302062 
3632.000000	65.262293 
3631.000000	65.232634 
3630.000000	65.214872 
3629.000000	65.208411 
3628.000000	65.210509 
3627.000000	65.217256 
3626.000000	65.224575 
3625.000000	65.229153 
3624.000000	65.228724 
3623.000000	65.222549 
3622.000000	65.211105 
3621.000000	65.195655 
3620.000000	65.177416 
3619.000000	65.157437 
3618.000000	65.136027 
3617.000000	65.113377 
3616.000000	65.089416 
3615.000000	65.064787 
3614.000000	65.041089 
3613.000000	65.020871 
3612.000000	65.006971 
3611.000000	65.002298 
3610.000000	65.008878 
3609.000000	65.027093 
3608.000000	65.055251 
3607.000000	65.090107 
3606.000000	65.127229 
3605.000000	65.162086 
3604.000000	65.190839 
3603.000000	65.210795 
3602.000000	65.220856 
3601.000000	65.221595 
3600.000000	65.214800 
3599.000000	65.202736 
3598.000000	65.187430 
3597.000000	65.170812 
3596.000000	65.154051 
3595.000000	65.137696 
3594.000000	65.121531 
3593.000000	65.105533 
3592.000000	65.089488 
3591.000000	65.073251 
3590.000000	65.056848 
3589.000000	65.040421 
3588.000000	65.024209 
3587.000000	65.008378 
3586.000000	64.992833 
3585.000000	64.977526 
3584.000000	64.962434 
3583.000000	64.947652 
3582.000000	64.933514 
3581.000000	64.920520 
3580.000000	64.909648 
3579.000000	64.902210 
3578.000000	64.899682 
3577.000000	64.903259 
3576.000000	64.913678 
3575.000000	64.931154 
3574.000000	64.954996 
3573.000000	64.983725 
3572.000000	65.015316 
3571.000000	65.047502 
3570.000000	65.078139 
3569.000000	65.105867 
3568.000000	65.129733 
3567.000000	65.149402 
3566.000000	65.165114 
3565.000000	65.177321 
3564.000000	65.186381 
3563.000000	65.192222 
3562.000000	65.194678 
3561.000000	65.193128 
3560.000000	65.187239 
3559.000000	65.176677 
3558.000000	65.161657 
3557.000000	65.142560 
3556.000000	65.120100 
3555.000000	65.094995 
3554.000000	65.067982 
3553.000000	65.039777 
3552.000000	65.011143 
3551.000000	64.983153 
3550.000000	64.957332 
3549.000000	64.935922 
3548.000000	64.921665 
3547.000000	64.917421 
3546.000000	64.925789 
3545.000000	64.948296 
3544.000000	64.985084 
3543.000000	65.034246 
3542.000000	65.092015 
3541.000000	65.153193 
3540.000000	65.211677 
3539.000000	65.261411 
3538.000000	65.297102 
3537.000000	65.315198 
3536.000000	65.314030 
3535.000000	65.294122 
3534.000000	65.258240 
3533.000000	65.211176 
3532.000000	65.158772 
3531.000000	65.107512 
3530.000000	65.062999 
3529.000000	65.029644 
3528.000000	65.009784 
3527.000000	65.003824 
3526.000000	65.010213 
3525.000000	65.026021 
3524.000000	65.047740 
3523.000000	65.071892 
3522.000000	65.095496 
3521.000000	65.116381 
3520.000000	65.133190 
3519.000000	65.145349 
3518.000000	65.152883 
3517.000000	65.156269 
3516.000000	65.156412 
3515.000000	65.154123 
3514.000000	65.150499 
3513.000000	65.146279 
3512.000000	65.142130 
3511.000000	65.138292 
3510.000000	65.134692 
3509.000000	65.130949 
3508.000000	65.126132 
3507.000000	65.119814 
3506.000000	65.111947 
3505.000000	65.103387 
3504.000000	65.095615 
3503.000000	65.090680 
3502.000000	65.090823 
3501.000000	65.097665 
3500.000000	65.111970 
3499.000000	65.133070 
3498.000000	65.158820 
3497.000000	65.185952 
3496.000000	65.210604 
3495.000000	65.229177 
3494.000000	65.238690 
3493.000000	65.237569 
3492.000000	65.225839 
3491.000000	65.205192 
3490.000000	65.178561 
3489.000000	65.149641 
3488.000000	65.121936 
3487.000000	65.098619 
3486.000000	65.081334 
3485.000000	65.070748 
3484.000000	65.065956 
3483.000000	65.064978 
3482.000000	65.065264 
3481.000000	65.064382 
3480.000000	65.060544 
3479.000000	65.053200 
3478.000000	65.042901 
3477.000000	65.031147 
3476.000000	65.019822 
3475.000000	65.010237 
3474.000000	65.003061 
3473.000000	64.997839 
3472.000000	64.993238 
3471.000000	64.987635 
3470.000000	64.979839 
3469.000000	64.969611 
3468.000000	64.958047 
3467.000000	64.947485 
3466.000000	64.940881 
3465.000000	64.941024 
3464.000000	64.949822 
3463.000000	64.967703 
3462.000000	64.993309 
3461.000000	65.023803 
3460.000000	65.055584 
3459.000000	65.085053 
3458.000000	65.109515 
3457.000000	65.127182 
3456.000000	65.137577 
3455.000000	65.141034 
3454.000000	65.138578 
3453.000000	65.131616 
3452.000000	65.121507 
3451.000000	65.109610 
3450.000000	65.097379 
3449.000000	65.086436 
3448.000000	65.078496 
3447.000000	65.074968 
3446.000000	65.077042 
3445.000000	65.085148 
3444.000000	65.098595 
3443.000000	65.115666 
3442.000000	65.133786 
3441.000000	65.149760 
3440.000000	65.160489 
3439.000000	65.163588 
3438.000000	65.157842 
3437.000000	65.143179 
3436.000000	65.120768 
3435.000000	65.092706 
3434.000000	65.061879 
3433.000000	65.031361 
3432.000000	65.003895 
3431.000000	64.982199 
3430.000000	64.967894 
3429.000000	64.961957 
3428.000000	64.964342 
3427.000000	64.974045 
3426.000000	64.989233 
3425.000000	65.007472 
3424.000000	65.026068 
3423.000000	65.042281 
3422.000000	65.053749 
3421.000000	65.058660 
3420.000000	65.055966 
3419.000000	65.045642 
3418.000000	65.028476 
3417.000000	65.006041 
3416.000000	64.980506 
3415.000000	64.954495 
3414.000000	64.930891 
3413.000000	64.912366 
3412.000000	64.901161 
3411.000000	64.898586 
3410.000000	64.904975 
3409.000000	64.919543 
3408.000000	64.940237 
3407.000000	64.964652 
3406.000000	64.989972 
3405.000000	65.014195 
3404.000000	65.035963 
3403.000000	65.055251 
3402.000000	65.072679 
3401.000000	65.089440 
3400.000000	65.106749 
3399.000000	65.125250 
3398.000000	65.144848 
3397.000000	65.164470 
3396.000000	65.182542 
3395.000000	65.197038 
3394.000000	65.206408 
3393.000000	65.209603 
3392.000000	65.206408 
3391.000000	65.197324 
3390.000000	65.183424 
3389.000000	65.165710 
3388.000000	65.145111 
3387.000000	65.122318 
3386.000000	65.097999 
3385.000000	65.072870 
3384.000000	65.047931 
3383.000000	65.024805 
3382.000000	65.005826 
3381.000000	64.993572 
3380.000000	64.990544 
3379.000000	64.998650 
3378.000000	65.018606 
3377.000000	65.049457 
3376.000000	65.088438 
3375.000000	65.131163 
3374.000000	65.172433 
3373.000000	65.206670 
3372.000000	65.229463 
3371.000000	65.238094 
3370.000000	65.232443 
3369.000000	65.214729 
3368.000000	65.189075 
3367.000000	65.160608 
3366.000000	65.134167 
3365.000000	65.113472 
3364.000000	65.099811 
3363.000000	65.092277 
3362.000000	65.087795 
3361.000000	65.082550 
3360.000000	65.072560 
3359.000000	65.055227 
3358.000000	65.029859 
3357.000000	64.998221 
3356.000000	64.963817 
3355.000000	64.931249 
3354.000000	64.904808 
3353.000000	64.887833 
3352.000000	64.881801 
3351.000000	64.886140 
3350.000000	64.898490 
3349.000000	64.915537 
3348.000000	64.933705 
3347.000000	64.950180 
3346.000000	64.963030 
3345.000000	64.972090 
3344.000000	64.978384 
3343.000000	64.983963 
3342.000000	64.990878 
3341.000000	65.001010 
3340.000000	65.015339 
3339.000000	65.034103 
3338.000000	65.056657 
3337.000000	65.081906 
3336.000000	65.108704 
3335.000000	65.136003 
3334.000000	65.163159 
3333.000000	65.189623 
3332.000000	65.214776 
3331.000000	65.237712 
3330.000000	65.257096 
3329.000000	65.271162 
3328.000000	65.277957 
3327.000000	65.276050 
3326.000000	65.264511 
3325.000000	65.243768 
3324.000000	65.215253 
3323.000000	65.181660 
3322.000000	65.146207 
3321.000000	65.112233 
3320.000000	65.082645 
3319.000000	65.059351 
3318.000000	65.043354 
3317.000000	65.034842 
3316.000000	65.033316 
3315.000000	65.037798 
3314.000000	65.047144 
3313.000000	65.060138 
3312.000000	65.075421 
3311.000000	65.091466 
3310.000000	65.106606 
3309.000000	65.119099 
3308.000000	65.127396 
3307.000000	65.130281 
3306.000000	65.127301 
3305.000000	65.118813 
3304.000000	65.105915 
3303.000000	65.090084 
3302.000000	65.073132 
3301.000000	65.056490 
3300.000000	65.041136 
3299.000000	65.027332 
3298.000000	65.014863 
3297.000000	65.003180 
3296.000000	64.991879 
3295.000000	64.980840 
3294.000000	64.970159 
3293.000000	64.960503 
3292.000000	64.952564 
3291.000000	64.947175 
3290.000000	64.944744 
3289.000000	64.945554 
3288.000000	64.949560 
3287.000000	64.956474 
3286.000000	64.965820 
3285.000000	64.977073 
3284.000000	64.989590 
3283.000000	65.002655 
3282.000000	65.015220 
3281.000000	65.026092 
3280.000000	65.033864 
3279.000000	65.037226 
3278.000000	65.035223 
3277.000000	65.027523 
3276.000000	65.014672 
3275.000000	64.998030 
3274.000000	64.979648 
3273.000000	64.962077 
3272.000000	64.947724 
3271.000000	64.938521 
3270.000000	64.935779 
3269.000000	64.939641 
3268.000000	64.949321 
3267.000000	64.963221 
3266.000000	64.979267 
3265.000000	64.995265 
3264.000000	65.009307 
3263.000000	65.019965 
3262.000000	65.026450 
3261.000000	65.028691 
3260.000000	65.027070 
3259.000000	65.022277 
3258.000000	65.015268 
3257.000000	65.006995 
3256.000000	64.998292 
3255.000000	64.989829 
3254.000000	64.982175 
3253.000000	64.975857 
3252.000000	64.971542 
3251.000000	64.969968 
3250.000000	64.971661 
3249.000000	64.976978 
3248.000000	64.985823 
3247.000000	64.997458 
3246.000000	65.010428 
3245.000000	65.022802 
3244.000000	65.032577 
3243.000000	65.037989 
3242.000000	65.038037 
3241.000000	65.032577 
3240.000000	65.022349 
3239.000000	65.008687 
3238.000000	64.993357 
3237.000000	64.978194 
3236.000000	64.964652 
3235.000000	64.953804 
3234.000000	64.946246 
3233.000000	64.942264 
3232.000000	64.942073 
3231.000000	64.945912 
3230.000000	64.953923 
3229.000000	64.965915 
3228.000000	64.981198 
3227.000000	64.998435 
3226.000000	65.015530 
3225.000000	65.029978 
3224.000000	65.039134 
3223.000000	65.040898 
3222.000000	65.034270 
3221.000000	65.019583 
3220.000000	64.998364 
3219.000000	64.973354 
3218.000000	64.947748 
3217.000000	64.924812 
3216.000000	64.907288 
3215.000000	64.896750 
3214.000000	64.893722 
3213.000000	64.897680 
3212.000000	64.907360 
3211.000000	64.921140 
3210.000000	64.937305 
3209.000000	64.954328 
3208.000000	64.971160 
3207.000000	64.986872 
3206.000000	65.000963 
3205.000000	65.013074 
3204.000000	65.023040 
3203.000000	65.030860 
3202.000000	65.036678 
3201.000000	65.040683 
3200.000000	65.043306 
3199.000000	65.045166 
3198.000000	65.047073 
3197.000000	65.049862 
3196.000000	65.054130 
3195.000000	65.060019 
3194.000000	65.067100 
3193.000000	65.074300 
3192.000000	65.079832 
3191.000000	65.081906 
3190.000000	65.079140 
3189.000000	65.071010 
3188.000000	65.058374 
3187.000000	65.042996 
3186.000000	65.027523 
3185.000000	65.014433 
3184.000000	65.005826 
3183.000000	65.002632 
3182.000000	65.004134 
3181.000000	65.008497 
3180.000000	65.013074 
3179.000000	65.015578 
3178.000000	65.014624 
3177.000000	65.010499 
3176.000000	65.004897 
3175.000000	65.000677 
3174.000000	65.000820 
3173.000000	65.007400 
3172.000000	65.020704 
3171.000000	65.038990 
3170.000000	65.058588 
3169.000000	65.074825 
3168.000000	65.082740 
3167.000000	65.078520 
3166.000000	65.060400 
3165.000000	65.029120 
3164.000000	64.987993 
3163.000000	64.942240 
3162.000000	64.898443 
3161.000000	64.862823 
3160.000000	64.840555 
3159.000000	64.834737 
3158.000000	64.846158 
3157.000000	64.873147 
3156.000000	64.912033 
3155.000000	64.957761 
3154.000000	65.004968 
3153.000000	65.048623 
3152.000000	65.084958 
3151.000000	65.111541 
3150.000000	65.127754 
3149.000000	65.134143 
3148.000000	65.132093 
3147.000000	65.123248 
3146.000000	65.109157 
3145.000000	65.091133 
3144.000000	65.070271 
3143.000000	65.047502 
3142.000000	65.023946 
3141.000000	65.000963 
3140.000000	64.979839 
3139.000000	64.961719 
3138.000000	64.947390 
3137.000000	64.937043 
3136.000000	64.930272 
3135.000000	64.926528 
3134.000000	64.924955 
3133.000000	64.925169 
3132.000000	64.927005 
3131.000000	64.930629 
3130.000000	64.936590 
3129.000000	64.945125 
3128.000000	64.955806 
3127.000000	64.967465 
3126.000000	64.978218 
3125.000000	64.986062 
3124.000000	64.989519 
3123.000000	64.988040 
3122.000000	64.982080 
3121.000000	64.973092 
3120.000000	64.963364 
3119.000000	64.955067 
3118.000000	64.949727 
3117.000000	64.948081 
3116.000000	64.949798 
3115.000000	64.954066 
3114.000000	64.959597 
3113.000000	64.965271 
3112.000000	64.970159 
3111.000000	64.974021 
3110.000000	64.977169 
3109.000000	64.980101 
3108.000000	64.983582 
3107.000000	64.988183 
3106.000000	64.994573 
3105.000000	65.002989 
3104.000000	65.013265 
3103.000000	65.025305 
3102.000000	65.038156 
3101.000000	65.050387 
3100.000000	65.059971 
3099.000000	65.064525 
3098.000000	65.061950 
3097.000000	65.050673 
3096.000000	65.030360 
3095.000000	65.002226 
3094.000000	64.968633 
3093.000000	64.932847 
3092.000000	64.898395 
3091.000000	64.868330 
3090.000000	64.844799 
3089.000000	64.828681 
3088.000000	64.819550 
3087.000000	64.816117 
3086.000000	64.816546 
3085.000000	64.819145 
3084.000000	64.822411 
3083.000000	64.825654 
3082.000000	64.828658 
3081.000000	64.831995 
3080.000000	64.836001 
3079.000000	64.841103 
3078.000000	64.847445 
3077.000000	64.855051 
3076.000000	64.863491 
3075.000000	64.872384 
3074.000000	64.881396 
3073.000000	64.890456 
3072.000000	64.899706 
3071.000000	64.909720 
3070.000000	64.921259 
3069.000000	64.935231 
3068.000000	64.952325 
3067.000000	64.972758 
3066.000000	64.996051 
3065.000000	65.021133 
3064.000000	65.046286 
3063.000000	65.069413 
3062.000000	65.088462 
3061.000000	65.101814 
3060.000000	65.108609 
3059.000000	65.108585 
3058.000000	65.102124 
3057.000000	65.090394 
3056.000000	65.074729 
3055.000000	65.056514 
3054.000000	65.036821 
3053.000000	65.016770 
3052.000000	64.996767 
3051.000000	64.977359 
3050.000000	64.958715 
3049.000000	64.941167 
3048.000000	64.925146 
3047.000000	64.911222 
3046.000000	64.900064 
3045.000000	64.892148 
3044.000000	64.887809 
3043.000000	64.886832 
3042.000000	64.888906 
3041.000000	64.893054 
3040.000000	64.898419 
3039.000000	64.904212 
3038.000000	64.910006 
3037.000000	64.915728 
3036.000000	64.921784 
3035.000000	64.928722 
3034.000000	64.936947 
3033.000000	64.946365 
3032.000000	64.956498 
3031.000000	64.966368 
3030.000000	64.974451 
3029.000000	64.979124 
3028.000000	64.979219 
3027.000000	64.974355 
3026.000000	64.965057 
3025.000000	64.952778 
3024.000000	64.939379 
3023.000000	64.927339 
3022.000000	64.918899 
3021.000000	64.915895 
3020.000000	64.919447 
3019.000000	64.929842 
3018.000000	64.946579 
3017.000000	64.968395 
3016.000000	64.993286 
3015.000000	65.019083 
3014.000000	65.043711 
3013.000000	65.065383 
3012.000000	65.082979 
3011.000000	65.096187 
3010.000000	65.105319 
3009.000000	65.111064 
3008.000000	65.114021 
3007.000000	65.114426 
3006.000000	65.111827 
3005.000000	65.105390 
3004.000000	65.093731 
3003.000000	65.075778 
3002.000000	65.051198 
3001.000000	65.020847 
3000.000000	64.986944 
2999.000000	64.952754 
2998.000000	64.922094 
2997.000000	64.898395 
2996.000000	64.884209 
2995.000000	64.880180 
2994.000000	64.885401 
2993.000000	64.897322 
2992.000000	64.912700 
2991.000000	64.928150 
2990.000000	64.941120 
2989.000000	64.950180 
2988.000000	64.955258 
2987.000000	64.957308 
2986.000000	64.957880 
2985.000000	64.958405 
2984.000000	64.959788 
2983.000000	64.961934 
2982.000000	64.963936 
2981.000000	64.964127 
2980.000000	64.960694 
2979.000000	64.952182 
2978.000000	64.937567 
2977.000000	64.916706 
2976.000000	64.890241 
2975.000000	64.859557 
2974.000000	64.826416 
2973.000000	64.792799 
2972.000000	64.760565 
2971.000000	64.731478 
2970.000000	64.707064 
2969.000000	64.688539 
2968.000000	64.676737 
2967.000000	64.672398 
2966.000000	64.675855 
2965.000000	64.687371 
2964.000000	64.706397 
2963.000000	64.732146 
2962.000000	64.762997 
2961.000000	64.796900 
2960.000000	64.831304 
2959.000000	64.863705 
2958.000000	64.891719 
2957.000000	64.913749 
2956.000000	64.929199 
2955.000000	64.938449 
2954.000000	64.942812 
2953.000000	64.944434 
2952.000000	64.945507 
2951.000000	64.947843 
2950.000000	64.952158 
2949.000000	64.958262 
2948.000000	64.964795 
2947.000000	64.969897 
2946.000000	64.971351 
2945.000000	64.967441 
2944.000000	64.956927 
2943.000000	64.939355 
2942.000000	64.915013 
2941.000000	64.884948 
2940.000000	64.850854 
2939.000000	64.814591 
2938.000000	64.778614 
2937.000000	64.745569 
2936.000000	64.718484 
2935.000000	64.700198 
2934.000000	64.693284 
2933.000000	64.699292 
2932.000000	64.718461 
2931.000000	64.749693 
2930.000000	64.790272 
2929.000000	64.836215 
2928.000000	64.883422 
2927.000000	64.928269 
2926.000000	64.968085 
2925.000000	65.001249 
2924.000000	65.027332 
2923.000000	65.046453 
2922.000000	65.058922 
2921.000000	65.064859 
2920.000000	65.064096 
2919.000000	65.056586 
2918.000000	65.042901 
2917.000000	65.024375 
2916.000000	65.003395 
2915.000000	64.983201 
2914.000000	64.967417 
2913.000000	64.959144 
2912.000000	64.960336 
2911.000000	64.971017 
2910.000000	64.989185 
2909.000000	65.011096 
2908.000000	65.032005 
2907.000000	65.047144 
2906.000000	65.053009 
2905.000000	65.047860 
2904.000000	65.032100 
2903.000000	65.008306 
2902.000000	64.980340 
2901.000000	64.952540 
2900.000000	64.928650 
2899.000000	64.911317 
2898.000000	64.901471 
2897.000000	64.898586 
2896.000000	64.900922 
2895.000000	64.906072 
2894.000000	64.911675 
2893.000000	64.916062 
2892.000000	64.918470 
2891.000000	64.919018 
2890.000000	64.918279 
2889.000000	64.917111 
2888.000000	64.916276 
2887.000000	64.915847 
2886.000000	64.915442 
2885.000000	64.914178 
2884.000000	64.910936 
2883.000000	64.904665 
2882.000000	64.894795 
2881.000000	64.881229 
2880.000000	64.864659 
2879.000000	64.846563 
2878.000000	64.829111 
2877.000000	64.814972 
2876.000000	64.806771 
2875.000000	64.806747 
2874.000000	64.816212 
2873.000000	64.835238 
2872.000000	64.862513 
2871.000000	64.895510 
2870.000000	64.930820 
2869.000000	64.964962 
2868.000000	64.994883 
2867.000000	65.018582 
2866.000000	65.035200 
2865.000000	65.044975 
2864.000000	65.049052 
2863.000000	65.048670 
2862.000000	65.044879 
2861.000000	65.037894 
2860.000000	65.027570 
2859.000000	65.013480 
2858.000000	64.995694 
2857.000000	64.974832 
2856.000000	64.952707 
2855.000000	64.931583 
2854.000000	64.914155 
2853.000000	64.902496 
2852.000000	64.897727 
2851.000000	64.899873 
2850.000000	64.907717 
2849.000000	64.919543 
2848.000000	64.933276 
2847.000000	64.947271 
2846.000000	64.960265 
2845.000000	64.971661 
2844.000000	64.981436 
2843.000000	64.989781 
2842.000000	64.997005 
2841.000000	65.003228 
2840.000000	65.008282 
2839.000000	65.012073 
2838.000000	65.014052 
2837.000000	65.014100 
2836.000000	65.011906 
2835.000000	65.007543 
2834.000000	65.001130 
2833.000000	64.992833 
2832.000000	64.982867 
2831.000000	64.971518 
2830.000000	64.959287 
2829.000000	64.946889 
2828.000000	64.935421 
2827.000000	64.926123 
2826.000000	64.920401 
2825.000000	64.919328 
2824.000000	64.923357 
2823.000000	64.932155 
2822.000000	64.944481 
2821.000000	64.958381 
2820.000000	64.971446 
2819.000000	64.981484 
2818.000000	64.987015 
2817.000000	64.987564 
2816.000000	64.983940 
2815.000000	64.977955 
2814.000000	64.972138 
2813.000000	64.968800 
2812.000000	64.969563 
2811.000000	64.974737 
2810.000000	64.983582 
2809.000000	64.993977 
2808.000000	65.003371 
2807.000000	65.009069 
2806.000000	65.009307 
2805.000000	65.003061 
2804.000000	64.990425 
2803.000000	64.972496 
2802.000000	64.950966 
2801.000000	64.927935 
2800.000000	64.905500 
2799.000000	64.885520 
2798.000000	64.869546 
2797.000000	64.858603 
2796.000000	64.853000 
2795.000000	64.852333 
2794.000000	64.855670 
2793.000000	64.861655 
2792.000000	64.868783 
2791.000000	64.875483 
2790.000000	64.880681 
2789.000000	64.883542 
2788.000000	64.884018 
2787.000000	64.882516 
2786.000000	64.879918 
2785.000000	64.877271 
2784.000000	64.875578 
2783.000000	64.875698 
2782.000000	64.878058 
2781.000000	64.882969 
2780.000000	64.890146 
2779.000000	64.899158 
2778.000000	64.908862 
2777.000000	64.917707 
2776.000000	64.923834 
2775.000000	64.925193 
2774.000000	64.920330 
2773.000000	64.908742 
2772.000000	64.891123 
2771.000000	64.869499 
2770.000000	64.846849 
2769.000000	64.826583 
2768.000000	64.811706 
2767.000000	64.804387 
2766.000000	64.805579 
2765.000000	64.814853 
2764.000000	64.830899 
2763.000000	64.851689 
2762.000000	64.875173 
2761.000000	64.899516 
2760.000000	64.923334 
2759.000000	64.945387 
2758.000000	64.964652 
2757.000000	64.979839 
2756.000000	64.989733 
2755.000000	64.993214 
2754.000000	64.989805 
2753.000000	64.979672 
2752.000000	64.964318 
2751.000000	64.945626 
2750.000000	64.925837 
2749.000000	64.906740 
2748.000000	64.889359 
2747.000000	64.873600 
2746.000000	64.858603 
2745.000000	64.843177 
2744.000000	64.826393 
2743.000000	64.808058 
2742.000000	64.789104 
2741.000000	64.771270 
2740.000000	64.756894 
2739.000000	64.748024 
2738.000000	64.745926 
2737.000000	64.750719 
2736.000000	64.761400 
2735.000000	64.776086 
2734.000000	64.792728 
2733.000000	64.809513 
2732.000000	64.825248 
2731.000000	64.839482 
2730.000000	64.852142 
2729.000000	64.863324 
2728.000000	64.872884 
2727.000000	64.880418 
2726.000000	64.885187 
2725.000000	64.886593 
2724.000000	64.884400 
2723.000000	64.879083 
2722.000000	64.871764 
2721.000000	64.864206 
2720.000000	64.858388 
2719.000000	64.855980 
2718.000000	64.857912 
2717.000000	64.864182 
2716.000000	64.873909 
2715.000000	64.885592 
2714.000000	64.897680 
2713.000000	64.908981 
2712.000000	64.918875 
2711.000000	64.927387 
2710.000000	64.934945 
2709.000000	64.942240 
2708.000000	64.949536 
2707.000000	64.956808 
2706.000000	64.963436 
2705.000000	64.968800 
2704.000000	64.972329 
2703.000000	64.974021 
2702.000000	64.974474 
2701.000000	64.974999 
2700.000000	64.977288 
2699.000000	64.982748 
2698.000000	64.992213 
2697.000000	65.005207 
2696.000000	65.020298 
2695.000000	65.034818 
2694.000000	65.045666 
2693.000000	65.049767 
2692.000000	65.045070 
2691.000000	65.030860 
2690.000000	65.007996 
2689.000000	64.978909 
2688.000000	64.947080 
2687.000000	64.916372 
2686.000000	64.890384 
2685.000000	64.871859 
2684.000000	64.862346 
2683.000000	64.862132 
2682.000000	64.870214 
2681.000000	64.884662 
2680.000000	64.903187 
2679.000000	64.923167 
2678.000000	64.942312 
2677.000000	64.958596 
2676.000000	64.970684 
2675.000000	64.977741 
2674.000000	64.979219 
2673.000000	64.974999 
2672.000000	64.965295 
2671.000000	64.950680 
2670.000000	64.931988 
2669.000000	64.910292 
2668.000000	64.886975 
2667.000000	64.863538 
2666.000000	64.841461 
2665.000000	64.821839 
2664.000000	64.805436 
2663.000000	64.792394 
2662.000000	64.782452 
2661.000000	64.775061 
2660.000000	64.769721 
2659.000000	64.765930 
2658.000000	64.763569 
2657.000000	64.762902 
2656.000000	64.764261 
2655.000000	64.768052 
2654.000000	64.774227 
2653.000000	64.782452 
2652.000000	64.791774 
2651.000000	64.801073 
2650.000000	64.809203 
2649.000000	64.815473 
2648.000000	64.819788 
2647.000000	64.822745 
2646.000000	64.825677 
2645.000000	64.830112 
2644.000000	64.837408 
2643.000000	64.848327 
2642.000000	64.862871 
2641.000000	64.880132 
2640.000000	64.898562 
2639.000000	64.916229 
2638.000000	64.931011 
2637.000000	64.941287 
2636.000000	64.946317 
2635.000000	64.945936 
2634.000000	64.940595 
2633.000000	64.931416 
2632.000000	64.919853 
2631.000000	64.906978 
2630.000000	64.893507 
2629.000000	64.879798 
2628.000000	64.865851 
2627.000000	64.851355 
2626.000000	64.836001 
2625.000000	64.819669 
2624.000000	64.802479 
2623.000000	64.784836 
2622.000000	64.767360 
2621.000000	64.750671 
2620.000000	64.735436 
2619.000000	64.722084 
2618.000000	64.710950 
2617.000000	64.701962 
2616.000000	64.695072 
2615.000000	64.689993 
2614.000000	64.686584 
2613.000000	64.684653 
2612.000000	64.684581 
2611.000000	64.687037 
2610.000000	64.693284 
2609.000000	64.704656 
2608.000000	64.722371 
2607.000000	64.747238 
2606.000000	64.779305 
2605.000000	64.817380 
2604.000000	64.859175 
2603.000000	64.901399 
2602.000000	64.940476 
2601.000000	64.972829 
2600.000000	64.995503 
2599.000000	65.006828 
2598.000000	65.006685 
2597.000000	64.996576 
2596.000000	64.979338 
2595.000000	64.958691 
2594.000000	64.938640 
2593.000000	64.922547 
2592.000000	64.912772 
2591.000000	64.909982 
2590.000000	64.913678 
2589.000000	64.921903 
2588.000000	64.932155 
2587.000000	64.941859 
2586.000000	64.948844 
2585.000000	64.951920 
2584.000000	64.950752 
2583.000000	64.945912 
2582.000000	64.938640 
2581.000000	64.930272 
2580.000000	64.922118 
2579.000000	64.915084 
2578.000000	64.909553 
2577.000000	64.905524 
2576.000000	64.902377 
2575.000000	64.899253 
2574.000000	64.895033 
2573.000000	64.888668 
2572.000000	64.879059 
2571.000000	64.865422 
2570.000000	64.847207 
2569.000000	64.824652 
2568.000000	64.798617 
2567.000000	64.770603 
2566.000000	64.742684 
2565.000000	64.717078 
2564.000000	64.695978 
2563.000000	64.680957 
2562.000000	64.672970 
2561.000000	64.671874 
2560.000000	64.676976 
2559.000000	64.686846 
2558.000000	64.700078 
2557.000000	64.715480 
2556.000000	64.732384 
2555.000000	64.750409 
2554.000000	64.769434 
2553.000000	64.789152 
2552.000000	64.808917 
2551.000000	64.827609 
2550.000000	64.843726 
2549.000000	64.855718 
2548.000000	64.862346 
2547.000000	64.863109 
2546.000000	64.858412 
2545.000000	64.849328 
2544.000000	64.837789 
2543.000000	64.825749 
2542.000000	64.815020 
2541.000000	64.806580 
2540.000000	64.800834 
2539.000000	64.797353 
2538.000000	64.795255 
2537.000000	64.793443 
2536.000000	64.791083 
2535.000000	64.787554 
2534.000000	64.782810 
2533.000000	64.777207 
2532.000000	64.771533 
2531.000000	64.766883 
2530.000000	64.764404 
2529.000000	64.765095 
2528.000000	64.769864 
2527.000000	64.779043 
2526.000000	64.792442 
2525.000000	64.808893 
2524.000000	64.826655 
2523.000000	64.843416 
2522.000000	64.856934 
2521.000000	64.865350 
2520.000000	64.867615 
2519.000000	64.863944 
2518.000000	64.855718 
2517.000000	64.845323 
2516.000000	64.835405 
2515.000000	64.828419 
2514.000000	64.825820 
2513.000000	64.827823 
2512.000000	64.833259 
2511.000000	64.839816 
2510.000000	64.844775 
2509.000000	64.845752 
2508.000000	64.841580 
2507.000000	64.832544 
2506.000000	64.820408 
2505.000000	64.807939 
2504.000000	64.798426 
2503.000000	64.794731 
2502.000000	64.798450 
2501.000000	64.809513 
2500.000000	64.826059 
2499.000000	64.845037 
2498.000000	64.862680 
2497.000000	64.875435 
2496.000000	64.880681 
2495.000000	64.877223 
2494.000000	64.865446 
2493.000000	64.847326 
2492.000000	64.825940 
2491.000000	64.804792 
2490.000000	64.787459 
2489.000000	64.776706 
2488.000000	64.774370 
2487.000000	64.780926 
2486.000000	64.795660 
2485.000000	64.816546 
2484.000000	64.840936 
2483.000000	64.865565 
2482.000000	64.887309 
2481.000000	64.903187 
2480.000000	64.910936 
2479.000000	64.909172 
2478.000000	64.897561 
2477.000000	64.876890 
2476.000000	64.848923 
2475.000000	64.816141 
2474.000000	64.781641 
2473.000000	64.748549 
2472.000000	64.719676 
2471.000000	64.697074 
2470.000000	64.682054 
2469.000000	64.674901 
2468.000000	64.675116 
2467.000000	64.681339 
2466.000000	64.692020 
2465.000000	64.705467 
2464.000000	64.720368 
2463.000000	64.735507 
2462.000000	64.750146 
2461.000000	64.763617 
2460.000000	64.775300 
2459.000000	64.784646 
2458.000000	64.791107 
2457.000000	64.794325 
2456.000000	64.794206 
2455.000000	64.791250 
2454.000000	64.786505 
2453.000000	64.781641 
2452.000000	64.778590 
2451.000000	64.779138 
2450.000000	64.784574 
2449.000000	64.795374 
2448.000000	64.811015 
2447.000000	64.829969 
2446.000000	64.849925 
2445.000000	64.868187 
2444.000000	64.882421 
2443.000000	64.891052 
2442.000000	64.893436 
2441.000000	64.889955 
2440.000000	64.882063 
2439.000000	64.871835 
2438.000000	64.861464 
2437.000000	64.852952 
2436.000000	64.847707 
2435.000000	64.846420 
2434.000000	64.849042 
2433.000000	64.854979 
2432.000000	64.863252 
2431.000000	64.872789 
2430.000000	64.882612 
2429.000000	64.892148 
2428.000000	64.900898 
2427.000000	64.908528 
2426.000000	64.914870 
2425.000000	64.919781 
2424.000000	64.922952 
2423.000000	64.924168 
2422.000000	64.923262 
2421.000000	64.920258 
2420.000000	64.915347 
2419.000000	64.908957 
2418.000000	64.901590 
2417.000000	64.893865 
2416.000000	64.886164 
2415.000000	64.878916 
2414.000000	64.872336 
2413.000000	64.866447 
2412.000000	64.861297 
2411.000000	64.856982 
2410.000000	64.853835 
2409.000000	64.852190 
2408.000000	64.852333 
2407.000000	64.854383 
2406.000000	64.858222 
2405.000000	64.863300 
2404.000000	64.868831 
2403.000000	64.873647 
2402.000000	64.876580 
2401.000000	64.876627 
2400.000000	64.873194 
2399.000000	64.866042 
2398.000000	64.855432 
2397.000000	64.842104 
2396.000000	64.827132 
2395.000000	64.811778 
2394.000000	64.797472 
2393.000000	64.785504 
2392.000000	64.777040 
2391.000000	64.772987 
2390.000000	64.773583 
2389.000000	64.778518 
2388.000000	64.786624 
2387.000000	64.796042 
2386.000000	64.804291 
2385.000000	64.808750 
2384.000000	64.807128 
2383.000000	64.798116 
2382.000000	64.781594 
2381.000000	64.759087 
2380.000000	64.733386 
2379.000000	64.708328 
2378.000000	64.687824 
2377.000000	64.675283 
2376.000000	64.672756 
2375.000000	64.680647 
2374.000000	64.697480 
2373.000000	64.720511 
2372.000000	64.746260 
2371.000000	64.771413 
2370.000000	64.793276 
2369.000000	64.810442 
2368.000000	64.822506 
2367.000000	64.830017 
2366.000000	64.833927 
2365.000000	64.835166 
2364.000000	64.834237 
2363.000000	64.831209 
2362.000000	64.825725 
2361.000000	64.817309 
2360.000000	64.805626 
2359.000000	64.790916 
2358.000000	64.774179 
2357.000000	64.757037 
2356.000000	64.741468 
2355.000000	64.729189 
2354.000000	64.721632 
2353.000000	64.719247 
2352.000000	64.721488 
2351.000000	64.726781 
2350.000000	64.733052 
2349.000000	64.737820 
2348.000000	64.739274 
2347.000000	64.736199 
2346.000000	64.728736 
2345.000000	64.718055 
2344.000000	64.706444 
2343.000000	64.696407 
2342.000000	64.690184 
2341.000000	64.689087 
2340.000000	64.693069 
2339.000000	64.700746 
2338.000000	64.709877 
2337.000000	64.718008 
2336.000000	64.723110 
2335.000000	64.724373 
2334.000000	64.722204 
2333.000000	64.718079 
2332.000000	64.714264 
2331.000000	64.712667 
2330.000000	64.714646 
2329.000000	64.720106 
2328.000000	64.727783 
2327.000000	64.735436 
2326.000000	64.740633 
2325.000000	64.741206 
2324.000000	64.736223 
2323.000000	64.725899 
2322.000000	64.711570 
2321.000000	64.695382 
2320.000000	64.679574 
2319.000000	64.666152 
2318.000000	64.656496 
2317.000000	64.651441 
2316.000000	64.651012 
2315.000000	64.654850 
2314.000000	64.662384 
2313.000000	64.673185 
2312.000000	64.686703 
2311.000000	64.702653 
2310.000000	64.720678 
2309.000000	64.740300 
2308.000000	64.760732 
2307.000000	64.780974 
2306.000000	64.799833 
2305.000000	64.815998 
2304.000000	64.828133 
2303.000000	64.835214 
2302.000000	64.836645 
2301.000000	64.832425 
2300.000000	64.823126 
2299.000000	64.809894 
2298.000000	64.794158 
2297.000000	64.777779 
2296.000000	64.762401 
2295.000000	64.749264 
2294.000000	64.738941 
2293.000000	64.731407 
2292.000000	64.726114 
2291.000000	64.722228 
2290.000000	64.719080 
2289.000000	64.716100 
2288.000000	64.713191 
2287.000000	64.710330 
2286.000000	64.707779 
2285.000000	64.705610 
2284.000000	64.703798 
2283.000000	64.702081 
2282.000000	64.699912 
2281.000000	64.696669 
2280.000000	64.691996 
2279.000000	64.685606 
2278.000000	64.677596 
2277.000000	64.668488 
2276.000000	64.659118 
2275.000000	64.650702 
2274.000000	64.644384 
2273.000000	64.641237 
2272.000000	64.642047 
2271.000000	64.647388 
2270.000000	64.657115 
2269.000000	64.670777 
2268.000000	64.687156 
2267.000000	64.704775 
2266.000000	64.722037 
2265.000000	64.737510 
2264.000000	64.750099 
2263.000000	64.759302 
2262.000000	64.765310 
2261.000000	64.768767 
2260.000000	64.770507 
2259.000000	64.771127 
2258.000000	64.770889 
2257.000000	64.769387 
2256.000000	64.765882 
2255.000000	64.759421 
2254.000000	64.749336 
2253.000000	64.735484 
2252.000000	64.718508 
2251.000000	64.699792 
2250.000000	64.681267 
2249.000000	64.664912 
2248.000000	64.652562 
2247.000000	64.645099 
2246.000000	64.642691 
2245.000000	64.644598 
2244.000000	64.649820 
2243.000000	64.657020 
2242.000000	64.665102 
2241.000000	64.673495 
2240.000000	64.682054 
2239.000000	64.691019 
2238.000000	64.700627 
2237.000000	64.710879 
2236.000000	64.721465 
2235.000000	64.731621 
2234.000000	64.740180 
2233.000000	64.746046 
2232.000000	64.748311 
2231.000000	64.746594 
2230.000000	64.741063 
2229.000000	64.732265 
2228.000000	64.721155 
2227.000000	64.708733 
2226.000000	64.695668 
2225.000000	64.682364 
2224.000000	64.669036 
2223.000000	64.655637 
2222.000000	64.642095 
2221.000000	64.628553 
2220.000000	64.615345 
2219.000000	64.603114 
2218.000000	64.592576 
2217.000000	64.584517 
2216.000000	64.579534 
2215.000000	64.577913 
2214.000000	64.579749 
2213.000000	64.584803 
2212.000000	64.592528 
2211.000000	64.602375 
2210.000000	64.613652 
2209.000000	64.625763 
2208.000000	64.638209 
2207.000000	64.650559 
2206.000000	64.662647 
2205.000000	64.674472 
2204.000000	64.686083 
2203.000000	64.697527 
2202.000000	64.708709 
2201.000000	64.719343 
2200.000000	64.728879 
2199.000000	64.736461 
2198.000000	64.741134 
2197.000000	64.742207 
2196.000000	64.739227 
2195.000000	64.732193 
2194.000000	64.721488 
2193.000000	64.708161 
2192.000000	64.693355 
2191.000000	64.678192 
2190.000000	64.663505 
2189.000000	64.649701 
2188.000000	64.637160 
2187.000000	64.625906 
2186.000000	64.616250 
2185.000000	64.608716 
2184.000000	64.604187 
2183.000000	64.603614 
2182.000000	64.607858 
2181.000000	64.617037 
2180.000000	64.630341 
2179.000000	64.645981 
2178.000000	64.661192 
2177.000000	64.672851 
2176.000000	64.677977 
2175.000000	64.674687 
2174.000000	64.662623 
2173.000000	64.643144 
2172.000000	64.619207 
2171.000000	64.594697 
2170.000000	64.573717 
2169.000000	64.559769 
2168.000000	64.555191 
2167.000000	64.560770 
2166.000000	64.575600 
2165.000000	64.597558 
2164.000000	64.623832 
2163.000000	64.651584 
2162.000000	64.678311 
2161.000000	64.702081 
2160.000000	64.721727 
2159.000000	64.736580 
2158.000000	64.746499 
2157.000000	64.751529 
2156.000000	64.751815 
2155.000000	64.747548 
2154.000000	64.739346 
2153.000000	64.727783 
2152.000000	64.713835 
2151.000000	64.698815 
2150.000000	64.684152 
2149.000000	64.671540 
2148.000000	64.662551 
2147.000000	64.658522 
2146.000000	64.660191 
2145.000000	64.667510 
2144.000000	64.679408 
2143.000000	64.693903 
2142.000000	64.708161 
2141.000000	64.719009 
2140.000000	64.723563 
2139.000000	64.719533 
2138.000000	64.706182 
2137.000000	64.684200 
2136.000000	64.656043 
2135.000000	64.625310 
2134.000000	64.596199 
2133.000000	64.572715 
2132.000000	64.557743 
2131.000000	64.552593 
2130.000000	64.556765 
2129.000000	64.568138 
2128.000000	64.583611 
2127.000000	64.599776 
2126.000000	64.613699 
2125.000000	64.623451 
2124.000000	64.628553 
2123.000000	64.629602 
2122.000000	64.628005 
2121.000000	64.625287 
2120.000000	64.622688 
2119.000000	64.620661 
2118.000000	64.619064 
2117.000000	64.617037 
2116.000000	64.613723 
2115.000000	64.608407 
2114.000000	64.600825 
2113.000000	64.591264 
2112.000000	64.580702 
2111.000000	64.570403 
2110.000000	64.561581 
2109.000000	64.555430 
2108.000000	64.552569 
2107.000000	64.553356 
2106.000000	64.557266 
2105.000000	64.563608 
2104.000000	64.571404 
2103.000000	64.579677 
2102.000000	64.587593 
2101.000000	64.594650 
2100.000000	64.600634 
2099.000000	64.605665 
2098.000000	64.609956 
2097.000000	64.613676 
2096.000000	64.616894 
2095.000000	64.619350 
2094.000000	64.620637 
2093.000000	64.620208 
2092.000000	64.617586 
2091.000000	64.612627 
2090.000000	64.605665 
2089.000000	64.597582 
2088.000000	64.589715 
2087.000000	64.583563 
2086.000000	64.580631 
2085.000000	64.581751 
2084.000000	64.587211 
2083.000000	64.596486 
2082.000000	64.608287 
2081.000000	64.620757 
2080.000000	64.631891 
2079.000000	64.639878 
2078.000000	64.643383 
2077.000000	64.641833 
2076.000000	64.635419 
2075.000000	64.625096 
2074.000000	64.612388 
2073.000000	64.599013 
2072.000000	64.586639 
2071.000000	64.576721 
2070.000000	64.570212 
2069.000000	64.567303 
2068.000000	64.567685 
2067.000000	64.570522 
2066.000000	64.574599 
2065.000000	64.578604 
2064.000000	64.581513 
2063.000000	64.582657 
2062.000000	64.581942 
2061.000000	64.579677 
2060.000000	64.576435 
2059.000000	64.572715 
2058.000000	64.568829 
2057.000000	64.564871 
2056.000000	64.560794 
2055.000000	64.556264 
2054.000000	64.551162 
2053.000000	64.545536 
2052.000000	64.539551 
2051.000000	64.533615 
2050.000000	64.528107 
2049.000000	64.523434 
2048.000000	64.519906 
2047.000000	64.517593 
2046.000000	64.516472 
2045.000000	64.516162 
2044.000000	64.516043 
2043.000000	64.515376 
2042.000000	64.513349 
2041.000000	64.509224 
2040.000000	64.502453 
2039.000000	64.492940 
2038.000000	64.481186 
2037.000000	64.468431 
2036.000000	64.456534 
2035.000000	64.447617 
2034.000000	64.443635 
2033.000000	64.445900 
2032.000000	64.454579 
2031.000000	64.468646 
2030.000000	64.485812 
2029.000000	64.503312 
2028.000000	64.518141 
2027.000000	64.528250 
2026.000000	64.532375 
2025.000000	64.530658 
2024.000000	64.524316 
2023.000000	64.515209 
2022.000000	64.505577 
2021.000000	64.497375 
2020.000000	64.492082 
2019.000000	64.490699 
2018.000000	64.493465 
2017.000000	64.500427 
2016.000000	64.511227 
2015.000000	64.525461 
2014.000000	64.542365 
2013.000000	64.560961 
2012.000000	64.579796 
2011.000000	64.597082 
2010.000000	64.610934 
2009.000000	64.619565 
2008.000000	64.621782 
2007.000000	64.617371 
2006.000000	64.606952 
2005.000000	64.591932 
2004.000000	64.574551 
2003.000000	64.557194 
2002.000000	64.542102 
2001.000000	64.530801 
2000.000000	64.524221 
1999.000000	64.522552 
1998.000000	64.525222 
1997.000000	64.531207 
1996.000000	64.539337 
1995.000000	64.548635 
1994.000000	64.558577 
1993.000000	64.568805 
1992.000000	64.579153 
1991.000000	64.589214 
1990.000000	64.598393 
1989.000000	64.605665 
1988.000000	64.609622 
1987.000000	64.608764 
1986.000000	64.602041 
1985.000000	64.589047 
1984.000000	64.570307 
1983.000000	64.547443 
1982.000000	64.522910 
1981.000000	64.499592 
1980.000000	64.480304 
1979.000000	64.467215 
1978.000000	64.461779 
1977.000000	64.464092 
1976.000000	64.473462 
1975.000000	64.488315 
1974.000000	64.506745 
1973.000000	64.526724 
1972.000000	64.546442 
1971.000000	64.564085 
1970.000000	64.578080 
1969.000000	64.587068 
1968.000000	64.589858 
1967.000000	64.585494 
1966.000000	64.573264 
1965.000000	64.553236 
1964.000000	64.526009 
1963.000000	64.493155 
1962.000000	64.456772 
1961.000000	64.419388 
1960.000000	64.383792 
1959.000000	64.352703 
1958.000000	64.328265 
1957.000000	64.311957 
1956.000000	64.304494 
1955.000000	64.305830 
1954.000000	64.315199 
1953.000000	64.331364 
1952.000000	64.352655 
1951.000000	64.377355 
1950.000000	64.403605 
1949.000000	64.429855 
1948.000000	64.454579 
1947.000000	64.476966 
1946.000000	64.496278 
1945.000000	64.512634 
1944.000000	64.526534 
1943.000000	64.538860 
1942.000000	64.550685 
1941.000000	64.562821 
1940.000000	64.575648 
1939.000000	64.588594 
1938.000000	64.600539 
1937.000000	64.609575 
1936.000000	64.613723 
1935.000000	64.611244 
1934.000000	64.601397 
1933.000000	64.584326 
1932.000000	64.561271 
1931.000000	64.534592 
1930.000000	64.507222 
1929.000000	64.482283 
1928.000000	64.462375 
1927.000000	64.449357 
1926.000000	64.443945 
1925.000000	64.445328 
1924.000000	64.451575 
1923.000000	64.459776 
1922.000000	64.467167 
1921.000000	64.471578 
1920.000000	64.472317 
1919.000000	64.470005 
1918.000000	64.466357 
1917.000000	64.463639 
1916.000000	64.463973 
1915.000000	64.468383 
1914.000000	64.476895 
1913.000000	64.488458 
1912.000000	64.501380 
1911.000000	64.513897 
1910.000000	64.524412 
1909.000000	64.531970 
1908.000000	64.536190 
1907.000000	64.537310 
1906.000000	64.535832 
1905.000000	64.532423 
1904.000000	64.527654 
1903.000000	64.521789 
1902.000000	64.515042 
1901.000000	64.507460 
1900.000000	64.499115 
1899.000000	64.490103 
1898.000000	64.480423 
1897.000000	64.470195 
1896.000000	64.459443 
1895.000000	64.448404 
1894.000000	64.437437 
1893.000000	64.427065 
1892.000000	64.418029 
1891.000000	64.411377 
1890.000000	64.407873 
1889.000000	64.408206 
1888.000000	64.412450 
1887.000000	64.420223 
1886.000000	64.430618 
1885.000000	64.442491 
1884.000000	64.454483 
1883.000000	64.465570 
1882.000000	64.474987 
1881.000000	64.482116 
1880.000000	64.486670 
1879.000000	64.488363 
1878.000000	64.487004 
1877.000000	64.482212 
1876.000000	64.473748 
1875.000000	64.461398 
1874.000000	64.445328 
1873.000000	64.426326 
1872.000000	64.405775 
1871.000000	64.385485 
1870.000000	64.367389 
1869.000000	64.353346 
1868.000000	64.344668 
1867.000000	64.341855 
1866.000000	64.344620 
1865.000000	64.351797 
1864.000000	64.361786 
1863.000000	64.372825 
1862.000000	64.383435 
1861.000000	64.392542 
1860.000000	64.399838 
1859.000000	64.405441 
1858.000000	64.409828 
1857.000000	64.413595 
1856.000000	64.416861 
1855.000000	64.419364 
1854.000000	64.420437 
1853.000000	64.419150 
1852.000000	64.414715 
1851.000000	64.406824 
1850.000000	64.395999 
1849.000000	64.383459 
1848.000000	64.371085 
1847.000000	64.360976 
1846.000000	64.354944 
1845.000000	64.354133 
1844.000000	64.358854 
1843.000000	64.368319 
1842.000000	64.381241 
1841.000000	64.395833 
1840.000000	64.410448 
1839.000000	64.423537 
1838.000000	64.434099 
1837.000000	64.441728 
1836.000000	64.446353 
1835.000000	64.448261 
1834.000000	64.447808 
1833.000000	64.445352 
1832.000000	64.441490 
1831.000000	64.436864 
1830.000000	64.432120 
1829.000000	64.427876 
1828.000000	64.424848 
1827.000000	64.423418 
1826.000000	64.423656 
1825.000000	64.425301 
1824.000000	64.427828 
1823.000000	64.430618 
1822.000000	64.432978 
1821.000000	64.434409 
1820.000000	64.434814 
1819.000000	64.434361 
1818.000000	64.433526 
1817.000000	64.432978 
1816.000000	64.433431 
1815.000000	64.435434 
1814.000000	64.439082 
1813.000000	64.444160 
1812.000000	64.449739 
1811.000000	64.454650 
1810.000000	64.457416 
1809.000000	64.456725 
1808.000000	64.451360 
1807.000000	64.440655 
1806.000000	64.424586 
1805.000000	64.403867 
1804.000000	64.379906 
1803.000000	64.354586 
1802.000000	64.330077 
1801.000000	64.308476 
1800.000000	64.291715 
1799.000000	64.280915 
1798.000000	64.276409 
1797.000000	64.277648 
1796.000000	64.283227 
1795.000000	64.291167 
1794.000000	64.299297 
1793.000000	64.305520 
1792.000000	64.308238 
1791.000000	64.306735 
1790.000000	64.301061 
1789.000000	64.292287 
1788.000000	64.282011 
1787.000000	64.271974 
1786.000000	64.263677 
1785.000000	64.258265 
1784.000000	64.256048 
1783.000000	64.256644 
1782.000000	64.259481 
1781.000000	64.263844 
1780.000000	64.269065 
1779.000000	64.274930 
1778.000000	64.281582 
1777.000000	64.289450 
1776.000000	64.298868 
1775.000000	64.309906 
1774.000000	64.322257 
1773.000000	64.335203 
1772.000000	64.347696 
1771.000000	64.358496 
1770.000000	64.366602 
1769.000000	64.371204 
1768.000000	64.372110 
1767.000000	64.369440 
1766.000000	64.363622 
1765.000000	64.355111 
1764.000000	64.344334 
1763.000000	64.331746 
1762.000000	64.317631 
1761.000000	64.302396 
1760.000000	64.286446 
1759.000000	64.270281 
1758.000000	64.254474 
1757.000000	64.239501 
1756.000000	64.225935 
1755.000000	64.214062 
1754.000000	64.204096 
1753.000000	64.195990 
1752.000000	64.189505 
1751.000000	64.184284 
1750.000000	64.179944 
1749.000000	64.175987 
1748.000000	64.172101 
1747.000000	64.167904 
1746.000000	64.163208 
1745.000000	64.157843 
1744.000000	64.151668 
1743.000000	64.144563 
1742.000000	64.136385 
1741.000000	64.126944 
1740.000000	64.116120 
1739.000000	64.103889 
1738.000000	64.090442 
1737.000000	64.076471 
1736.000000	64.063072 
1735.000000	64.051747 
1734.000000	64.044046 
1733.000000	64.041233 
1732.000000	64.043855 
1731.000000	64.051532 
1730.000000	64.062571 
1729.000000	64.074826 
1728.000000	64.085793 
1727.000000	64.093565 
1726.000000	64.097070 
1725.000000	64.096760 
1724.000000	64.094281 
1723.000000	64.092326 
1722.000000	64.093565 
1721.000000	64.100170 
1720.000000	64.112973 
1719.000000	64.131164 
1718.000000	64.152598 
1717.000000	64.174342 
1716.000000	64.193630 
1715.000000	64.208531 
1714.000000	64.218330 
1713.000000	64.223599 
1712.000000	64.225769 
1711.000000	64.226508 
1710.000000	64.227104 
1709.000000	64.228010 
1708.000000	64.228606 
1707.000000	64.227867 
1706.000000	64.224290 
1705.000000	64.216828 
1704.000000	64.205026 
1703.000000	64.189529 
1702.000000	64.171695 
1701.000000	64.153385 
1700.000000	64.136433 
1699.000000	64.122223 
1698.000000	64.111304 
1697.000000	64.103507 
1696.000000	64.097666 
1695.000000	64.092588 
1694.000000	64.086866 
1693.000000	64.079451 
1692.000000	64.069986 
1691.000000	64.058613 
1690.000000	64.046287 
1689.000000	64.034414 
1688.000000	64.024734 
1687.000000	64.018702 
1686.000000	64.017558 
1685.000000	64.021849 
1684.000000	64.031314 
1683.000000	64.045000 
1682.000000	64.061355 
1681.000000	64.078879 
1680.000000	64.095902 
1679.000000	64.111208 
1678.000000	64.124107 
1677.000000	64.134407 
1676.000000	64.142346 
1675.000000	64.148807 
1674.000000	64.154720 
1673.000000	64.161205 
1672.000000	64.169383 
1671.000000	64.180016 
1670.000000	64.193582 
1669.000000	64.209866 
1668.000000	64.228320 
1667.000000	64.247536 
1666.000000	64.265680 
1665.000000	64.280486 
1664.000000	64.290022 
1663.000000	64.292812 
1662.000000	64.288449 
1661.000000	64.277672 
1660.000000	64.262390 
1659.000000	64.245009 
1658.000000	64.227986 
1657.000000	64.213299 
1656.000000	64.202094 
1655.000000	64.194607 
1654.000000	64.190387 
1653.000000	64.188528 
1652.000000	64.188170 
1651.000000	64.188933 
1650.000000	64.191031 
1649.000000	64.194798 
1648.000000	64.200568 
1647.000000	64.208269 
1646.000000	64.217281 
1645.000000	64.226055 
1644.000000	64.232778 
1643.000000	64.235615 
1642.000000	64.233279 
1641.000000	64.225387 
1640.000000	64.212822 
1639.000000	64.197373 
1638.000000	64.181494 
1637.000000	64.167642 
1636.000000	64.157962 
1635.000000	64.153790 
1634.000000	64.155554 
1633.000000	64.162778 
1632.000000	64.174127 
1631.000000	64.187741 
1630.000000	64.201474 
1629.000000	64.213228 
1628.000000	64.221119 
1627.000000	64.223623 
1626.000000	64.219880 
1625.000000	64.209651 
1624.000000	64.193677 
1623.000000	64.173364 
1622.000000	64.151120 
1621.000000	64.129328 
1620.000000	64.110755 
1619.000000	64.097189 
1618.000000	64.089822 
1617.000000	64.088559 
1616.000000	64.092230 
1615.000000	64.099121 
1614.000000	64.107036 
1613.000000	64.114403 
1612.000000	64.120221 
1611.000000	64.124679 
1610.000000	64.128494 
1609.000000	64.133048 
1608.000000	64.139556 
1607.000000	64.148712 
1606.000000	64.160346 
1605.000000	64.173293 
1604.000000	64.185643 
1603.000000	64.195156 
1602.000000	64.199900 
1601.000000	64.198565 
1600.000000	64.190936 
1599.000000	64.177656 
1598.000000	64.160561 
1597.000000	64.141917 
1596.000000	64.124250 
1595.000000	64.109969 
1594.000000	64.100813 
1593.000000	64.097666 
1592.000000	64.100432 
1591.000000	64.108300 
1590.000000	64.119434 
1589.000000	64.131474 
1588.000000	64.141678 
1587.000000	64.147615 
1586.000000	64.147400 
1585.000000	64.140057 
1584.000000	64.125847 
1583.000000	64.106059 
1582.000000	64.083194 
1581.000000	64.060401 
1580.000000	64.040732 
1579.000000	64.026761 
1578.000000	64.020109 
1577.000000	64.021182 
1576.000000	64.029073 
1575.000000	64.041900 
1574.000000	64.057135 
1573.000000	64.072251 
1572.000000	64.085078 
1571.000000	64.094185 
1570.000000	64.098763 
1569.000000	64.099001 
1568.000000	64.095401 
1567.000000	64.089369 
1566.000000	64.082503 
1565.000000	64.076781 
1564.000000	64.074254 
1563.000000	64.076638 
1562.000000	64.084959 
1561.000000	64.099335 
1560.000000	64.118862 
1559.000000	64.141511 
1558.000000	64.164519 
1557.000000	64.184665 
1556.000000	64.199066 
1555.000000	64.205408 
1554.000000	64.202594 
1553.000000	64.190793 
1552.000000	64.171504 
1551.000000	64.147281 
1550.000000	64.121150 
1549.000000	64.096426 
1548.000000	64.075899 
1547.000000	64.061641 
1546.000000	64.054560 
1545.000000	64.054512 
1544.000000	64.060258 
1543.000000	64.069771 
1542.000000	64.080548 
1541.000000	64.089846 
1540.000000	64.095616 
1539.000000	64.096474 
1538.000000	64.092326 
1537.000000	64.084100 
1536.000000	64.073705 
1535.000000	64.063382 
1534.000000	64.055252 
1533.000000	64.050960 
1532.000000	64.051055 
1531.000000	64.054989 
1530.000000	64.061331 
1529.000000	64.068102 
1528.000000	64.073300 
1527.000000	64.075565 
1526.000000	64.074206 
1525.000000	64.069461 
1524.000000	64.062118 
1523.000000	64.053273 
1522.000000	64.044070 
1521.000000	64.035224 
1520.000000	64.027237 
1519.000000	64.020299 
1518.000000	64.014506 
1517.000000	64.009976 
1516.000000	64.006781 
1515.000000	64.005255 
1514.000000	64.005517 
1513.000000	64.007830 
1512.000000	64.012169 
1511.000000	64.018511 
1510.000000	64.026665 
1509.000000	64.036345 
1508.000000	64.047312 
1507.000000	64.059281 
1506.000000	64.071750 
1505.000000	64.083862 
1504.000000	64.094591 
1503.000000	64.102697 
1502.000000	64.107131 
1501.000000	64.107561 
1500.000000	64.104509 
1499.000000	64.099550 
1498.000000	64.094877 
1497.000000	64.092874 
1496.000000	64.095187 
1495.000000	64.102172 
1494.000000	64.112758 
1493.000000	64.124774 
1492.000000	64.135432 
1491.000000	64.142227 
1490.000000	64.143633 
1489.000000	64.139199 
1488.000000	64.129972 
1487.000000	64.117670 
1486.000000	64.104270 
1485.000000	64.091658 
1484.000000	64.080834 
1483.000000	64.071965 
1482.000000	64.064407 
1481.000000	64.057278 
1480.000000	64.049839 
1479.000000	64.041709 
1478.000000	64.033031 
1477.000000	64.024710 
1476.000000	64.017558 
1475.000000	64.012193 
1474.000000	64.008760 
1473.000000	64.006662 
1472.000000	64.004898 
1471.000000	64.002108 
1470.000000	63.997340 
1469.000000	63.989973 
1468.000000	63.980436 
1467.000000	63.969874 
1466.000000	63.960051 
1465.000000	63.952851 
1464.000000	63.949918 
1463.000000	63.952088 
1462.000000	63.959097 
1461.000000	63.969683 
1460.000000	63.981795 
1459.000000	63.992786 
1458.000000	64.000320 
1457.000000	64.002537 
1456.000000	63.998651 
1455.000000	63.988780 
1454.000000	63.973736 
1453.000000	63.954854 
1452.000000	63.933801 
1451.000000	63.912057 
1450.000000	63.890671 
1449.000000	63.870477 
1448.000000	63.852190 
1447.000000	63.836646 
1446.000000	63.824963 
1445.000000	63.818454 
1444.000000	63.818526 
1443.000000	63.826298 
1442.000000	63.842225 
1441.000000	63.865613 
1440.000000	63.894653 
1439.000000	63.926529 
1438.000000	63.957929 
1437.000000	63.985514 
1436.000000	64.006567 
1435.000000	64.019322 
1434.000000	64.023661 
1433.000000	64.020705 
1432.000000	64.012885 
1431.000000	64.003419 
1430.000000	63.995695 
1429.000000	63.992834 
1428.000000	63.996839 
1427.000000	64.008617 
1426.000000	64.027428 
1425.000000	64.051389 
1424.000000	64.077353 
1423.000000	64.101791 
1422.000000	64.121103 
1421.000000	64.132452 
1420.000000	64.134049 
1419.000000	64.125370 
1418.000000	64.107298 
1417.000000	64.082098 
1416.000000	64.052772 
1415.000000	64.022493 
1414.000000	63.994359 
1413.000000	63.970708 
1412.000000	63.952946 
1411.000000	63.941454 
1410.000000	63.935518 
1409.000000	63.933777 
1408.000000	63.934326 
1407.000000	63.935542 
1406.000000	63.935661 
1405.000000	63.933849 
1404.000000	63.929963 
1403.000000	63.924717 
1402.000000	63.919091 
1401.000000	63.914585 
1400.000000	63.912463 
1399.000000	63.913798 
1398.000000	63.918876 
1397.000000	63.927459 
1396.000000	63.938832 
1395.000000	63.951992 
1394.000000	63.965845 
1393.000000	63.979506 
1392.000000	63.992214 
1391.000000	64.003491 
1390.000000	64.013051 
1389.000000	64.020681 
1388.000000	64.026188 
1387.000000	64.029407 
1386.000000	64.030170 
1385.000000	64.028358 
1384.000000	64.024043 
1383.000000	64.017581 
1382.000000	64.009618 
1381.000000	64.001107 
1380.000000	63.992905 
1379.000000	63.985872 
1378.000000	63.980412 
1377.000000	63.976502 
1376.000000	63.973402 
1375.000000	63.970041 
1374.000000	63.965034 
1373.000000	63.957095 
1372.000000	63.945317 
1371.000000	63.929462 
1370.000000	63.910198 
1369.000000	63.889050 
1368.000000	63.868379 
1367.000000	63.850665 
1366.000000	63.838291 
1365.000000	63.833189 
1364.000000	63.836312 
1363.000000	63.847422 
1362.000000	63.865447 
1361.000000	63.888406 
1360.000000	63.913893 
1359.000000	63.939237 
1358.000000	63.961935 
1357.000000	63.979768 
1356.000000	63.991045 
1355.000000	63.994836 
1354.000000	63.990783 
1353.000000	63.979411 
1352.000000	63.962125 
1351.000000	63.940882 
1350.000000	63.918113 
1349.000000	63.896298 
1348.000000	63.877797 
1347.000000	63.864278 
1346.000000	63.856577 
1345.000000	63.854503 
1344.000000	63.857102 
1343.000000	63.862776 
1342.000000	63.869786 
1341.000000	63.876485 
1340.000000	63.881707 
1339.000000	63.884902 
1338.000000	63.886141 
1337.000000	63.885927 
1336.000000	63.884830 
1335.000000	63.883471 
1334.000000	63.882184 
1333.000000	63.881254 
1332.000000	63.880825 
1331.000000	63.880944 
1330.000000	63.881707 
1329.000000	63.883304 
1328.000000	63.885879 
1327.000000	63.889360 
1326.000000	63.893365 
1325.000000	63.897252 
1324.000000	63.900113 
1323.000000	63.901042 
1322.000000	63.899421 
1321.000000	63.895082 
1320.000000	63.888144 
1319.000000	63.879132 
1318.000000	63.868737 
1317.000000	63.857746 
1316.000000	63.846731 
1315.000000	63.836050 
1314.000000	63.825726 
1313.000000	63.815665 
1312.000000	63.805699 
1311.000000	63.795852 
1310.000000	63.786339 
1309.000000	63.777542 
1308.000000	63.770222 
1307.000000	63.765573 
1306.000000	63.764786 
1305.000000	63.769125 
1304.000000	63.779735 
1303.000000	63.797235 
1302.000000	63.821697 
1301.000000	63.852143 
1300.000000	63.886761 
1299.000000	63.922667 
1298.000000	63.956642 
1297.000000	63.985276 
1296.000000	64.005756 
1295.000000	64.016366 
1294.000000	64.016938 
1293.000000	64.008760 
1292.000000	63.994431 
1291.000000	63.977098 
1290.000000	63.960003 
1289.000000	63.945484 
1288.000000	63.934588 
1287.000000	63.926959 
1286.000000	63.921213 
1285.000000	63.915395 
1284.000000	63.907623 
1283.000000	63.896632 
1282.000000	63.882303 
1281.000000	63.865303 
1280.000000	63.847041 
1279.000000	63.828992 
1278.000000	63.812637 
1277.000000	63.798832 
1276.000000	63.788080 
1275.000000	63.780617 
1274.000000	63.776636 
1273.000000	63.776445 
1272.000000	63.780713 
1271.000000	63.789916 
1270.000000	63.804173 
1269.000000	63.822960 
1268.000000	63.844823 
1267.000000	63.867378 
1266.000000	63.887929 
1265.000000	63.903880 
1264.000000	63.913488 
1263.000000	63.916134 
1262.000000	63.912200 
1261.000000	63.903141 
1260.000000	63.890624 
1259.000000	63.876342 
1258.000000	63.861441 
1257.000000	63.846516 
1256.000000	63.831663 
1255.000000	63.816976 
1254.000000	63.802552 
1253.000000	63.788914 
1252.000000	63.776803 
1251.000000	63.767313 
1250.000000	63.761544 
1249.000000	63.760352 
1248.000000	63.763976 
1247.000000	63.771939 
1246.000000	63.783168 
1245.000000	63.796162 
1244.000000	63.809204 
1243.000000	63.820815 
1242.000000	63.829731 
1241.000000	63.835334 
1240.000000	63.837432 
1239.000000	63.836336 
1238.000000	63.832616 
1237.000000	63.827180 
1236.000000	63.820910 
1235.000000	63.814616 
1234.000000	63.808989 
1233.000000	63.804602 
1232.000000	63.801765 
1231.000000	63.800621 
1230.000000	63.801193 
1229.000000	63.803410 
1228.000000	63.806915 
1227.000000	63.811326 
1226.000000	63.816142 
1225.000000	63.820719 
1224.000000	63.824224 
1223.000000	63.825774 
1222.000000	63.824582 
1221.000000	63.820028 
1220.000000	63.811874 
1219.000000	63.800454 
1218.000000	63.786745 
1217.000000	63.772320 
1216.000000	63.759016 
1215.000000	63.748478 
1214.000000	63.741898 
1213.000000	63.739776 
1212.000000	63.741993 
1211.000000	63.747811 
1210.000000	63.756179 
1209.000000	63.766074 
1208.000000	63.776683 
1207.000000	63.787555 
1206.000000	63.798427 
1205.000000	63.809084 
1204.000000	63.818883 
1203.000000	63.826704 
1202.000000	63.831067 
1201.000000	63.830208 
1200.000000	63.822555 
1199.000000	63.807129 
1198.000000	63.784050 
1197.000000	63.754534 
1196.000000	63.720917 
1195.000000	63.686347 
1194.000000	63.653969 
1193.000000	63.626861 
1192.000000	63.607501 
1191.000000	63.597536 
1190.000000	63.597702 
1189.000000	63.607645 
1188.000000	63.626313 
1187.000000	63.652014 
1186.000000	63.682389 
1185.000000	63.714909 
1184.000000	63.746953 
1183.000000	63.776063 
1182.000000	63.800191 
1181.000000	63.818025 
1180.000000	63.828897 
1179.000000	63.833284 
1178.000000	63.832378 
1177.000000	63.828063 
1176.000000	63.822650 
1175.000000	63.818335 
1174.000000	63.816809 
1173.000000	63.818788 
1172.000000	63.823866 
1171.000000	63.830518 
1170.000000	63.836312 
1169.000000	63.838481 
1168.000000	63.834428 
1167.000000	63.822340 
1166.000000	63.801765 
1165.000000	63.773751 
1164.000000	63.740682 
1163.000000	63.706016 
1162.000000	63.673496 
1161.000000	63.646316 
1160.000000	63.626694 
1159.000000	63.615298 
1158.000000	63.611459 
1157.000000	63.613438 
1156.000000	63.618946 
1155.000000	63.625645 
1154.000000	63.631844 
1153.000000	63.636708 
1152.000000	63.640332 
1151.000000	63.643217 
1150.000000	63.646388 
1149.000000	63.650822 
1148.000000	63.657093 
1147.000000	63.665080 
1146.000000	63.674259 
1145.000000	63.683509 
1144.000000	63.691496 
1143.000000	63.696813 
1142.000000	63.698363 
1141.000000	63.695359 
1140.000000	63.687682 
1139.000000	63.675737 
1138.000000	63.660407 
1137.000000	63.643050 
1136.000000	63.625240 
1135.000000	63.608574 
1134.000000	63.594365 
1133.000000	63.583612 
1132.000000	63.576793 
1131.000000	63.574123 
1130.000000	63.575291 
1129.000000	63.580036 
1128.000000	63.587927 
1127.000000	63.598608 
1126.000000	63.611650 
1125.000000	63.626503 
1124.000000	63.642358 
1123.000000	63.658189 
1122.000000	63.672661 
1121.000000	63.684296 
1120.000000	63.691663 
1119.000000	63.693618 
1118.000000	63.689661 
1117.000000	63.680267 
1116.000000	63.666820 
1115.000000	63.651943 
1114.000000	63.638687 
1113.000000	63.630390 
1112.000000	63.629555 
1111.000000	63.637518 
1110.000000	63.653755 
1109.000000	63.676047 
1108.000000	63.700914 
1107.000000	63.724446 
1106.000000	63.743257 
1105.000000	63.755249 
1104.000000	63.760185 
1103.000000	63.759756 
1102.000000	63.756775 
1101.000000	63.754510 
1100.000000	63.755297 
1099.000000	63.760066 
1098.000000	63.767671 
1097.000000	63.775444 
1096.000000	63.779926 
1095.000000	63.778090 
1094.000000	63.768291 
1093.000000	63.750958 
1092.000000	63.728284 
1091.000000	63.703942 
1090.000000	63.681936 
1089.000000	63.665843 
1088.000000	63.658165 
1087.000000	63.659834 
1086.000000	63.670396 
1085.000000	63.687920 
1084.000000	63.709855 
1083.000000	63.732910 
1082.000000	63.754057 
1081.000000	63.770365 
1080.000000	63.779330 
1079.000000	63.779401 
1078.000000	63.769817 
1077.000000	63.750958 
1076.000000	63.724398 
1075.000000	63.692831 
1074.000000	63.659572 
1073.000000	63.628411 
1072.000000	63.603091 
1071.000000	63.586544 
1070.000000	63.580513 
1069.000000	63.585376 
1068.000000	63.600087 
1067.000000	63.622426 
1066.000000	63.649153 
1065.000000	63.676571 
1064.000000	63.701057 
1063.000000	63.719344 
1062.000000	63.729023 
1061.000000	63.728523 
1060.000000	63.717651 
1059.000000	63.697552 
1058.000000	63.670897 
1057.000000	63.641381 
1056.000000	63.613438 
1055.000000	63.591647 
1054.000000	63.579797 
1053.000000	63.580274 
1052.000000	63.593149 
1051.000000	63.616371 
1050.000000	63.646101 
1049.000000	63.677453 
1048.000000	63.705492 
1047.000000	63.726091 
1046.000000	63.736677 
1045.000000	63.736319 
1044.000000	63.725852 
1043.000000	63.707327 
1042.000000	63.683366 
1041.000000	63.656473 
1040.000000	63.628768 
1039.000000	63.601875 
1038.000000	63.576698 
1037.000000	63.553786 
1036.000000	63.533353 
1035.000000	63.515996 
1034.000000	63.502645 
1033.000000	63.494729 
1032.000000	63.493728 
1031.000000	63.500881 
1030.000000	63.516736 
1029.000000	63.540983 
1028.000000	63.572001 
1027.000000	63.607001 
1026.000000	63.642287 
1025.000000	63.673710 
1024.000000	63.697552 
1023.000000	63.710999 
1022.000000	63.712573 
1021.000000	63.702750 
1020.000000	63.683557 
1019.000000	63.658452 
1018.000000	63.631749 
1017.000000	63.607835 
1016.000000	63.590455 
1015.000000	63.582158 
1014.000000	63.584113 
1013.000000	63.595843 
1012.000000	63.615441 
1011.000000	63.639712 
1010.000000	63.664817 
1009.000000	63.686895 
1008.000000	63.702774 
1007.000000	63.710188 
1006.000000	63.708519 
1005.000000	63.698720 
1004.000000	63.683271 
1003.000000	63.665676 
1002.000000	63.649654 
1001.000000	63.638639 
1000.000000	63.634872 
999.000000	 63.639330 
998.000000	 63.651204 
997.000000	 63.668251 
996.000000	 63.687324 
995.000000	 63.705372 
994.000000	 63.719844 
993.000000	 63.729047 
992.000000	 63.732743 
991.000000	 63.731956 
990.000000	 63.728499 
989.000000	 63.724327 
988.000000	 63.721275 
987.000000	 63.720560 
986.000000	 63.722658 
985.000000	 63.727355 
984.000000	 63.733816 
983.000000	 63.740944 
982.000000	 63.747549 
981.000000	 63.752818 
980.000000	 63.756346 
979.000000	 63.758182 
978.000000	 63.758540 
977.000000	 63.757658 
976.000000	 63.755846 
975.000000	 63.753080 
974.000000	 63.749122 
973.000000	 63.743424 
972.000000	 63.735485 
971.000000	 63.724827 
970.000000	 63.711214 
969.000000	 63.694691 
968.000000	 63.675713 
967.000000	 63.654947 
966.000000	 63.633227 
965.000000	 63.611173 
964.000000	 63.589096 
963.000000	 63.566923 
962.000000	 63.544368 
961.000000	 63.521432 
960.000000	 63.498353 
959.000000	 63.476037 
958.000000	 63.456010 
957.000000	 63.439774 
956.000000	 63.428759 
955.000000	 63.423657 
954.000000	 63.424301 
953.000000	 63.429713 
952.000000	 63.438200 
951.000000	 63.447904 
950.000000	 63.456964 
949.000000	 63.463664 
948.000000	 63.466763 
947.000000	 63.465332 
946.000000	 63.459157 
945.000000	 63.448309 
944.000000	 63.433456 
943.000000	 63.415694 
942.000000	 63.396620 
941.000000	 63.378119 
940.000000	 63.362407 
939.000000	 63.351726 
938.000000	 63.348102 
937.000000	 63.352775 
936.000000	 63.366317 
935.000000	 63.388228 
934.000000	 63.417243 
933.000000	 63.451290 
932.000000	 63.487720 
931.000000	 63.523769 
930.000000	 63.556647 
929.000000	 63.583946 
928.000000	 63.603806 
927.000000	 63.615417 
926.000000	 63.619041 
925.000000	 63.616204 
924.000000	 63.609552 
923.000000	 63.601899 
922.000000	 63.596200 
921.000000	 63.594484 
920.000000	 63.597440 
919.000000	 63.604426 
918.000000	 63.613748 
917.000000	 63.623094 
916.000000	 63.630366 
915.000000	 63.634276 
914.000000	 63.634514 
913.000000	 63.631892 
912.000000	 63.628077 
911.000000	 63.624930 
910.000000	 63.623952 
909.000000	 63.625693 
908.000000	 63.629794 
907.000000	 63.634729 
906.000000	 63.638257 
905.000000	 63.638114 
904.000000	 63.632488 
903.000000	 63.620686 
902.000000	 63.603210 
901.000000	 63.581490 
900.000000	 63.557481 
899.000000	 63.532972 
898.000000	 63.509440 
897.000000	 63.487362 
896.000000	 63.466763 
895.000000	 63.447213 
894.000000	 63.428711 
893.000000	 63.411712 
892.000000	 63.397860 
891.000000	 63.389301 
890.000000	 63.388562 
889.000000	 63.397383 
888.000000	 63.416695 
887.000000	 63.445496 
886.000000	 63.481235 
885.000000	 63.519954 
884.000000	 63.557171 
883.000000	 63.589000 
882.000000	 63.612675 
881.000000	 63.627052 
880.000000	 63.632464 
879.000000	 63.630533 
878.000000	 63.623523 
877.000000	 63.613677 
876.000000	 63.602805 
875.000000	 63.592123 
874.000000	 63.582611 
873.000000	 63.575172 
872.000000	 63.570976 
871.000000	 63.571190 
870.000000	 63.577103 
869.000000	 63.589310 
868.000000	 63.607478 
867.000000	 63.629770 
866.000000	 63.653111 
865.000000	 63.673543 
864.000000	 63.686895 
863.000000	 63.689804 
862.000000	 63.680458 
861.000000	 63.658905 
860.000000	 63.627123 
859.000000	 63.588261 
858.000000	 63.545966 
857.000000	 63.503885 
856.000000	 63.464975 
855.000000	 63.431310 
854.000000	 63.403964 
853.000000	 63.383769 
852.000000	 63.371658 
851.000000	 63.368654 
850.000000	 63.375735 
849.000000	 63.393402 
848.000000	 63.421249 
847.000000	 63.457298 
846.000000	 63.498044 
845.000000	 63.538789 
844.000000	 63.574504 
843.000000	 63.600850 
842.000000	 63.615202 
841.000000	 63.617062 
840.000000	 63.608145 
839.000000	 63.592195 
838.000000	 63.573932 
837.000000	 63.558101 
836.000000	 63.548135 
835.000000	 63.545966 
834.000000	 63.550901 
833.000000	 63.560461 
832.000000	 63.570523 
831.000000	 63.576507 
830.000000	 63.574528 
829.000000	 63.562321 
828.000000	 63.539719 
827.000000	 63.508820 
826.000000	 63.473510 
825.000000	 63.438534 
824.000000	 63.408780 
823.000000	 63.388180 
822.000000	 63.379096 
821.000000	 63.382101 
820.000000	 63.395977 
819.000000	 63.418316 
818.000000	 63.446140 
817.000000	 63.476705 
816.000000	 63.507652 
815.000000	 63.537335 
814.000000	 63.564682 
813.000000	 63.588905 
812.000000	 63.609337 
811.000000	 63.624930 
810.000000	 63.634657 
809.000000	 63.637280 
808.000000	 63.632082 
807.000000	 63.618516 
806.000000	 63.596892 
805.000000	 63.567996 
804.000000	 63.533711 
803.000000	 63.496279 
802.000000	 63.458299 
801.000000	 63.422322 
800.000000	 63.390803 
799.000000	 63.365411 
798.000000	 63.346886 
797.000000	 63.334918 
796.000000	 63.328218 
795.000000	 63.324618 
794.000000	 63.321614 
793.000000	 63.316774 
792.000000	 63.308501 
791.000000	 63.296556 
790.000000	 63.282370 
789.000000	 63.268494 
788.000000	 63.258337 
787.000000	 63.255596 
786.000000	 63.263177 
785.000000	 63.282012 
784.000000	 63.311100 
783.000000	 63.347363 
782.000000	 63.386464 
781.000000	 63.423156 
780.000000	 63.453149 
779.000000	 63.473510 
778.000000	 63.483834 
777.000000	 63.485932 
776.000000	 63.483357 
775.000000	 63.480401 
774.000000	 63.481092 
773.000000	 63.488411 
772.000000	 63.503479 
771.000000	 63.525485 
770.000000	 63.552045 
769.000000	 63.579940 
768.000000	 63.605594 
767.000000	 63.625550 
766.000000	 63.636827 
765.000000	 63.637328 
764.000000	 63.625621 
763.000000	 63.601160 
762.000000	 63.564157 
761.000000	 63.515615 
760.000000	 63.457584 
759.000000	 63.393115 
758.000000	 63.326358 
757.000000	 63.261938 
756.000000	 63.204312 
755.000000	 63.157486 
754.000000	 63.124155 
753.000000	 63.105797 
752.000000	 63.102364 
751.000000	 63.112592 
750.000000	 63.133835 
749.000000	 63.163208 
748.000000	 63.197422 
747.000000	 63.233470 
746.000000	 63.268256 
745.000000	 63.299536 
744.000000	 63.325691 
743.000000	 63.345599 
742.000000	 63.358616 
741.000000	 63.364601 
740.000000	 63.363599 
739.000000	 63.355851 
738.000000	 63.341760 
737.000000	 63.322162 
736.000000	 63.298320 
735.000000	 63.272190 
734.000000	 63.246345 
733.000000	 63.224077 
732.000000	 63.208699 
731.000000	 63.203239 
730.000000	 63.209676 
729.000000	 63.227868 
728.000000	 63.255596 
727.000000	 63.288879 
726.000000	 63.322687 
725.000000	 63.351917 
724.000000	 63.372588 
723.000000	 63.382863 
722.000000	 63.382935 
721.000000	 63.374614 
720.000000	 63.360667 
719.000000	 63.344001 
718.000000	 63.326716 
717.000000	 63.309574 
716.000000	 63.292050 
715.000000	 63.272619 
714.000000	 63.249611 
713.000000	 63.221955 
712.000000	 63.189578 
711.000000	 63.153839 
710.000000	 63.117027 
709.000000	 63.082170 
708.000000	 63.052487 
707.000000	 63.030815 
706.000000	 63.019347 
705.000000	 63.019156 
704.000000	 63.029742 
703.000000	 63.049197 
702.000000	 63.073897 
701.000000	 63.099527 
700.000000	 63.121056 
699.000000	 63.134956 
698.000000	 63.139343 
697.000000	 63.135337 
696.000000	 63.126516 
695.000000	 63.118219 
694.000000	 63.116312 
693.000000	 63.125038 
692.000000	 63.145780 
691.000000	 63.176131 
690.000000	 63.210606 
689.000000	 63.242268 
688.000000	 63.264918 
687.000000	 63.275241 
686.000000	 63.273954 
685.000000	 63.266253 
684.000000	 63.259863 
683.000000	 63.262629 
682.000000	 63.279342 
681.000000	 63.310122 
680.000000	 63.349604 
679.000000	 63.388085 
678.000000	 63.414144 
677.000000	 63.418745 
676.000000	 63.397264 
675.000000	 63.351488 
674.000000	 63.288879 
673.000000	 63.221025 
672.000000	 63.160204 
671.000000	 63.116097 
670.000000	 63.093614 
669.000000	 63.091540 
668.000000	 63.104391 
667.000000	 63.124489 
666.000000	 63.144922 
665.000000	 63.161659 
664.000000	 63.174891 
663.000000	 63.188695 
662.000000	 63.208317 
661.000000	 63.237714 
660.000000	 63.277411 
659.000000	 63.323640 
658.000000	 63.368654 
657.000000	 63.403081 
656.000000	 63.418865 
655.000000	 63.411927 
654.000000	 63.384437 
653.000000	 63.344240 
652.000000	 63.302302 
651.000000	 63.270139 
650.000000	 63.256621 
649.000000	 63.265824 
648.000000	 63.296175 
647.000000	 63.340973 
646.000000	 63.390541 
645.000000	 63.434481 
644.000000	 63.465714 
643.000000	 63.480424 
642.000000	 63.478875 
641.000000	 63.463711 
640.000000	 63.438367 
639.000000	 63.405799 
638.000000	 63.367676 
637.000000	 63.323378 
636.000000	 63.270854 
635.000000	 63.208436 
634.000000	 63.136887 
633.000000	 63.059186 
632.000000	 62.981605 
631.000000	 62.912726 
630.000000	 62.863063 
629.000000	 62.843370 
628.000000	 62.862992 
627.000000	 62.928390 
626.000000	 63.040256 
625.000000	 63.193178 
624.000000	 63.373446 
623.000000	 63.561749 
622.000000	 63.733386 
621.000000	 63.862633 
620.000000	 63.926720 
619.000000	 63.909721 
618.000000	 63.807439 
617.000000	 63.628411 
616.000000	 63.395190 
615.000000	 63.139557 
614.000000	 62.899374 
613.000000	 62.711286 
612.000000	 62.604737 
611.000000	 62.596511 
610.000000	 62.688779 
609.000000	 62.870001 
608.000000	 63.115739 
607.000000	 63.393831 
606.000000	 63.670563 
605.000000	 63.917183 
604.000000	 64.112067 
603.000000	 64.244675 
602.000000	 64.315676 
601.000000	 64.335680 
600.000000	 64.322900 
599.000000	 64.297056 
598.000000	 64.276528 
597.000000	 64.271426 
596.000000	 64.285993 
595.000000	 64.313673 
594.000000	 64.341735 
593.000000	 64.353132 
592.000000	 64.332413 
591.000000	 64.270424 
590.000000	 64.168000 
589.000000	 64.036059 
588.000000	 63.894414 
587.000000	 63.764119 
586.000000	 63.662362 
585.000000	 63.595080 
584.000000	 63.556313 
583.000000	 63.525485 
582.000000	 63.473677 
581.000000	 63.370871 
580.000000	 63.195753 
579.000000	 62.942147 
578.000000	 62.623524 
577.000000	 62.270832 
576.000000	 61.927676 
575.000000	 61.641526 
574.000000	 61.454105 
573.000000	 61.389827 
572.000000	 61.452174 
571.000000	 61.624693 
570.000000	 61.875247 
569.000000	 62.161397 
568.000000	 62.442135 
567.000000	 62.683558 
566.000000	 62.867426 
565.000000	 62.988781 
564.000000	 63.058519 
563.000000	 63.095045 
562.000000	 63.121223 
561.000000	 63.157773 
560.000000	 63.217449 
559.000000	 63.302922 
558.000000	 63.406848 
557.000000	 63.517189 
556.000000	 63.618350 
555.000000	 63.696718 
554.000000	 63.744163 
553.000000	 63.760209 
552.000000	 63.750910 
551.000000	 63.726186 
550.000000	 63.696694 
549.000000	 63.669276 
548.000000	 63.645339 
547.000000	 63.618946 
546.000000	 63.579678 
545.000000	 63.514804 
544.000000	 63.413238 
543.000000	 63.270092 
542.000000	 63.089013 
541.000000	 62.884593 
540.000000	 62.678003 
539.000000	 62.496590 
538.000000	 62.364864 
537.000000	 62.304401 
536.000000	 62.328052 
535.000000	 62.439203 
534.000000	 62.629055 
533.000000	 62.880325 
532.000000	 63.169670 
531.000000	 63.470506 
530.000000	 63.756275 
529.000000	 64.002561 
528.000000	 64.189362 
527.000000	 64.302206 
526.000000	 64.332938 
525.000000	 64.280581 
524.000000	 64.151024 
523.000000	 63.957047 
522.000000	 63.716673 
521.000000	 63.452768 
520.000000	 63.189148 
519.000000	 62.949252 
518.000000	 62.751722 
517.000000	 62.608623 
516.000000	 62.524032 
515.000000	 62.493991 
514.000000	 62.509202 
513.000000	 62.556171 
512.000000	 62.621998 
511.000000	 62.694573 
510.000000	 62.766337 
509.000000	 62.831830 
508.000000	 62.890172 
507.000000	 62.941455 
506.000000	 62.987899 
505.000000	 63.031244 
504.000000	 63.073277 
503.000000	 63.115310 
502.000000	 63.157272 
501.000000	 63.197898 
500.000000	 63.233780 
499.000000	 63.259816 
498.000000	 63.269424 
497.000000	 63.255882 
496.000000	 63.213491 
495.000000	 63.139557 
494.000000	 63.035917 
493.000000	 62.909293 
492.000000	 62.771844 
491.000000	 62.638306 
490.000000	 62.522006 
489.000000	 62.432980 
488.000000	 62.376022 
487.000000	 62.350797 
486.000000	 62.351989 
485.000000	 62.372016 
484.000000	 62.403082 
483.000000	 62.438941 
482.000000	 62.474822 
481.000000	 62.508845 
480.000000	 62.539196 
479.000000	 62.567019 
478.000000	 62.594366 
477.000000	 62.624955 
476.000000	 62.662696 
475.000000	 62.711429 
474.000000	 62.773776 
473.000000	 62.849879 
472.000000	 62.936854 
471.000000	 63.029646 
470.000000	 63.122081 
469.000000	 63.207459 
468.000000	 63.280463 
467.000000	 63.339090 
466.000000	 63.384175 
465.000000	 63.420081 
464.000000	 63.451504 
463.000000	 63.481926 
462.000000	 63.511109 
461.000000	 63.535952 
460.000000	 63.550138 
459.000000	 63.547134 
458.000000	 63.521575 
457.000000	 63.472461 
456.000000	 63.403034 
455.000000	 63.321280 
454.000000	 63.237571 
453.000000	 63.161993 
452.000000	 63.103151 
451.000000	 63.066697 
450.000000	 63.053989 
449.000000	 63.062071 
448.000000	 63.083600 
447.000000	 63.108682 
446.000000	 63.124990 
445.000000	 63.120388 
444.000000	 63.084554 
443.000000	 63.011837 
442.000000	 62.902951 
441.000000	 62.766098 
440.000000	 62.616038 
439.000000	 62.472057 
438.000000	 62.354397 
437.000000	 62.279486 
436.000000	 62.259411 
435.000000	 62.295508 
434.000000	 62.377238 
433.000000	 62.482786 
432.000000	 62.583279 
431.000000	 62.649202 
430.000000	 62.657046 
429.000000	 62.595081 
428.000000	 62.464380 
427.000000	 62.280631 
426.000000	 62.071180 
425.000000	 61.866950 
424.000000	 61.694931 
423.000000	 61.571979 
422.000000	 61.501431 
421.000000	 61.474728 
420.000000	 61.476039 
419.000000	 61.489152 
418.000000	 61.502838 
417.000000	 61.521792 
416.000000	 61.563515 
415.000000	 61.648368 
414.000000	 61.788034 
413.000000	 61.979675 
412.000000	 62.198352 
411.000000	 62.392997 
410.000000	 62.501502 
409.000000	 62.463307 
408.000000	 62.244534 
407.000000	 61.853551 
406.000000	 61.346054 
405.000000	 60.812234 
404.000000	 60.361552 
403.000000	 60.093164 
402.000000	 60.075640 
401.000000	 60.338997 
400.000000	 60.853409 
399.000000	 61.526727 
398.000000	 62.239336 
397.000000	 62.879109 
396.000000	 63.354706 
395.000000	 63.615942 
394.000000	 63.648700 
393.000000	 63.469719 
392.000000	 63.102078 
391.000000	 62.561607 
390.000000	 61.854076 
389.000000	 60.974287 
388.000000	 59.924173 
387.000000	 58.724331 
386.000000	 57.392454 
385.000000	 55.979847 
384.000000	 54.562711 
383.000000	 53.268027 
382.000000	 52.293586 
381.000000	 51.838397 
380.000000	 52.088570 
379.000000	 53.089618 
378.000000	 54.719448 
377.000000	 56.650304 
376.000000	 58.386707 
375.000000	 59.383606 
374.000000	 59.178090 
373.000000	 57.518649 
372.000000	 54.452538 
371.000000	 50.312089 
370.000000	 45.646739 

