PE IR       SPECTRUM    SPECTRUM    ASCII       PEDS        1.60        
  -1
BZ6CA5~1.ASC
17/04/07
20:59:51.00
17/04/07
20:59:51.00
tln
$BZ1503107-1_t0094$<tbV0>[0.0,7.8,8.0,0.0,27,1,0]
370.000000
64









2002,4.07    
MIRTGS : RIGHTBACK : INTERNAL 2
MIR : ON : INTERNAL 2
OPTKBR

0.200000
8
8.000000
FILLER
RATIO
SPECTRUM
UNLOCKED 256

DOUBLE
64
COMBINED
1
0
0


1.000000
RATIO


1
0
TRUE
51149
0
LEFT NOT FITTED RIGHT NOT FITTED 0
NONE
NONE
15600
12.000000
4.427000
51148
TRUE
1 0 8 72 0 0 0 0 

15798.010000






#HDR
-1
-1
#GR
CM-1
%T
0.00002384185791015625
0.0
5000.000000
-1.000000
4631
8
88.244414
53.584551
#DATA
5000.000000	63.815474 
4999.000000	63.853621 
4998.000000	63.911747 
4997.000000	63.975071 
4996.000000	64.029645 
4995.000000	64.063811 
4994.000000	64.071369 
4993.000000	64.051127 
4992.000000	64.007973 
4991.000000	63.951039 
4990.000000	63.890981 
4989.000000	63.837623 
4988.000000	63.797092 
4987.000000	63.770985 
4986.000000	63.756227 
4985.000000	63.747072 
4984.000000	63.735675 
4983.000000	63.715028 
4982.000000	63.681268 
4981.000000	63.635945 
4980.000000	63.585734 
4979.000000	63.542795 
4978.000000	63.521552 
4977.000000	63.536739 
4976.000000	63.600993 
4975.000000	63.720560 
4974.000000	63.893938 
4973.000000	64.108991 
4972.000000	64.343929 
4971.000000	64.570164 
4970.000000	64.757657 
4969.000000	64.881277 
4968.000000	64.925146 
4967.000000	64.887523 
4966.000000	64.780950 
4965.000000	64.630270 
4964.000000	64.466929 
4963.000000	64.323329 
4962.000000	64.225912 
4961.000000	64.191794 
4960.000000	64.226746 
4959.000000	64.327120 
4958.000000	64.482474 
4957.000000	64.678287 
4956.000000	64.898276 
4955.000000	65.125131 
4954.000000	65.340423 
4953.000000	65.522313 
4952.000000	65.647578 
4951.000000	65.692138 
4950.000000	65.637969 
4949.000000	65.479516 
4948.000000	65.228056 
4947.000000	64.914226 
4946.000000	64.582204 
4945.000000	64.283490 
4944.000000	64.063763 
4943.000000	63.953709 
4942.000000	63.961219 
4941.000000	64.070296 
4940.000000	64.246153 
4939.000000	64.443683 
4938.000000	64.620208 
4937.000000	64.744353 
4936.000000	64.804005 
4935.000000	64.804768 
4934.000000	64.768719 
4933.000000	64.724826 
4932.000000	64.700627 
4931.000000	64.713144 
4930.000000	64.765334 
4929.000000	64.845442 
4928.000000	64.932584 
4927.000000	65.002679 
4926.000000	65.035676 
4925.000000	65.020275 
4924.000000	64.954876 
4923.000000	64.847326 
4922.000000	64.710211 
4921.000000	64.559340 
4920.000000	64.407110 
4919.000000	64.265036 
4918.000000	64.142704 
4917.000000	64.050674 
4916.000000	64.001369 
4915.000000	64.007306 
4914.000000	64.079236 
4913.000000	64.220976 
4912.000000	64.427375 
4911.000000	64.680218 
4910.000000	64.948487 
4909.000000	65.193843 
4908.000000	65.376925 
4907.000000	65.467381 
4906.000000	65.450811 
4905.000000	65.332841 
4904.000000	65.138244 
4903.000000	64.905166 
4902.000000	64.676213 
4901.000000	64.489126 
4900.000000	64.368557 
4899.000000	64.322543 
4898.000000	64.342260 
4897.000000	64.407348 
4896.000000	64.491605 
4895.000000	64.570021 
4894.000000	64.624929 
4893.000000	64.646697 
4892.000000	64.636707 
4891.000000	64.602375 
4890.000000	64.556789 
4889.000000	64.512467 
4888.000000	64.480185 
4887.000000	64.466094 
4886.000000	64.471960 
4885.000000	64.496541 
4884.000000	64.536380 
4883.000000	64.588046 
4882.000000	64.648437 
4881.000000	64.714956 
4880.000000	64.786076 
4879.000000	64.860916 
4878.000000	64.937686 
4877.000000	65.012764 
4876.000000	65.081000 
4875.000000	65.136098 
4874.000000	65.171217 
4873.000000	65.180611 
4872.000000	65.160512 
4871.000000	65.110373 
4870.000000	65.034937 
4869.000000	64.943122 
4868.000000	64.846181 
4867.000000	64.755487 
4866.000000	64.681482 
4865.000000	64.630699 
4864.000000	64.605331 
4863.000000	64.602518 
4862.000000	64.615297 
4861.000000	64.634513 
4860.000000	64.651489 
4859.000000	64.659428 
4858.000000	64.654588 
4857.000000	64.636063 
4856.000000	64.604735 
4855.000000	64.562702 
4854.000000	64.511728 
4853.000000	64.453744 
4852.000000	64.390468 
4851.000000	64.324808 
4850.000000	64.261102 
4849.000000	64.205312 
4848.000000	64.164686 
4847.000000	64.146447 
4846.000000	64.156389 
4845.000000	64.197134 
4844.000000	64.267110 
4843.000000	64.360356 
4842.000000	64.467167 
4841.000000	64.575767 
4840.000000	64.674139 
4839.000000	64.752268 
4838.000000	64.803385 
4837.000000	64.824414 
4836.000000	64.816379 
4835.000000	64.783716 
4834.000000	64.733219 
4833.000000	64.672708 
4832.000000	64.609980 
4831.000000	64.552545 
4830.000000	64.506244 
4829.000000	64.475154 
4828.000000	64.461588 
4827.000000	64.465856 
4826.000000	64.487767 
4825.000000	64.526629 
4824.000000	64.582204 
4823.000000	64.654016 
4822.000000	64.741683 
4821.000000	64.844036 
4820.000000	64.958572 
4819.000000	65.080881 
4818.000000	65.204906 
4817.000000	65.322756 
4816.000000	65.426158 
4815.000000	65.507149 
4814.000000	65.559768 
4813.000000	65.580368 
4812.000000	65.569233 
4811.000000	65.529751 
4810.000000	65.468811 
4809.000000	65.394806 
4808.000000	65.317106 
4807.000000	65.243911 
4806.000000	65.182590 
4805.000000	65.137314 
4804.000000	65.109896 
4803.000000	65.098619 
4802.000000	65.099453 
4801.000000	65.106844 
4800.000000	65.114545 
4799.000000	65.117740 
4798.000000	65.113520 
4797.000000	65.101647 
4796.000000	65.083980 
4795.000000	65.063548 
4794.000000	65.043425 
4793.000000	65.025353 
4792.000000	65.009045 
4791.000000	64.992928 
4790.000000	64.974880 
4789.000000	64.953041 
4788.000000	64.926934 
4787.000000	64.898610 
4786.000000	64.871859 
4785.000000	64.850997 
4784.000000	64.839625 
4783.000000	64.839553 
4782.000000	64.849662 
4781.000000	64.865899 
4780.000000	64.882016 
4779.000000	64.891362 
4778.000000	64.888358 
4777.000000	64.870381 
4776.000000	64.838123 
4775.000000	64.794826 
4774.000000	64.745879 
4773.000000	64.697170 
4772.000000	64.653944 
4771.000000	64.619612 
4770.000000	64.595508 
4769.000000	64.581203 
4768.000000	64.575242 
4767.000000	64.575791 
4766.000000	64.581274 
4765.000000	64.590549 
4764.000000	64.602804 
4763.000000	64.617323 
4762.000000	64.632964 
4761.000000	64.647936 
4760.000000	64.659667 
4759.000000	64.665484 
4758.000000	64.663147 
4757.000000	64.651894 
4756.000000	64.632678 
4755.000000	64.608359 
4754.000000	64.583492 
4753.000000	64.563274 
4752.000000	64.552450 
4751.000000	64.554238 
4750.000000	64.569520 
4749.000000	64.596652 
4748.000000	64.631915 
4747.000000	64.669919 
4746.000000	64.705014 
4745.000000	64.732050 
4744.000000	64.747095 
4743.000000	64.748144 
4742.000000	64.735174 
4741.000000	64.709854 
4740.000000	64.675045 
4739.000000	64.634466 
4738.000000	64.591979 
4737.000000	64.551138 
4736.000000	64.514875 
4735.000000	64.485430 
4734.000000	64.464497 
4733.000000	64.453172 
4732.000000	64.452147 
4731.000000	64.461421 
4730.000000	64.480209 
4729.000000	64.506721 
4728.000000	64.538097 
4727.000000	64.570331 
4726.000000	64.598917 
4725.000000	64.619421 
4724.000000	64.628529 
4723.000000	64.624547 
4722.000000	64.608168 
4721.000000	64.582586 
4720.000000	64.552855 
4719.000000	64.524984 
4718.000000	64.504218 
4717.000000	64.493799 
4716.000000	64.494323 
4715.000000	64.503931 
4714.000000	64.519047 
4713.000000	64.535474 
4712.000000	64.549970 
4711.000000	64.561033 
4710.000000	64.568734 
4709.000000	64.574670 
4708.000000	64.580798 
4707.000000	64.588785 
4706.000000	64.599204 
4705.000000	64.611172 
4704.000000	64.623332 
4703.000000	64.633679 
4702.000000	64.640402 
4701.000000	64.642310 
4700.000000	64.639067 
4699.000000	64.631271 
4698.000000	64.620184 
4697.000000	64.607501 
4696.000000	64.594626 
4695.000000	64.583086 
4694.000000	64.574360 
4693.000000	64.570379 
4692.000000	64.572882 
4691.000000	64.583706 
4690.000000	64.604425 
4689.000000	64.635610 
4688.000000	64.676570 
4687.000000	64.724993 
4686.000000	64.777088 
4685.000000	64.828085 
4684.000000	64.873337 
4683.000000	64.908909 
4682.000000	64.932584 
4681.000000	64.944434 
4680.000000	64.946866 
4679.000000	64.944410 
4678.000000	64.942455 
4677.000000	64.946269 
4676.000000	64.958858 
4675.000000	64.980697 
4674.000000	65.008640 
4673.000000	65.037131 
4672.000000	65.059351 
4671.000000	65.069103 
4670.000000	65.062260 
4669.000000	65.037965 
4668.000000	64.998888 
4667.000000	64.950704 
4666.000000	64.900541 
4665.000000	64.855146 
4664.000000	64.820027 
4663.000000	64.798140 
4662.000000	64.790248 
4661.000000	64.795088 
4660.000000	64.810228 
4659.000000	64.833045 
4658.000000	64.861083 
4657.000000	64.892458 
4656.000000	64.925384 
4655.000000	64.958333 
4654.000000	64.988970 
4653.000000	65.014910 
4652.000000	65.034103 
4651.000000	65.045404 
4650.000000	65.049409 
4649.000000	65.047597 
4648.000000	65.043234 
4647.000000	65.039014 
4646.000000	65.037298 
4645.000000	65.038108 
4644.000000	65.039801 
4643.000000	65.038609 
4642.000000	65.029740 
4641.000000	65.008997 
4640.000000	64.974069 
4639.000000	64.925789 
4638.000000	64.868378 
4637.000000	64.809203 
4636.000000	64.757299 
4635.000000	64.721393 
4634.000000	64.707803 
4633.000000	64.718937 
4632.000000	64.752459 
4631.000000	64.801549 
4630.000000	64.856600 
4629.000000	64.907336 
4628.000000	64.945316 
4627.000000	64.965629 
4626.000000	64.967846 
4625.000000	64.955687 
4624.000000	64.935398 
4623.000000	64.913988 
4622.000000	64.896678 
4621.000000	64.885830 
4620.000000	64.879894 
4619.000000	64.874505 
4618.000000	64.863848 
4617.000000	64.842987 
4616.000000	64.809465 
4615.000000	64.764857 
4614.000000	64.714503 
4613.000000	64.666342 
4612.000000	64.628720 
4611.000000	64.608120 
4610.000000	64.607143 
4609.000000	64.623260 
4608.000000	64.649343 
4607.000000	64.675378 
4606.000000	64.691448 
4605.000000	64.690208 
4604.000000	64.669036 
4603.000000	64.630937 
4602.000000	64.583635 
4601.000000	64.537763 
4600.000000	64.503788 
4599.000000	64.489364 
4598.000000	64.497637 
4597.000000	64.526176 
4596.000000	64.568066 
4595.000000	64.613461 
4594.000000	64.652276 
4593.000000	64.676928 
4592.000000	64.683294 
4591.000000	64.672112 
4590.000000	64.647936 
4589.000000	64.618206 
4588.000000	64.590835 
4587.000000	64.572501 
4586.000000	64.567470 
4585.000000	64.576196 
4584.000000	64.596343 
4583.000000	64.622259 
4582.000000	64.646744 
4581.000000	64.662218 
4580.000000	64.662909 
4579.000000	64.645385 
4578.000000	64.609622 
4577.000000	64.558959 
4576.000000	64.499378 
4575.000000	64.438605 
4574.000000	64.384579 
4573.000000	64.343857 
4572.000000	64.320206 
4571.000000	64.314436 
4570.000000	64.323997 
4569.000000	64.344072 
4568.000000	64.368200 
4567.000000	64.389514 
4566.000000	64.401888 
4565.000000	64.400815 
4564.000000	64.384222 
4563.000000	64.351797 
4562.000000	64.306020 
4561.000000	64.250969 
4560.000000	64.192795 
4559.000000	64.138221 
4558.000000	64.094448 
4557.000000	64.068126 
4556.000000	64.063858 
4555.000000	64.083456 
4554.000000	64.124894 
4553.000000	64.182567 
4552.000000	64.247870 
4551.000000	64.310812 
4550.000000	64.361405 
4549.000000	64.391660 
4548.000000	64.397573 
4547.000000	64.379525 
4546.000000	64.342093 
4545.000000	64.292716 
4544.000000	64.239573 
4543.000000	64.190125 
4542.000000	64.149689 
4541.000000	64.121460 
4540.000000	64.106941 
4539.000000	64.106869 
4538.000000	64.122200 
4537.000000	64.154314 
4536.000000	64.204835 
4535.000000	64.274859 
4534.000000	64.363598 
4533.000000	64.467406 
4532.000000	64.579367 
4531.000000	64.689826 
4530.000000	64.788436 
4529.000000	64.864945 
4528.000000	64.911317 
4527.000000	64.923071 
4526.000000	64.900612 
4525.000000	64.847636 
4524.000000	64.770650 
4523.000000	64.677453 
4522.000000	64.575862 
4521.000000	64.473843 
4520.000000	64.378213 
4519.000000	64.294481 
4518.000000	64.225959 
4517.000000	64.173960 
4516.000000	64.137601 
4515.000000	64.112997 
4514.000000	64.095425 
4513.000000	64.079809 
4512.000000	64.063453 
4511.000000	64.045429 
4510.000000	64.028620 
4509.000000	64.017438 
4508.000000	64.018249 
4507.000000	64.035749 
4506.000000	64.073634 
4505.000000	64.132714 
4504.000000	64.211034 
4503.000000	64.303684 
4502.000000	64.403963 
4501.000000	64.504718 
4500.000000	64.598584 
4499.000000	64.679265 
4498.000000	64.740872 
4497.000000	64.778447 
4496.000000	64.787721 
4495.000000	64.765524 
4494.000000	64.710187 
4493.000000	64.622092 
4492.000000	64.505577 
4491.000000	64.368486 
4490.000000	64.220476 
4489.000000	64.072418 
4488.000000	63.935923 
4487.000000	63.821363 
4486.000000	63.736414 
4485.000000	63.685035 
4484.000000	63.668775 
4483.000000	63.684153 
4482.000000	63.722014 
4481.000000	63.769674 
4480.000000	63.811230 
4479.000000	63.833832 
4478.000000	63.828206 
4477.000000	63.794755 
4476.000000	63.747215 
4475.000000	63.699865 
4474.000000	63.657093 
4473.000000	63.626456 
4472.000000	63.619494 
4471.000000	63.640189 
4470.000000	63.685131 
4469.000000	63.746023 
4468.000000	63.812065 
4467.000000	63.879156 
4466.000000	63.949751 
4465.000000	64.027047 
4464.000000	64.114451 
4463.000000	64.210057 
4462.000000	64.311861 
4461.000000	64.409494 
4460.000000	64.496850 
4459.000000	64.593410 
4458.000000	64.721012 
4457.000000	64.906692 
4456.000000	65.155577 
4455.000000	65.424251 
4454.000000	65.658807 
4453.000000	65.765285 
4452.000000	65.722155 
4451.000000	65.585279 
4450.000000	65.532016 
4449.000000	65.827083 
4448.000000	66.757273 
4447.000000	68.548941 
4446.000000	71.266508 
4445.000000	74.765181 
4444.000000	78.682041 
4443.000000	82.499504 
4442.000000	85.654211 
4441.000000	87.663197 
4440.000000	88.244414 
4439.000000	87.370395 
4438.000000	85.281062 
4437.000000	82.399320 
4436.000000	79.214787 
4435.000000	76.162791 
4434.000000	73.536634 
4433.000000	71.447968 
4432.000000	69.881319 
4431.000000	68.713998 
4430.000000	67.839837 
4429.000000	67.164540 
4428.000000	66.638731 
4427.000000	66.252160 
4426.000000	65.966987 
4425.000000	65.765404 
4424.000000	65.605735 
4423.000000	65.462756 
4422.000000	65.318655 
4421.000000	65.174150 
4420.000000	65.044045 
4419.000000	64.942908 
4418.000000	64.871931 
4417.000000	64.826869 
4416.000000	64.796423 
4415.000000	64.765930 
4414.000000	64.721035 
4413.000000	64.655160 
4412.000000	64.571356 
4411.000000	64.471602 
4410.000000	64.359998 
4409.000000	64.249920 
4408.000000	64.157199 
4407.000000	64.095640 
4406.000000	64.073085 
4405.000000	64.080810 
4404.000000	64.102506 
4403.000000	64.129114 
4402.000000	64.153146 
4401.000000	64.163136 
4400.000000	64.153361 
4399.000000	64.128232 
4398.000000	64.095735 
4397.000000	64.061808 
4396.000000	64.032125 
4395.000000	64.010381 
4394.000000	63.997125 
4393.000000	63.989806 
4392.000000	63.985538 
4391.000000	63.983082 
4390.000000	63.981890 
4389.000000	63.982319 
4388.000000	63.984751 
4387.000000	63.989138 
4386.000000	63.993883 
4385.000000	63.996434 
4384.000000	63.993883 
4383.000000	63.984537 
4382.000000	63.968396 
4381.000000	63.948321 
4380.000000	63.929319 
4379.000000	63.918852 
4378.000000	63.924217 
4377.000000	63.952064 
4376.000000	64.006280 
4375.000000	64.087247 
4374.000000	64.191246 
4373.000000	64.311075 
4372.000000	64.437127 
4371.000000	64.558911 
4370.000000	64.666962 
4369.000000	64.753985 
4368.000000	64.816021 
4367.000000	64.852452 
4366.000000	64.865612 
4365.000000	64.860200 
4364.000000	64.842319 
4363.000000	64.817714 
4362.000000	64.790987 
4361.000000	64.764952 
4360.000000	64.740824 
4359.000000	64.718127 
4358.000000	64.695572 
4357.000000	64.671969 
4356.000000	64.646816 
4355.000000	64.620947 
4354.000000	64.596343 
4353.000000	64.575648 
4352.000000	64.561057 
4351.000000	64.553308 
4350.000000	64.551496 
4349.000000	64.552259 
4348.000000	64.551401 
4347.000000	64.545130 
4346.000000	64.531445 
4345.000000	64.510631 
4344.000000	64.485788 
4343.000000	64.462351 
4342.000000	64.446473 
4341.000000	64.442849 
4340.000000	64.454603 
4339.000000	64.482235 
4338.000000	64.523363 
4337.000000	64.573001 
4336.000000	64.625072 
4335.000000	64.673709 
4334.000000	64.714121 
4333.000000	64.743518 
4332.000000	64.761281 
4331.000000	64.768958 
4330.000000	64.769816 
4329.000000	64.767622 
4328.000000	64.765977 
4327.000000	64.766979 
4326.000000	64.771533 
4325.000000	64.778494 
4324.000000	64.785599 
4323.000000	64.789628 
4322.000000	64.787721 
4321.000000	64.777851 
4320.000000	64.759540 
4319.000000	64.734053 
4318.000000	64.704346 
4317.000000	64.674305 
4316.000000	64.647507 
4315.000000	64.626479 
4314.000000	64.612054 
4313.000000	64.603137 
4312.000000	64.597129 
4311.000000	64.590716 
4310.000000	64.580941 
4309.000000	64.566087 
4308.000000	64.546489 
4307.000000	64.524483 
4306.000000	64.503765 
4305.000000	64.488911 
4304.000000	64.484071 
4303.000000	64.491581 
4302.000000	64.511060 
4301.000000	64.539527 
4300.000000	64.571738 
4299.000000	64.601206 
4298.000000	64.621901 
4297.000000	64.629435 
4296.000000	64.622759 
4295.000000	64.604115 
4294.000000	64.578890 
4293.000000	64.554095 
4292.000000	64.536833 
4291.000000	64.532637 
4290.000000	64.544105 
4289.000000	64.570140 
4288.000000	64.606189 
4287.000000	64.645886 
4286.000000	64.681911 
4285.000000	64.707827 
4284.000000	64.719605 
4283.000000	64.716482 
4282.000000	64.700436 
4281.000000	64.675235 
4280.000000	64.645600 
4279.000000	64.615631 
4278.000000	64.588189 
4277.000000	64.564085 
4276.000000	64.542651 
4275.000000	64.522337 
4274.000000	64.501380 
4273.000000	64.479041 
4272.000000	64.455699 
4271.000000	64.433360 
4270.000000	64.415192 
4269.000000	64.404892 
4268.000000	64.405155 
4267.000000	64.417362 
4266.000000	64.440917 
4265.000000	64.473485 
4264.000000	64.511275 
4263.000000	64.550518 
4262.000000	64.588379 
4261.000000	64.624023 
4260.000000	64.658427 
4259.000000	64.694118 
4258.000000	64.733767 
4257.000000	64.779233 
4256.000000	64.830064 
4255.000000	64.883613 
4254.000000	64.935183 
4253.000000	64.978981 
4252.000000	65.009689 
4251.000000	65.023779 
4250.000000	65.020608 
4249.000000	65.002560 
4248.000000	64.974141 
4247.000000	64.940834 
4246.000000	64.907312 
4245.000000	64.876747 
4244.000000	64.850211 
4243.000000	64.827060 
4242.000000	64.805459 
4241.000000	64.784193 
4240.000000	64.762759 
4239.000000	64.741897 
4238.000000	64.723324 
4237.000000	64.709067 
4236.000000	64.700865 
4235.000000	64.699101 
4234.000000	64.702773 
4233.000000	64.709424 
4232.000000	64.715790 
4231.000000	64.718484 
4230.000000	64.714694 
4229.000000	64.702725 
4228.000000	64.682292 
4227.000000	64.654493 
4226.000000	64.621496 
4225.000000	64.585924 
4224.000000	64.550590 
4223.000000	64.518165 
4222.000000	64.490938 
4221.000000	64.470720 
4220.000000	64.458847 
4219.000000	64.456200 
4218.000000	64.462947 
4217.000000	64.478945 
4216.000000	64.503359 
4215.000000	64.535093 
4214.000000	64.572715 
4213.000000	64.614605 
4212.000000	64.658379 
4211.000000	64.701771 
4210.000000	64.742398 
4209.000000	64.778327 
4208.000000	64.808201 
4207.000000	64.831519 
4206.000000	64.848947 
4205.000000	64.861702 
4204.000000	64.871025 
4203.000000	64.878273 
4202.000000	64.884591 
4201.000000	64.891028 
4200.000000	64.898324 
4199.000000	64.907002 
4198.000000	64.917421 
4197.000000	64.929795 
4196.000000	64.944124 
4195.000000	64.959907 
4194.000000	64.976167 
4193.000000	64.991569 
4192.000000	65.004777 
4191.000000	65.014743 
4190.000000	65.021228 
4189.000000	65.025091 
4188.000000	65.028142 
4187.000000	65.032625 
4186.000000	65.040659 
4185.000000	65.053224 
4184.000000	65.070366 
4183.000000	65.090608 
4182.000000	65.112495 
4181.000000	65.135121 
4180.000000	65.158724 
4179.000000	65.184903 
4178.000000	65.215563 
4177.000000	65.252351 
4176.000000	65.294408 
4175.000000	65.338253 
4174.000000	65.377569 
4173.000000	65.404391 
4172.000000	65.410876 
4171.000000	65.391349 
4170.000000	65.344047 
4169.000000	65.272188 
4168.000000	65.183424 
4167.000000	65.088462 
4166.000000	64.998793 
4165.000000	64.924240 
4164.000000	64.871120 
4163.000000	64.841413 
4162.000000	64.833140 
4161.000000	64.841437 
4160.000000	64.860105 
4159.000000	64.883494 
4158.000000	64.907312 
4157.000000	64.929485 
4156.000000	64.948940 
4155.000000	64.966201 
4154.000000	64.981722 
4153.000000	64.995932 
4152.000000	65.008425 
4151.000000	65.018296 
4150.000000	65.024423 
4149.000000	65.025758 
4148.000000	65.021800 
4147.000000	65.012264 
4146.000000	64.997386 
4145.000000	64.977717 
4144.000000	64.954400 
4143.000000	64.929246 
4142.000000	64.904713 
4141.000000	64.884018 
4140.000000	64.870357 
4139.000000	64.866685 
4138.000000	64.874696 
4137.000000	64.894461 
4136.000000	64.924073 
4135.000000	64.959812 
4134.000000	64.996933 
4133.000000	65.030670 
4132.000000	65.056991 
4131.000000	65.073156 
4130.000000	65.078115 
4129.000000	65.072202 
4128.000000	65.057301 
4127.000000	65.036034 
4126.000000	65.011644 
4125.000000	64.987301 
4124.000000	64.966106 
4123.000000	64.950895 
4122.000000	64.944052 
4121.000000	64.947247 
4120.000000	64.960980 
4119.000000	64.984464 
4118.000000	65.015292 
4117.000000	65.049481 
4116.000000	65.082168 
4115.000000	65.108442 
4114.000000	65.124464 
4113.000000	65.128231 
4112.000000	65.120172 
4111.000000	65.102887 
4110.000000	65.080738 
4109.000000	65.058517 
4108.000000	65.040254 
4107.000000	65.027904 
4106.000000	65.021347 
4105.000000	65.018343 
4104.000000	65.015769 
4103.000000	65.010404 
4102.000000	65.000081 
4101.000000	64.984750 
4100.000000	64.966654 
4099.000000	64.949417 
4098.000000	64.936757 
4097.000000	64.931368 
4096.000000	64.933776 
4095.000000	64.942240 
4094.000000	64.952850 
4093.000000	64.960885 
4092.000000	64.962053 
4091.000000	64.953923 
4090.000000	64.936733 
4089.000000	64.913249 
4088.000000	64.888310 
4087.000000	64.867186 
4086.000000	64.854693 
4085.000000	64.854216 
4084.000000	64.866995 
4083.000000	64.892482 
4082.000000	64.928078 
4081.000000	64.970493 
4080.000000	65.015578 
4079.000000	65.059328 
4078.000000	65.097570 
4077.000000	65.126442 
4076.000000	65.142321 
4075.000000	65.142345 
4074.000000	65.124893 
4073.000000	65.090203 
4072.000000	65.040874 
4071.000000	64.982032 
4070.000000	64.920592 
4069.000000	64.864492 
4068.000000	64.821100 
4067.000000	64.796066 
4066.000000	64.791965 
4065.000000	64.807987 
4064.000000	64.839887 
4063.000000	64.881181 
4062.000000	64.924311 
4061.000000	64.962077 
4060.000000	64.988970 
4059.000000	65.002202 
4058.000000	65.001511 
4057.000000	64.988923 
4056.000000	64.968228 
4055.000000	64.943289 
4054.000000	64.917588 
4053.000000	64.893031 
4052.000000	64.870190 
4051.000000	64.848303 
4050.000000	64.826130 
4049.000000	64.802527 
4048.000000	64.776992 
4047.000000	64.750313 
4046.000000	64.724540 
4045.000000	64.702630 
4044.000000	64.687395 
4043.000000	64.680910 
4042.000000	64.683747 
4041.000000	64.694619 
4040.000000	64.710593 
4039.000000	64.727830 
4038.000000	64.742660 
4037.000000	64.752745 
4036.000000	64.757609 
4035.000000	64.759159 
4034.000000	64.761209 
4033.000000	64.768457 
4032.000000	64.785051 
4031.000000	64.813280 
4030.000000	64.852690 
4029.000000	64.899635 
4028.000000	64.948201 
4027.000000	64.991474 
4026.000000	65.023040 
4025.000000	65.038704 
4024.000000	65.037441 
4023.000000	65.021228 
4022.000000	64.994931 
4021.000000	64.965009 
4020.000000	64.937925 
4019.000000	64.918613 
4018.000000	64.909553 
4017.000000	64.910674 
4016.000000	64.919185 
4015.000000	64.930772 
4014.000000	64.940524 
4013.000000	64.944314 
4012.000000	64.939451 
4011.000000	64.925336 
4010.000000	64.903283 
4009.000000	64.876174 
4008.000000	64.848136 
4007.000000	64.823484 
4006.000000	64.806175 
4005.000000	64.798688 
4004.000000	64.801740 
4003.000000	64.814090 
4002.000000	64.832901 
4001.000000	64.854550 
4000.000000	64.875411 
3999.000000	64.892864 
3998.000000	64.905476 
3997.000000	64.913535 
3996.000000	64.918518 
3995.000000	64.922738 
3994.000000	64.928030 
3993.000000	64.935731 
3992.000000	64.946126 
3991.000000	64.958286 
3990.000000	64.970731 
3989.000000	64.981651 
3988.000000	64.989542 
3987.000000	64.993238 
3986.000000	64.992260 
3985.000000	64.986443 
3984.000000	64.975905 
3983.000000	64.960908 
3982.000000	64.942026 
3981.000000	64.920997 
3980.000000	64.900922 
3979.000000	64.885878 
3978.000000	64.880490 
3977.000000	64.888954 
3976.000000	64.913606 
3975.000000	64.954090 
3974.000000	65.006899 
3973.000000	65.065526 
3972.000000	65.121960 
3971.000000	65.168094 
3970.000000	65.197610 
3969.000000	65.207362 
3968.000000	65.197658 
3967.000000	65.172481 
3966.000000	65.137577 
3965.000000	65.099406 
3964.000000	65.063071 
3963.000000	65.031933 
3962.000000	65.006923 
3961.000000	64.987015 
3960.000000	64.969944 
3959.000000	64.953565 
3958.000000	64.935946 
3957.000000	64.916110 
3956.000000	64.893388 
3955.000000	64.867353 
3954.000000	64.837598 
3953.000000	64.803671 
3952.000000	64.765334 
3951.000000	64.722990 
3950.000000	64.678096 
3949.000000	64.633417 
3948.000000	64.592647 
3947.000000	64.559888 
3946.000000	64.538526 
3945.000000	64.531207 
3944.000000	64.538097 
3943.000000	64.558100 
3942.000000	64.588475 
3941.000000	64.626169 
3940.000000	64.668273 
3939.000000	64.712667 
3938.000000	64.758062 
3937.000000	64.803624 
3936.000000	64.848399 
3935.000000	64.890575 
3934.000000	64.927172 
3933.000000	64.954495 
3932.000000	64.969086 
3931.000000	64.968085 
3930.000000	64.950370 
3929.000000	64.917469 
3928.000000	64.873623 
3927.000000	64.824843 
3926.000000	64.777636 
3925.000000	64.737701 
3924.000000	64.708948 
3923.000000	64.692425 
3922.000000	64.686727 
3921.000000	64.688563 
3920.000000	64.694046 
3919.000000	64.700007 
3918.000000	64.705085 
3917.000000	64.709496 
3916.000000	64.715337 
3915.000000	64.724946 
3914.000000	64.740419 
3913.000000	64.762067 
3912.000000	64.788460 
3911.000000	64.816141 
3910.000000	64.841008 
3909.000000	64.859080 
3908.000000	64.868450 
3907.000000	64.869880 
3906.000000	64.866971 
3905.000000	64.865040 
3904.000000	64.869880 
3903.000000	64.886140 
3902.000000	64.915490 
3901.000000	64.955878 
3900.000000	65.001678 
3899.000000	65.044784 
3898.000000	65.076494 
3897.000000	65.089440 
3896.000000	65.079140 
3895.000000	65.044951 
3894.000000	64.990329 
3893.000000	64.922237 
3892.000000	64.849400 
3891.000000	64.780855 
3890.000000	64.724516 
3889.000000	64.685726 
3888.000000	64.666843 
3887.000000	64.666891 
3886.000000	64.682602 
3885.000000	64.708781 
3884.000000	64.739441 
3883.000000	64.768528 
3882.000000	64.790892 
3881.000000	64.802765 
3880.000000	64.802098 
3879.000000	64.788675 
3878.000000	64.763832 
3877.000000	64.730429 
3876.000000	64.692401 
3875.000000	64.654278 
3874.000000	64.620399 
3873.000000	64.594411 
3872.000000	64.578795 
3871.000000	64.574432 
3870.000000	64.580726 
3869.000000	64.595580 
3868.000000	64.616394 
3867.000000	64.639997 
3866.000000	64.663863 
3865.000000	64.686465 
3864.000000	64.707803 
3863.000000	64.728617 
3862.000000	64.750528 
3861.000000	64.775085 
3860.000000	64.803457 
3859.000000	64.836001 
3858.000000	64.871644 
3857.000000	64.908099 
3856.000000	64.942073 
3855.000000	64.970350 
3854.000000	64.989852 
3853.000000	64.998626 
3852.000000	64.995861 
3851.000000	64.982295 
3850.000000	64.960122 
3849.000000	64.932584 
3848.000000	64.903569 
3847.000000	64.877128 
3846.000000	64.856934 
3845.000000	64.845585 
3844.000000	64.844751 
3843.000000	64.854478 
3842.000000	64.873147 
3841.000000	64.897727 
3840.000000	64.924025 
3839.000000	64.947462 
3838.000000	64.963722 
3837.000000	64.969801 
3836.000000	64.963912 
3835.000000	64.946365 
3834.000000	64.919257 
3833.000000	64.886450 
3832.000000	64.852261 
3831.000000	64.821267 
3830.000000	64.797616 
3829.000000	64.784264 
3828.000000	64.782714 
3827.000000	64.792776 
3826.000000	64.812850 
3825.000000	64.840149 
3824.000000	64.871263 
3823.000000	64.902758 
3822.000000	64.931893 
3821.000000	64.956712 
3820.000000	64.976429 
3819.000000	64.991331 
3818.000000	65.002536 
3817.000000	65.011644 
3816.000000	65.020012 
3815.000000	65.028452 
3814.000000	65.036559 
3813.000000	65.043234 
3812.000000	65.046644 
3811.000000	65.044760 
3810.000000	65.035939 
3809.000000	65.019655 
3808.000000	64.996647 
3807.000000	64.968729 
3806.000000	64.938974 
3805.000000	64.910793 
3804.000000	64.887785 
3803.000000	64.872789 
3802.000000	64.867687 
3801.000000	64.872932 
3800.000000	64.887595 
3799.000000	64.909410 
3798.000000	64.935231 
3797.000000	64.961433 
3796.000000	64.984893 
3795.000000	65.003299 
3794.000000	65.015482 
3793.000000	65.021610 
3792.000000	65.023303 
3791.000000	65.023159 
3790.000000	65.023946 
3789.000000	65.027976 
3788.000000	65.036821 
3787.000000	65.050935 
3786.000000	65.069508 
3785.000000	65.090847 
3784.000000	65.113043 
3783.000000	65.134429 
3782.000000	65.153980 
3781.000000	65.171360 
3780.000000	65.186786 
3779.000000	65.200591 
3778.000000	65.213012 
3777.000000	65.223670 
3776.000000	65.231680 
3775.000000	65.235662 
3774.000000	65.234446 
3773.000000	65.226888 
3772.000000	65.212559 
3771.000000	65.191507 
3770.000000	65.164732 
3769.000000	65.133571 
3768.000000	65.099549 
3767.000000	65.064239 
3766.000000	65.029025 
3765.000000	64.994907 
3764.000000	64.962720 
3763.000000	64.933109 
3762.000000	64.906597 
3761.000000	64.883804 
3760.000000	64.865469 
3759.000000	64.851951 
3758.000000	64.843535 
3757.000000	64.839935 
3756.000000	64.840698 
3755.000000	64.844799 
3754.000000	64.851260 
3753.000000	64.859199 
3752.000000	64.868116 
3751.000000	64.877724 
3750.000000	64.888119 
3749.000000	64.899349 
3748.000000	64.911484 
3747.000000	64.924073 
3746.000000	64.936566 
3745.000000	64.948081 
3744.000000	64.957976 
3743.000000	64.966034 
3742.000000	64.972782 
3741.000000	64.979410 
3740.000000	64.987659 
3739.000000	64.999318 
3738.000000	65.015482 
3737.000000	65.035915 
3736.000000	65.059161 
3735.000000	65.082550 
3734.000000	65.102553 
3733.000000	65.115618 
3732.000000	65.119218 
3731.000000	65.112423 
3730.000000	65.096116 
3729.000000	65.072941 
3728.000000	65.046834 
3727.000000	65.022253 
3726.000000	65.003085 
3725.000000	64.991998 
3724.000000	64.990282 
3723.000000	64.997220 
3722.000000	65.010762 
3721.000000	65.027928 
3720.000000	65.045452 
3719.000000	65.060544 
3718.000000	65.071296 
3717.000000	65.076828 
3716.000000	65.077280 
3715.000000	65.073800 
3714.000000	65.068221 
3713.000000	65.062451 
3712.000000	65.058016 
3711.000000	65.055847 
3710.000000	65.056157 
3709.000000	65.058255 
3708.000000	65.061068 
3707.000000	65.063285 
3706.000000	65.064167 
3705.000000	65.063190 
3704.000000	65.060782 
3703.000000	65.057587 
3702.000000	65.054750 
3701.000000	65.053033 
3700.000000	65.053153 
3699.000000	65.055370 
3698.000000	65.059566 
3697.000000	65.065479 
3696.000000	65.072798 
3695.000000	65.081262 
3694.000000	65.090656 
3693.000000	65.100789 
3692.000000	65.111231 
3691.000000	65.121173 
3690.000000	65.129446 
3689.000000	65.134596 
3688.000000	65.135288 
3687.000000	65.130639 
3686.000000	65.120458 
3685.000000	65.105342 
3684.000000	65.086388 
3683.000000	65.065121 
3682.000000	65.043091 
3681.000000	65.021610 
3680.000000	65.001630 
3679.000000	64.983963 
3678.000000	64.969348 
3677.000000	64.958643 
3676.000000	64.952683 
3675.000000	64.952158 
3674.000000	64.957427 
3673.000000	64.968252 
3672.000000	64.983534 
3671.000000	65.001463 
3670.000000	65.019631 
3669.000000	65.035653 
3668.000000	65.047574 
3667.000000	65.054464 
3666.000000	65.056371 
3665.000000	65.054416 
3664.000000	65.050458 
3663.000000	65.046334 
3662.000000	65.043497 
3661.000000	65.042328 
3660.000000	65.042519 
3659.000000	65.042829 
3658.000000	65.041875 
3657.000000	65.038633 
3656.000000	65.033006 
3655.000000	65.025949 
3654.000000	65.019512 
3653.000000	65.016365 
3652.000000	65.019154 
3651.000000	65.030002 
3650.000000	65.049695 
3649.000000	65.077686 
3648.000000	65.111732 
3647.000000	65.148782 
3646.000000	65.184903 
3645.000000	65.216445 
3644.000000	65.240001 
3643.000000	65.253353 
3642.000000	65.255498 
3641.000000	65.246582 
3640.000000	65.227794 
3639.000000	65.201282 
3638.000000	65.169596 
3637.000000	65.135717 
3636.000000	65.102338 
3635.000000	65.071702 
3634.000000	65.045261 
3633.000000	65.023565 
3632.000000	65.006232 
3631.000000	64.992165 
3630.000000	64.979958 
3629.000000	64.968323 
3628.000000	64.956498 
3627.000000	64.944314 
3626.000000	64.932179 
3625.000000	64.920878 
3624.000000	64.911127 
3623.000000	64.903640 
3622.000000	64.898347 
3621.000000	64.894962 
3620.000000	64.892768 
3619.000000	64.891028 
3618.000000	64.889430 
3617.000000	64.887905 
3616.000000	64.886808 
3615.000000	64.886808 
3614.000000	64.888453 
3613.000000	64.892077 
3612.000000	64.897489 
3611.000000	64.904189 
3610.000000	64.911508 
3609.000000	64.918780 
3608.000000	64.925551 
3607.000000	64.931488 
3606.000000	64.936399 
3605.000000	64.940047 
3604.000000	64.942383 
3603.000000	64.943289 
3602.000000	64.942836 
3601.000000	64.941740 
3600.000000	64.941024 
3599.000000	64.942312 
3598.000000	64.947152 
3597.000000	64.957118 
3596.000000	64.972734 
3595.000000	64.993238 
3594.000000	65.016531 
3593.000000	65.039253 
3592.000000	65.057921 
3591.000000	65.069508 
3590.000000	65.072369 
3589.000000	65.066552 
3588.000000	65.053701 
3587.000000	65.036654 
3586.000000	65.018343 
3585.000000	65.001082 
3584.000000	64.986085 
3583.000000	64.973402 
3582.000000	64.962100 
3581.000000	64.950919 
3580.000000	64.938807 
3579.000000	64.925408 
3578.000000	64.911389 
3577.000000	64.898276 
3576.000000	64.887928 
3575.000000	64.882206 
3574.000000	64.882445 
3573.000000	64.889192 
3572.000000	64.902281 
3571.000000	64.920568 
3570.000000	64.942550 
3569.000000	64.966082 
3568.000000	64.988732 
3567.000000	65.007805 
3566.000000	65.020704 
3565.000000	65.025234 
3564.000000	65.020084 
3563.000000	65.004873 
3562.000000	64.980697 
3561.000000	64.949464 
3560.000000	64.913749 
3559.000000	64.875960 
3558.000000	64.838290 
3557.000000	64.802241 
3556.000000	64.768862 
3555.000000	64.739060 
3554.000000	64.713716 
3553.000000	64.694333 
3552.000000	64.682888 
3551.000000	64.681434 
3550.000000	64.691638 
3549.000000	64.713954 
3548.000000	64.747381 
3547.000000	64.788866 
3546.000000	64.834094 
3545.000000	64.877963 
3544.000000	64.915919 
3543.000000	64.944624 
3542.000000	64.962816 
3541.000000	64.971351 
3540.000000	64.972782 
3539.000000	64.970564 
3538.000000	64.968276 
3537.000000	64.968872 
3536.000000	64.973950 
3535.000000	64.983868 
3534.000000	64.997410 
3533.000000	65.012669 
3532.000000	65.026807 
3531.000000	65.037488 
3530.000000	65.042233 
3529.000000	65.039300 
3528.000000	65.027761 
3527.000000	65.007805 
3526.000000	64.980745 
3525.000000	64.948725 
3524.000000	64.914989 
3523.000000	64.883184 
3522.000000	64.857006 
3521.000000	64.839339 
3520.000000	64.831852 
3519.000000	64.834570 
3518.000000	64.845848 
3517.000000	64.862799 
3516.000000	64.881682 
3515.000000	64.898943 
3514.000000	64.911842 
3513.000000	64.919090 
3512.000000	64.920592 
3511.000000	64.917635 
3510.000000	64.912438 
3509.000000	64.907598 
3508.000000	64.905381 
3507.000000	64.907455 
3506.000000	64.914822 
3505.000000	64.927601 
3504.000000	64.945387 
3503.000000	64.967179 
3502.000000	64.991354 
3501.000000	65.015935 
3500.000000	65.038728 
3499.000000	65.057373 
3498.000000	65.069746 
3497.000000	65.074467 
3496.000000	65.071105 
3495.000000	65.060496 
3494.000000	65.044689 
3493.000000	65.026807 
3492.000000	65.010333 
3491.000000	64.998412 
3490.000000	64.992856 
3489.000000	64.994096 
3488.000000	65.000772 
3487.000000	65.009951 
3486.000000	65.018010 
3485.000000	65.021514 
3484.000000	65.018129 
3483.000000	65.007090 
3482.000000	64.989829 
3481.000000	64.969110 
3480.000000	64.948964 
3479.000000	64.933395 
3478.000000	64.925765 
3477.000000	64.927864 
3476.000000	64.939522 
3475.000000	64.958643 
3474.000000	64.981722 
3473.000000	65.004658 
3472.000000	65.023446 
3471.000000	65.035104 
3470.000000	65.038061 
3469.000000	65.032291 
3468.000000	65.019154 
3467.000000	65.001034 
3466.000000	64.980673 
3465.000000	64.960718 
3464.000000	64.943361 
3463.000000	64.930081 
3462.000000	64.921712 
3461.000000	64.918446 
3460.000000	64.920115 
3459.000000	64.926266 
3458.000000	64.936208 
3457.000000	64.949083 
3456.000000	64.963626 
3455.000000	64.978408 
3454.000000	64.991784 
3453.000000	65.002393 
3452.000000	65.009188 
3451.000000	65.011811 
3450.000000	65.010690 
3449.000000	65.006709 
3448.000000	65.001177 
3447.000000	64.995312 
3446.000000	64.990043 
3445.000000	64.986014 
3444.000000	64.983463 
3443.000000	64.982271 
3442.000000	64.982175 
3441.000000	64.982700 
3440.000000	64.983177 
3439.000000	64.982771 
3438.000000	64.980435 
3437.000000	64.974880 
3436.000000	64.965009 
3435.000000	64.949965 
3434.000000	64.930057 
3433.000000	64.906740 
3432.000000	64.882826 
3431.000000	64.861989 
3430.000000	64.848160 
3429.000000	64.844703 
3428.000000	64.853382 
3427.000000	64.873576 
3426.000000	64.902496 
3425.000000	64.935493 
3424.000000	64.966988 
3423.000000	64.991593 
3422.000000	65.005207 
3421.000000	65.005874 
3420.000000	64.994049 
3419.000000	64.972281 
3418.000000	64.944529 
3417.000000	64.915394 
3416.000000	64.889264 
3415.000000	64.869689 
3414.000000	64.858913 
3413.000000	64.857745 
3412.000000	64.865946 
3411.000000	64.882135 
3410.000000	64.904332 
3409.000000	64.929723 
3408.000000	64.955115 
3407.000000	64.977121 
3406.000000	64.992547 
3405.000000	64.998722 
3404.000000	64.994001 
3403.000000	64.977955 
3402.000000	64.951682 
3401.000000	64.917159 
3400.000000	64.877414 
3399.000000	64.835596 
3398.000000	64.794659 
3397.000000	64.757013 
3396.000000	64.724111 
3395.000000	64.696884 
3394.000000	64.675831 
3393.000000	64.661455 
3392.000000	64.654207 
3391.000000	64.655160 
3390.000000	64.665460 
3389.000000	64.686036 
3388.000000	64.716935 
3387.000000	64.757108 
3386.000000	64.804339 
3385.000000	64.855265 
3384.000000	64.905858 
3383.000000	64.952039 
3382.000000	64.990234 
3381.000000	65.018224 
3380.000000	65.034794 
3379.000000	65.040349 
3378.000000	65.035748 
3377.000000	65.022730 
3376.000000	65.002965 
3375.000000	64.977955 
3374.000000	64.949011 
3373.000000	64.917778 
3372.000000	64.886045 
3371.000000	64.856362 
3370.000000	64.831447 
3369.000000	64.814138 
3368.000000	64.806294 
3367.000000	64.808249 
3366.000000	64.818310 
3365.000000	64.833092 
3364.000000	64.848065 
3363.000000	64.858555 
3362.000000	64.860939 
3361.000000	64.853572 
3360.000000	64.837074 
3359.000000	64.814376 
3358.000000	64.789462 
3357.000000	64.766645 
3356.000000	64.749383 
3355.000000	64.739751 
3354.000000	64.737987 
3353.000000	64.742803 
3352.000000	64.752674 
3351.000000	64.765882 
3350.000000	64.781475 
3349.000000	64.798903 
3348.000000	64.817619 
3347.000000	64.836955 
3346.000000	64.855432 
3345.000000	64.871382 
3344.000000	64.882874 
3343.000000	64.888572 
3342.000000	64.888334 
3341.000000	64.883089 
3340.000000	64.874720 
3339.000000	64.865541 
3338.000000	64.857673 
3337.000000	64.852142 
3336.000000	64.848756 
3335.000000	64.846062 
3334.000000	64.842057 
3333.000000	64.834499 
3332.000000	64.821743 
3331.000000	64.803171 
3330.000000	64.779567 
3329.000000	64.752602 
3328.000000	64.724826 
3327.000000	64.698863 
3326.000000	64.677596 
3325.000000	64.663314 
3324.000000	64.657902 
3323.000000	64.662575 
3322.000000	64.677548 
3321.000000	64.701747 
3320.000000	64.732885 
3319.000000	64.766979 
3318.000000	64.799642 
3317.000000	64.826464 
3316.000000	64.844083 
3315.000000	64.850783 
3314.000000	64.847183 
3313.000000	64.835929 
3312.000000	64.821362 
3311.000000	64.808201 
3310.000000	64.800930 
3309.000000	64.802765 
3308.000000	64.815068 
3307.000000	64.837312 
3306.000000	64.867258 
3305.000000	64.901709 
3304.000000	64.937448 
3303.000000	64.971828 
3302.000000	65.003371 
3301.000000	65.031647 
3300.000000	65.057039 
3299.000000	65.080022 
3298.000000	65.100669 
3297.000000	65.118145 
3296.000000	65.131282 
3295.000000	65.138292 
3294.000000	65.137720 
3293.000000	65.128660 
3292.000000	65.111780 
3291.000000	65.088534 
3290.000000	65.061640 
3289.000000	65.033626 
3288.000000	65.006709 
3287.000000	64.982199 
3286.000000	64.960289 
3285.000000	64.940404 
3284.000000	64.921498 
3283.000000	64.902925 
3282.000000	64.884972 
3281.000000	64.868783 
3280.000000	64.856100 
3279.000000	64.848637 
3278.000000	64.847373 
3277.000000	64.851832 
3276.000000	64.860105 
3275.000000	64.869332 
3274.000000	64.876580 
3273.000000	64.879441 
3272.000000	64.876937 
3271.000000	64.869999 
3270.000000	64.861035 
3269.000000	64.853191 
3268.000000	64.849400 
3267.000000	64.851665 
3266.000000	64.860367 
3265.000000	64.874124 
3264.000000	64.890336 
3263.000000	64.906120 
3262.000000	64.918875 
3261.000000	64.927434 
3260.000000	64.931893 
3259.000000	64.933514 
3258.000000	64.934182 
3257.000000	64.935588 
3256.000000	64.938688 
3255.000000	64.943099 
3254.000000	64.947438 
3253.000000	64.949703 
3252.000000	64.947843 
3251.000000	64.940333 
3250.000000	64.926910 
3249.000000	64.908480 
3248.000000	64.887094 
3247.000000	64.865517 
3246.000000	64.846563 
3245.000000	64.832496 
3244.000000	64.824533 
3243.000000	64.822816 
3242.000000	64.826393 
3241.000000	64.833426 
3240.000000	64.841818 
3239.000000	64.849591 
3238.000000	64.855146 
3237.000000	64.857482 
3236.000000	64.856171 
3235.000000	64.851593 
3234.000000	64.844465 
3233.000000	64.836049 
3232.000000	64.827656 
3231.000000	64.820599 
3230.000000	64.815974 
3229.000000	64.814448 
3228.000000	64.815974 
3227.000000	64.819812 
3226.000000	64.824485 
3225.000000	64.827799 
3224.000000	64.827251 
3223.000000	64.820599 
3222.000000	64.806485 
3221.000000	64.784693 
3220.000000	64.756727 
3219.000000	64.725422 
3218.000000	64.694571 
3217.000000	64.668202 
3216.000000	64.649963 
3215.000000	64.642024 
3214.000000	64.645195 
3213.000000	64.658641 
3212.000000	64.680576 
3211.000000	64.708423 
3210.000000	64.739847 
3209.000000	64.772939 
3208.000000	64.806628 
3207.000000	64.840340 
3206.000000	64.874100 
3205.000000	64.907813 
3204.000000	64.941239 
3203.000000	64.973664 
3202.000000	65.004038 
3201.000000	65.031147 
3200.000000	65.054035 
3199.000000	65.072035 
3198.000000	65.084862 
3197.000000	65.092396 
3196.000000	65.094733 
3195.000000	65.091896 
3194.000000	65.083694 
3193.000000	65.069746 
3192.000000	65.049958 
3191.000000	65.024566 
3190.000000	64.994502 
3189.000000	64.961385 
3188.000000	64.927577 
3187.000000	64.896059 
3186.000000	64.869594 
3185.000000	64.850521 
3184.000000	64.840245 
3183.000000	64.838957 
3182.000000	64.845538 
3181.000000	64.857888 
3180.000000	64.872932 
3179.000000	64.887714 
3178.000000	64.899706 
3177.000000	64.907050 
3176.000000	64.908885 
3175.000000	64.905476 
3174.000000	64.898085 
3173.000000	64.888548 
3172.000000	64.878988 
3171.000000	64.871382 
3170.000000	64.867329 
3169.000000	64.867830 
3168.000000	64.873075 
3167.000000	64.882731 
3166.000000	64.895796 
3165.000000	64.910888 
3164.000000	64.926075 
3163.000000	64.939427 
3162.000000	64.948844 
3161.000000	64.952659 
3160.000000	64.949703 
3159.000000	64.939689 
3158.000000	64.923357 
3157.000000	64.902448 
3156.000000	64.879226 
3155.000000	64.856243 
3154.000000	64.835667 
3153.000000	64.819049 
3152.000000	64.806962 
3151.000000	64.799070 
3150.000000	64.794516 
3149.000000	64.792227 
3148.000000	64.791464 
3147.000000	64.791965 
3146.000000	64.794206 
3145.000000	64.799213 
3144.000000	64.808034 
3143.000000	64.821267 
3142.000000	64.838695 
3141.000000	64.859104 
3140.000000	64.880156 
3139.000000	64.898896 
3138.000000	64.912366 
3137.000000	64.917922 
3136.000000	64.913988 
3135.000000	64.900064 
3134.000000	64.877009 
3133.000000	64.846849 
3132.000000	64.812517 
3131.000000	64.777088 
3130.000000	64.743566 
3129.000000	64.714312 
3128.000000	64.690876 
3127.000000	64.674067 
3126.000000	64.663910 
3125.000000	64.660096 
3124.000000	64.661955 
3123.000000	64.668893 
3122.000000	64.680457 
3121.000000	64.696168 
3120.000000	64.715313 
3119.000000	64.736938 
3118.000000	64.759516 
3117.000000	64.781260 
3116.000000	64.800190 
3115.000000	64.814472 
3114.000000	64.822840 
3113.000000	64.825105 
3112.000000	64.822006 
3111.000000	64.815378 
3110.000000	64.807319 
3109.000000	64.799904 
3108.000000	64.794301 
3107.000000	64.790916 
3106.000000	64.788913 
3105.000000	64.786767 
3104.000000	64.782619 
3103.000000	64.775133 
3102.000000	64.763879 
3101.000000	64.749574 
3100.000000	64.734053 
3099.000000	64.719915 
3098.000000	64.709949 
3097.000000	64.706373 
3096.000000	64.710378 
3095.000000	64.721894 
3094.000000	64.739537 
3093.000000	64.760828 
3092.000000	64.782714 
3091.000000	64.802241 
3090.000000	64.816594 
3089.000000	64.823865 
3088.000000	64.822983 
3087.000000	64.814162 
3086.000000	64.798831 
3085.000000	64.779520 
3084.000000	64.759397 
3083.000000	64.741706 
3082.000000	64.729332 
3081.000000	64.724063 
3080.000000	64.726400 
3079.000000	64.735269 
3078.000000	64.748406 
3077.000000	64.762878 
3076.000000	64.775538 
3075.000000	64.784002 
3074.000000	64.786911 
3073.000000	64.784431 
3072.000000	64.777708 
3071.000000	64.769101 
3070.000000	64.761281 
3069.000000	64.756941 
3068.000000	64.758086 
3067.000000	64.765954 
3066.000000	64.780974 
3065.000000	64.802765 
3064.000000	64.830279 
3063.000000	64.861750 
3062.000000	64.894962 
3061.000000	64.927172 
3060.000000	64.955472 
3059.000000	64.977145 
3058.000000	64.990139 
3057.000000	64.993405 
3056.000000	64.987039 
3055.000000	64.972591 
3054.000000	64.952611 
3053.000000	64.930510 
3052.000000	64.909386 
3051.000000	64.891934 
3050.000000	64.879441 
3049.000000	64.872193 
3048.000000	64.868879 
3047.000000	64.867520 
3046.000000	64.865875 
3045.000000	64.861989 
3044.000000	64.854907 
3043.000000	64.844846 
3042.000000	64.833021 
3041.000000	64.821195 
3040.000000	64.811182 
3039.000000	64.804410 
3038.000000	64.801406 
3037.000000	64.801573 
3036.000000	64.803695 
3035.000000	64.806222 
3034.000000	64.807653 
3033.000000	64.806914 
3032.000000	64.803624 
3031.000000	64.798235 
3030.000000	64.791440 
3029.000000	64.784240 
3028.000000	64.777445 
3027.000000	64.771747 
3026.000000	64.767479 
3025.000000	64.764904 
3024.000000	64.764285 
3023.000000	64.766025 
3022.000000	64.770698 
3021.000000	64.778685 
3020.000000	64.789915 
3019.000000	64.803743 
3018.000000	64.818739 
3017.000000	64.832997 
3016.000000	64.844393 
3015.000000	64.851045 
3014.000000	64.851903 
3013.000000	64.846777 
3012.000000	64.836549 
3011.000000	64.823007 
3010.000000	64.808344 
3009.000000	64.794707 
3008.000000	64.783716 
3007.000000	64.776277 
3006.000000	64.772439 
3005.000000	64.771556 
3004.000000	64.772629 
3003.000000	64.774465 
3002.000000	64.775896 
3001.000000	64.776229 
3000.000000	64.775156 
2999.000000	64.772605 
2998.000000	64.768838 
2997.000000	64.764380 
2996.000000	64.759731 
2995.000000	64.755392 
2994.000000	64.751648 
2993.000000	64.748454 
2992.000000	64.745545 
2991.000000	64.742493 
2990.000000	64.738750 
2989.000000	64.734196 
2988.000000	64.729046 
2987.000000	64.723920 
2986.000000	64.719796 
2985.000000	64.717650 
2984.000000	64.718008 
2983.000000	64.720821 
2982.000000	64.725041 
2981.000000	64.728784 
2980.000000	64.729666 
2979.000000	64.725494 
2978.000000	64.714455 
2977.000000	64.695715 
2976.000000	64.670014 
2975.000000	64.639425 
2974.000000	64.606642 
2973.000000	64.574909 
2972.000000	64.547085 
2971.000000	64.525318 
2970.000000	64.510607 
2969.000000	64.502811 
2968.000000	64.500951 
2967.000000	64.503502 
2966.000000	64.508748 
2965.000000	64.515280 
2964.000000	64.521980 
2963.000000	64.528179 
2962.000000	64.533448 
2961.000000	64.537596 
2960.000000	64.540576 
2959.000000	64.542341 
2958.000000	64.542722 
2957.000000	64.541649 
2956.000000	64.539432 
2955.000000	64.536619 
2954.000000	64.534020 
2953.000000	64.532947 
2952.000000	64.534831 
2951.000000	64.540982 
2950.000000	64.552354 
2949.000000	64.569234 
2948.000000	64.591073 
2947.000000	64.616417 
2946.000000	64.642906 
2945.000000	64.667868 
2944.000000	64.688348 
2943.000000	64.701867 
2942.000000	64.706897 
2941.000000	64.703202 
2940.000000	64.692163 
2939.000000	64.676141 
2938.000000	64.658713 
2937.000000	64.643645 
2936.000000	64.634466 
2935.000000	64.633584 
2934.000000	64.641952 
2933.000000	64.658904 
2932.000000	64.682340 
2931.000000	64.709353 
2930.000000	64.736676 
2929.000000	64.761495 
2928.000000	64.782238 
2927.000000	64.798665 
2926.000000	64.811682 
2925.000000	64.822888 
2924.000000	64.833807 
2923.000000	64.845228 
2922.000000	64.856886 
2921.000000	64.867138 
2920.000000	64.873909 
2919.000000	64.874386 
2918.000000	64.866614 
2917.000000	64.849567 
2916.000000	64.823818 
2915.000000	64.791297 
2914.000000	64.754939 
2913.000000	64.718437 
2912.000000	64.685630 
2911.000000	64.659976 
2910.000000	64.643859 
2909.000000	64.638686 
2908.000000	64.644503 
2907.000000	64.660120 
2906.000000	64.683365 
2905.000000	64.711189 
2904.000000	64.740347 
2903.000000	64.767456 
2902.000000	64.789581 
2901.000000	64.804863 
2900.000000	64.812660 
2899.000000	64.813542 
2898.000000	64.809083 
2897.000000	64.801716 
2896.000000	64.793944 
2895.000000	64.787912 
2894.000000	64.784574 
2893.000000	64.783906 
2892.000000	64.784502 
2891.000000	64.784407 
2890.000000	64.781379 
2889.000000	64.773511 
2888.000000	64.759755 
2887.000000	64.740395 
2886.000000	64.717078 
2885.000000	64.692521 
2884.000000	64.669942 
2883.000000	64.652252 
2882.000000	64.641475 
2881.000000	64.638137 
2880.000000	64.641261 
2879.000000	64.648628 
2878.000000	64.657068 
2877.000000	64.663267 
2876.000000	64.664483 
2875.000000	64.659309 
2874.000000	64.647722 
2873.000000	64.631175 
2872.000000	64.611983 
2871.000000	64.592933 
2870.000000	64.576411 
2869.000000	64.564132 
2868.000000	64.556789 
2867.000000	64.554190 
2866.000000	64.555668 
2865.000000	64.560222 
2864.000000	64.567136 
2863.000000	64.575743 
2862.000000	64.585351 
2861.000000	64.595198 
2860.000000	64.604115 
2859.000000	64.610862 
2858.000000	64.613795 
2857.000000	64.611911 
2856.000000	64.604830 
2855.000000	64.593410 
2854.000000	64.579892 
2853.000000	64.567518 
2852.000000	64.559936 
2851.000000	64.560437 
2850.000000	64.570903 
2849.000000	64.591479 
2848.000000	64.620304 
2847.000000	64.654040 
2846.000000	64.688539 
2845.000000	64.719843 
2844.000000	64.744758 
2843.000000	64.761543 
2842.000000	64.770126 
2841.000000	64.771747 
2840.000000	64.768648 
2839.000000	64.763402 
2838.000000	64.758658 
2837.000000	64.756846 
2836.000000	64.759373 
2835.000000	64.767241 
2834.000000	64.780092 
2833.000000	64.797139 
2832.000000	64.816570 
2831.000000	64.836168 
2830.000000	64.853525 
2829.000000	64.866185 
2828.000000	64.872384 
2827.000000	64.871311 
2826.000000	64.863276 
2825.000000	64.849615 
2824.000000	64.832377 
2823.000000	64.813661 
2822.000000	64.795327 
2821.000000	64.778518 
2820.000000	64.763760 
2819.000000	64.751100 
2818.000000	64.740371 
2817.000000	64.731669 
2816.000000	64.725232 
2815.000000	64.721632 
2814.000000	64.721465 
2813.000000	64.724826 
2812.000000	64.731502 
2811.000000	64.740514 
2810.000000	64.750123 
2809.000000	64.758324 
2808.000000	64.763212 
2807.000000	64.763498 
2806.000000	64.758729 
2805.000000	64.749455 
2804.000000	64.736986 
2803.000000	64.723300 
2802.000000	64.710283 
2801.000000	64.699745 
2800.000000	64.693164 
2799.000000	64.691352 
2798.000000	64.694476 
2797.000000	64.702105 
2796.000000	64.713215 
2795.000000	64.726448 
2794.000000	64.740443 
2793.000000	64.753985 
2792.000000	64.766216 
2791.000000	64.776992 
2790.000000	64.786672 
2789.000000	64.795804 
2788.000000	64.804840 
2787.000000	64.814090 
2786.000000	64.823055 
2785.000000	64.830994 
2784.000000	64.836740 
2783.000000	64.839148 
2782.000000	64.837360 
2781.000000	64.831399 
2780.000000	64.821958 
2779.000000	64.810395 
2778.000000	64.798188 
2777.000000	64.786529 
2776.000000	64.776015 
2775.000000	64.766526 
2774.000000	64.757466 
2773.000000	64.748191 
2772.000000	64.738464 
2771.000000	64.728784 
2770.000000	64.720392 
2769.000000	64.715075 
2768.000000	64.714622 
2767.000000	64.720010 
2766.000000	64.731287 
2765.000000	64.747071 
2764.000000	64.764952 
2763.000000	64.781761 
2762.000000	64.794111 
2761.000000	64.799118 
2760.000000	64.795041 
2759.000000	64.781689 
2758.000000	64.760136 
2757.000000	64.732837 
2756.000000	64.702844 
2755.000000	64.673662 
2754.000000	64.648437 
2753.000000	64.629745 
2752.000000	64.619350 
2751.000000	64.617896 
2750.000000	64.625048 
2749.000000	64.639425 
2748.000000	64.659023 
2747.000000	64.681005 
2746.000000	64.702272 
2745.000000	64.719653 
2744.000000	64.730668 
2743.000000	64.733529 
2742.000000	64.727663 
2741.000000	64.713954 
2740.000000	64.694547 
2739.000000	64.673042 
2738.000000	64.653801 
2737.000000	64.641284 
2736.000000	64.639163 
2735.000000	64.649820 
2734.000000	64.673805 
2733.000000	64.709472 
2732.000000	64.753389 
2731.000000	64.801049 
2730.000000	64.847540 
2729.000000	64.888262 
2728.000000	64.919805 
2727.000000	64.939951 
2726.000000	64.948368 
2725.000000	64.946031 
2724.000000	64.935207 
2723.000000	64.918947 
2722.000000	64.900445 
2721.000000	64.882993 
2720.000000	64.869046 
2719.000000	64.860248 
2718.000000	64.856910 
2717.000000	64.858317 
2716.000000	64.862704 
2715.000000	64.867830 
2714.000000	64.871263 
2713.000000	64.870858 
2712.000000	64.865207 
2711.000000	64.854025 
2710.000000	64.837956 
2709.000000	64.818549 
2708.000000	64.797544 
2707.000000	64.776802 
2706.000000	64.757823 
2705.000000	64.741683 
2704.000000	64.728975 
2703.000000	64.719963 
2702.000000	64.714741 
2701.000000	64.712953 
2700.000000	64.714121 
2699.000000	64.717197 
2698.000000	64.720535 
2697.000000	64.722347 
2696.000000	64.720702 
2695.000000	64.714193 
2694.000000	64.701890 
2693.000000	64.683890 
2692.000000	64.661383 
2691.000000	64.636373 
2690.000000	64.611482 
2689.000000	64.589262 
2688.000000	64.571833 
2687.000000	64.560627 
2686.000000	64.556217 
2685.000000	64.558386 
2684.000000	64.566349 
2683.000000	64.578890 
2682.000000	64.594745 
2681.000000	64.612531 
2680.000000	64.630913 
2679.000000	64.648699 
2678.000000	64.664888 
2677.000000	64.678859 
2676.000000	64.690327 
2675.000000	64.699673 
2674.000000	64.707374 
2673.000000	64.714026 
2672.000000	64.719796 
2671.000000	64.724707 
2670.000000	64.728069 
2669.000000	64.728975 
2668.000000	64.726233 
2667.000000	64.719057 
2666.000000	64.707207 
2665.000000	64.691209 
2664.000000	64.672589 
2663.000000	64.653420 
2662.000000	64.636063 
2661.000000	64.622545 
2660.000000	64.614343 
2659.000000	64.612174 
2658.000000	64.615917 
2657.000000	64.624643 
2656.000000	64.637088 
2655.000000	64.651727 
2654.000000	64.666914 
2653.000000	64.681100 
2652.000000	64.692568 
2651.000000	64.700102 
2650.000000	64.703130 
2649.000000	64.701700 
2648.000000	64.696812 
2647.000000	64.689898 
2646.000000	64.682698 
2645.000000	64.676833 
2644.000000	64.673471 
2643.000000	64.673042 
2642.000000	64.675307 
2641.000000	64.679503 
2640.000000	64.684724 
2639.000000	64.690256 
2638.000000	64.695811 
2637.000000	64.701604 
2636.000000	64.708256 
2635.000000	64.716386 
2634.000000	64.726209 
2633.000000	64.737296 
2632.000000	64.748430 
2631.000000	64.757704 
2630.000000	64.762854 
2629.000000	64.761924 
2628.000000	64.753532 
2627.000000	64.737248 
2626.000000	64.713954 
2625.000000	64.685535 
2624.000000	64.654755 
2623.000000	64.624953 
2622.000000	64.599442 
2621.000000	64.581084 
2620.000000	64.571452 
2619.000000	64.571046 
2618.000000	64.578700 
2617.000000	64.592099 
2616.000000	64.608120 
2615.000000	64.623260 
2614.000000	64.634513 
2613.000000	64.639735 
2612.000000	64.637994 
2611.000000	64.629530 
2610.000000	64.615607 
2609.000000	64.598178 
2608.000000	64.579296 
2607.000000	64.560794 
2606.000000	64.544034 
2605.000000	64.529752 
2604.000000	64.518427 
2603.000000	64.510226 
2602.000000	64.505267 
2601.000000	64.503645 
2600.000000	64.505219 
2599.000000	64.509749 
2598.000000	64.516353 
2597.000000	64.524078 
2596.000000	64.531660 
2595.000000	64.538192 
2594.000000	64.543294 
2593.000000	64.547371 
2592.000000	64.551544 
2591.000000	64.557361 
2590.000000	64.566707 
2589.000000	64.580845 
2588.000000	64.600229 
2587.000000	64.623951 
2586.000000	64.650106 
2585.000000	64.675903 
2584.000000	64.698481 
2583.000000	64.715194 
2582.000000	64.724397 
2581.000000	64.725422 
2580.000000	64.718699 
2579.000000	64.705491 
2578.000000	64.687561 
2577.000000	64.667034 
2576.000000	64.645910 
2575.000000	64.626193 
2574.000000	64.609599 
2573.000000	64.597654 
2572.000000	64.591264 
2571.000000	64.590835 
2570.000000	64.596199 
2569.000000	64.606308 
2568.000000	64.619565 
2567.000000	64.633798 
2566.000000	64.646792 
2565.000000	64.656543 
2564.000000	64.661574 
2563.000000	64.661240 
2562.000000	64.655518 
2561.000000	64.645028 
2560.000000	64.630722 
2559.000000	64.613676 
2558.000000	64.595150 
2557.000000	64.576530 
2556.000000	64.559173 
2555.000000	64.544510 
2554.000000	64.533853 
2553.000000	64.528203 
2552.000000	64.527916 
2551.000000	64.532709 
2550.000000	64.541625 
2549.000000	64.553093 
2548.000000	64.565229 
2547.000000	64.576411 
2546.000000	64.585161 
2545.000000	64.590573 
2544.000000	64.592456 
2543.000000	64.591217 
2542.000000	64.587569 
2541.000000	64.582657 
2540.000000	64.577579 
2539.000000	64.573526 
2538.000000	64.571475 
2537.000000	64.572143 
2536.000000	64.576101 
2535.000000	64.583325 
2534.000000	64.593195 
2533.000000	64.604520 
2532.000000	64.615583 
2531.000000	64.624428 
2530.000000	64.629411 
2529.000000	64.629530 
2528.000000	64.624619 
2527.000000	64.615607 
2526.000000	64.604210 
2525.000000	64.592695 
2524.000000	64.583182 
2523.000000	64.577317 
2522.000000	64.575862 
2521.000000	64.578652 
2520.000000	64.584565 
2519.000000	64.591908 
2518.000000	64.598917 
2517.000000	64.604020 
2516.000000	64.606380 
2515.000000	64.605808 
2514.000000	64.602875 
2513.000000	64.598584 
2512.000000	64.593982 
2511.000000	64.590048 
2510.000000	64.587426 
2509.000000	64.586424 
2508.000000	64.586782 
2507.000000	64.588022 
2506.000000	64.589262 
2505.000000	64.589762 
2504.000000	64.588737 
2503.000000	64.585638 
2502.000000	64.580154 
2501.000000	64.572167 
2500.000000	64.561939 
2499.000000	64.550042 
2498.000000	64.537310 
2497.000000	64.524865 
2496.000000	64.514017 
2495.000000	64.506340 
2494.000000	64.503216 
2493.000000	64.505743 
2492.000000	64.514446 
2491.000000	64.529061 
2490.000000	64.548492 
2489.000000	64.571022 
2488.000000	64.594388 
2487.000000	64.616465 
2486.000000	64.635467 
2485.000000	64.650368 
2484.000000	64.661192 
2483.000000	64.668846 
2482.000000	64.674758 
2481.000000	64.680504 
2480.000000	64.687347 
2479.000000	64.695715 
2478.000000	64.705133 
2477.000000	64.714241 
2476.000000	64.721250 
2475.000000	64.724302 
2474.000000	64.722132 
2473.000000	64.714217 
2472.000000	64.701151 
2471.000000	64.684319 
2470.000000	64.665675 
2469.000000	64.647269 
2468.000000	64.630794 
2467.000000	64.617419 
2466.000000	64.607667 
2465.000000	64.601588 
2464.000000	64.598727 
2463.000000	64.598655 
2462.000000	64.600872 
2461.000000	64.605093 
2460.000000	64.610934 
2459.000000	64.617967 
2458.000000	64.625358 
2457.000000	64.632225 
2456.000000	64.637327 
2455.000000	64.639377 
2454.000000	64.637279 
2453.000000	64.630341 
2452.000000	64.618349 
2451.000000	64.601731 
2450.000000	64.581465 
2449.000000	64.559102 
2448.000000	64.536428 
2447.000000	64.515066 
2446.000000	64.496445 
2445.000000	64.481711 
2444.000000	64.471554 
2443.000000	64.466071 
2442.000000	64.465141 
2441.000000	64.468431 
2440.000000	64.475464 
2439.000000	64.485740 
2438.000000	64.498567 
2437.000000	64.513397 
2436.000000	64.529323 
2435.000000	64.545702 
2434.000000	64.561676 
2433.000000	64.576601 
2432.000000	64.589977 
2431.000000	64.601612 
2430.000000	64.611554 
2429.000000	64.620065 
2428.000000	64.627623 
2427.000000	64.634680 
2426.000000	64.641332 
2425.000000	64.647340 
2424.000000	64.652156 
2423.000000	64.654803 
2422.000000	64.654421 
2421.000000	64.650106 
2420.000000	64.641380 
2419.000000	64.628386 
2418.000000	64.611792 
2417.000000	64.592814 
2416.000000	64.573144 
2415.000000	64.554524 
2414.000000	64.538359 
2413.000000	64.525890 
2412.000000	64.517712 
2411.000000	64.513659 
2410.000000	64.513087 
2409.000000	64.514899 
2408.000000	64.517831 
2407.000000	64.520668 
2406.000000	64.522552 
2405.000000	64.522981 
2404.000000	64.522004 
2403.000000	64.520168 
2402.000000	64.518117 
2401.000000	64.516663 
2400.000000	64.515995 
2399.000000	64.515972 
2398.000000	64.515757 
2397.000000	64.514040 
2396.000000	64.509367 
2395.000000	64.500474 
2394.000000	64.486789 
2393.000000	64.468550 
2392.000000	64.447021 
2391.000000	64.424276 
2390.000000	64.402937 
2389.000000	64.385581 
2388.000000	64.374470 
2387.000000	64.371109 
2386.000000	64.375853 
2385.000000	64.388060 
2384.000000	64.406061 
2383.000000	64.427685 
2382.000000	64.450287 
2381.000000	64.471435 
2380.000000	64.489126 
2379.000000	64.502143 
2378.000000	64.509940 
2377.000000	64.512896 
2376.000000	64.511919 
2375.000000	64.508223 
2374.000000	64.503169 
2373.000000	64.497828 
2372.000000	64.492940 
2371.000000	64.488792 
2370.000000	64.485406 
2369.000000	64.482665 
2368.000000	64.480638 
2367.000000	64.479565 
2366.000000	64.479970 
2365.000000	64.482522 
2364.000000	64.487648 
2363.000000	64.495444 
2362.000000	64.505338 
2361.000000	64.515948 
2360.000000	64.525198 
2359.000000	64.530849 
2358.000000	64.530873 
2357.000000	64.523983 
2356.000000	64.509892 
2355.000000	64.489674 
2354.000000	64.465761 
2353.000000	64.441156 
2352.000000	64.419269 
2351.000000	64.402985 
2350.000000	64.394164 
2349.000000	64.393520 
2348.000000	64.400386 
2347.000000	64.412832 
2346.000000	64.428114 
2345.000000	64.443325 
2344.000000	64.455962 
2343.000000	64.464187 
2342.000000	64.467287 
2341.000000	64.465737 
2340.000000	64.460992 
2339.000000	64.454936 
2338.000000	64.449596 
2337.000000	64.446783 
2336.000000	64.447569 
2335.000000	64.452362 
2334.000000	64.460873 
2333.000000	64.472413 
2332.000000	64.486265 
2331.000000	64.501810 
2330.000000	64.518666 
2329.000000	64.536714 
2328.000000	64.555740 
2327.000000	64.575433 
2326.000000	64.594697 
2325.000000	64.612030 
2324.000000	64.625477 
2323.000000	64.632987 
2322.000000	64.633035 
2321.000000	64.624786 
2320.000000	64.609026 
2319.000000	64.587402 
2318.000000	64.562749 
2317.000000	64.537978 
2316.000000	64.516043 
2315.000000	64.498877 
2314.000000	64.487457 
2313.000000	64.481449 
2312.000000	64.479589 
2311.000000	64.480161 
2310.000000	64.481520 
2309.000000	64.482426 
2308.000000	64.482355 
2307.000000	64.481449 
2306.000000	64.480280 
2305.000000	64.479517 
2304.000000	64.479780 
2303.000000	64.481282 
2302.000000	64.483714 
2301.000000	64.486551 
2300.000000	64.489030 
2299.000000	64.490628 
2298.000000	64.490866 
2297.000000	64.489531 
2296.000000	64.486670 
2295.000000	64.482450 
2294.000000	64.477086 
2293.000000	64.470672 
2292.000000	64.463186 
2291.000000	64.454555 
2290.000000	64.444637 
2289.000000	64.433622 
2288.000000	64.421749 
2287.000000	64.409589 
2286.000000	64.397954 
2285.000000	64.387798 
2284.000000	64.380240 
2283.000000	64.375996 
2282.000000	64.375758 
2281.000000	64.379858 
2280.000000	64.388418 
2279.000000	64.401054 
2278.000000	64.417195 
2277.000000	64.435791 
2276.000000	64.455366 
2275.000000	64.474296 
2274.000000	64.490699 
2273.000000	64.502692 
2272.000000	64.508986 
2271.000000	64.508962 
2270.000000	64.502978 
2269.000000	64.492344 
2268.000000	64.479351 
2267.000000	64.466691 
2266.000000	64.457106 
2265.000000	64.452672 
2264.000000	64.454603 
2263.000000	64.462876 
2262.000000	64.476299 
2261.000000	64.492726 
2260.000000	64.509487 
2259.000000	64.524006 
2258.000000	64.534282 
2257.000000	64.539098 
2256.000000	64.538002 
2255.000000	64.531421 
2254.000000	64.520359 
2253.000000	64.505958 
2252.000000	64.489293 
2251.000000	64.471244 
2250.000000	64.452433 
2249.000000	64.433288 
2248.000000	64.414095 
2247.000000	64.395117 
2246.000000	64.376688 
2245.000000	64.359402 
2244.000000	64.343905 
2243.000000	64.330577 
2242.000000	64.319825 
2241.000000	64.311575 
2240.000000	64.305591 
2239.000000	64.301300 
2238.000000	64.298200 
2237.000000	64.295864 
2236.000000	64.294314 
2235.000000	64.293742 
2234.000000	64.294862 
2233.000000	64.298415 
2232.000000	64.305186 
2231.000000	64.315557 
2230.000000	64.329600 
2229.000000	64.346909 
2228.000000	64.366626 
2227.000000	64.387536 
2226.000000	64.408135 
2225.000000	64.426827 
2224.000000	64.442133 
2223.000000	64.452576 
2222.000000	64.457130 
2221.000000	64.455127 
2220.000000	64.446783 
2219.000000	64.432835 
2218.000000	64.414930 
2217.000000	64.395141 
2216.000000	64.376068 
2215.000000	64.360165 
2214.000000	64.349365 
2213.000000	64.344573 
2212.000000	64.345693 
2211.000000	64.351296 
2210.000000	64.359116 
2209.000000	64.366364 
2208.000000	64.370441 
2207.000000	64.369392 
2206.000000	64.362215 
2205.000000	64.349222 
2204.000000	64.331841 
2203.000000	64.312100 
2202.000000	64.292359 
2201.000000	64.274859 
2200.000000	64.261054 
2199.000000	64.251661 
2198.000000	64.246559 
2197.000000	64.244866 
2196.000000	64.245462 
2195.000000	64.247131 
2194.000000	64.249086 
2193.000000	64.250922 
2192.000000	64.252495 
2191.000000	64.253973 
2190.000000	64.255809 
2189.000000	64.258193 
2188.000000	64.261102 
2187.000000	64.264416 
2186.000000	64.267945 
2185.000000	64.271473 
2184.000000	64.274787 
2183.000000	64.277768 
2182.000000	64.280343 
2181.000000	64.282631 
2180.000000	64.284944 
2179.000000	64.287424 
2178.000000	64.290452 
2177.000000	64.294409 
2176.000000	64.299678 
2175.000000	64.306616 
2174.000000	64.315414 
2173.000000	64.326095 
2172.000000	64.338159 
2171.000000	64.350748 
2170.000000	64.362788 
2169.000000	64.373111 
2168.000000	64.380645 
2167.000000	64.384531 
2166.000000	64.384460 
2165.000000	64.380407 
2164.000000	64.372539 
2163.000000	64.361262 
2162.000000	64.346981 
2161.000000	64.330196 
2160.000000	64.311838 
2159.000000	64.293217 
2158.000000	64.275956 
2157.000000	64.261841 
2156.000000	64.252686 
2155.000000	64.249634 
2154.000000	64.252901 
2153.000000	64.261507 
2152.000000	64.273190 
2151.000000	64.285087 
2150.000000	64.294028 
2149.000000	64.297413 
2148.000000	64.293837 
2147.000000	64.283466 
2146.000000	64.267969 
2145.000000	64.250111 
2144.000000	64.233112 
2143.000000	64.219832 
2142.000000	64.212059 
2141.000000	64.210534 
2140.000000	64.214754 
2139.000000	64.223313 
2138.000000	64.234566 
2137.000000	64.246749 
2136.000000	64.258503 
2135.000000	64.269042 
2134.000000	64.278101 
2133.000000	64.285540 
2132.000000	64.291572 
2131.000000	64.296221 
2130.000000	64.299702 
2129.000000	64.301848 
2128.000000	64.302802 
2127.000000	64.302921 
2126.000000	64.302897 
2125.000000	64.303636 
2124.000000	64.305996 
2123.000000	64.310836 
2122.000000	64.318346 
2121.000000	64.328074 
2120.000000	64.338850 
2119.000000	64.348959 
2118.000000	64.356446 
2117.000000	64.359688 
2116.000000	64.357686 
2115.000000	64.350366 
2114.000000	64.338612 
2113.000000	64.324188 
2112.000000	64.309215 
2111.000000	64.295864 
2110.000000	64.285922 
2109.000000	64.280629 
2108.000000	64.280200 
2107.000000	64.284062 
2106.000000	64.291167 
2105.000000	64.300322 
2104.000000	64.310169 
2103.000000	64.319753 
2102.000000	64.328479 
2101.000000	64.336156 
2100.000000	64.342880 
2099.000000	64.348721 
2098.000000	64.353609 
2097.000000	64.357376 
2096.000000	64.359784 
2095.000000	64.360666 
2094.000000	64.360094 
2093.000000	64.358663 
2092.000000	64.357328 
2091.000000	64.356923 
2090.000000	64.358019 
2089.000000	64.360642 
2088.000000	64.363956 
2087.000000	64.366412 
2086.000000	64.365744 
2085.000000	64.359855 
2084.000000	64.347052 
2083.000000	64.326596 
2082.000000	64.298820 
2081.000000	64.265179 
2080.000000	64.228272 
2079.000000	64.191269 
2078.000000	64.157557 
2077.000000	64.129996 
2076.000000	64.110660 
2075.000000	64.100503 
2074.000000	64.099454 
2073.000000	64.106225 
2072.000000	64.118981 
2071.000000	64.135622 
2070.000000	64.154267 
2069.000000	64.173316 
2068.000000	64.191889 
2067.000000	64.209580 
2066.000000	64.226341 
2065.000000	64.242506 
2064.000000	64.258575 
2063.000000	64.274907 
2062.000000	64.291834 
2061.000000	64.309406 
2060.000000	64.327454 
2059.000000	64.345240 
2058.000000	64.361882 
2057.000000	64.375877 
2056.000000	64.385700 
2055.000000	64.389538 
2054.000000	64.386129 
2053.000000	64.374732 
2052.000000	64.355564 
2051.000000	64.329886 
2050.000000	64.300179 
2049.000000	64.269566 
2048.000000	64.241480 
2047.000000	64.219093 
2046.000000	64.204788 
2045.000000	64.199709 
2044.000000	64.203500 
2043.000000	64.214539 
2042.000000	64.230322 
2041.000000	64.247989 
2040.000000	64.264965 
2039.000000	64.279174 
2038.000000	64.289522 
2037.000000	64.295697 
2036.000000	64.297938 
2035.000000	64.296889 
2034.000000	64.293003 
2033.000000	64.286756 
2032.000000	64.278364 
2031.000000	64.268112 
2030.000000	64.256119 
2029.000000	64.242935 
2028.000000	64.229321 
2027.000000	64.216232 
2026.000000	64.204764 
2025.000000	64.196062 
2024.000000	64.191031 
2023.000000	64.190077 
2022.000000	64.193010 
2021.000000	64.199304 
2020.000000	64.207863 
2019.000000	64.217448 
2018.000000	64.226722 
2017.000000	64.234685 
2016.000000	64.240717 
2015.000000	64.244604 
2014.000000	64.246606 
2013.000000	64.247298 
2012.000000	64.247322 
2011.000000	64.247155 
2010.000000	64.246988 
2009.000000	64.246678 
2008.000000	64.245581 
2007.000000	64.242911 
2006.000000	64.237880 
2005.000000	64.230132 
2004.000000	64.219832 
2003.000000	64.207816 
2002.000000	64.195179 
2001.000000	64.183497 
2000.000000	64.174199 
1999.000000	64.168500 
1998.000000	64.166903 
1997.000000	64.169526 
1996.000000	64.175796 
1995.000000	64.184689 
1994.000000	64.194941 
1993.000000	64.205026 
1992.000000	64.213681 
1991.000000	64.219808 
1990.000000	64.222693 
1989.000000	64.221978 
1988.000000	64.217543 
1987.000000	64.209914 
1986.000000	64.199924 
1985.000000	64.188814 
1984.000000	64.178013 
1983.000000	64.169168 
1982.000000	64.163708 
1981.000000	64.162802 
1980.000000	64.166975 
1979.000000	64.176130 
1978.000000	64.189291 
1977.000000	64.204859 
1976.000000	64.220833 
1975.000000	64.235115 
1974.000000	64.245748 
1973.000000	64.251542 
1972.000000	64.251828 
1971.000000	64.246916 
1970.000000	64.237737 
1969.000000	64.225840 
1968.000000	64.213013 
1967.000000	64.200878 
1966.000000	64.190626 
1965.000000	64.183020 
1964.000000	64.178133 
1963.000000	64.175796 
1962.000000	64.175391 
1961.000000	64.176154 
1960.000000	64.177346 
1959.000000	64.178371 
1958.000000	64.178776 
1957.000000	64.178228 
1956.000000	64.176487 
1955.000000	64.173388 
1954.000000	64.168906 
1953.000000	64.163064 
1952.000000	64.155793 
1951.000000	64.147210 
1950.000000	64.137291 
1949.000000	64.126467 
1948.000000	64.115309 
1947.000000	64.104843 
1946.000000	64.096260 
1945.000000	64.090752 
1944.000000	64.089393 
1943.000000	64.092755 
1942.000000	64.100575 
1941.000000	64.111804 
1940.000000	64.124631 
1939.000000	64.136695 
1938.000000	64.145612 
1937.000000	64.149332 
1936.000000	64.146518 
1935.000000	64.136958 
1934.000000	64.121627 
1933.000000	64.102673 
1932.000000	64.082884 
1931.000000	64.065146 
1930.000000	64.052057 
1929.000000	64.045262 
1928.000000	64.045190 
1927.000000	64.050936 
1926.000000	64.060544 
1925.000000	64.071297 
1924.000000	64.080572 
1923.000000	64.086174 
1922.000000	64.087319 
1921.000000	64.084410 
1920.000000	64.079356 
1919.000000	64.074921 
1918.000000	64.073896 
1917.000000	64.078283 
1916.000000	64.088678 
1915.000000	64.104151 
1914.000000	64.122319 
1913.000000	64.140200 
1912.000000	64.154696 
1911.000000	64.163804 
1910.000000	64.166569 
1909.000000	64.163494 
1908.000000	64.156174 
1907.000000	64.146733 
1906.000000	64.137363 
1905.000000	64.129734 
1904.000000	64.124822 
1903.000000	64.122819 
1902.000000	64.123249 
1901.000000	64.125108 
1900.000000	64.127516 
1899.000000	64.129781 
1898.000000	64.131522 
1897.000000	64.132738 
1896.000000	64.133644 
1895.000000	64.134502 
1894.000000	64.135622 
1893.000000	64.137053 
1892.000000	64.138698 
1891.000000	64.140224 
1890.000000	64.140963 
1889.000000	64.140224 
1888.000000	64.137363 
1887.000000	64.131927 
1886.000000	64.124035 
1885.000000	64.114332 
1884.000000	64.103865 
1883.000000	64.094138 
1882.000000	64.086699 
1881.000000	64.082813 
1880.000000	64.083051 
1879.000000	64.087390 
1878.000000	64.095211 
1877.000000	64.105248 
1876.000000	64.115929 
1875.000000	64.125680 
1874.000000	64.133143 
1873.000000	64.137387 
1872.000000	64.137959 
1871.000000	64.135098 
1870.000000	64.129281 
1869.000000	64.121556 
1868.000000	64.113020 
1867.000000	64.104866 
1866.000000	64.097929 
1865.000000	64.092874 
1864.000000	64.089870 
1863.000000	64.088606 
1862.000000	64.088606 
1861.000000	64.089131 
1860.000000	64.089512 
1859.000000	64.089322 
1858.000000	64.088392 
1857.000000	64.087009 
1856.000000	64.085364 
1855.000000	64.083433 
1854.000000	64.080739 
1853.000000	64.076566 
1852.000000	64.069700 
1851.000000	64.058899 
1850.000000	64.043259 
1849.000000	64.022707 
1848.000000	63.998365 
1847.000000	63.972449 
1846.000000	63.948011 
1845.000000	63.928532 
1844.000000	63.917016 
1843.000000	63.915491 
1842.000000	63.924384 
1841.000000	63.942480 
1840.000000	63.966989 
1839.000000	63.994240 
1838.000000	64.020323 
1837.000000	64.041805 
1836.000000	64.056134 
1835.000000	64.062356 
1834.000000	64.060759 
1833.000000	64.053177 
1832.000000	64.042329 
1831.000000	64.031529 
1830.000000	64.024019 
1829.000000	64.022254 
1828.000000	64.027619 
1827.000000	64.040064 
1826.000000	64.058327 
1825.000000	64.079928 
1824.000000	64.102029 
1823.000000	64.121723 
1822.000000	64.136743 
1821.000000	64.145898 
1820.000000	64.149117 
1819.000000	64.147496 
1818.000000	64.142727 
1817.000000	64.136910 
1816.000000	64.131832 
1815.000000	64.128732 
1814.000000	64.127969 
1813.000000	64.129137 
1812.000000	64.131069 
1811.000000	64.132499 
1810.000000	64.132165 
1809.000000	64.129352 
1808.000000	64.123749 
1807.000000	64.115643 
1806.000000	64.105844 
1805.000000	64.095687 
1804.000000	64.086604 
1803.000000	64.079833 
1802.000000	64.076280 
1801.000000	64.076232 
1800.000000	64.079403 
1799.000000	64.084887 
1798.000000	64.091253 
1797.000000	64.096736 
1796.000000	64.099478 
1795.000000	64.097929 
1794.000000	64.090919 
1793.000000	64.077925 
1792.000000	64.059090 
1791.000000	64.035248 
1790.000000	64.007830 
1789.000000	63.979029 
1788.000000	63.951110 
1787.000000	63.926291 
1786.000000	63.906431 
1785.000000	63.892626 
1784.000000	63.885116 
1783.000000	63.883185 
1782.000000	63.885450 
1781.000000	63.890027 
1780.000000	63.894748 
1779.000000	63.897895 
1778.000000	63.898301 
1777.000000	63.895726 
1776.000000	63.890624 
1775.000000	63.884377 
1774.000000	63.878822 
1773.000000	63.875842 
1772.000000	63.876938 
1771.000000	63.882803 
1770.000000	63.893198 
1769.000000	63.906884 
1768.000000	63.921856 
1767.000000	63.935828 
1766.000000	63.946628 
1765.000000	63.952541 
1764.000000	63.952636 
1763.000000	63.946604 
1762.000000	63.934779 
1761.000000	63.917970 
1760.000000	63.897109 
1759.000000	63.873052 
1758.000000	63.846564 
1757.000000	63.818693 
1756.000000	63.790464 
1755.000000	63.763093 
1754.000000	63.737773 
1753.000000	63.715839 
1752.000000	63.698387 
1751.000000	63.685822 
1750.000000	63.677763 
1749.000000	63.673090 
1748.000000	63.669943 
1747.000000	63.666129 
1746.000000	63.659477 
1745.000000	63.648390 
1744.000000	63.632178 
1743.000000	63.611054 
1742.000000	63.586139 
1741.000000	63.559293 
1740.000000	63.532662 
1739.000000	63.508343 
1738.000000	63.488173 
1737.000000	63.473510 
1736.000000	63.465189 
1735.000000	63.463783 
1734.000000	63.469362 
1733.000000	63.481831 
1732.000000	63.500833 
1731.000000	63.525915 
1730.000000	63.555908 
1729.000000	63.589525 
1728.000000	63.624668 
1727.000000	63.659238 
1726.000000	63.690853 
1725.000000	63.717651 
1724.000000	63.738083 
1723.000000	63.751626 
1722.000000	63.758826 
1721.000000	63.761162 
1720.000000	63.760757 
1719.000000	63.759946 
1718.000000	63.760948 
1717.000000	63.765287 
1716.000000	63.773584 
1715.000000	63.785338 
1714.000000	63.799214 
1713.000000	63.813304 
1712.000000	63.825535 
1711.000000	63.834047 
1710.000000	63.837361 
1709.000000	63.834857 
1708.000000	63.826346 
1707.000000	63.812279 
1706.000000	63.793587 
1705.000000	63.771319 
1704.000000	63.746953 
1703.000000	63.722109 
1702.000000	63.698554 
1701.000000	63.678312 
1700.000000	63.663387 
1699.000000	63.655304 
1698.000000	63.655233 
1697.000000	63.663291 
1696.000000	63.678622 
1695.000000	63.699221 
1694.000000	63.722300 
1693.000000	63.744783 
1692.000000	63.763785 
1691.000000	63.777041 
1690.000000	63.783240 
1689.000000	63.782191 
1688.000000	63.774633 
1687.000000	63.761925 
1686.000000	63.745450 
1685.000000	63.726377 
1684.000000	63.705539 
1683.000000	63.683366 
1682.000000	63.660049 
1681.000000	63.635826 
1680.000000	63.611364 
1679.000000	63.587665 
1678.000000	63.565993 
1677.000000	63.547778 
1676.000000	63.534140 
1675.000000	63.526034 
1674.000000	63.523793 
1673.000000	63.527512 
1672.000000	63.536715 
1671.000000	63.550829 
1670.000000	63.568949 
1669.000000	63.590097 
1668.000000	63.613104 
1667.000000	63.636708 
1666.000000	63.659501 
1665.000000	63.680219 
1664.000000	63.697648 
1663.000000	63.711071 
1662.000000	63.720154 
1661.000000	63.725233 
1660.000000	63.727188 
1659.000000	63.727450 
1658.000000	63.727736 
1657.000000	63.729763 
1656.000000	63.734841 
1655.000000	63.743710 
1654.000000	63.756227 
1653.000000	63.771677 
1652.000000	63.788723 
1651.000000	63.805484 
1650.000000	63.819789 
1649.000000	63.830113 
1648.000000	63.835167 
1647.000000	63.834476 
1646.000000	63.828277 
1645.000000	63.817644 
1644.000000	63.804078 
1643.000000	63.789057 
1642.000000	63.774108 
1641.000000	63.760375 
1640.000000	63.748669 
1639.000000	63.739562 
1638.000000	63.733506 
1637.000000	63.730716 
1636.000000	63.731169 
1635.000000	63.734769 
1634.000000	63.740897 
1633.000000	63.748550 
1632.000000	63.756513 
1631.000000	63.763594 
1630.000000	63.768744 
1629.000000	63.771390 
1628.000000	63.771748 
1627.000000	63.770842 
1626.000000	63.770079 
1625.000000	63.770914 
1624.000000	63.774585 
1623.000000	63.781523 
1622.000000	63.791298 
1621.000000	63.802409 
1620.000000	63.812994 
1619.000000	63.821077 
1618.000000	63.825130 
1617.000000	63.824558 
1616.000000	63.819646 
1615.000000	63.811683 
1614.000000	63.802409 
1613.000000	63.793754 
1612.000000	63.787388 
1611.000000	63.784313 
1610.000000	63.784766 
1609.000000	63.788104 
1608.000000	63.792920 
1607.000000	63.797569 
1606.000000	63.800454 
1605.000000	63.800430 
1604.000000	63.797140 
1603.000000	63.791012 
1602.000000	63.783073 
1601.000000	63.774752 
1600.000000	63.767409 
1599.000000	63.761973 
1598.000000	63.758921 
1597.000000	63.758182 
1596.000000	63.759160 
1595.000000	63.761210 
1594.000000	63.763594 
1593.000000	63.765859 
1592.000000	63.767766 
1591.000000	63.769221 
1590.000000	63.770198 
1589.000000	63.770484 
1588.000000	63.769793 
1587.000000	63.767480 
1586.000000	63.762950 
1585.000000	63.755846 
1584.000000	63.746118 
1583.000000	63.734126 
1582.000000	63.720631 
1581.000000	63.706564 
1580.000000	63.692998 
1579.000000	63.680791 
1578.000000	63.670778 
1577.000000	63.663578 
1576.000000	63.659620 
1575.000000	63.659024 
1574.000000	63.661766 
1573.000000	63.667345 
1572.000000	63.674807 
1571.000000	63.682770 
1570.000000	63.689422 
1569.000000	63.692927 
1568.000000	63.691616 
1567.000000	63.684701 
1566.000000	63.672375 
1565.000000	63.655781 
1564.000000	63.637089 
1563.000000	63.618755 
1562.000000	63.603234 
1561.000000	63.592123 
1560.000000	63.586115 
1559.000000	63.584804 
1558.000000	63.587021 
1557.000000	63.591146 
1556.000000	63.595771 
1555.000000	63.599872 
1554.000000	63.602995 
1553.000000	63.605165 
1552.000000	63.606715 
1551.000000	63.607883 
1550.000000	63.608860 
1549.000000	63.609623 
1548.000000	63.610243 
1547.000000	63.610911 
1546.000000	63.612151 
1545.000000	63.614916 
1544.000000	63.620328 
1543.000000	63.629293 
1542.000000	63.641905 
1541.000000	63.657546 
1540.000000	63.674545 
1539.000000	63.690662 
1538.000000	63.703560 
1537.000000	63.711500 
1536.000000	63.713598 
1535.000000	63.710308 
1534.000000	63.702988 
1533.000000	63.693928 
1532.000000	63.685345 
1531.000000	63.678860 
1530.000000	63.675141 
1529.000000	63.673734 
1528.000000	63.672995 
1527.000000	63.670611 
1526.000000	63.664245 
1525.000000	63.652420 
1524.000000	63.634705 
1523.000000	63.612294 
1522.000000	63.587403 
1521.000000	63.563156 
1520.000000	63.542675 
1519.000000	63.528680 
1518.000000	63.522648 
1517.000000	63.524770 
1516.000000	63.533878 
1515.000000	63.547992 
1514.000000	63.564610 
1513.000000	63.581228 
1512.000000	63.595962 
1511.000000	63.607573 
1510.000000	63.615489 
1509.000000	63.619947 
1508.000000	63.621497 
1507.000000	63.621068 
1506.000000	63.619709 
1505.000000	63.618826 
1504.000000	63.619995 
1503.000000	63.624739 
1502.000000	63.634467 
1501.000000	63.650059 
1500.000000	63.671517 
1499.000000	63.697695 
1498.000000	63.726401 
1497.000000	63.754558 
1496.000000	63.778924 
1495.000000	63.796663 
1494.000000	63.805985 
1493.000000	63.806486 
1492.000000	63.799238 
1491.000000	63.786435 
1490.000000	63.770794 
1489.000000	63.755178 
1488.000000	63.741660 
1487.000000	63.731360 
1486.000000	63.724398 
1485.000000	63.720440 
1484.000000	63.718605 
1483.000000	63.718223 
1482.000000	63.718843 
1481.000000	63.720393 
1480.000000	63.722920 
1479.000000	63.726377 
1478.000000	63.730454 
1477.000000	63.734579 
1476.000000	63.737916 
1475.000000	63.739466 
1474.000000	63.738393 
1473.000000	63.733911 
1472.000000	63.725805 
1471.000000	63.714265 
1470.000000	63.699960 
1469.000000	63.684010 
1468.000000	63.667511 
1467.000000	63.651537 
1466.000000	63.636898 
1465.000000	63.623738 
1464.000000	63.611483 
1463.000000	63.599014 
1462.000000	63.585090 
1461.000000	63.568568 
1460.000000	63.548517 
1459.000000	63.525128 
1458.000000	63.499116 
1457.000000	63.472390 
1456.000000	63.447165 
1455.000000	63.426208 
1454.000000	63.411664 
1453.000000	63.405156 
1452.000000	63.407111 
1451.000000	63.417029 
1450.000000	63.433384 
1449.000000	63.454055 
1448.000000	63.476610 
1447.000000	63.499021 
1446.000000	63.519835 
1445.000000	63.538217 
1444.000000	63.554072 
1443.000000	63.567757 
1442.000000	63.579750 
1441.000000	63.590478 
1440.000000	63.599967 
1439.000000	63.607859 
1438.000000	63.613247 
1437.000000	63.615155 
1436.000000	63.612771 
1435.000000	63.605451 
1434.000000	63.592934 
1433.000000	63.575839 
1432.000000	63.555479 
1431.000000	63.533735 
1430.000000	63.512849 
1429.000000	63.495111 
1428.000000	63.482666 
1427.000000	63.477063 
1426.000000	63.478875 
1425.000000	63.487815 
1424.000000	63.502526 
1423.000000	63.520574 
1422.000000	63.539242 
1421.000000	63.555669 
1420.000000	63.567686 
1419.000000	63.574147 
1418.000000	63.575077 
1417.000000	63.571381 
1416.000000	63.564682 
1415.000000	63.556838 
1414.000000	63.549256 
1413.000000	63.542604 
1412.000000	63.537049 
1411.000000	63.532328 
1410.000000	63.528108 
1409.000000	63.523936 
1408.000000	63.519859 
1407.000000	63.516044 
1406.000000	63.512611 
1405.000000	63.509368 
1404.000000	63.505816 
1403.000000	63.500976 
1402.000000	63.493657 
1401.000000	63.483095 
1400.000000	63.469123 
1399.000000	63.452506 
1398.000000	63.435196 
1397.000000	63.419723 
1396.000000	63.408446 
1395.000000	63.403296 
1394.000000	63.404989 
1393.000000	63.412976 
1392.000000	63.425540 
1391.000000	63.440227 
1390.000000	63.454508 
1389.000000	63.466262 
1388.000000	63.474059 
1387.000000	63.477325 
1386.000000	63.476085 
1385.000000	63.470864 
1384.000000	63.462448 
1383.000000	63.451600 
1382.000000	63.439011 
1381.000000	63.424992 
1380.000000	63.409876 
1379.000000	63.394284 
1378.000000	63.379240 
1377.000000	63.365936 
1376.000000	63.355946 
1375.000000	63.350653 
1374.000000	63.351416 
1373.000000	63.358736 
1372.000000	63.372540 
1371.000000	63.391828 
1370.000000	63.415074 
1369.000000	63.440370 
1368.000000	63.465905 
1367.000000	63.489985 
1366.000000	63.511276 
1365.000000	63.528847 
1364.000000	63.541865 
1363.000000	63.549542 
1362.000000	63.551044 
1361.000000	63.545536 
1360.000000	63.532328 
1359.000000	63.511419 
1358.000000	63.483905 
1357.000000	63.452172 
1356.000000	63.419938 
1355.000000	63.391470 
1354.000000	63.370943 
1353.000000	63.361477 
1352.000000	63.364458 
1351.000000	63.379073 
1350.000000	63.402175 
1349.000000	63.429212 
1348.000000	63.454937 
1347.000000	63.474512 
1346.000000	63.484430 
1345.000000	63.483119 
1344.000000	63.470959 
1343.000000	63.450121 
1342.000000	63.423681 
1341.000000	63.395142 
1340.000000	63.367652 
1339.000000	63.343691 
1338.000000	63.324904 
1337.000000	63.312172 
1336.000000	63.305616 
1335.000000	63.304805 
1334.000000	63.308954 
1333.000000	63.316631 
1332.000000	63.326191 
1331.000000	63.335871 
1330.000000	63.344216 
1329.000000	63.350152 
1328.000000	63.353490 
1327.000000	63.354659 
1326.000000	63.354969 
1325.000000	63.355922 
1324.000000	63.358998 
1323.000000	63.364982 
1322.000000	63.373875 
1321.000000	63.384747 
1320.000000	63.396334 
1319.000000	63.407254 
1318.000000	63.416576 
1317.000000	63.423991 
1316.000000	63.429975 
1315.000000	63.435411 
1314.000000	63.441157 
1313.000000	63.447618 
1312.000000	63.454484 
1311.000000	63.460516 
1310.000000	63.464164 
1309.000000	63.463878 
1308.000000	63.458490 
1307.000000	63.447713 
1306.000000	63.432168 
1305.000000	63.413405 
1304.000000	63.393497 
1303.000000	63.374519 
1302.000000	63.358139 
1301.000000	63.345170 
1300.000000	63.335919 
1299.000000	63.329672 
1298.000000	63.325476 
1297.000000	63.321828 
1296.000000	63.317203 
1295.000000	63.310098 
1294.000000	63.299226 
1293.000000	63.283991 
1292.000000	63.264250 
1291.000000	63.241338 
1290.000000	63.217258 
1289.000000	63.195204 
1288.000000	63.178801 
1287.000000	63.171577 
1286.000000	63.176107 
1285.000000	63.193297 
1284.000000	63.221955 
1283.000000	63.258647 
1282.000000	63.298416 
1281.000000	63.335466 
1280.000000	63.364219 
1279.000000	63.380765 
1278.000000	63.383173 
1277.000000	63.371872 
1276.000000	63.349294 
1275.000000	63.319301 
1274.000000	63.286161 
1273.000000	63.253784 
1272.000000	63.225054 
1271.000000	63.201665 
1270.000000	63.184213 
1269.000000	63.172578 
1268.000000	63.166189 
1267.000000	63.164329 
1266.000000	63.166475 
1265.000000	63.172292 
1264.000000	63.181447 
1263.000000	63.193154 
1262.000000	63.206601 
1261.000000	63.220524 
1260.000000	63.233685 
1259.000000	63.244938 
1258.000000	63.253474 
1257.000000	63.258981 
1256.000000	63.261723 
1255.000000	63.262462 
1254.000000	63.262200 
1253.000000	63.261866 
1252.000000	63.262224 
1251.000000	63.263726 
1250.000000	63.266563 
1249.000000	63.270378 
1248.000000	63.274717 
1247.000000	63.278627 
1246.000000	63.281011 
1245.000000	63.280582 
1244.000000	63.276028 
1243.000000	63.266253 
1242.000000	63.250637 
1241.000000	63.229107 
1240.000000	63.202643 
1239.000000	63.172960 
1238.000000	63.142156 
1237.000000	63.112592 
1236.000000	63.086414 
1235.000000	63.065290 
1234.000000	63.050198 
1233.000000	63.041782 
1232.000000	63.040018 
1231.000000	63.044881 
1230.000000	63.056278 
1229.000000	63.074183 
1228.000000	63.098406 
1227.000000	63.128376 
1226.000000	63.162803 
1225.000000	63.199567 
1224.000000	63.235592 
1223.000000	63.267469 
1222.000000	63.291645 
1221.000000	63.305401 
1220.000000	63.307380 
1219.000000	63.297796 
1218.000000	63.278603 
1217.000000	63.253164 
1216.000000	63.225412 
1215.000000	63.199543 
1214.000000	63.178920 
1213.000000	63.165903 
1212.000000	63.161301 
1211.000000	63.164687 
1210.000000	63.174748 
1209.000000	63.189506 
1208.000000	63.207101 
1207.000000	63.225769 
1206.000000	63.244247 
1205.000000	63.261604 
1204.000000	63.277292 
1203.000000	63.290691 
1202.000000	63.301324 
1201.000000	63.308501 
1200.000000	63.311743 
1199.000000	63.310647 
1198.000000	63.305258 
1197.000000	63.295936 
1196.000000	63.283467 
1195.000000	63.268709 
1194.000000	63.252592 
1193.000000	63.235640 
1192.000000	63.218307 
1191.000000	63.200521 
1190.000000	63.181972 
1189.000000	63.162279 
1188.000000	63.141202 
1187.000000	63.118934 
1186.000000	63.095998 
1185.000000	63.073706 
1184.000000	63.053369 
1183.000000	63.036727 
1182.000000	63.025116 
1181.000000	63.019323 
1180.000000	63.019227 
1179.000000	63.023662 
1178.000000	63.030767 
1177.000000	63.038134 
1176.000000	63.043475 
1175.000000	63.044857 
1174.000000	63.041305 
1173.000000	63.033056 
1172.000000	63.021540 
1171.000000	63.008952 
1170.000000	62.997770 
1169.000000	62.990069 
1168.000000	62.986898 
1167.000000	62.988448 
1166.000000	62.993669 
1165.000000	63.000798 
1164.000000	63.007903 
1163.000000	63.013291 
1162.000000	63.016104 
1161.000000	63.016223 
1160.000000	63.014268 
1159.000000	63.011336 
1158.000000	63.008832 
1157.000000	63.007783 
1156.000000	63.008904 
1155.000000	63.012480 
1154.000000	63.018393 
1153.000000	63.025999 
1152.000000	63.034534 
1151.000000	63.043379 
1150.000000	63.052034 
1149.000000	63.060235 
1148.000000	63.067960 
1147.000000	63.075423 
1146.000000	63.083195 
1145.000000	63.091850 
1144.000000	63.102030 
1143.000000	63.114118 
1142.000000	63.128542 
1141.000000	63.145208 
1140.000000	63.163805 
1139.000000	63.183188 
1138.000000	63.201856 
1137.000000	63.217687 
1136.000000	63.228416 
1135.000000	63.232159 
1134.000000	63.228034 
1133.000000	63.216161 
1132.000000	63.198256 
1131.000000	63.176798 
1130.000000	63.154983 
1129.000000	63.135838 
1128.000000	63.121724 
1127.000000	63.114023 
1126.000000	63.113212 
1125.000000	63.118767 
1124.000000	63.129615 
1123.000000	63.143801 
1122.000000	63.159179 
1121.000000	63.173246 
1120.000000	63.183617 
1119.000000	63.188576 
1118.000000	63.187384 
1117.000000	63.180327 
1116.000000	63.168573 
1115.000000	63.153886 
1114.000000	63.137984 
1113.000000	63.122153 
1112.000000	63.106989 
1111.000000	63.092732 
1110.000000	63.079166 
1109.000000	63.065981 
1108.000000	63.052773 
1107.000000	63.039445 
1106.000000	63.026213 
1105.000000	63.013243 
1104.000000	63.001155 
1103.000000	62.990880 
1102.000000	62.983632 
1101.000000	62.980651 
1100.000000	62.982940 
1099.000000	62.990760 
1098.000000	63.003468 
1097.000000	63.019514 
1096.000000	63.036704 
1095.000000	63.052511 
1094.000000	63.064670 
1093.000000	63.071608 
1092.000000	63.072752 
1091.000000	63.068413 
1090.000000	63.059806 
1089.000000	63.048362 
1088.000000	63.035559 
1087.000000	63.022136 
1086.000000	63.008332 
1085.000000	62.993454 
1084.000000	62.976217 
1083.000000	62.955212 
1082.000000	62.929391 
1081.000000	62.898778 
1080.000000	62.864303 
1079.000000	62.828445 
1078.000000	62.794542 
1077.000000	62.766623 
1076.000000	62.748456 
1075.000000	62.743067 
1074.000000	62.751865 
1073.000000	62.774419 
1072.000000	62.808156 
1071.000000	62.848901 
1070.000000	62.891530 
1069.000000	62.930941 
1068.000000	62.962985 
1067.000000	62.985277 
1066.000000	62.997245 
1065.000000	63.000154 
1064.000000	62.996745 
1063.000000	62.990117 
1062.000000	62.983155 
1061.000000	62.978076 
1060.000000	62.975835 
1059.000000	62.976551 
1058.000000	62.979340 
1057.000000	62.982821 
1056.000000	62.985587 
1055.000000	62.986731 
1054.000000	62.985968 
1053.000000	62.983536 
1052.000000	62.980318 
1051.000000	62.977385 
1050.000000	62.975835 
1049.000000	62.976408 
1048.000000	62.979483 
1047.000000	62.985014 
1046.000000	62.992405 
1045.000000	63.000679 
1044.000000	63.008832 
1043.000000	63.015818 
1042.000000	63.020873 
1041.000000	63.023591 
1040.000000	63.023829 
1039.000000	63.021564 
1038.000000	63.016963 
1037.000000	63.010358 
1036.000000	63.001990 
1035.000000	62.992143 
1034.000000	62.981367 
1033.000000	62.970590 
1032.000000	62.961268 
1031.000000	62.954807 
1030.000000	62.952518 
1029.000000	62.954950 
1028.000000	62.961816 
1027.000000	62.971687 
1026.000000	62.982177 
1025.000000	62.990212 
1024.000000	62.993001 
1023.000000	62.988305 
1022.000000	62.975358 
1021.000000	62.954926 
1020.000000	62.929391 
1019.000000	62.902045 
1018.000000	62.876200 
1017.000000	62.854552 
1016.000000	62.838554 
1015.000000	62.828183 
1014.000000	62.822008 
1013.000000	62.817931 
1012.000000	62.813806 
1011.000000	62.808179 
1010.000000	62.800860 
1009.000000	62.792658 
1008.000000	62.785434 
1007.000000	62.781143 
1006.000000	62.781524 
1005.000000	62.787199 
1004.000000	62.797784 
1003.000000	62.811517 
1002.000000	62.826108 
1001.000000	62.839221 
1000.000000	62.849211 
999.000000	 62.855434 
998.000000	 62.858700 
997.000000	 62.860703 
996.000000	 62.864065 
995.000000	 62.871193 
994.000000	 62.884020 
993.000000	 62.903237 
992.000000	 62.928271 
991.000000	 62.957406 
990.000000	 62.987995 
989.000000	 63.017296 
988.000000	 63.042449 
987.000000	 63.061285 
986.000000	 63.072538 
985.000000	 63.075971 
984.000000	 63.072323 
983.000000	 63.063192 
982.000000	 63.050627 
981.000000	 63.036847 
980.000000	 63.024091 
979.000000	 63.013958 
978.000000	 63.007664 
977.000000	 63.005685 
976.000000	 63.007760 
975.000000	 63.013005 
974.000000	 63.020277 
973.000000	 63.028216 
972.000000	 63.035607 
971.000000	 63.041472 
970.000000	 63.045120 
969.000000	 63.046169 
968.000000	 63.044571 
967.000000	 63.040661 
966.000000	 63.034820 
965.000000	 63.027906 
964.000000	 63.021111 
963.000000	 63.015723 
962.000000	 63.012933 
961.000000	 63.013386 
960.000000	 63.016891 
959.000000	 63.022112 
958.000000	 63.026571 
957.000000	 63.027334 
956.000000	 63.021707 
955.000000	 63.007783 
954.000000	 62.985277 
953.000000	 62.955713 
952.000000	 62.922549 
951.000000	 62.890219 
950.000000	 62.863659 
949.000000	 62.847137 
948.000000	 62.843370 
947.000000	 62.852954 
946.000000	 62.874078 
945.000000	 62.903094 
944.000000	 62.935066 
943.000000	 62.964677 
942.000000	 62.987446 
941.000000	 63.000249 
940.000000	 63.002038 
939.000000	 62.993597 
938.000000	 62.977552 
937.000000	 62.957525 
936.000000	 62.937378 
935.000000	 62.920451 
934.000000	 62.908816 
933.000000	 62.902903 
932.000000	 62.901735 
931.000000	 62.903380 
930.000000	 62.905454 
929.000000	 62.905669 
928.000000	 62.902641 
927.000000	 62.895965 
926.000000	 62.886166 
925.000000	 62.874460 
924.000000	 62.862110 
923.000000	 62.850189 
922.000000	 62.839198 
921.000000	 62.828993 
920.000000	 62.819337 
919.000000	 62.809729 
918.000000	 62.799835 
917.000000	 62.789463 
916.000000	 62.778925 
915.000000	 62.768888 
914.000000	 62.760138 
913.000000	 62.753438 
912.000000	 62.749099 
911.000000	 62.747454 
910.000000	 62.748742 
909.000000	 62.753462 
908.000000	 62.761926 
907.000000	 62.774896 
906.000000	 62.793040 
905.000000	 62.816953 
904.000000	 62.846708 
903.000000	 62.881135 
902.000000	 62.917804 
901.000000	 62.953186 
900.000000	 62.983250 
899.000000	 63.004112 
898.000000	 63.013124 
897.000000	 63.009524 
896.000000	 62.994670 
895.000000	 62.972092 
894.000000	 62.946629 
893.000000	 62.923789 
892.000000	 62.908053 
891.000000	 62.902617 
890.000000	 62.907910 
889.000000	 62.922286 
888.000000	 62.941551 
887.000000	 62.960410 
886.000000	 62.973260 
885.000000	 62.975478 
884.000000	 62.964773 
883.000000	 62.941384 
882.000000	 62.908601 
881.000000	 62.871742 
880.000000	 62.837576 
879.000000	 62.813043 
878.000000	 62.803602 
877.000000	 62.811970 
876.000000	 62.837767 
875.000000	 62.877559 
874.000000	 62.925171 
873.000000	 62.973260 
872.000000	 63.014841 
871.000000	 63.044834 
870.000000	 63.060712 
869.000000	 63.062810 
868.000000	 63.053727 
867.000000	 63.037443 
866.000000	 63.018298 
865.000000	 62.999629 
864.000000	 62.983369 
863.000000	 62.969851 
862.000000	 62.958836 
861.000000	 62.949252 
860.000000	 62.940192 
859.000000	 62.930989 
858.000000	 62.921738 
857.000000	 62.912607 
856.000000	 62.903761 
855.000000	 62.895011 
854.000000	 62.885475 
853.000000	 62.873959 
852.000000	 62.859082 
851.000000	 62.839889 
850.000000	 62.816286 
849.000000	 62.788939 
848.000000	 62.759232 
847.000000	 62.729096 
846.000000	 62.700629 
845.000000	 62.675523 
844.000000	 62.655210 
843.000000	 62.640357 
842.000000	 62.631487 
841.000000	 62.628984 
840.000000	 62.633371 
839.000000	 62.644982 
838.000000	 62.663769 
837.000000	 62.689328 
836.000000	 62.720298 
835.000000	 62.754321 
834.000000	 62.788367 
833.000000	 62.819004 
832.000000	 62.843322 
831.000000	 62.859392 
830.000000	 62.866926 
829.000000	 62.867236 
828.000000	 62.863183 
827.000000	 62.858605 
826.000000	 62.857151 
825.000000	 62.861418 
824.000000	 62.872600 
823.000000	 62.890243 
822.000000	 62.912654 
821.000000	 62.937355 
820.000000	 62.961983 
819.000000	 62.984776 
818.000000	 63.004326 
817.000000	 63.019967 
816.000000	 63.031339 
815.000000	 63.038444 
814.000000	 63.041567 
813.000000	 63.040757 
812.000000	 63.036417 
811.000000	 63.028359 
810.000000	 63.016176 
809.000000	 62.998986 
808.000000	 62.975621 
807.000000	 62.945556 
806.000000	 62.909483 
805.000000	 62.869906 
804.000000	 62.830662 
803.000000	 62.796878 
802.000000	 62.773871 
801.000000	 62.765812 
800.000000	 62.774443 
799.000000	 62.798452 
798.000000	 62.833666 
797.000000	 62.873721 
796.000000	 62.911486 
795.000000	 62.941098 
794.000000	 62.959289 
793.000000	 62.966012 
792.000000	 62.964034 
791.000000	 62.957859 
790.000000	 62.951970 
789.000000	 62.949371 
788.000000	 62.950372 
787.000000	 62.953305 
786.000000	 62.954568 
785.000000	 62.950515 
784.000000	 62.938070 
783.000000	 62.915849 
782.000000	 62.884378 
781.000000	 62.845826 
780.000000	 62.803816 
779.000000	 62.762236 
778.000000	 62.724781 
777.000000	 62.694287 
776.000000	 62.672448 
775.000000	 62.659692 
774.000000	 62.655282 
773.000000	 62.657618 
772.000000	 62.664318 
771.000000	 62.672615 
770.000000	 62.679624 
769.000000	 62.682914 
768.000000	 62.681031 
767.000000	 62.673568 
766.000000	 62.661361 
765.000000	 62.646484 
764.000000	 62.631464 
763.000000	 62.619161 
762.000000	 62.611556 
761.000000	 62.609982 
760.000000	 62.614965 
759.000000	 62.626266 
758.000000	 62.643265 
757.000000	 62.665176 
756.000000	 62.691235 
755.000000	 62.720489 
754.000000	 62.751436 
753.000000	 62.782216 
752.000000	 62.810659 
751.000000	 62.834334 
750.000000	 62.850928 
749.000000	 62.858748 
748.000000	 62.857103 
747.000000	 62.846422 
746.000000	 62.828707 
745.000000	 62.806606 
744.000000	 62.783074 
743.000000	 62.760734 
742.000000	 62.741446 
741.000000	 62.726354 
740.000000	 62.715744 
739.000000	 62.709498 
738.000000	 62.707376 
737.000000	 62.709403 
736.000000	 62.715601 
735.000000	 62.725877 
734.000000	 62.739515 
733.000000	 62.754774 
732.000000	 62.768745 
731.000000	 62.777781 
730.000000	 62.777805 
729.000000	 62.765431 
728.000000	 62.738633 
727.000000	 62.697672 
726.000000	 62.645339 
725.000000	 62.586784 
724.000000	 62.528252 
723.000000	 62.476277 
722.000000	 62.435960 
721.000000	 62.409996 
720.000000	 62.398195 
719.000000	 62.397742 
718.000000	 62.403988 
717.000000	 62.411642 
716.000000	 62.415981 
715.000000	 62.414002 
714.000000	 62.404751 
713.000000	 62.389326 
712.000000	 62.370061 
711.000000	 62.349796 
710.000000	 62.331056 
709.000000	 62.315678 
708.000000	 62.304639 
707.000000	 62.298250 
706.000000	 62.296009 
705.000000	 62.297272 
704.000000	 62.301468 
703.000000	 62.308287 
702.000000	 62.317252 
701.000000	 62.328004 
700.000000	 62.339806 
699.000000	 62.351989 
698.000000	 62.363457 
697.000000	 62.373828 
696.000000	 62.383008 
695.000000	 62.392020 
694.000000	 62.402820 
693.000000	 62.417840 
692.000000	 62.439298 
691.000000	 62.467336 
690.000000	 62.499475 
689.000000	 62.530422 
688.000000	 62.553215 
687.000000	 62.561011 
686.000000	 62.548971 
685.000000	 62.516045 
684.000000	 62.465953 
683.000000	 62.406229 
682.000000	 62.347245 
681.000000	 62.299585 
680.000000	 62.272047 
679.000000	 62.270140 
678.000000	 62.294650 
677.000000	 62.342500 
676.000000	 62.406706 
675.000000	 62.478113 
674.000000	 62.546610 
673.000000	 62.603068 
672.000000	 62.640690 
671.000000	 62.655830 
670.000000	 62.648534 
669.000000	 62.621951 
668.000000	 62.581968 
667.000000	 62.535667 
666.000000	 62.490224 
665.000000	 62.451696 
664.000000	 62.423825 
663.000000	 62.407994 
662.000000	 62.402892 
661.000000	 62.405419 
660.000000	 62.411451 
659.000000	 62.417221 
658.000000	 62.419891 
657.000000	 62.418293 
656.000000	 62.412905 
655.000000	 62.405824 
654.000000	 62.399601 
653.000000	 62.396836 
652.000000	 62.399291 
651.000000	 62.407660 
650.000000	 62.421464 
649.000000	 62.439107 
648.000000	 62.458801 
647.000000	 62.478280 
646.000000	 62.495541 
645.000000	 62.508678 
644.000000	 62.516355 
643.000000	 62.517452 
642.000000	 62.511038 
641.000000	 62.496733 
640.000000	 62.474870 
639.000000	 62.446475 
638.000000	 62.413668 
637.000000	 62.378859 
636.000000	 62.344408 
635.000000	 62.312388 
634.000000	 62.284183 
633.000000	 62.260270 
632.000000	 62.240362 
631.000000	 62.224030 
630.000000	 62.210917 
629.000000	 62.201046 
628.000000	 62.194633 
627.000000	 62.192249 
626.000000	 62.193775 
625.000000	 62.197971 
624.000000	 62.202072 
623.000000	 62.202000 
622.000000	 62.193059 
621.000000	 62.170696 
620.000000	 62.132310 
619.000000	 62.077426 
618.000000	 62.009239 
617.000000	 61.934518 
616.000000	 61.862182 
615.000000	 61.801576 
614.000000	 61.760783 
613.000000	 61.744809 
612.000000	 61.754846 
611.000000	 61.787843 
610.000000	 61.837315 
609.000000	 61.894559 
608.000000	 61.950993 
607.000000	 61.999750 
606.000000	 62.036943 
605.000000	 62.062072 
604.000000	 62.077426 
603.000000	 62.087297 
602.000000	 62.096405 
601.000000	 62.108635 
600.000000	 62.126874 
599.000000	 62.151813 
598.000000	 62.182831 
597.000000	 62.216925 
596.000000	 62.251019 
595.000000	 62.280058 
594.000000	 62.298727 
593.000000	 62.301063 
592.000000	 62.280988 
591.000000	 62.234592 
590.000000	 62.161064 
589.000000	 62.064695 
588.000000	 61.954689 
587.000000	 61.844873 
586.000000	 61.750960 
585.000000	 61.688280 
584.000000	 61.668729 
583.000000	 61.696624 
582.000000	 61.767101 
581.000000	 61.866855 
580.000000	 61.977076 
579.000000	 62.077045 
578.000000	 62.149214 
577.000000	 62.182545 
576.000000	 62.175273 
575.000000	 62.135791 
574.000000	 62.079691 
573.000000	 62.025594 
572.000000	 61.989259 
571.000000	 61.981153 
570.000000	 62.001824 
569.000000	 62.043285 
568.000000	 62.089562 
567.000000	 62.122130 
566.000000	 62.124347 
565.000000	 62.085223 
564.000000	 62.004375 
563.000000	 61.891150 
562.000000	 61.765742 
561.000000	 61.651921 
560.000000	 61.575818 
559.000000	 61.558794 
558.000000	 61.614394 
557.000000	 61.745381 
556.000000	 61.942243 
555.000000	 62.184715 
554.000000	 62.445187 
553.000000	 62.693881 
552.000000	 62.902426 
551.000000	 63.048148 
550.000000	 63.117313 
549.000000	 63.106274 
548.000000	 63.020849 
547.000000	 62.874221 
546.000000	 62.685132 
545.000000	 62.473845 
544.000000	 62.261152 
543.000000	 62.063765 
542.000000	 61.896157 
541.000000	 61.765766 
540.000000	 61.674618 
539.000000	 61.618256 
538.000000	 61.587214 
537.000000	 61.570048 
536.000000	 61.554861 
535.000000	 61.533784 
534.000000	 61.501073 
533.000000	 61.459207 
532.000000	 61.416721 
531.000000	 61.387133 
530.000000	 61.383533 
529.000000	 61.417508 
528.000000	 61.495137 
527.000000	 61.615085 
526.000000	 61.768245 
525.000000	 61.938786 
524.000000	 62.107491 
523.000000	 62.256383 
522.000000	 62.372398 
521.000000	 62.448668 
520.000000	 62.485837 
519.000000	 62.491488 
518.000000	 62.477111 
517.000000	 62.455821 
516.000000	 62.437558 
515.000000	 62.429523 
514.000000	 62.431883 
513.000000	 62.441325 
512.000000	 62.447977 
511.000000	 62.443137 
510.000000	 62.414360 
509.000000	 62.350440 
508.000000	 62.240099 
507.000000	 62.075924 
506.000000	 61.854290 
505.000000	 61.577033 
504.000000	 61.253857 
503.000000	 60.901546 
502.000000	 60.546493 
501.000000	 60.221409 
500.000000	 59.962344 
499.000000	 59.802460 
498.000000	 59.771037 
497.000000	 59.886956 
496.000000	 60.153937 
495.000000	 60.556840 
494.000000	 61.060905 
493.000000	 61.615109 
492.000000	 62.157487 
491.000000	 62.626123 
490.000000	 62.969326 
489.000000	 63.155245 
488.000000	 63.176798 
487.000000	 63.051581 
486.000000	 62.816452 
485.000000	 62.519931 
484.000000	 62.213635 
483.000000	 61.942577 
482.000000	 61.742377 
481.000000	 61.630702 
480.000000	 61.613154 
479.000000	 61.676502 
478.000000	 61.797571 
477.000000	 61.941146 
476.000000	 62.068200 
475.000000	 62.139892 
474.000000	 62.124466 
473.000000	 62.004518 
472.000000	 61.780810 
471.000000	 61.474657 
470.000000	 61.124157 
469.000000	 60.780477 
468.000000	 60.496616 
467.000000	 60.315895 
466.000000	 60.262227 
465.000000	 60.334825 
464.000000	 60.509085 
463.000000	 60.744428 
462.000000	 60.993814 
461.000000	 61.211776 
460.000000	 61.366009 
459.000000	 61.445069 
458.000000	 61.454653 
457.000000	 61.411118 
456.000000	 61.333799 
455.000000	 61.236596 
454.000000	 61.124014 
453.000000	 60.993075 
452.000000	 60.834193 
451.000000	 60.637164 
450.000000	 60.400795 
449.000000	 60.140013 
448.000000	 59.880900 
447.000000	 59.656476 
446.000000	 59.499597 
445.000000	 59.434533 
444.000000	 59.474682 
443.000000	 59.618544 
442.000000	 59.850311 
441.000000	 60.141301 
440.000000	 60.457015 
439.000000	 60.759210 
438.000000	 61.011505 
437.000000	 61.181163 
436.000000	 61.242151 
435.000000	 61.177659 
434.000000	 60.981559 
433.000000	 60.662364 
432.000000	 60.240578 
431.000000	 59.754276 
430.000000	 59.252452 
429.000000	 58.797359 
428.000000	 58.452630 
427.000000	 58.279800 
426.000000	 58.325505 
425.000000	 58.614325 
424.000000	 59.142088 
423.000000	 59.870696 
422.000000	 60.731267 
421.000000	 61.630415 
420.000000	 62.464094 
419.000000	 63.132119 
418.000000	 63.554883 
417.000000	 63.684225 
416.000000	 63.510870 
415.000000	 63.069462 
414.000000	 62.428927 
413.000000	 61.679840 
412.000000	 60.915112 
411.000000	 60.215854 
410.000000	 59.637594 
409.000000	 59.210562 
408.000000	 58.939409 
407.000000	 58.804488 
406.000000	 58.781147 
405.000000	 58.851170 
404.000000	 59.008836 
403.000000	 59.257173 
402.000000	 59.601783 
401.000000	 60.033655 
400.000000	 60.526347 
399.000000	 61.038208 
398.000000	 61.503291 
397.000000	 61.830306 
396.000000	 61.946344 
395.000000	 61.822056 
394.000000	 61.471772 
393.000000	 60.953116 
392.000000	 60.365366 
391.000000	 59.827327 
390.000000	 59.459710 
389.000000	 59.351205 
388.000000	 59.551382 
387.000000	 60.044813 
386.000000	 60.727977 
385.000000	 61.431384 
384.000000	 61.960601 
383.000000	 62.139463 
382.000000	 61.870670 
381.000000	 61.146950 
380.000000	 60.028910 
379.000000	 58.650565 
378.000000	 57.178020 
377.000000	 55.809092 
376.000000	 54.653787 
375.000000	 53.857517 
374.000000	 53.584551 
373.000000	 54.042863 
372.000000	 55.451107 
371.000000	 57.979130 
370.000000	 61.689710 

