PE IR       SPECTRUM    SPECTRUM    ASCII       PEDS        1.60        
  -1
BZ6D26~1.ASC
17/04/07
20:11:48.00
17/04/07
20:11:48.00
tln
$BZ1503107-1_t0085$<tbV0>[-5.2,5.2,8.0,0.0,27,1,0]
370.000000
64









2002,4.07    
MIRTGS : RIGHTBACK : INTERNAL 2
MIR : ON : INTERNAL 2
OPTKBR

0.200000
8
8.000000
FILLER
RATIO
SPECTRUM
UNLOCKED 256

DOUBLE
64
COMBINED
1
0
0


1.000000
RATIO


1
0
TRUE
51149
0
LEFT NOT FITTED RIGHT NOT FITTED 0
NONE
NONE
15600
12.000000
4.427000
51148
TRUE
1 0 8 72 0 0 0 0 

15798.010000






#HDR
-1
-1
#GR
CM-1
%T
0.00002384185791015625
0.0
5000.000000
-1.000000
4631
8
77.360677
59.664058
#DATA
5000.000000	64.681053 
4999.000000	64.751076 
4998.000000	64.813828 
4997.000000	64.857912 
4996.000000	64.878749 
4995.000000	64.881658 
4994.000000	64.876127 
4993.000000	64.873909 
4992.000000	64.880132 
4991.000000	64.891910 
4990.000000	64.894127 
4989.000000	64.862608 
4988.000000	64.772105 
4987.000000	64.604878 
4986.000000	64.359855 
4985.000000	64.056587 
4984.000000	63.734340 
4983.000000	63.444876 
4982.000000	63.241481 
4981.000000	63.167047 
4980.000000	63.245010 
4979.000000	63.473773 
4978.000000	63.828039 
4977.000000	64.263129 
4976.000000	64.726018 
4975.000000	65.162158 
4974.000000	65.527009 
4973.000000	65.786981 
4972.000000	65.921211 
4971.000000	65.919852 
4970.000000	65.782809 
4969.000000	65.517663 
4968.000000	65.140533 
4967.000000	64.674401 
4966.000000	64.153695 
4965.000000	63.617134 
4964.000000	63.107419 
4963.000000	62.663602 
4962.000000	62.317800 
4961.000000	62.089443 
4960.000000	61.982917 
4959.000000	61.988377 
4958.000000	62.083959 
4957.000000	62.241125 
4956.000000	62.429666 
4955.000000	62.622308 
4954.000000	62.798333 
4953.000000	62.943768 
4952.000000	63.052463 
4951.000000	63.124155 
4950.000000	63.163614 
4949.000000	63.178706 
4948.000000	63.178277 
4947.000000	63.172221 
4946.000000	63.168215 
4945.000000	63.172268 
4944.000000	63.186502 
4943.000000	63.209390 
4942.000000	63.238048 
4941.000000	63.270044 
4940.000000	63.305187 
4939.000000	63.346982 
4938.000000	63.400459 
4937.000000	63.469934 
4936.000000	63.557076 
4935.000000	63.659834 
4934.000000	63.770127 
4933.000000	63.874316 
4932.000000	63.958358 
4931.000000	64.011669 
4930.000000	64.030623 
4929.000000	64.019846 
4928.000000	63.992691 
4927.000000	63.967514 
4926.000000	63.961839 
4925.000000	63.987255 
4924.000000	64.044666 
4923.000000	64.124917 
4922.000000	64.212226 
4921.000000	64.289689 
4920.000000	64.344692 
4919.000000	64.373469 
4918.000000	64.382457 
4917.000000	64.386725 
4916.000000	64.404368 
4915.000000	64.451432 
4914.000000	64.536118 
4913.000000	64.655971 
4912.000000	64.798593 
4911.000000	64.943718 
4910.000000	65.069770 
4909.000000	65.157485 
4908.000000	65.195989 
4907.000000	65.182805 
4906.000000	65.124058 
4905.000000	65.031671 
4904.000000	64.919686 
4903.000000	64.802861 
4902.000000	64.693856 
4901.000000	64.602565 
4900.000000	64.535379 
4899.000000	64.495491 
4898.000000	64.483118 
4897.000000	64.494967 
4896.000000	64.525699 
4895.000000	64.568495 
4894.000000	64.617347 
4893.000000	64.666056 
4892.000000	64.710998 
4891.000000	64.750957 
4890.000000	64.787173 
4889.000000	64.821624 
4888.000000	64.856624 
4887.000000	64.893746 
4886.000000	64.933156 
4885.000000	64.973020 
4884.000000	65.010690 
4883.000000	65.044307 
4882.000000	65.072703 
4881.000000	65.096426 
4880.000000	65.116524 
4879.000000	65.134596 
4878.000000	65.150904 
4877.000000	65.163683 
4876.000000	65.170383 
4875.000000	65.168070 
4874.000000	65.155172 
4873.000000	65.131807 
4872.000000	65.099501 
4871.000000	65.060496 
4870.000000	65.017294 
4869.000000	64.971709 
4868.000000	64.923334 
4867.000000	64.870595 
4866.000000	64.811515 
4865.000000	64.745378 
4864.000000	64.673995 
4863.000000	64.601874 
4862.000000	64.536333 
4861.000000	64.484953 
4860.000000	64.454054 
4859.000000	64.445924 
4858.000000	64.457440 
4857.000000	64.480566 
4856.000000	64.503908 
4855.000000	64.515781 
4854.000000	64.507055 
4853.000000	64.473986 
4852.000000	64.418935 
4851.000000	64.349937 
4850.000000	64.278292 
4849.000000	64.216208 
4848.000000	64.173650 
4847.000000	64.156460 
4846.000000	64.165306 
4845.000000	64.196372 
4844.000000	64.243221 
4843.000000	64.298582 
4842.000000	64.356589 
4841.000000	64.413762 
4840.000000	64.469432 
4839.000000	64.524006 
4838.000000	64.578390 
4837.000000	64.632177 
4836.000000	64.683580 
4835.000000	64.729237 
4834.000000	64.765596 
4833.000000	64.790129 
4832.000000	64.802217 
4831.000000	64.804673 
4830.000000	64.801931 
4829.000000	64.799809 
4828.000000	64.803123 
4827.000000	64.814710 
4826.000000	64.834380 
4825.000000	64.858913 
4824.000000	64.883518 
4823.000000	64.903473 
4822.000000	64.915776 
4821.000000	64.919972 
4820.000000	64.918518 
4819.000000	64.915680 
4818.000000	64.915513 
4817.000000	64.919996 
4816.000000	64.928102 
4815.000000	64.935445 
4814.000000	64.935517 
4813.000000	64.921355 
4812.000000	64.888000 
4811.000000	64.833950 
4810.000000	64.762568 
4809.000000	64.681148 
4808.000000	64.599108 
4807.000000	64.526057 
4806.000000	64.469337 
4805.000000	64.432764 
4804.000000	64.415812 
4803.000000	64.414620 
4802.000000	64.423370 
4801.000000	64.436721 
4800.000000	64.450979 
4799.000000	64.465546 
4798.000000	64.482188 
4797.000000	64.504599 
4796.000000	64.536452 
4795.000000	64.580202 
4794.000000	64.635491 
4793.000000	64.699172 
4792.000000	64.765453 
4791.000000	64.827561 
4790.000000	64.878845 
4789.000000	64.914274 
4788.000000	64.930987 
4787.000000	64.929103 
4786.000000	64.911246 
4785.000000	64.881801 
4784.000000	64.846086 
4783.000000	64.809536 
4782.000000	64.777159 
4781.000000	64.753198 
4780.000000	64.740681 
4779.000000	64.741492 
4778.000000	64.756464 
4777.000000	64.785099 
4776.000000	64.826750 
4775.000000	64.879918 
4774.000000	64.943146 
4773.000000	65.014529 
4772.000000	65.091562 
4771.000000	65.170955 
4770.000000	65.248203 
4769.000000	65.317773 
4768.000000	65.373492 
4767.000000	65.409350 
4766.000000	65.420007 
4765.000000	65.402102 
4764.000000	65.354943 
4763.000000	65.281033 
4762.000000	65.186285 
4761.000000	65.079164 
4760.000000	64.969921 
4759.000000	64.868736 
4758.000000	64.784932 
4757.000000	64.724802 
4756.000000	64.691352 
4755.000000	64.683103 
4754.000000	64.695191 
4753.000000	64.719653 
4752.000000	64.746570 
4751.000000	64.766430 
4750.000000	64.771008 
4749.000000	64.756226 
4748.000000	64.722251 
4747.000000	64.673948 
4746.000000	64.619255 
4745.000000	64.567351 
4744.000000	64.526319 
4743.000000	64.500856 
4742.000000	64.491128 
4741.000000	64.493393 
4740.000000	64.501547 
4739.000000	64.508938 
4738.000000	64.510631 
4737.000000	64.505195 
4736.000000	64.495563 
4735.000000	64.487910 
4734.000000	64.490747 
4733.000000	64.511823 
4732.000000	64.556431 
4731.000000	64.625954 
4730.000000	64.716887 
4729.000000	64.821100 
4728.000000	64.927387 
4727.000000	65.024375 
4726.000000	65.101814 
4725.000000	65.152478 
4724.000000	65.173244 
4723.000000	65.165543 
4722.000000	65.134358 
4721.000000	65.087056 
4720.000000	65.031313 
4719.000000	64.974308 
4718.000000	64.920616 
4717.000000	64.872479 
4716.000000	64.829492 
4715.000000	64.789938 
4714.000000	64.751911 
4713.000000	64.714765 
4712.000000	64.679980 
4711.000000	64.651298 
4710.000000	64.634180 
4709.000000	64.634513 
4708.000000	64.656686 
4707.000000	64.701867 
4706.000000	64.767479 
4705.000000	64.847064 
4704.000000	64.930915 
4703.000000	65.008139 
4702.000000	65.069007 
4701.000000	65.107059 
4700.000000	65.120172 
4699.000000	65.110969 
4698.000000	65.086293 
4697.000000	65.054941 
4696.000000	65.025711 
4695.000000	65.004706 
4694.000000	64.994859 
4693.000000	64.994454 
4692.000000	64.998960 
4691.000000	65.001630 
4690.000000	64.996361 
4689.000000	64.979028 
4688.000000	64.949011 
4687.000000	64.908552 
4686.000000	64.862227 
4685.000000	64.815759 
4684.000000	64.774322 
4683.000000	64.741063 
4682.000000	64.716696 
4681.000000	64.699745 
4680.000000	64.687323 
4679.000000	64.675879 
4678.000000	64.662456 
4677.000000	64.645266 
4676.000000	64.624452 
4675.000000	64.601445 
4674.000000	64.579224 
4673.000000	64.560317 
4672.000000	64.547681 
4671.000000	64.543700 
4670.000000	64.550018 
4669.000000	64.566898 
4668.000000	64.593291 
4667.000000	64.626860 
4666.000000	64.664196 
4665.000000	64.701104 
4664.000000	64.733529 
4663.000000	64.757895 
4662.000000	64.772391 
4661.000000	64.777302 
4660.000000	64.774870 
4659.000000	64.768600 
4658.000000	64.763045 
4657.000000	64.762544 
4656.000000	64.770483 
4655.000000	64.788341 
4654.000000	64.815926 
4653.000000	64.851093 
4652.000000	64.890313 
4651.000000	64.928889 
4650.000000	64.962339 
4649.000000	64.986753 
4648.000000	64.999485 
4647.000000	64.999437 
4646.000000	64.986991 
4645.000000	64.964079 
4644.000000	64.933705 
4643.000000	64.899563 
4642.000000	64.865612 
4641.000000	64.835381 
4640.000000	64.811754 
4639.000000	64.796757 
4638.000000	64.791297 
4637.000000	64.796018 
4636.000000	64.811086 
4635.000000	64.836525 
4634.000000	64.871859 
4633.000000	64.915895 
4632.000000	64.966583 
4631.000000	65.020632 
4630.000000	65.073657 
4629.000000	65.120887 
4628.000000	65.157628 
4627.000000	65.180349 
4626.000000	65.187025 
4625.000000	65.177154 
4624.000000	65.151858 
4623.000000	65.113902 
4622.000000	65.066885 
4621.000000	65.015459 
4620.000000	64.964389 
4619.000000	64.918231 
4618.000000	64.880657 
4617.000000	64.855003 
4616.000000	64.843010 
4615.000000	64.844489 
4614.000000	64.857530 
4613.000000	64.878559 
4612.000000	64.903259 
4611.000000	64.926695 
4610.000000	64.944934 
4609.000000	64.955520 
4608.000000	64.958262 
4607.000000	64.954948 
4606.000000	64.948725 
4605.000000	64.942932 
4604.000000	64.940357 
4603.000000	64.942693 
4602.000000	64.950895 
4601.000000	64.965128 
4600.000000	64.985513 
4599.000000	65.011692 
4598.000000	65.043354 
4597.000000	65.079164 
4596.000000	65.116977 
4595.000000	65.152668 
4594.000000	65.181183 
4593.000000	65.196084 
4592.000000	65.191555 
4591.000000	65.162801 
4590.000000	65.107297 
4589.000000	65.025711 
4588.000000	64.922571 
4587.000000	64.805841 
4586.000000	64.685678 
4585.000000	64.573645 
4584.000000	64.480733 
4583.000000	64.416098 
4582.000000	64.385914 
4581.000000	64.392161 
4580.000000	64.432382 
4579.000000	64.499807 
4578.000000	64.584469 
4577.000000	64.674305 
4576.000000	64.757418 
4575.000000	64.824318 
4574.000000	64.869308 
4573.000000	64.891338 
4572.000000	64.893364 
4571.000000	64.880800 
4570.000000	64.859819 
4569.000000	64.835596 
4568.000000	64.811396 
4567.000000	64.788818 
4566.000000	64.768147 
4565.000000	64.749550 
4564.000000	64.733505 
4563.000000	64.721918 
4562.000000	64.717173 
4561.000000	64.721608 
4560.000000	64.736557 
4559.000000	64.761567 
4558.000000	64.794135 
4557.000000	64.829754 
4556.000000	64.863109 
4555.000000	64.888978 
4554.000000	64.903759 
4553.000000	64.906430 
4552.000000	64.897942 
4551.000000	64.880800 
4550.000000	64.858484 
4549.000000	64.834690 
4548.000000	64.812564 
4547.000000	64.794039 
4546.000000	64.780402 
4545.000000	64.772081 
4544.000000	64.768838 
4543.000000	64.769792 
4542.000000	64.773392 
4541.000000	64.777803 
4540.000000	64.781236 
4539.000000	64.781761 
4538.000000	64.777946 
4537.000000	64.768576 
4536.000000	64.753055 
4535.000000	64.730930 
4534.000000	64.702272 
4533.000000	64.667129 
4532.000000	64.625883 
4531.000000	64.579486 
4530.000000	64.529347 
4529.000000	64.477944 
4528.000000	64.428663 
4527.000000	64.385938 
4526.000000	64.354443 
4525.000000	64.339303 
4524.000000	64.345192 
4523.000000	64.375019 
4522.000000	64.429211 
4521.000000	64.505505 
4520.000000	64.599251 
4519.000000	64.703750 
4518.000000	64.811158 
4517.000000	64.913535 
4516.000000	65.003776 
4515.000000	65.076732 
4514.000000	65.128898 
4513.000000	65.158510 
4512.000000	65.164971 
4511.000000	65.149044 
4510.000000	65.112614 
4509.000000	65.059161 
4508.000000	64.993572 
4507.000000	64.922952 
4506.000000	64.854931 
4505.000000	64.797925 
4504.000000	64.758348 
4503.000000	64.740085 
4502.000000	64.742350 
4501.000000	64.760136 
4500.000000	64.784359 
4499.000000	64.804077 
4498.000000	64.808344 
4497.000000	64.789009 
4496.000000	64.742827 
4495.000000	64.672613 
4494.000000	64.587497 
4493.000000	64.500975 
4492.000000	64.427900 
4491.000000	64.380908 
4490.000000	64.367008 
4489.000000	64.386177 
4488.000000	64.431190 
4487.000000	64.489960 
4486.000000	64.549183 
4485.000000	64.596986 
4484.000000	64.626502 
4483.000000	64.635443 
4482.000000	64.626002 
4481.000000	64.602518 
4480.000000	64.567804 
4479.000000	64.524507 
4478.000000	64.474821 
4477.000000	64.420890 
4476.000000	64.365625 
4475.000000	64.313054 
4474.000000	64.267492 
4473.000000	64.235234 
4472.000000	64.224123 
4471.000000	64.236783 
4470.000000	64.269089 
4469.000000	64.312195 
4468.000000	64.354872 
4467.000000	64.385104 
4466.000000	64.393734 
4465.000000	64.381718 
4464.000000	64.359188 
4463.000000	64.335107 
4462.000000	64.319562 
4461.000000	64.324069 
4460.000000	64.357614 
4459.000000	64.429736 
4458.000000	64.540719 
4457.000000	64.683461 
4456.000000	64.835548 
4455.000000	64.967083 
4454.000000	65.039563 
4453.000000	65.006494 
4452.000000	64.838576 
4451.000000	64.529347 
4450.000000	64.113736 
4449.000000	63.661360 
4448.000000	63.273549 
4447.000000	63.060808 
4446.000000	63.115668 
4445.000000	63.489246 
4444.000000	64.167618 
4443.000000	65.074682 
4442.000000	66.088771 
4441.000000	67.078757 
4440.000000	67.953515 
4439.000000	68.686127 
4438.000000	69.328975 
4437.000000	69.982004 
4436.000000	70.760273 
4435.000000	71.729254 
4434.000000	72.874808 
4433.000000	74.074482 
4432.000000	75.129532 
4431.000000	75.797224 
4430.000000	75.871634 
4429.000000	75.229120 
4428.000000	73.880481 
4427.000000	71.971154 
4426.000000	69.759440 
4425.000000	67.559480 
4424.000000	65.670061 
4423.000000	64.318585 
4422.000000	63.614320 
4421.000000	63.550329 
4420.000000	64.024782 
4419.000000	64.874768 
4418.000000	65.924954 
4417.000000	67.008137 
4416.000000	67.992711 
4415.000000	68.778800 
4414.000000	69.302082 
4413.000000	69.537925 
4412.000000	69.493770 
4411.000000	69.209432 
4410.000000	68.739986 
4409.000000	68.151903 
4408.000000	67.504310 
4407.000000	66.842937 
4406.000000	66.196012 
4405.000000	65.588688 
4404.000000	65.038728 
4403.000000	64.569783 
4402.000000	64.202308 
4401.000000	63.950872 
4400.000000	63.820433 
4399.000000	63.794469 
4398.000000	63.847851 
4397.000000	63.945508 
4396.000000	64.056062 
4395.000000	64.157056 
4394.000000	64.234828 
4393.000000	64.279747 
4392.000000	64.292621 
4391.000000	64.280843 
4390.000000	64.253091 
4389.000000	64.215540 
4388.000000	64.173841 
4387.000000	64.132308 
4386.000000	64.096975 
4385.000000	64.074754 
4384.000000	64.070272 
4383.000000	64.085531 
4382.000000	64.120745 
4381.000000	64.173579 
4380.000000	64.238333 
4379.000000	64.308261 
4378.000000	64.375662 
4377.000000	64.435434 
4376.000000	64.488148 
4375.000000	64.537930 
4374.000000	64.588689 
4373.000000	64.644551 
4372.000000	64.707970 
4371.000000	64.778923 
4370.000000	64.853692 
4369.000000	64.927530 
4368.000000	64.997196 
4367.000000	65.060353 
4366.000000	65.116667 
4365.000000	65.166640 
4364.000000	65.211105 
4363.000000	65.250778 
4362.000000	65.286064 
4361.000000	65.316534 
4360.000000	65.341353 
4359.000000	65.360188 
4358.000000	65.373206 
4357.000000	65.382099 
4356.000000	65.388846 
4355.000000	65.395331 
4354.000000	65.402030 
4353.000000	65.408086 
4352.000000	65.410494 
4351.000000	65.405511 
4350.000000	65.388965 
4349.000000	65.358114 
4348.000000	65.312170 
4347.000000	65.253520 
4346.000000	65.186882 
4345.000000	65.118288 
4344.000000	65.054273 
4343.000000	65.000820 
4342.000000	64.961910 
4341.000000	64.938879 
4340.000000	64.930343 
4339.000000	64.932990 
4338.000000	64.941763 
4337.000000	64.950895 
4336.000000	64.955282 
4335.000000	64.951443 
4334.000000	64.937829 
4333.000000	64.915084 
4332.000000	64.886236 
4331.000000	64.856028 
4330.000000	64.830279 
4329.000000	64.814233 
4328.000000	64.811682 
4327.000000	64.823412 
4326.000000	64.847660 
4325.000000	64.879655 
4324.000000	64.912915 
4323.000000	64.940404 
4322.000000	64.956378 
4321.000000	64.957475 
4320.000000	64.943337 
4319.000000	64.916729 
4318.000000	64.882683 
4317.000000	64.847064 
4316.000000	64.815187 
4315.000000	64.790630 
4314.000000	64.774680 
4313.000000	64.766097 
4312.000000	64.761853 
4311.000000	64.758372 
4310.000000	64.752769 
4309.000000	64.743757 
4308.000000	64.731955 
4307.000000	64.719772 
4306.000000	64.710831 
4305.000000	64.709019 
4304.000000	64.717769 
4303.000000	64.738988 
4302.000000	64.772701 
4301.000000	64.816999 
4300.000000	64.868402 
4299.000000	64.922475 
4298.000000	64.974737 
4297.000000	65.021061 
4296.000000	65.058398 
4295.000000	65.084934 
4294.000000	65.100240 
4293.000000	65.104794 
4292.000000	65.099835 
4291.000000	65.087199 
4290.000000	65.068769 
4289.000000	65.046715 
4288.000000	65.023016 
4287.000000	64.999914 
4286.000000	64.979171 
4285.000000	64.962029 
4284.000000	64.949083 
4283.000000	64.940237 
4282.000000	64.934849 
4281.000000	64.931941 
4280.000000	64.930295 
4279.000000	64.928817 
4278.000000	64.926695 
4277.000000	64.923667 
4276.000000	64.919829 
4275.000000	64.915728 
4274.000000	64.912080 
4273.000000	64.909625 
4272.000000	64.908814 
4271.000000	64.909625 
4270.000000	64.911723 
4269.000000	64.914393 
4268.000000	64.916419 
4267.000000	64.916658 
4266.000000	64.914703 
4265.000000	64.910912 
4264.000000	64.906334 
4263.000000	64.902472 
4262.000000	64.901351 
4261.000000	64.904284 
4260.000000	64.911794 
4259.000000	64.922642 
4258.000000	64.933943 
4257.000000	64.941573 
4256.000000	64.941239 
4255.000000	64.929366 
4254.000000	64.904356 
4253.000000	64.867377 
4252.000000	64.822578 
4251.000000	64.776492 
4250.000000	64.736628 
4249.000000	64.709854 
4248.000000	64.700436 
4247.000000	64.709067 
4246.000000	64.732360 
4245.000000	64.763665 
4244.000000	64.794325 
4243.000000	64.815878 
4242.000000	64.822077 
4241.000000	64.810037 
4240.000000	64.780974 
4239.000000	64.739346 
4238.000000	64.692068 
4237.000000	64.646291 
4236.000000	64.608335 
4235.000000	64.582180 
4234.000000	64.569401 
4233.000000	64.569354 
4232.000000	64.580082 
4231.000000	64.599299 
4230.000000	64.624905 
4229.000000	64.655351 
4228.000000	64.689064 
4227.000000	64.724206 
4226.000000	64.758229 
4225.000000	64.787888 
4224.000000	64.809823 
4223.000000	64.821386 
4222.000000	64.821529 
4221.000000	64.811062 
4220.000000	64.792895 
4219.000000	64.771246 
4218.000000	64.750957 
4217.000000	64.736175 
4216.000000	64.729809 
4215.000000	64.732837 
4214.000000	64.744687 
4213.000000	64.763379 
4212.000000	64.786624 
4211.000000	64.811682 
4210.000000	64.836764 
4209.000000	64.859962 
4208.000000	64.879369 
4207.000000	64.893317 
4206.000000	64.900088 
4205.000000	64.898681 
4204.000000	64.889049 
4203.000000	64.872598 
4202.000000	64.852070 
4201.000000	64.830827 
4200.000000	64.812183 
4199.000000	64.798164 
4198.000000	64.789128 
4197.000000	64.783596 
4196.000000	64.778447 
4195.000000	64.770102 
4194.000000	64.755177 
4193.000000	64.731502 
4192.000000	64.698863 
4191.000000	64.658665 
4190.000000	64.614272 
4189.000000	64.569759 
4188.000000	64.530324 
4187.000000	64.500761 
4186.000000	64.485740 
4185.000000	64.489197 
4184.000000	64.513468 
4183.000000	64.559316 
4182.000000	64.624500 
4181.000000	64.703655 
4180.000000	64.788246 
4179.000000	64.867568 
4178.000000	64.930868 
4177.000000	64.969420 
4176.000000	64.978694 
4175.000000	64.959406 
4174.000000	64.917945 
4173.000000	64.864921 
4172.000000	64.812970 
4171.000000	64.773535 
4170.000000	64.754581 
4169.000000	64.758682 
4168.000000	64.783120 
4167.000000	64.820718 
4166.000000	64.862370 
4165.000000	64.899516 
4164.000000	64.926195 
4163.000000	64.940333 
4162.000000	64.943313 
4161.000000	64.939594 
4160.000000	64.934015 
4159.000000	64.931201 
4158.000000	64.933967 
4157.000000	64.943027 
4156.000000	64.957547 
4155.000000	64.975142 
4154.000000	64.993429 
4153.000000	65.009641 
4152.000000	65.021824 
4151.000000	65.028166 
4150.000000	65.027403 
4149.000000	65.018510 
4148.000000	65.000772 
4147.000000	64.974379 
4146.000000	64.940667 
4145.000000	64.902186 
4144.000000	64.862370 
4143.000000	64.824748 
4142.000000	64.792227 
4141.000000	64.766454 
4140.000000	64.747643 
4139.000000	64.734220 
4138.000000	64.723753 
4137.000000	64.713883 
4136.000000	64.703106 
4135.000000	64.690947 
4134.000000	64.678311 
4133.000000	64.666557 
4132.000000	64.657282 
4131.000000	64.651155 
4130.000000	64.648485 
4129.000000	64.648246 
4128.000000	64.649581 
4127.000000	64.651846 
4126.000000	64.655375 
4125.000000	64.661455 
4124.000000	64.672160 
4123.000000	64.689564 
4122.000000	64.714813 
4121.000000	64.747405 
4120.000000	64.785599 
4119.000000	64.826798 
4118.000000	64.868140 
4117.000000	64.907407 
4116.000000	64.943361 
4115.000000	64.975929 
4114.000000	65.005755 
4113.000000	65.033769 
4112.000000	65.060210 
4111.000000	65.084624 
4110.000000	65.105795 
4109.000000	65.122318 
4108.000000	65.133261 
4107.000000	65.138554 
4106.000000	65.139937 
4105.000000	65.140056 
4104.000000	65.142250 
4103.000000	65.149140 
4102.000000	65.162134 
4101.000000	65.180587 
4100.000000	65.202164 
4099.000000	65.223002 
4098.000000	65.238928 
4097.000000	65.246200 
4096.000000	65.242648 
4095.000000	65.227866 
4094.000000	65.203261 
4093.000000	65.171670 
4092.000000	65.136647 
4091.000000	65.101718 
4090.000000	65.069794 
4089.000000	65.042734 
4088.000000	65.021276 
4087.000000	65.005016 
4086.000000	64.993047 
4085.000000	64.984393 
4084.000000	64.978671 
4083.000000	64.975452 
4082.000000	64.974689 
4081.000000	64.976501 
4080.000000	64.980626 
4079.000000	64.986324 
4078.000000	64.992189 
4077.000000	64.996385 
4076.000000	64.996480 
4075.000000	64.990234 
4074.000000	64.975571 
4073.000000	64.951014 
4072.000000	64.916276 
4071.000000	64.872431 
4070.000000	64.822292 
4069.000000	64.770174 
4068.000000	64.721608 
4067.000000	64.682364 
4066.000000	64.657807 
4065.000000	64.651679 
4064.000000	64.665102 
4063.000000	64.696240 
4062.000000	64.740014 
4061.000000	64.789223 
4060.000000	64.835715 
4059.000000	64.872360 
4058.000000	64.894175 
4057.000000	64.899802 
4056.000000	64.891505 
4055.000000	64.874601 
4054.000000	64.855837 
4053.000000	64.841890 
4052.000000	64.837574 
4051.000000	64.845013 
4050.000000	64.863657 
4049.000000	64.890336 
4048.000000	64.920735 
4047.000000	64.950060 
4046.000000	64.974284 
4045.000000	64.990663 
4044.000000	64.997982 
4043.000000	64.996361 
4042.000000	64.986848 
4041.000000	64.971399 
4040.000000	64.952230 
4039.000000	64.931821 
4038.000000	64.912533 
4037.000000	64.896726 
4036.000000	64.886689 
4035.000000	64.883995 
4034.000000	64.889407 
4033.000000	64.902567 
4032.000000	64.921879 
4031.000000	64.945030 
4030.000000	64.969015 
4029.000000	64.990592 
4028.000000	65.006852 
4027.000000	65.015792 
4026.000000	65.016484 
4025.000000	65.008926 
4024.000000	64.994072 
4023.000000	64.973473 
4022.000000	64.949274 
4021.000000	64.924073 
4020.000000	64.900565 
4019.000000	64.881038 
4018.000000	64.867353 
4017.000000	64.860987 
4016.000000	64.862775 
4015.000000	64.872813 
4014.000000	64.890336 
4013.000000	64.913797 
4012.000000	64.941024 
4011.000000	64.969420 
4010.000000	64.996385 
4009.000000	65.019464 
4008.000000	65.036559 
4007.000000	65.046024 
4006.000000	65.046715 
4005.000000	65.037751 
4004.000000	65.018582 
4003.000000	64.988899 
4002.000000	64.948821 
4001.000000	64.899659 
4000.000000	64.844179 
3999.000000	64.787197 
3998.000000	64.734578 
3997.000000	64.693593 
3996.000000	64.671516 
3995.000000	64.674353 
3994.000000	64.705109 
3993.000000	64.762973 
3992.000000	64.843225 
3991.000000	64.937686 
3990.000000	65.035796 
3989.000000	65.127062 
3988.000000	65.202689 
3987.000000	65.257239 
3986.000000	65.289187 
3985.000000	65.300703 
3984.000000	65.296649 
3983.000000	65.283012 
3982.000000	65.265393 
3981.000000	65.248131 
3980.000000	65.233349 
3979.000000	65.221786 
3978.000000	65.212583 
3977.000000	65.204668 
3976.000000	65.196633 
3975.000000	65.187454 
3974.000000	65.176200 
3973.000000	65.161991 
3972.000000	65.143895 
3971.000000	65.120649 
3970.000000	65.091228 
3969.000000	65.055060 
3968.000000	65.012598 
3967.000000	64.965796 
3966.000000	64.917349 
3965.000000	64.870333 
3964.000000	64.827394 
3963.000000	64.790129 
3962.000000	64.758801 
3961.000000	64.732313 
3960.000000	64.708733 
3959.000000	64.686012 
3958.000000	64.663124 
3957.000000	64.640522 
3956.000000	64.619970 
3955.000000	64.603829 
3954.000000	64.594602 
3953.000000	64.593768 
3952.000000	64.600968 
3951.000000	64.613771 
3950.000000	64.627838 
3949.000000	64.638018 
3948.000000	64.639616 
3947.000000	64.629602 
3946.000000	64.607334 
3945.000000	64.575099 
3944.000000	64.537382 
3943.000000	64.500522 
3942.000000	64.470911 
3941.000000	64.454150 
3940.000000	64.453840 
3939.000000	64.471101 
3938.000000	64.504098 
3937.000000	64.548802 
3936.000000	64.600157 
3935.000000	64.652371 
3934.000000	64.700031 
3933.000000	64.738965 
3932.000000	64.766860 
3931.000000	64.783263 
3930.000000	64.789080 
3929.000000	64.786696 
3928.000000	64.779114 
3927.000000	64.769601 
3926.000000	64.760851 
3925.000000	64.755153 
3924.000000	64.753723 
3923.000000	64.756846 
3922.000000	64.763617 
3921.000000	64.772582 
3920.000000	64.781856 
3919.000000	64.789748 
3918.000000	64.795136 
3917.000000	64.797186 
3916.000000	64.796209 
3915.000000	64.793038 
3914.000000	64.789438 
3913.000000	64.787530 
3912.000000	64.789748 
3911.000000	64.798331 
3910.000000	64.815044 
3909.000000	64.840841 
3908.000000	64.875006 
3907.000000	64.915251 
3906.000000	64.957618 
3905.000000	64.997124 
3904.000000	65.028882 
3903.000000	65.049123 
3902.000000	65.056109 
3901.000000	65.050530 
3900.000000	65.035581 
3899.000000	65.016055 
3898.000000	64.997315 
3897.000000	64.983749 
3896.000000	64.977693 
3895.000000	64.978647 
3894.000000	64.983701 
3893.000000	64.988231 
3892.000000	64.987516 
3891.000000	64.978146 
3890.000000	64.958810 
3889.000000	64.931297 
3888.000000	64.899516 
3887.000000	64.868998 
3886.000000	64.845085 
3885.000000	64.832043 
3884.000000	64.831995 
3883.000000	64.844393 
3882.000000	64.866399 
3881.000000	64.893269 
3880.000000	64.919662 
3879.000000	64.940667 
3878.000000	64.952659 
3877.000000	64.954423 
3876.000000	64.947080 
3875.000000	64.933896 
3874.000000	64.919209 
3873.000000	64.907765 
3872.000000	64.903187 
3871.000000	64.907264 
3870.000000	64.919447 
3869.000000	64.936947 
3868.000000	64.955544 
3867.000000	64.970803 
3866.000000	64.979076 
3865.000000	64.978361 
3864.000000	64.969086 
3863.000000	64.953851 
3862.000000	64.936518 
3861.000000	64.921092 
3860.000000	64.910411 
3859.000000	64.905452 
3858.000000	64.904952 
3857.000000	64.905977 
3856.000000	64.904713 
3855.000000	64.898085 
3854.000000	64.884376 
3853.000000	64.864087 
3852.000000	64.839673 
3851.000000	64.814996 
3850.000000	64.794158 
3849.000000	64.780306 
3848.000000	64.774727 
3847.000000	64.776587 
3846.000000	64.783287 
3845.000000	64.791440 
3844.000000	64.797902 
3843.000000	64.801001 
3842.000000	64.800834 
3841.000000	64.799404 
3840.000000	64.799618 
3839.000000	64.804601 
3838.000000	64.816188 
3837.000000	64.834547 
3836.000000	64.857745 
3835.000000	64.882373 
3834.000000	64.904522 
3833.000000	64.920806 
3832.000000	64.929556 
3831.000000	64.930605 
3830.000000	64.925575 
3829.000000	64.917039 
3828.000000	64.907550 
3827.000000	64.899063 
3826.000000	64.892029 
3825.000000	64.885950 
3824.000000	64.879775 
3823.000000	64.872765 
3822.000000	64.864897 
3821.000000	64.857435 
3820.000000	64.852523 
3819.000000	64.852595 
3818.000000	64.859318 
3817.000000	64.872717 
3816.000000	64.891004 
3815.000000	64.910769 
3814.000000	64.927792 
3813.000000	64.938163 
3812.000000	64.939332 
3811.000000	64.930939 
3810.000000	64.915037 
3809.000000	64.895582 
3808.000000	64.877414 
3807.000000	64.864873 
3806.000000	64.861130 
3805.000000	64.867258 
3804.000000	64.882135 
3803.000000	64.903259 
3802.000000	64.927148 
3801.000000	64.950633 
3800.000000	64.971303 
3799.000000	64.988136 
3798.000000	65.001249 
3797.000000	65.011501 
3796.000000	65.020132 
3795.000000	65.028047 
3794.000000	65.035510 
3793.000000	65.041923 
3792.000000	65.045857 
3791.000000	65.045404 
3790.000000	65.038752 
3789.000000	65.024924 
3788.000000	65.004038 
3787.000000	64.978027 
3786.000000	64.949917 
3785.000000	64.923810 
3784.000000	64.904069 
3783.000000	64.894270 
3782.000000	64.896559 
3781.000000	64.910888 
3780.000000	64.935278 
3779.000000	64.965867 
3778.000000	64.998054 
3777.000000	65.027189 
3776.000000	65.049767 
3775.000000	65.063786 
3774.000000	65.069174 
3773.000000	65.067148 
3772.000000	65.059423 
3771.000000	65.047574 
3770.000000	65.032625 
3769.000000	65.015363 
3768.000000	64.996361 
3767.000000	64.976596 
3766.000000	64.957451 
3765.000000	64.940714 
3764.000000	64.928197 
3763.000000	64.921140 
3762.000000	64.919829 
3761.000000	64.923191 
3760.000000	64.929103 
3759.000000	64.934754 
3758.000000	64.937663 
3757.000000	64.936161 
3756.000000	64.930343 
3755.000000	64.921736 
3754.000000	64.913558 
3753.000000	64.909529 
3752.000000	64.913558 
3751.000000	64.928245 
3750.000000	64.954853 
3749.000000	64.992880 
3748.000000	65.039944 
3747.000000	65.092468 
3746.000000	65.145683 
3745.000000	65.194606 
3744.000000	65.234398 
3743.000000	65.261125 
3742.000000	65.272545 
3741.000000	65.268373 
3740.000000	65.250825 
3739.000000	65.223979 
3738.000000	65.193533 
3737.000000	65.165305 
3736.000000	65.144658 
3735.000000	65.135073 
3734.000000	65.137505 
3733.000000	65.149974 
3732.000000	65.168428 
3731.000000	65.187454 
3730.000000	65.201520 
3729.000000	65.206336 
3728.000000	65.199708 
3727.000000	65.182185 
3726.000000	65.156388 
3725.000000	65.126824 
3724.000000	65.098261 
3723.000000	65.075159 
3722.000000	65.060782 
3721.000000	65.056633 
3720.000000	65.062427 
3719.000000	65.076422 
3718.000000	65.096068 
3717.000000	65.118312 
3716.000000	65.140151 
3715.000000	65.159296 
3714.000000	65.174412 
3713.000000	65.184950 
3712.000000	65.191102 
3711.000000	65.193772 
3710.000000	65.194249 
3709.000000	65.193891 
3708.000000	65.193915 
3707.000000	65.195059 
3706.000000	65.197515 
3705.000000	65.200996 
3704.000000	65.204787 
3703.000000	65.207815 
3702.000000	65.208983 
3701.000000	65.207481 
3700.000000	65.202713 
3699.000000	65.194606 
3698.000000	65.183043 
3697.000000	65.168190 
3696.000000	65.150117 
3695.000000	65.128755 
3694.000000	65.104055 
3693.000000	65.076351 
3692.000000	65.046215 
3691.000000	65.014743 
3690.000000	64.983677 
3689.000000	64.955043 
3688.000000	64.930963 
3687.000000	64.913272 
3686.000000	64.902830 
3685.000000	64.899373 
3684.000000	64.901661 
3683.000000	64.907884 
3682.000000	64.915657 
3681.000000	64.923310 
3680.000000	64.929866 
3679.000000	64.935636 
3678.000000	64.941787 
3677.000000	64.950037 
3676.000000	64.961957 
3675.000000	64.978599 
3674.000000	64.999723 
3673.000000	65.024137 
3672.000000	65.049719 
3671.000000	65.074133 
3670.000000	65.095567 
3669.000000	65.112924 
3668.000000	65.126252 
3667.000000	65.136432 
3666.000000	65.144753 
3665.000000	65.152263 
3664.000000	65.159201 
3663.000000	65.164828 
3662.000000	65.167689 
3661.000000	65.166068 
3660.000000	65.158724 
3659.000000	65.145373 
3658.000000	65.127158 
3657.000000	65.106201 
3656.000000	65.085196 
3655.000000	65.066719 
3654.000000	65.052390 
3653.000000	65.042591 
3652.000000	65.036320 
3651.000000	65.031623 
3650.000000	65.026354 
3649.000000	65.019035 
3648.000000	65.009331 
3647.000000	64.998102 
3646.000000	64.987254 
3645.000000	64.979100 
3644.000000	64.975595 
3643.000000	64.977622 
3642.000000	64.984726 
3641.000000	64.995121 
3640.000000	65.006136 
3639.000000	65.014958 
3638.000000	65.019154 
3637.000000	65.017318 
3636.000000	65.009212 
3635.000000	64.995670 
3634.000000	64.978337 
3633.000000	64.958977 
3632.000000	64.939427 
3631.000000	64.921092 
3630.000000	64.904999 
3629.000000	64.891886 
3628.000000	64.882373 
3627.000000	64.877033 
3626.000000	64.876246 
3625.000000	64.880371 
3624.000000	64.889144 
3623.000000	64.901947 
3622.000000	64.917516 
3621.000000	64.934325 
3620.000000	64.950442 
3619.000000	64.964342 
3618.000000	64.974904 
3617.000000	64.981889 
3616.000000	64.985537 
3615.000000	64.987158 
3614.000000	64.988493 
3613.000000	64.991331 
3612.000000	64.997315 
3611.000000	65.007328 
3610.000000	65.021276 
3609.000000	65.038108 
3608.000000	65.056133 
3607.000000	65.073084 
3606.000000	65.086960 
3605.000000	65.096187 
3604.000000	65.100240 
3603.000000	65.099525 
3602.000000	65.095162 
3601.000000	65.088868 
3600.000000	65.082287 
3599.000000	65.076541 
3598.000000	65.071845 
3597.000000	65.067481 
3596.000000	65.062165 
3595.000000	65.054464 
3594.000000	65.043234 
3593.000000	65.028047 
3592.000000	65.009331 
3591.000000	64.988303 
3590.000000	64.966726 
3589.000000	64.946126 
3588.000000	64.927983 
3587.000000	64.913177 
3586.000000	64.902186 
3585.000000	64.894938 
3584.000000	64.891123 
3583.000000	64.890336 
3582.000000	64.892268 
3581.000000	64.896774 
3580.000000	64.903903 
3579.000000	64.913702 
3578.000000	64.926147 
3577.000000	64.940953 
3576.000000	64.957451 
3575.000000	64.974641 
3574.000000	64.991211 
3573.000000	65.005731 
3572.000000	65.016651 
3571.000000	65.022659 
3570.000000	65.022850 
3569.000000	65.016794 
3568.000000	65.004777 
3567.000000	64.987564 
3566.000000	64.966440 
3565.000000	64.942884 
3564.000000	64.918446 
3563.000000	64.894700 
3562.000000	64.873027 
3561.000000	64.855074 
3560.000000	64.842438 
3559.000000	64.837002 
3558.000000	64.840316 
3557.000000	64.853477 
3556.000000	64.876270 
3555.000000	64.907121 
3554.000000	64.942908 
3553.000000	64.979529 
3552.000000	65.012574 
3551.000000	65.038251 
3550.000000	65.054130 
3549.000000	65.059685 
3548.000000	65.056252 
3547.000000	65.046548 
3546.000000	65.033864 
3545.000000	65.021324 
3544.000000	65.010857 
3543.000000	65.003037 
3542.000000	64.996743 
3541.000000	64.990019 
3540.000000	64.980602 
3539.000000	64.966773 
3538.000000	64.948177 
3537.000000	64.925837 
3536.000000	64.902520 
3535.000000	64.881491 
3534.000000	64.866375 
3533.000000	64.859819 
3532.000000	64.863157 
3531.000000	64.875984 
3530.000000	64.896225 
3529.000000	64.920568 
3528.000000	64.945292 
3527.000000	64.966893 
3526.000000	64.982867 
3525.000000	64.991927 
3524.000000	64.994001 
3523.000000	64.989924 
3522.000000	64.981198 
3521.000000	64.969229 
3520.000000	64.955139 
3519.000000	64.939355 
3518.000000	64.921784 
3517.000000	64.901971 
3516.000000	64.879536 
3515.000000	64.854454 
3514.000000	64.827156 
3513.000000	64.798784 
3512.000000	64.770984 
3511.000000	64.745688 
3510.000000	64.724469 
3509.000000	64.708828 
3508.000000	64.699268 
3507.000000	64.696002 
3506.000000	64.698410 
3505.000000	64.705657 
3504.000000	64.716672 
3503.000000	64.730644 
3502.000000	64.746737 
3501.000000	64.764285 
3500.000000	64.782691 
3499.000000	64.801263 
3498.000000	64.819121 
3497.000000	64.835309 
3496.000000	64.849019 
3495.000000	64.859628 
3494.000000	64.866924 
3493.000000	64.871239 
3492.000000	64.873361 
3491.000000	64.874339 
3490.000000	64.875149 
3489.000000	64.876675 
3488.000000	64.879155 
3487.000000	64.882397 
3486.000000	64.885735 
3485.000000	64.888429 
3484.000000	64.890050 
3483.000000	64.890241 
3482.000000	64.889216 
3481.000000	64.887619 
3480.000000	64.886188 
3479.000000	64.885544 
3478.000000	64.885807 
3477.000000	64.886713 
3476.000000	64.887738 
3475.000000	64.888334 
3474.000000	64.888215 
3473.000000	64.887714 
3472.000000	64.887690 
3471.000000	64.889550 
3470.000000	64.894556 
3469.000000	64.903211 
3468.000000	64.915013 
3467.000000	64.928340 
3466.000000	64.940237 
3465.000000	64.947462 
3464.000000	64.947271 
3463.000000	64.938592 
3462.000000	64.922142 
3461.000000	64.900898 
3460.000000	64.879226 
3459.000000	64.862227 
3458.000000	64.854240 
3457.000000	64.858078 
3456.000000	64.874124 
3455.000000	64.900565 
3454.000000	64.933681 
3453.000000	64.968991 
3452.000000	65.002274 
3451.000000	65.030503 
3450.000000	65.052270 
3449.000000	65.067553 
3448.000000	65.077257 
3447.000000	65.082430 
3446.000000	65.083765 
3445.000000	65.081119 
3444.000000	65.073633 
3443.000000	65.060091 
3442.000000	65.039658 
3441.000000	65.012192 
3440.000000	64.978766 
3439.000000	64.941382 
3438.000000	64.902973 
3437.000000	64.866685 
3436.000000	64.835429 
3435.000000	64.811396 
3434.000000	64.795804 
3433.000000	64.788818 
3432.000000	64.789772 
3431.000000	64.797258 
3430.000000	64.809465 
3429.000000	64.824342 
3428.000000	64.840173 
3427.000000	64.855194 
3426.000000	64.868664 
3425.000000	64.880514 
3424.000000	64.891672 
3423.000000	64.903616 
3422.000000	64.918088 
3421.000000	64.936566 
3420.000000	64.959383 
3419.000000	64.985537 
3418.000000	65.012574 
3417.000000	65.037012 
3416.000000	65.055012 
3415.000000	65.063285 
3414.000000	65.059876 
3413.000000	65.044784 
3412.000000	65.020227 
3411.000000	64.990019 
3410.000000	64.959025 
3409.000000	64.931797 
3408.000000	64.911913 
3407.000000	64.901256 
3406.000000	64.899611 
3405.000000	64.905071 
3404.000000	64.914751 
3403.000000	64.925551 
3402.000000	64.934802 
3401.000000	64.941000 
3400.000000	64.943814 
3399.000000	64.944314 
3398.000000	64.944314 
3397.000000	64.945888 
3396.000000	64.950585 
3395.000000	64.959049 
3394.000000	64.970827 
3393.000000	64.984273 
3392.000000	64.996957 
3391.000000	65.006232 
3390.000000	65.009903 
3389.000000	65.006875 
3388.000000	64.997386 
3387.000000	64.983034 
3386.000000	64.966464 
3385.000000	64.950752 
3384.000000	64.938735 
3383.000000	64.932370 
3382.000000	64.932370 
3381.000000	64.938020 
3380.000000	64.947414 
3379.000000	64.958095 
3378.000000	64.967679 
3377.000000	64.974641 
3376.000000	64.978480 
3375.000000	64.979767 
3374.000000	64.979743 
3373.000000	64.979982 
3372.000000	64.981579 
3371.000000	64.984893 
3370.000000	64.989113 
3369.000000	64.992618 
3368.000000	64.993572 
3367.000000	64.990544 
3366.000000	64.983129 
3365.000000	64.972352 
3364.000000	64.960527 
3363.000000	64.950728 
3362.000000	64.945793 
3361.000000	64.947581 
3360.000000	64.956212 
3359.000000	64.969801 
3358.000000	64.984750 
3357.000000	64.996552 
3356.000000	65.000867 
3355.000000	64.994955 
3354.000000	64.978146 
3353.000000	64.952373 
3352.000000	64.921689 
3351.000000	64.891624 
3350.000000	64.867663 
3349.000000	64.854073 
3348.000000	64.853262 
3347.000000	64.864873 
3346.000000	64.886450 
3345.000000	64.913940 
3344.000000	64.942812 
3343.000000	64.969062 
3342.000000	64.989948 
3341.000000	65.004444 
3340.000000	65.012860 
3339.000000	65.016627 
3338.000000	65.017437 
3337.000000	65.016913 
3336.000000	65.016150 
3335.000000	65.015625 
3334.000000	65.015220 
3333.000000	65.014648 
3332.000000	65.013575 
3331.000000	65.011787 
3330.000000	65.009117 
3329.000000	65.005445 
3328.000000	65.000653 
3327.000000	64.994263 
3326.000000	64.985990 
3325.000000	64.975643 
3324.000000	64.963483 
3323.000000	64.950346 
3322.000000	64.937877 
3321.000000	64.928054 
3320.000000	64.923119 
3319.000000	64.924955 
3318.000000	64.934706 
3317.000000	64.952254 
3316.000000	64.976286 
3315.000000	65.004277 
3314.000000	65.033078 
3313.000000	65.059494 
3312.000000	65.080618 
3311.000000	65.094375 
3310.000000	65.099549 
3309.000000	65.095853 
3308.000000	65.083813 
3307.000000	65.064239 
3306.000000	65.038228 
3305.000000	65.006875 
3304.000000	64.971375 
3303.000000	64.933204 
3302.000000	64.894199 
3301.000000	64.856600 
3300.000000	64.822936 
3299.000000	64.795732 
3298.000000	64.776992 
3297.000000	64.768028 
3296.000000	64.768767 
3295.000000	64.778137 
3294.000000	64.793753 
3293.000000	64.812874 
3292.000000	64.832305 
3291.000000	64.849519 
3290.000000	64.862847 
3289.000000	64.871835 
3288.000000	64.877057 
3287.000000	64.880204 
3286.000000	64.883327 
3285.000000	64.888381 
3284.000000	64.896798 
3283.000000	64.909172 
3282.000000	64.925074 
3281.000000	64.943027 
3280.000000	64.960980 
3279.000000	64.976239 
3278.000000	64.986371 
3277.000000	64.989495 
3276.000000	64.984846 
3275.000000	64.972805 
3274.000000	64.954924 
3273.000000	64.933896 
3272.000000	64.912867 
3271.000000	64.894747 
3270.000000	64.881730 
3269.000000	64.874958 
3268.000000	64.874124 
3267.000000	64.877843 
3266.000000	64.883899 
3265.000000	64.890074 
3264.000000	64.894580 
3263.000000	64.896416 
3262.000000	64.895701 
3261.000000	64.893126 
3260.000000	64.889717 
3259.000000	64.886307 
3258.000000	64.883303 
3257.000000	64.880418 
3256.000000	64.877367 
3255.000000	64.873981 
3254.000000	64.870810 
3253.000000	64.869093 
3252.000000	64.870476 
3251.000000	64.876413 
3250.000000	64.887571 
3249.000000	64.903235 
3248.000000	64.921164 
3247.000000	64.937925 
3246.000000	64.949536 
3245.000000	64.952516 
3244.000000	64.944767 
3243.000000	64.926385 
3242.000000	64.899730 
3241.000000	64.869093 
3240.000000	64.839529 
3239.000000	64.815926 
3238.000000	64.801955 
3237.000000	64.799356 
3236.000000	64.807772 
3235.000000	64.825081 
3234.000000	64.847850 
3233.000000	64.872264 
3232.000000	64.895009 
3231.000000	64.913582 
3230.000000	64.926624 
3229.000000	64.934277 
3228.000000	64.937758 
3227.000000	64.939260 
3226.000000	64.941191 
3225.000000	64.945936 
3224.000000	64.955019 
3223.000000	64.969158 
3222.000000	64.987969 
3221.000000	65.010070 
3220.000000	65.033197 
3219.000000	65.054845 
3218.000000	65.072751 
3217.000000	65.085268 
3216.000000	65.091681 
3215.000000	65.092444 
3214.000000	65.088438 
3213.000000	65.081214 
3212.000000	65.071678 
3211.000000	65.060734 
3210.000000	65.048098 
3209.000000	65.032839 
3208.000000	65.013456 
3207.000000	64.988780 
3206.000000	64.958047 
3205.000000	64.921426 
3204.000000	64.880204 
3203.000000	64.836788 
3202.000000	64.794349 
3201.000000	64.756321 
3200.000000	64.725756 
3199.000000	64.704823 
3198.000000	64.694523 
3197.000000	64.694523 
3196.000000	64.703154 
3195.000000	64.717960 
3194.000000	64.735984 
3193.000000	64.754509 
3192.000000	64.771080 
3191.000000	64.784336 
3190.000000	64.794063 
3189.000000	64.801192 
3188.000000	64.807176 
3187.000000	64.813804 
3186.000000	64.822840 
3185.000000	64.835429 
3184.000000	64.851713 
3183.000000	64.870977 
3182.000000	64.891958 
3181.000000	64.913105 
3180.000000	64.933204 
3179.000000	64.951515 
3178.000000	64.967894 
3177.000000	64.982986 
3176.000000	64.997744 
3175.000000	65.013146 
3174.000000	65.029740 
3173.000000	65.047502 
3172.000000	65.065717 
3171.000000	65.083384 
3170.000000	65.099048 
3169.000000	65.111613 
3168.000000	65.120244 
3167.000000	65.124559 
3166.000000	65.124201 
3165.000000	65.119314 
3164.000000	65.109705 
3163.000000	65.095305 
3162.000000	65.075707 
3161.000000	65.050840 
3160.000000	65.020823 
3159.000000	64.986610 
3158.000000	64.949750 
3157.000000	64.912509 
3156.000000	64.877653 
3155.000000	64.847874 
3154.000000	64.825582 
3153.000000	64.812183 
3152.000000	64.808058 
3151.000000	64.812350 
3150.000000	64.823126 
3149.000000	64.837622 
3148.000000	64.852714 
3147.000000	64.865398 
3146.000000	64.873075 
3145.000000	64.873957 
3144.000000	64.867520 
3143.000000	64.854621 
3142.000000	64.837288 
3141.000000	64.818453 
3140.000000	64.801383 
3139.000000	64.788961 
3138.000000	64.783358 
3137.000000	64.785408 
3136.000000	64.794659 
3135.000000	64.809465 
3134.000000	64.827179 
3133.000000	64.844894 
3132.000000	64.859771 
3131.000000	64.870023 
3130.000000	64.874911 
3129.000000	64.875221 
3128.000000	64.872908 
3127.000000	64.870715 
3126.000000	64.871573 
3125.000000	64.877629 
3124.000000	64.889574 
3123.000000	64.906382 
3122.000000	64.925670 
3121.000000	64.944148 
3120.000000	64.958548 
3119.000000	64.966678 
3118.000000	64.967870 
3117.000000	64.963626 
3116.000000	64.956831 
3115.000000	64.951205 
3114.000000	64.949965 
3113.000000	64.954805 
3112.000000	64.965200 
3111.000000	64.978480 
3110.000000	64.990496 
3109.000000	64.996361 
3108.000000	64.992213 
3107.000000	64.976239 
3106.000000	64.949154 
3105.000000	64.914202 
3104.000000	64.876413 
3103.000000	64.841103 
3102.000000	64.813137 
3101.000000	64.795684 
3100.000000	64.789676 
3099.000000	64.793848 
3098.000000	64.805221 
3097.000000	64.819979 
3096.000000	64.834427 
3095.000000	64.845561 
3094.000000	64.851522 
3093.000000	64.851593 
3092.000000	64.846062 
3091.000000	64.835906 
3090.000000	64.822649 
3089.000000	64.808058 
3088.000000	64.794039 
3087.000000	64.782547 
3086.000000	64.775443 
3085.000000	64.774084 
3084.000000	64.779281 
3083.000000	64.791035 
3082.000000	64.808177 
3081.000000	64.828562 
3080.000000	64.849424 
3079.000000	64.867687 
3078.000000	64.880657 
3077.000000	64.886498 
3076.000000	64.884495 
3075.000000	64.875364 
3074.000000	64.860725 
3073.000000	64.843177 
3072.000000	64.825534 
3071.000000	64.810490 
3070.000000	64.800167 
3069.000000	64.795875 
3068.000000	64.798235 
3067.000000	64.807128 
3066.000000	64.822053 
3065.000000	64.842033 
3064.000000	64.865756 
3063.000000	64.891862 
3062.000000	64.919185 
3061.000000	64.946579 
3060.000000	64.972949 
3059.000000	64.997267 
3058.000000	65.018630 
3057.000000	65.036320 
3056.000000	65.049576 
3055.000000	65.057849 
3054.000000	65.060591 
3053.000000	65.057563 
3052.000000	65.048980 
3051.000000	65.035676 
3050.000000	65.018796 
3049.000000	65.000247 
3048.000000	64.981842 
3047.000000	64.965510 
3046.000000	64.952278 
3045.000000	64.942526 
3044.000000	64.935350 
3043.000000	64.928889 
3042.000000	64.920711 
3041.000000	64.908361 
3040.000000	64.890265 
3039.000000	64.866065 
3038.000000	64.837050 
3037.000000	64.805889 
3036.000000	64.776325 
3035.000000	64.752388 
3034.000000	64.737439 
3033.000000	64.733576 
3032.000000	64.741468 
3031.000000	64.760184 
3030.000000	64.787387 
3029.000000	64.819788 
3028.000000	64.854097 
3027.000000	64.887213 
3026.000000	64.916491 
3025.000000	64.940142 
3024.000000	64.957046 
3023.000000	64.967179 
3022.000000	64.971065 
3021.000000	64.969849 
3020.000000	64.965128 
3019.000000	64.958548 
3018.000000	64.952039 
3017.000000	64.946794 
3016.000000	64.943408 
3015.000000	64.941477 
3014.000000	64.939880 
3013.000000	64.936947 
3012.000000	64.930796 
3011.000000	64.920043 
3010.000000	64.904189 
3009.000000	64.883828 
3008.000000	64.860510 
3007.000000	64.836597 
3006.000000	64.814543 
3005.000000	64.796400 
3004.000000	64.783334 
3003.000000	64.775347 
3002.000000	64.771580 
3001.000000	64.770245 
3000.000000	64.769792 
2999.000000	64.768695 
2998.000000	64.766573 
2997.000000	64.763808 
2996.000000	64.761757 
2995.000000	64.761900 
2994.000000	64.765453 
2993.000000	64.772868 
2992.000000	64.783406 
2991.000000	64.795184 
2990.000000	64.805722 
2989.000000	64.812421 
2988.000000	64.813423 
2987.000000	64.808106 
2986.000000	64.797210 
2985.000000	64.782667 
2984.000000	64.767146 
2983.000000	64.753413 
2982.000000	64.743709 
2981.000000	64.739227 
2980.000000	64.739942 
2979.000000	64.744734 
2978.000000	64.751744 
2977.000000	64.758777 
2976.000000	64.764022 
2975.000000	64.766430 
2974.000000	64.765810 
2973.000000	64.763021 
2972.000000	64.759492 
2971.000000	64.756989 
2970.000000	64.756989 
2969.000000	64.760231 
2968.000000	64.766740 
2967.000000	64.775395 
2966.000000	64.784312 
2965.000000	64.791154 
2964.000000	64.793944 
2963.000000	64.791202 
2962.000000	64.782476 
2961.000000	64.768481 
2960.000000	64.750790 
2959.000000	64.731407 
2958.000000	64.712285 
2957.000000	64.694857 
2956.000000	64.679670 
2955.000000	64.666581 
2954.000000	64.654994 
2953.000000	64.644265 
2952.000000	64.633965 
2951.000000	64.624094 
2950.000000	64.615273 
2949.000000	64.608120 
2948.000000	64.603686 
2947.000000	64.602398 
2946.000000	64.604759 
2945.000000	64.610457 
2944.000000	64.619135 
2943.000000	64.630460 
2942.000000	64.644479 
2941.000000	64.661335 
2940.000000	64.681363 
2939.000000	64.704680 
2938.000000	64.730954 
2937.000000	64.759206 
2936.000000	64.787864 
2935.000000	64.815139 
2934.000000	64.838981 
2933.000000	64.857649 
2932.000000	64.869689 
2931.000000	64.874219 
2930.000000	64.870905 
2929.000000	64.860129 
2928.000000	64.842987 
2927.000000	64.821314 
2926.000000	64.797759 
2925.000000	64.775252 
2924.000000	64.756655 
2923.000000	64.743971 
2922.000000	64.738225 
2921.000000	64.739060 
2920.000000	64.744734 
2919.000000	64.752864 
2918.000000	64.760613 
2917.000000	64.766001 
2916.000000	64.767956 
2915.000000	64.766955 
2914.000000	64.764547 
2913.000000	64.762926 
2912.000000	64.764332 
2911.000000	64.769935 
2910.000000	64.779639 
2909.000000	64.791965 
2908.000000	64.804458 
2907.000000	64.814472 
2906.000000	64.820051 
2905.000000	64.820480 
2904.000000	64.816784 
2903.000000	64.811301 
2902.000000	64.806938 
2901.000000	64.806175 
2900.000000	64.810299 
2899.000000	64.818739 
2898.000000	64.829373 
2897.000000	64.839267 
2896.000000	64.845347 
2895.000000	64.845752 
2894.000000	64.840149 
2893.000000	64.829754 
2892.000000	64.816951 
2891.000000	64.804458 
2890.000000	64.794540 
2889.000000	64.788269 
2888.000000	64.785289 
2887.000000	64.784026 
2886.000000	64.782404 
2885.000000	64.778447 
2884.000000	64.771151 
2883.000000	64.760613 
2882.000000	64.748239 
2881.000000	64.736270 
2880.000000	64.727115 
2879.000000	64.722585 
2878.000000	64.723587 
2877.000000	64.729762 
2876.000000	64.739680 
2875.000000	64.751243 
2874.000000	64.762163 
2873.000000	64.770412 
2872.000000	64.774632 
2871.000000	64.774584 
2870.000000	64.770746 
2869.000000	64.764404 
2868.000000	64.757132 
2867.000000	64.750671 
2866.000000	64.746642 
2865.000000	64.746093 
2864.000000	64.749550 
2863.000000	64.756631 
2862.000000	64.766550 
2861.000000	64.777827 
2860.000000	64.788699 
2859.000000	64.797329 
2858.000000	64.801907 
2857.000000	64.801001 
2856.000000	64.793896 
2855.000000	64.780616 
2854.000000	64.761900 
2853.000000	64.739179 
2852.000000	64.714479 
2851.000000	64.690208 
2850.000000	64.668893 
2849.000000	64.652967 
2848.000000	64.644384 
2847.000000	64.644384 
2846.000000	64.653110 
2845.000000	64.669680 
2844.000000	64.692187 
2843.000000	64.717841 
2842.000000	64.743328 
2841.000000	64.765286 
2840.000000	64.780759 
2839.000000	64.787435 
2838.000000	64.784383 
2837.000000	64.771795 
2836.000000	64.751434 
2835.000000	64.726042 
2834.000000	64.699220 
2833.000000	64.674806 
2832.000000	64.656329 
2831.000000	64.646387 
2830.000000	64.646220 
2829.000000	64.655518 
2828.000000	64.672541 
2827.000000	64.694309 
2826.000000	64.717531 
2825.000000	64.738917 
2824.000000	64.756011 
2823.000000	64.767718 
2822.000000	64.774513 
2821.000000	64.778065 
2820.000000	64.780831 
2819.000000	64.785194 
2818.000000	64.793086 
2817.000000	64.805340 
2816.000000	64.821600 
2815.000000	64.840245 
2814.000000	64.859127 
2813.000000	64.875841 
2812.000000	64.888405 
2811.000000	64.895510 
2810.000000	64.896988 
2809.000000	64.893364 
2808.000000	64.886021 
2807.000000	64.876294 
2806.000000	64.865732 
2805.000000	64.855027 
2804.000000	64.844322 
2803.000000	64.833164 
2802.000000	64.820861 
2801.000000	64.806747 
2800.000000	64.790368 
2799.000000	64.772152 
2798.000000	64.753222 
2797.000000	64.735746 
2796.000000	64.722180 
2795.000000	64.714980 
2794.000000	64.715743 
2793.000000	64.724731 
2792.000000	64.740705 
2791.000000	64.760756 
2790.000000	64.781093 
2789.000000	64.797830 
2788.000000	64.808011 
2787.000000	64.810228 
2786.000000	64.804768 
2785.000000	64.793729 
2784.000000	64.780139 
2783.000000	64.767265 
2782.000000	64.757728 
2781.000000	64.753365 
2780.000000	64.754748 
2779.000000	64.761424 
2778.000000	64.772081 
2777.000000	64.785337 
2776.000000	64.799880 
2775.000000	64.814686 
2774.000000	64.828991 
2773.000000	64.842128 
2772.000000	64.853525 
2771.000000	64.862585 
2770.000000	64.868879 
2769.000000	64.872097 
2768.000000	64.872479 
2767.000000	64.870738 
2766.000000	64.868021 
2765.000000	64.865469 
2764.000000	64.864110 
2763.000000	64.864540 
2762.000000	64.866828 
2761.000000	64.870572 
2760.000000	64.874935 
2759.000000	64.879035 
2758.000000	64.882373 
2757.000000	64.884543 
2756.000000	64.885425 
2755.000000	64.884757 
2754.000000	64.882254 
2753.000000	64.877343 
2752.000000	64.869189 
2751.000000	64.857077 
2750.000000	64.840817 
2749.000000	64.821147 
2748.000000	64.799785 
2747.000000	64.779233 
2746.000000	64.762401 
2745.000000	64.751982 
2744.000000	64.749717 
2743.000000	64.756059 
2742.000000	64.769935 
2741.000000	64.789032 
2740.000000	64.810180 
2739.000000	64.830303 
2738.000000	64.846777 
2737.000000	64.857959 
2736.000000	64.863514 
2735.000000	64.864206 
2734.000000	64.861369 
2733.000000	64.856553 
2732.000000	64.850926 
2731.000000	64.845323 
2730.000000	64.839673 
2729.000000	64.833402 
2728.000000	64.825510 
2727.000000	64.815092 
2726.000000	64.801335 
2725.000000	64.784026 
2724.000000	64.763832 
2723.000000	64.742136 
2722.000000	64.721012 
2721.000000	64.702987 
2720.000000	64.690327 
2719.000000	64.684557 
2718.000000	64.686203 
2717.000000	64.694643 
2716.000000	64.708185 
2715.000000	64.724540 
2714.000000	64.741253 
2713.000000	64.756250 
2712.000000	64.768314 
2711.000000	64.777040 
2710.000000	64.782762 
2709.000000	64.786076 
2708.000000	64.787673 
2707.000000	64.787626 
2706.000000	64.785432 
2705.000000	64.780116 
2704.000000	64.770770 
2703.000000	64.756917 
2702.000000	64.739084 
2701.000000	64.718580 
2700.000000	64.697456 
2699.000000	64.678239 
2698.000000	64.663124 
2697.000000	64.653944 
2696.000000	64.651703 
2695.000000	64.656567 
2694.000000	64.667892 
2693.000000	64.684510 
2692.000000	64.704942 
2691.000000	64.727520 
2690.000000	64.750528 
2689.000000	64.772510 
2688.000000	64.791989 
2687.000000	64.807748 
2686.000000	64.818763 
2685.000000	64.824295 
2684.000000	64.823937 
2683.000000	64.817595 
2682.000000	64.805722 
2681.000000	64.789295 
2680.000000	64.769506 
2679.000000	64.748048 
2678.000000	64.726781 
2677.000000	64.707636 
2676.000000	64.692306 
2675.000000	64.682197 
2674.000000	64.677882 
2673.000000	64.679193 
2672.000000	64.684772 
2671.000000	64.692568 
2670.000000	64.700055 
2669.000000	64.704704 
2668.000000	64.704656 
2667.000000	64.698982 
2666.000000	64.687991 
2665.000000	64.673137 
2664.000000	64.656591 
2663.000000	64.640831 
2662.000000	64.628195 
2661.000000	64.620327 
2660.000000	64.617872 
2659.000000	64.620590 
2658.000000	64.627575 
2657.000000	64.637470 
2656.000000	64.648723 
2655.000000	64.660120 
2654.000000	64.670968 
2653.000000	64.680933 
2652.000000	64.689946 
2651.000000	64.698147 
2650.000000	64.705467 
2649.000000	64.711761 
2648.000000	64.716720 
2647.000000	64.720177 
2646.000000	64.722251 
2645.000000	64.723253 
2644.000000	64.724040 
2643.000000	64.725303 
2642.000000	64.727544 
2641.000000	64.730668 
2640.000000	64.733982 
2639.000000	64.736199 
2638.000000	64.735913 
2637.000000	64.731979 
2636.000000	64.724111 
2635.000000	64.712810 
2634.000000	64.699578 
2633.000000	64.686560 
2632.000000	64.676022 
2631.000000	64.669823 
2630.000000	64.669013 
2629.000000	64.673542 
2628.000000	64.682483 
2627.000000	64.694213 
2626.000000	64.706873 
2625.000000	64.718890 
2624.000000	64.729094 
2623.000000	64.737010 
2622.000000	64.742779 
2621.000000	64.746570 
2620.000000	64.748740 
2619.000000	64.749574 
2618.000000	64.749097 
2617.000000	64.747262 
2616.000000	64.744091 
2615.000000	64.739871 
2614.000000	64.735221 
2613.000000	64.731168 
2612.000000	64.728760 
2611.000000	64.729094 
2610.000000	64.732813 
2609.000000	64.739966 
2608.000000	64.749860 
2607.000000	64.761090 
2606.000000	64.771842 
2605.000000	64.780378 
2604.000000	64.785170 
2603.000000	64.785504 
2602.000000	64.781475 
2601.000000	64.774179 
2600.000000	64.765524 
2599.000000	64.757871 
2598.000000	64.753389 
2597.000000	64.753627 
2596.000000	64.759039 
2595.000000	64.768505 
2594.000000	64.779829 
2593.000000	64.789962 
2592.000000	64.795947 
2591.000000	64.795422 
2590.000000	64.787292 
2589.000000	64.772057 
2588.000000	64.751720 
2587.000000	64.729118 
2586.000000	64.707422 
2585.000000	64.689397 
2584.000000	64.676904 
2583.000000	64.670610 
2582.000000	64.669942 
2581.000000	64.673686 
2580.000000	64.680027 
2579.000000	64.687204 
2578.000000	64.693784 
2577.000000	64.698743 
2576.000000	64.701485 
2575.000000	64.701771 
2574.000000	64.699506 
2573.000000	64.694786 
2572.000000	64.687848 
2571.000000	64.679074 
2570.000000	64.669203 
2569.000000	64.659309 
2568.000000	64.650464 
2567.000000	64.643836 
2566.000000	64.640164 
2565.000000	64.639616 
2564.000000	64.641451 
2563.000000	64.644408 
2562.000000	64.646697 
2561.000000	64.646458 
2560.000000	64.642238 
2559.000000	64.633250 
2558.000000	64.619755 
2557.000000	64.602899 
2556.000000	64.584612 
2555.000000	64.567208 
2554.000000	64.553022 
2553.000000	64.543819 
2552.000000	64.540648 
2551.000000	64.543843 
2550.000000	64.552950 
2549.000000	64.566683 
2548.000000	64.583516 
2547.000000	64.601707 
2546.000000	64.619660 
2545.000000	64.635944 
2544.000000	64.649510 
2543.000000	64.659667 
2542.000000	64.666295 
2541.000000	64.669609 
2540.000000	64.670109 
2539.000000	64.668512 
2538.000000	64.665699 
2537.000000	64.662337 
2536.000000	64.659237 
2535.000000	64.656686 
2534.000000	64.654850 
2533.000000	64.653754 
2532.000000	64.653229 
2531.000000	64.653229 
2530.000000	64.653897 
2529.000000	64.655447 
2528.000000	64.658355 
2527.000000	64.663219 
2526.000000	64.670491 
2525.000000	64.680576 
2524.000000	64.693570 
2523.000000	64.709186 
2522.000000	64.726662 
2521.000000	64.744925 
2520.000000	64.762520 
2519.000000	64.777874 
2518.000000	64.789295 
2517.000000	64.795207 
2516.000000	64.794468 
2515.000000	64.786267 
2514.000000	64.770722 
2513.000000	64.748716 
2512.000000	64.721941 
2511.000000	64.692807 
2510.000000	64.664173 
2509.000000	64.638900 
2508.000000	64.619374 
2507.000000	64.607119 
2506.000000	64.602398 
2505.000000	64.604306 
2504.000000	64.610910 
2503.000000	64.619565 
2502.000000	64.627623 
2501.000000	64.632868 
2500.000000	64.634037 
2499.000000	64.631032 
2498.000000	64.624762 
2497.000000	64.616942 
2496.000000	64.609479 
2495.000000	64.604020 
2494.000000	64.601492 
2493.000000	64.602136 
2492.000000	64.605498 
2491.000000	64.610719 
2490.000000	64.617037 
2489.000000	64.623832 
2488.000000	64.630651 
2487.000000	64.637494 
2486.000000	64.644360 
2485.000000	64.651274 
2484.000000	64.658141 
2483.000000	64.664673 
2482.000000	64.670443 
2481.000000	64.674830 
2480.000000	64.677071 
2479.000000	64.676594 
2478.000000	64.673376 
2477.000000	64.667606 
2476.000000	64.659905 
2475.000000	64.651155 
2474.000000	64.642524 
2473.000000	64.635086 
2472.000000	64.629602 
2471.000000	64.626336 
2470.000000	64.625072 
2469.000000	64.625000 
2468.000000	64.625096 
2467.000000	64.624404 
2466.000000	64.622449 
2465.000000	64.619445 
2464.000000	64.616298 
2463.000000	64.614534 
2462.000000	64.615702 
2461.000000	64.620733 
2460.000000	64.629626 
2459.000000	64.640998 
2458.000000	64.652705 
2457.000000	64.662122 
2456.000000	64.667201 
2455.000000	64.666795 
2454.000000	64.661240 
2453.000000	64.652466 
2452.000000	64.643216 
2451.000000	64.636445 
2450.000000	64.634323 
2449.000000	64.637708 
2448.000000	64.645695 
2447.000000	64.656114 
2446.000000	64.666008 
2445.000000	64.672708 
2444.000000	64.674639 
2443.000000	64.671945 
2442.000000	64.666318 
2441.000000	64.660668 
2440.000000	64.658212 
2439.000000	64.661383 
2438.000000	64.671301 
2437.000000	64.687061 
2436.000000	64.706206 
2435.000000	64.724969 
2434.000000	64.739179 
2433.000000	64.745259 
2432.000000	64.740991 
2431.000000	64.726066 
2430.000000	64.702057 
2429.000000	64.672231 
2428.000000	64.640712 
2427.000000	64.611673 
2426.000000	64.588594 
2425.000000	64.573764 
2424.000000	64.567947 
2423.000000	64.570450 
2422.000000	64.579749 
2421.000000	64.593720 
2420.000000	64.610266 
2419.000000	64.627575 
2418.000000	64.644193 
2417.000000	64.659070 
2416.000000	64.671325 
2415.000000	64.680337 
2414.000000	64.685726 
2413.000000	64.687228 
2412.000000	64.684891 
2411.000000	64.679336 
2410.000000	64.671778 
2409.000000	64.663791 
2408.000000	64.657187 
2407.000000	64.653515 
2406.000000	64.653706 
2405.000000	64.657735 
2404.000000	64.664649 
2403.000000	64.672589 
2402.000000	64.679384 
2401.000000	64.682745 
2400.000000	64.681077 
2399.000000	64.673900 
2398.000000	64.661812 
2397.000000	64.646553 
2396.000000	64.630532 
2395.000000	64.616012 
2394.000000	64.604997 
2393.000000	64.598751 
2392.000000	64.597392 
2391.000000	64.600157 
2390.000000	64.605641 
2389.000000	64.612221 
2388.000000	64.618396 
2387.000000	64.622998 
2386.000000	64.625263 
2385.000000	64.624929 
2384.000000	64.622116 
2383.000000	64.616942 
2382.000000	64.609718 
2381.000000	64.600586 
2380.000000	64.589810 
2379.000000	64.577531 
2378.000000	64.564061 
2377.000000	64.549541 
2376.000000	64.534235 
2375.000000	64.518356 
2374.000000	64.502072 
2373.000000	64.485764 
2372.000000	64.469766 
2371.000000	64.454770 
2370.000000	64.441657 
2369.000000	64.431643 
2368.000000	64.425945 
2367.000000	64.425754 
2366.000000	64.431738 
2365.000000	64.443993 
2364.000000	64.461660 
2363.000000	64.483022 
2362.000000	64.505815 
2361.000000	64.527392 
2360.000000	64.545249 
2359.000000	64.557361 
2358.000000	64.562439 
2357.000000	64.560151 
2356.000000	64.551019 
2355.000000	64.536309 
2354.000000	64.517593 
2353.000000	64.496541 
2352.000000	64.474701 
2351.000000	64.453625 
2350.000000	64.434576 
2349.000000	64.418554 
2348.000000	64.406371 
2347.000000	64.398622 
2346.000000	64.395642 
2345.000000	64.397192 
2344.000000	64.402842 
2343.000000	64.411592 
2342.000000	64.422678 
2341.000000	64.435362 
2340.000000	64.449310 
2339.000000	64.464497 
2338.000000	64.481258 
2337.000000	64.499688 
2336.000000	64.519500 
2335.000000	64.539813 
2334.000000	64.558887 
2333.000000	64.574551 
2332.000000	64.584660 
2331.000000	64.587545 
2330.000000	64.582896 
2329.000000	64.571928 
2328.000000	64.557170 
2327.000000	64.542102 
2326.000000	64.530277 
2325.000000	64.524555 
2324.000000	64.526462 
2323.000000	64.535713 
2322.000000	64.550638 
2321.000000	64.568471 
2320.000000	64.586305 
2319.000000	64.601540 
2318.000000	64.612245 
2317.000000	64.617514 
2316.000000	64.617252 
2315.000000	64.612245 
2314.000000	64.603662 
2313.000000	64.592885 
2312.000000	64.581346 
2311.000000	64.570426 
2310.000000	64.561390 
2309.000000	64.555239 
2308.000000	64.552593 
2307.000000	64.553308 
2306.000000	64.556694 
2305.000000	64.561271 
2304.000000	64.565086 
2303.000000	64.566206 
2302.000000	64.562964 
2301.000000	64.554595 
2300.000000	64.541292 
2299.000000	64.524173 
2298.000000	64.505171 
2297.000000	64.486455 
2296.000000	64.470219 
2295.000000	64.458227 
2294.000000	64.451575 
2293.000000	64.450550 
2292.000000	64.454674 
2291.000000	64.462924 
2290.000000	64.473652 
2289.000000	64.485049 
2288.000000	64.495325 
2287.000000	64.503002 
2286.000000	64.507269 
2285.000000	64.507913 
2284.000000	64.505648 
2283.000000	64.501833 
2282.000000	64.498257 
2281.000000	64.496827 
2280.000000	64.498925 
2279.000000	64.504981 
2278.000000	64.514493 
2277.000000	64.525985 
2276.000000	64.537286 
2275.000000	64.546155 
2274.000000	64.550733 
2273.000000	64.549994 
2272.000000	64.543890 
2271.000000	64.533209 
2270.000000	64.519190 
2269.000000	64.503502 
2268.000000	64.487504 
2267.000000	64.472317 
2266.000000	64.458727 
2265.000000	64.447116 
2264.000000	64.437699 
2263.000000	64.430618 
2262.000000	64.426136 
2261.000000	64.424490 
2260.000000	64.425802 
2259.000000	64.429855 
2258.000000	64.436006 
2257.000000	64.443135 
2256.000000	64.449882 
2255.000000	64.454698 
2254.000000	64.456391 
2253.000000	64.454388 
2252.000000	64.449024 
2251.000000	64.441275 
2250.000000	64.432835 
2249.000000	64.425635 
2248.000000	64.421391 
2247.000000	64.421248 
2246.000000	64.425396 
2245.000000	64.433121 
2244.000000	64.442920 
2243.000000	64.452815 
2242.000000	64.460802 
2241.000000	64.465403 
2240.000000	64.465832 
2239.000000	64.462304 
2238.000000	64.455962 
2237.000000	64.448380 
2236.000000	64.441633 
2235.000000	64.437556 
2234.000000	64.437675 
2233.000000	64.442849 
2232.000000	64.453172 
2231.000000	64.467930 
2230.000000	64.485502 
2229.000000	64.503645 
2228.000000	64.519596 
2227.000000	64.530587 
2226.000000	64.534115 
2225.000000	64.528656 
2224.000000	64.513850 
2223.000000	64.490675 
2222.000000	64.461541 
2221.000000	64.429712 
2220.000000	64.399027 
2219.000000	64.372849 
2218.000000	64.353990 
2217.000000	64.343857 
2216.000000	64.342427 
2215.000000	64.348459 
2214.000000	64.359974 
2213.000000	64.374661 
2212.000000	64.390301 
2211.000000	64.405345 
2210.000000	64.418816 
2209.000000	64.430475 
2208.000000	64.440369 
2207.000000	64.448809 
2206.000000	64.455914 
2205.000000	64.461636 
2204.000000	64.465713 
2203.000000	64.467716 
2202.000000	64.467239 
2201.000000	64.464044 
2200.000000	64.458179 
2199.000000	64.450287 
2198.000000	64.441299 
2197.000000	64.432311 
2196.000000	64.424490 
2195.000000	64.418625 
2194.000000	64.415144 
2193.000000	64.413809 
2192.000000	64.413928 
2191.000000	64.414525 
2190.000000	64.414572 
2189.000000	64.413285 
2188.000000	64.410471 
2187.000000	64.406371 
2186.000000	64.401841 
2185.000000	64.398074 
2184.000000	64.396262 
2183.000000	64.397239 
2182.000000	64.401173 
2181.000000	64.407467 
2180.000000	64.414906 
2179.000000	64.421796 
2178.000000	64.426350 
2177.000000	64.427161 
2176.000000	64.423465 
2175.000000	64.415431 
2174.000000	64.404058 
2173.000000	64.390969 
2172.000000	64.378118 
2171.000000	64.367246 
2170.000000	64.359736 
2169.000000	64.356040 
2168.000000	64.355707 
2167.000000	64.357590 
2166.000000	64.359951 
2165.000000	64.361405 
2164.000000	64.360785 
2163.000000	64.357995 
2162.000000	64.353752 
2161.000000	64.349818 
2160.000000	64.348268 
2159.000000	64.351058 
2158.000000	64.359545 
2157.000000	64.373826 
2156.000000	64.392709 
2155.000000	64.413690 
2154.000000	64.433550 
2153.000000	64.448976 
2152.000000	64.457440 
2151.000000	64.457631 
2150.000000	64.449739 
2149.000000	64.435410 
2148.000000	64.417290 
2147.000000	64.398384 
2146.000000	64.381432 
2145.000000	64.368629 
2144.000000	64.361357 
2143.000000	64.360213 
2142.000000	64.365077 
2141.000000	64.375400 
2140.000000	64.390230 
2139.000000	64.408493 
2138.000000	64.428973 
2137.000000	64.450049 
2136.000000	64.470291 
2135.000000	64.488005 
2134.000000	64.501810 
2133.000000	64.510726 
2132.000000	64.514446 
2131.000000	64.513421 
2130.000000	64.508414 
2129.000000	64.500570 
2128.000000	64.490771 
2127.000000	64.479732 
2126.000000	64.467668 
2125.000000	64.454460 
2124.000000	64.439892 
2123.000000	64.423894 
2122.000000	64.406704 
2121.000000	64.389133 
2120.000000	64.372229 
2119.000000	64.357137 
2118.000000	64.344930 
2117.000000	64.336299 
2116.000000	64.331459 
2115.000000	64.330005 
2114.000000	64.331150 
2113.000000	64.333844 
2112.000000	64.337038 
2111.000000	64.339876 
2110.000000	64.341664 
2109.000000	64.342141 
2108.000000	64.341044 
2107.000000	64.338707 
2106.000000	64.335727 
2105.000000	64.333081 
2104.000000	64.331817 
2103.000000	64.333105 
2102.000000	64.338088 
2101.000000	64.347410 
2100.000000	64.361071 
2099.000000	64.378190 
2098.000000	64.397335 
2097.000000	64.416408 
2096.000000	64.433193 
2095.000000	64.445757 
2094.000000	64.452767 
2093.000000	64.453744 
2092.000000	64.449334 
2091.000000	64.441037 
2090.000000	64.430832 
2089.000000	64.420819 
2088.000000	64.412808 
2087.000000	64.407896 
2086.000000	64.406347 
2085.000000	64.407587 
2084.000000	64.410471 
2083.000000	64.413547 
2082.000000	64.415335 
2081.000000	64.414811 
2080.000000	64.411330 
2079.000000	64.404749 
2078.000000	64.395380 
2077.000000	64.383864 
2076.000000	64.371013 
2075.000000	64.357542 
2074.000000	64.344024 
2073.000000	64.330983 
2072.000000	64.318537 
2071.000000	64.306902 
2070.000000	64.295959 
2069.000000	64.285659 
2068.000000	64.275789 
2067.000000	64.266228 
2066.000000	64.256858 
2065.000000	64.247560 
2064.000000	64.238429 
2063.000000	64.229726 
2062.000000	64.221787 
2061.000000	64.215040 
2060.000000	64.209675 
2059.000000	64.205956 
2058.000000	64.203834 
2057.000000	64.203357 
2056.000000	64.204454 
2055.000000	64.207220 
2054.000000	64.212012 
2053.000000	64.219403 
2052.000000	64.229917 
2051.000000	64.243912 
2050.000000	64.261293 
2049.000000	64.281368 
2048.000000	64.302754 
2047.000000	64.323592 
2046.000000	64.341974 
2045.000000	64.355945 
2044.000000	64.364194 
2043.000000	64.366245 
2042.000000	64.362454 
2041.000000	64.353895 
2040.000000	64.342021 
2039.000000	64.328408 
2038.000000	64.314389 
2037.000000	64.300942 
2036.000000	64.288735 
2035.000000	64.278197 
2034.000000	64.269661 
2033.000000	64.263510 
2032.000000	64.260149 
2031.000000	64.259958 
2030.000000	64.263248 
2029.000000	64.269876 
2028.000000	64.279532 
2027.000000	64.291334 
2026.000000	64.304280 
2025.000000	64.317059 
2024.000000	64.328527 
2023.000000	64.337658 
2022.000000	64.343786 
2021.000000	64.346671 
2020.000000	64.346361 
2019.000000	64.343118 
2018.000000	64.337372 
2017.000000	64.329648 
2016.000000	64.320397 
2015.000000	64.310026 
2014.000000	64.298868 
2013.000000	64.287257 
2012.000000	64.275312 
2011.000000	64.263343 
2010.000000	64.251375 
2009.000000	64.239645 
2008.000000	64.228343 
2007.000000	64.217925 
2006.000000	64.208912 
2005.000000	64.201831 
2004.000000	64.197111 
2003.000000	64.195084 
2002.000000	64.195561 
2001.000000	64.197897 
2000.000000	64.200997 
1999.000000	64.203310 
1998.000000	64.203381 
1997.000000	64.200043 
1996.000000	64.192676 
1995.000000	64.181590 
1994.000000	64.167809 
1993.000000	64.153051 
1992.000000	64.139294 
1991.000000	64.128637 
1990.000000	64.122676 
1989.000000	64.122438 
1988.000000	64.128112 
1987.000000	64.139080 
1986.000000	64.154171 
1985.000000	64.171910 
1984.000000	64.190793 
1983.000000	64.209508 
1982.000000	64.227080 
1981.000000	64.242982 
1980.000000	64.256787 
1979.000000	64.268183 
1978.000000	64.276814 
1977.000000	64.282226 
1976.000000	64.284062 
1975.000000	64.281964 
1974.000000	64.275979 
1973.000000	64.266753 
1972.000000	64.255428 
1971.000000	64.243650 
1970.000000	64.233183 
1969.000000	64.225721 
1968.000000	64.222288 
1967.000000	64.222955 
1966.000000	64.227032 
1965.000000	64.232945 
1964.000000	64.239144 
1963.000000	64.244341 
1962.000000	64.248108 
1961.000000	64.250850 
1960.000000	64.253568 
1959.000000	64.257383 
1958.000000	64.263153 
1957.000000	64.270806 
1956.000000	64.279484 
1955.000000	64.287424 
1954.000000	64.292597 
1953.000000	64.293169 
1952.000000	64.287996 
1951.000000	64.276885 
1950.000000	64.260721 
1949.000000	64.241242 
1948.000000	64.220666 
1947.000000	64.201116 
1946.000000	64.184474 
1945.000000	64.172053 
1944.000000	64.164566 
1943.000000	64.162039 
1942.000000	64.164233 
1941.000000	64.170384 
1940.000000	64.179205 
1939.000000	64.189195 
1938.000000	64.198374 
1937.000000	64.204978 
1936.000000	64.207386 
1935.000000	64.204597 
1934.000000	64.196395 
1933.000000	64.183402 
1932.000000	64.166903 
1931.000000	64.148712 
1930.000000	64.130568 
1929.000000	64.114189 
1928.000000	64.101004 
1927.000000	64.091801 
1926.000000	64.087033 
1925.000000	64.086508 
1924.000000	64.089822 
1923.000000	64.096260 
1922.000000	64.105224 
1921.000000	64.116144 
1920.000000	64.128756 
1919.000000	64.142775 
1918.000000	64.158177 
1917.000000	64.174771 
1916.000000	64.192271 
1915.000000	64.210200 
1914.000000	64.227747 
1913.000000	64.243912 
1912.000000	64.257574 
1911.000000	64.267754 
1910.000000	64.273881 
1909.000000	64.275836 
1908.000000	64.273977 
1907.000000	64.269208 
1906.000000	64.262461 
1905.000000	64.254736 
1904.000000	64.246606 
1903.000000	64.238381 
1902.000000	64.229917 
1901.000000	64.221048 
1900.000000	64.211797 
1899.000000	64.202499 
1898.000000	64.193892 
1897.000000	64.187192 
1896.000000	64.183592 
1895.000000	64.184045 
1894.000000	64.188790 
1893.000000	64.197230 
1892.000000	64.208006 
1891.000000	64.219093 
1890.000000	64.228558 
1889.000000	64.234995 
1888.000000	64.237570 
1887.000000	64.236664 
1886.000000	64.233446 
1885.000000	64.229583 
1884.000000	64.226746 
1883.000000	64.226317 
1882.000000	64.229130 
1881.000000	64.235162 
1880.000000	64.243793 
1879.000000	64.253640 
1878.000000	64.262938 
1877.000000	64.269852 
1876.000000	64.272689 
1875.000000	64.269924 
1874.000000	64.260649 
1873.000000	64.244580 
1872.000000	64.222407 
1871.000000	64.195680 
1870.000000	64.166712 
1869.000000	64.138269 
1868.000000	64.113330 
1867.000000	64.094448 
1866.000000	64.083385 
1865.000000	64.080739 
1864.000000	64.086031 
1863.000000	64.097571 
1862.000000	64.113187 
1861.000000	64.130306 
1860.000000	64.146733 
1859.000000	64.160847 
1858.000000	64.171838 
1857.000000	64.179539 
1856.000000	64.184379 
1855.000000	64.187097 
1854.000000	64.188456 
1853.000000	64.189052 
1852.000000	64.188957 
1851.000000	64.187932 
1850.000000	64.185547 
1849.000000	64.181327 
1848.000000	64.174866 
1847.000000	64.165997 
1846.000000	64.154839 
1845.000000	64.141845 
1844.000000	64.127802 
1843.000000	64.113616 
1842.000000	64.100408 
1841.000000	64.089345 
1840.000000	64.081358 
1839.000000	64.077258 
1838.000000	64.077377 
1837.000000	64.081788 
1836.000000	64.089846 
1835.000000	64.100551 
1834.000000	64.112472 
1833.000000	64.124035 
1832.000000	64.133644 
1831.000000	64.140105 
1830.000000	64.142560 
1829.000000	64.141154 
1828.000000	64.136648 
1827.000000	64.130568 
1826.000000	64.124751 
1825.000000	64.120960 
1824.000000	64.120626 
1823.000000	64.124393 
1822.000000	64.132189 
1821.000000	64.143228 
1820.000000	64.156055 
1819.000000	64.169239 
1818.000000	64.181303 
1817.000000	64.191222 
1816.000000	64.198184 
1815.000000	64.201831 
1814.000000	64.201903 
1813.000000	64.198327 
1812.000000	64.191007 
1811.000000	64.179992 
1810.000000	64.165472 
1809.000000	64.147925 
1808.000000	64.128017 
1807.000000	64.106965 
1806.000000	64.086031 
1805.000000	64.066553 
1804.000000	64.049625 
1803.000000	64.035940 
1802.000000	64.025950 
1801.000000	64.019656 
1800.000000	64.016938 
1799.000000	64.017486 
1798.000000	64.020991 
1797.000000	64.027094 
1796.000000	64.035248 
1795.000000	64.044666 
1794.000000	64.054393 
1793.000000	64.063358 
1792.000000	64.070606 
1791.000000	64.075279 
1790.000000	64.077067 
1789.000000	64.076113 
1788.000000	64.073085 
1787.000000	64.068841 
1786.000000	64.064455 
1785.000000	64.060807 
1784.000000	64.058232 
1783.000000	64.056825 
1782.000000	64.056468 
1781.000000	64.057016 
1780.000000	64.058423 
1779.000000	64.060902 
1778.000000	64.065051 
1777.000000	64.071321 
1776.000000	64.079928 
1775.000000	64.090585 
1774.000000	64.102363 
1773.000000	64.113664 
1772.000000	64.122557 
1771.000000	64.127206 
1770.000000	64.126443 
1769.000000	64.120030 
1768.000000	64.108896 
1767.000000	64.094829 
1766.000000	64.080023 
1765.000000	64.066529 
1764.000000	64.055728 
1763.000000	64.048027 
1762.000000	64.042663 
1761.000000	64.038062 
1760.000000	64.032006 
1759.000000	64.022326 
1758.000000	64.007377 
1757.000000	63.986563 
1756.000000	63.960337 
1755.000000	63.930201 
1754.000000	63.898468 
1753.000000	63.867735 
1752.000000	63.840246 
1751.000000	63.817477 
1750.000000	63.799977 
1749.000000	63.787317 
1748.000000	63.778305 
1747.000000	63.771486 
1746.000000	63.765597 
1745.000000	63.759803 
1744.000000	63.754129 
1743.000000	63.749337 
1742.000000	63.746380 
1741.000000	63.746261 
1740.000000	63.749527 
1739.000000	63.756108 
1738.000000	63.765120 
1737.000000	63.775062 
1736.000000	63.784432 
1735.000000	63.791823 
1734.000000	63.796448 
1733.000000	63.798284 
1732.000000	63.797736 
1731.000000	63.795804 
1730.000000	63.793325 
1729.000000	63.791155 
1728.000000	63.789796 
1727.000000	63.789582 
1726.000000	63.790774 
1725.000000	63.793778 
1724.000000	63.799071 
1723.000000	63.807225 
1722.000000	63.819074 
1721.000000	63.834953 
1720.000000	63.854575 
1719.000000	63.876843 
1718.000000	63.899993 
1717.000000	63.921451 
1716.000000	63.938570 
1715.000000	63.948917 
1714.000000	63.950920 
1713.000000	63.944172 
1712.000000	63.929700 
1711.000000	63.909721 
1710.000000	63.887214 
1709.000000	63.865447 
1708.000000	63.847422 
1707.000000	63.835334 
1706.000000	63.830232 
1705.000000	63.832044 
1704.000000	63.839697 
1703.000000	63.851475 
1702.000000	63.865494 
1701.000000	63.880062 
1700.000000	63.894081 
1699.000000	63.906979 
1698.000000	63.918876 
1697.000000	63.930106 
1696.000000	63.941001 
1695.000000	63.951659 
1694.000000	63.961863 
1693.000000	63.970923 
1692.000000	63.977909 
1691.000000	63.981771 
1690.000000	63.981604 
1689.000000	63.976907 
1688.000000	63.967561 
1687.000000	63.954114 
1686.000000	63.937568 
1685.000000	63.919377 
1684.000000	63.901162 
1683.000000	63.884353 
1682.000000	63.870096 
1681.000000	63.859033 
1680.000000	63.851261 
1679.000000	63.846397 
1678.000000	63.843727 
1677.000000	63.842749 
1676.000000	63.842964 
1675.000000	63.844347 
1674.000000	63.847160 
1673.000000	63.852119 
1672.000000	63.859724 
1671.000000	63.870239 
1670.000000	63.883495 
1669.000000	63.898634 
1668.000000	63.914179 
1667.000000	63.928294 
1666.000000	63.939285 
1665.000000	63.945841 
1664.000000	63.947367 
1663.000000	63.943982 
1662.000000	63.936448 
1661.000000	63.926124 
1660.000000	63.914442 
1659.000000	63.902854 
1658.000000	63.892483 
1657.000000	63.884043 
1656.000000	63.877892 
1655.000000	63.873863 
1654.000000	63.871550 
1653.000000	63.870453 
1652.000000	63.870048 
1651.000000	63.869953 
1650.000000	63.869905 
1649.000000	63.869953 
1648.000000	63.870000 
1647.000000	63.869929 
1646.000000	63.869118 
1645.000000	63.866734 
1644.000000	63.861608 
1643.000000	63.852500 
1642.000000	63.838505 
1641.000000	63.819193 
1640.000000	63.795280 
1639.000000	63.768744 
1638.000000	63.742637 
1637.000000	63.720488 
1636.000000	63.705897 
1635.000000	63.701677 
1634.000000	63.709092 
1633.000000	63.727569 
1632.000000	63.754749 
1631.000000	63.786983 
1630.000000	63.820052 
1629.000000	63.849973 
1628.000000	63.873720 
1627.000000	63.889670 
1626.000000	63.897776 
1625.000000	63.899397 
1624.000000	63.896751 
1623.000000	63.892364 
1622.000000	63.888573 
1621.000000	63.886833 
1620.000000	63.887643 
1619.000000	63.890290 
1618.000000	63.893604 
1617.000000	63.895797 
1616.000000	63.895010 
1615.000000	63.889837 
1614.000000	63.879609 
1613.000000	63.864564 
1612.000000	63.845705 
1611.000000	63.824963 
1610.000000	63.804459 
1609.000000	63.786578 
1608.000000	63.773274 
1607.000000	63.766002 
1606.000000	63.765192 
1605.000000	63.770318 
1604.000000	63.779950 
1603.000000	63.792014 
1602.000000	63.804006 
1601.000000	63.813495 
1600.000000	63.818573 
1599.000000	63.817977 
1598.000000	63.811492 
1597.000000	63.799953 
1596.000000	63.785433 
1595.000000	63.770413 
1594.000000	63.757777 
1593.000000	63.750410 
1592.000000	63.750553 
1591.000000	63.759541 
1590.000000	63.777351 
1589.000000	63.802623 
1588.000000	63.832592 
1587.000000	63.863801 
1586.000000	63.892507 
1585.000000	63.915181 
1584.000000	63.929271 
1583.000000	63.933539 
1582.000000	63.928127 
1581.000000	63.914465 
1580.000000	63.895106 
1579.000000	63.873004 
1578.000000	63.851094 
1577.000000	63.831543 
1576.000000	63.815951 
1575.000000	63.804793 
1574.000000	63.797450 
1573.000000	63.792490 
1572.000000	63.788032 
1571.000000	63.782238 
1570.000000	63.773751 
1569.000000	63.761997 
1568.000000	63.747262 
1567.000000	63.730740 
1566.000000	63.714289 
1565.000000	63.700079 
1564.000000	63.689970 
1563.000000	63.685178 
1562.000000	63.686156 
1561.000000	63.692283 
1560.000000	63.702249 
1559.000000	63.714170 
1558.000000	63.726043 
1557.000000	63.736176 
1556.000000	63.743329 
1555.000000	63.747191 
1554.000000	63.748383 
1553.000000	63.748168 
1552.000000	63.748192 
1551.000000	63.750147 
1550.000000	63.755512 
1549.000000	63.765144 
1548.000000	63.779187 
1547.000000	63.797187 
1546.000000	63.818049 
1545.000000	63.840246 
1544.000000	63.862013 
1543.000000	63.881278 
1542.000000	63.896155 
1541.000000	63.904929 
1540.000000	63.906788 
1539.000000	63.901782 
1538.000000	63.890981 
1537.000000	63.876819 
1536.000000	63.861989 
1535.000000	63.849401 
1534.000000	63.841104 
1533.000000	63.838338 
1532.000000	63.841009 
1531.000000	63.847899 
1530.000000	63.857054 
1529.000000	63.866257 
1528.000000	63.873600 
1527.000000	63.877892 
1526.000000	63.878440 
1525.000000	63.875222 
1524.000000	63.868618 
1523.000000	63.859367 
1522.000000	63.848066 
1521.000000	63.835024 
1520.000000	63.820624 
1519.000000	63.805317 
1518.000000	63.789772 
1517.000000	63.774991 
1516.000000	63.762187 
1515.000000	63.752841 
1514.000000	63.748240 
1513.000000	63.749146 
1512.000000	63.755893 
1511.000000	63.768291 
1510.000000	63.785386 
1509.000000	63.805866 
1508.000000	63.827967 
1507.000000	63.849854 
1506.000000	63.869857 
1505.000000	63.886404 
1504.000000	63.898086 
1503.000000	63.903832 
1502.000000	63.902807 
1501.000000	63.894367 
1500.000000	63.878011 
1499.000000	63.853669 
1498.000000	63.821768 
1497.000000	63.783454 
1496.000000	63.740777 
1495.000000	63.696527 
1494.000000	63.653874 
1493.000000	63.616108 
1492.000000	63.585948 
1491.000000	63.565301 
1490.000000	63.554716 
1489.000000	63.553452 
1488.000000	63.559699 
1487.000000	63.570904 
1486.000000	63.584637 
1485.000000	63.598608 
1484.000000	63.611388 
1483.000000	63.622331 
1482.000000	63.631701 
1481.000000	63.640189 
1480.000000	63.648700 
1479.000000	63.657712 
1478.000000	63.667249 
1477.000000	63.676834 
1476.000000	63.685369 
1475.000000	63.691592 
1474.000000	63.694381 
1473.000000	63.693022 
1472.000000	63.687586 
1471.000000	63.678908 
1470.000000	63.668227 
1469.000000	63.656973 
1468.000000	63.646626 
1467.000000	63.638496 
1466.000000	63.633322 
1465.000000	63.631463 
1464.000000	63.633131 
1463.000000	63.638257 
1462.000000	63.646578 
1461.000000	63.657879 
1460.000000	63.671636 
1459.000000	63.687396 
1458.000000	63.704371 
1457.000000	63.721561 
1456.000000	63.737773 
1455.000000	63.751602 
1454.000000	63.761806 
1453.000000	63.767433 
1452.000000	63.767719 
1451.000000	63.762664 
1450.000000	63.753032 
1449.000000	63.740372 
1448.000000	63.726711 
1447.000000	63.714528 
1446.000000	63.706111 
1445.000000	63.703393 
1444.000000	63.707494 
1443.000000	63.718700 
1442.000000	63.736486 
1441.000000	63.759279 
1440.000000	63.784813 
1439.000000	63.810491 
1438.000000	63.833665 
1437.000000	63.851976 
1436.000000	63.863873 
1435.000000	63.868594 
1434.000000	63.866305 
1433.000000	63.858056 
1432.000000	63.845539 
1431.000000	63.830733 
1430.000000	63.815331 
1429.000000	63.800644 
1428.000000	63.787150 
1427.000000	63.774824 
1426.000000	63.763117 
1425.000000	63.751387 
1424.000000	63.739323 
1423.000000	63.726949 
1422.000000	63.714909 
1421.000000	63.704085 
1420.000000	63.695096 
1419.000000	63.687920 
1418.000000	63.681650 
1417.000000	63.674640 
1416.000000	63.664817 
1415.000000	63.650393 
1414.000000	63.630318 
1413.000000	63.604998 
1412.000000	63.576388 
1411.000000	63.547587 
1410.000000	63.521933 
1409.000000	63.502287 
1408.000000	63.490319 
1407.000000	63.485956 
1406.000000	63.487267 
1405.000000	63.491058 
1404.000000	63.494110 
1403.000000	63.493871 
1402.000000	63.489174 
1401.000000	63.480806 
1400.000000	63.470983 
1399.000000	63.463068 
1398.000000	63.460183 
1397.000000	63.465023 
1396.000000	63.478851 
1395.000000	63.501310 
1394.000000	63.530731 
1393.000000	63.564109 
1392.000000	63.597941 
1391.000000	63.628625 
1390.000000	63.653182 
1389.000000	63.669562 
1388.000000	63.676834 
1387.000000	63.675379 
1386.000000	63.666510 
1385.000000	63.652133 
1384.000000	63.634300 
1383.000000	63.615155 
1382.000000	63.596534 
1381.000000	63.579630 
1380.000000	63.564872 
1379.000000	63.552594 
1378.000000	63.542604 
1377.000000	63.534545 
1376.000000	63.527774 
1375.000000	63.521862 
1374.000000	63.516545 
1373.000000	63.511657 
1372.000000	63.507223 
1371.000000	63.503146 
1370.000000	63.499283 
1369.000000	63.495326 
1368.000000	63.490724 
1367.000000	63.484859 
1366.000000	63.477110 
1365.000000	63.466978 
1364.000000	63.454389 
1363.000000	63.439631 
1362.000000	63.423609 
1361.000000	63.407778 
1360.000000	63.393640 
1359.000000	63.382959 
1358.000000	63.376998 
1357.000000	63.376736 
1356.000000	63.382434 
1355.000000	63.393998 
1354.000000	63.410782 
1353.000000	63.431978 
1352.000000	63.456559 
1351.000000	63.483405 
1350.000000	63.511228 
1349.000000	63.538432 
1348.000000	63.563323 
1347.000000	63.584136 
1346.000000	63.599514 
1345.000000	63.608455 
1344.000000	63.611006 
1343.000000	63.607811 
1342.000000	63.600277 
1341.000000	63.590097 
1340.000000	63.579130 
1339.000000	63.569068 
1338.000000	63.561177 
1337.000000	63.556170 
1336.000000	63.554430 
1335.000000	63.556027 
1334.000000	63.560962 
1333.000000	63.569235 
1332.000000	63.580703 
1331.000000	63.594841 
1330.000000	63.610839 
1329.000000	63.627147 
1328.000000	63.642024 
1327.000000	63.653492 
1326.000000	63.659811 
1325.000000	63.659811 
1324.000000	63.653016 
1323.000000	63.639879 
1322.000000	63.621497 
1321.000000	63.599634 
1320.000000	63.576436 
1319.000000	63.554358 
1318.000000	63.535618 
1317.000000	63.522171 
1316.000000	63.514971 
1315.000000	63.513970 
1314.000000	63.517856 
1313.000000	63.524365 
1312.000000	63.530635 
1311.000000	63.533663 
1310.000000	63.531303 
1309.000000	63.522458 
1308.000000	63.507604 
1307.000000	63.488531 
1306.000000	63.467788 
1305.000000	63.448143 
1304.000000	63.431715 
1303.000000	63.419532 
1302.000000	63.411068 
1301.000000	63.404941 
1300.000000	63.399219 
1299.000000	63.392400 
1298.000000	63.383913 
1297.000000	63.374423 
1296.000000	63.365530 
1295.000000	63.359642 
1294.000000	63.358783 
1293.000000	63.364219 
1292.000000	63.376045 
1291.000000	63.392972 
1290.000000	63.412714 
1289.000000	63.432550 
1288.000000	63.449907 
1287.000000	63.462972 
1286.000000	63.471007 
1285.000000	63.473987 
1284.000000	63.472461 
1283.000000	63.467121 
1282.000000	63.458561 
1281.000000	63.446998 
1280.000000	63.432431 
1279.000000	63.414859 
1278.000000	63.394713 
1277.000000	63.372850 
1276.000000	63.350725 
1275.000000	63.330245 
1274.000000	63.313412 
1273.000000	63.301920 
1272.000000	63.296890 
1271.000000	63.298511 
1270.000000	63.306236 
1269.000000	63.318800 
1268.000000	63.334465 
1267.000000	63.351249 
1266.000000	63.367199 
1265.000000	63.380670 
1264.000000	63.390421 
1263.000000	63.395619 
1262.000000	63.396215 
1261.000000	63.392734 
1260.000000	63.386344 
1259.000000	63.378572 
1258.000000	63.371253 
1257.000000	63.366079 
1256.000000	63.364291 
1255.000000	63.366365 
1254.000000	63.371992 
1253.000000	63.380122 
1252.000000	63.389325 
1251.000000	63.398003 
1250.000000	63.404822 
1249.000000	63.408923 
1248.000000	63.410067 
1247.000000	63.408589 
1246.000000	63.405132 
1245.000000	63.400554 
1244.000000	63.395571 
1243.000000	63.390588 
1242.000000	63.385868 
1241.000000	63.381266 
1240.000000	63.376712 
1239.000000	63.372039 
1238.000000	63.367176 
1237.000000	63.362026 
1236.000000	63.356494 
1235.000000	63.350629 
1234.000000	63.344430 
1233.000000	63.338184 
1232.000000	63.332390 
1231.000000	63.327646 
1230.000000	63.324856 
1229.000000	63.324999 
1228.000000	63.328695 
1227.000000	63.336133 
1226.000000	63.346552 
1225.000000	63.358378 
1224.000000	63.369417 
1223.000000	63.376998 
1222.000000	63.378739 
1221.000000	63.372993 
1220.000000	63.359427 
1219.000000	63.339304 
1218.000000	63.315439 
1217.000000	63.291549 
1216.000000	63.271570 
1215.000000	63.259005 
1214.000000	63.256049 
1213.000000	63.263154 
1212.000000	63.279056 
1211.000000	63.300991 
1210.000000	63.325595 
1209.000000	63.349366 
1208.000000	63.369774 
1207.000000	63.385272 
1206.000000	63.395762 
1205.000000	63.402295 
1204.000000	63.406777 
1203.000000	63.411164 
1202.000000	63.417077 
1201.000000	63.425278 
1200.000000	63.435554 
1199.000000	63.446569 
1198.000000	63.456344 
1197.000000	63.462591 
1196.000000	63.463425 
1195.000000	63.457679 
1194.000000	63.445162 
1193.000000	63.426923 
1192.000000	63.404750 
1191.000000	63.381028 
1190.000000	63.358283 
1189.000000	63.338327 
1188.000000	63.322234 
1187.000000	63.310170 
1186.000000	63.301420 
1185.000000	63.294768 
1184.000000	63.288950 
1183.000000	63.283085 
1182.000000	63.276839 
1181.000000	63.270759 
1180.000000	63.265752 
1179.000000	63.262963 
1178.000000	63.263154 
1177.000000	63.266491 
1176.000000	63.272619 
1175.000000	63.280344 
1174.000000	63.288044 
1173.000000	63.294005 
1172.000000	63.296699 
1171.000000	63.295197 
1170.000000	63.289380 
1169.000000	63.280177 
1168.000000	63.269209 
1167.000000	63.258576 
1166.000000	63.250184 
1165.000000	63.245177 
1164.000000	63.243675 
1163.000000	63.244462 
1162.000000	63.245654 
1161.000000	63.245201 
1160.000000	63.241553 
1159.000000	63.234281 
1158.000000	63.224029 
1157.000000	63.212037 
1156.000000	63.200163 
1155.000000	63.190150 
1154.000000	63.183498 
1153.000000	63.181209 
1152.000000	63.183903 
1151.000000	63.191652 
1150.000000	63.203883 
1149.000000	63.219380 
1148.000000	63.236260 
1147.000000	63.252377 
1146.000000	63.265728 
1145.000000	63.274908 
1144.000000	63.279485 
1143.000000	63.279747 
1142.000000	63.276576 
1141.000000	63.270998 
1140.000000	63.263678 
1139.000000	63.255023 
1138.000000	63.245058 
1137.000000	63.233900 
1136.000000	63.221979 
1135.000000	63.210129 
1134.000000	63.199901 
1133.000000	63.192939 
1132.000000	63.190913 
1131.000000	63.195085 
1130.000000	63.206219 
1129.000000	63.224244 
1128.000000	63.248038 
1127.000000	63.275671 
1126.000000	63.304495 
1125.000000	63.331580 
1124.000000	63.354420 
1123.000000	63.371229 
1122.000000	63.381075 
1121.000000	63.384270 
1120.000000	63.381934 
1119.000000	63.375616 
1118.000000	63.366842 
1117.000000	63.356661 
1116.000000	63.345527 
1115.000000	63.333582 
1114.000000	63.320779 
1113.000000	63.307404 
1112.000000	63.294076 
1111.000000	63.282155 
1110.000000	63.273143 
1109.000000	63.268446 
1108.000000	63.268685 
1107.000000	63.273406 
1106.000000	63.280916 
1105.000000	63.288497 
1104.000000	63.293170 
1103.000000	63.292479 
1102.000000	63.285422 
1101.000000	63.272595 
1100.000000	63.256502 
1099.000000	63.240623 
1098.000000	63.228893 
1097.000000	63.224506 
1096.000000	63.229346 
1095.000000	63.243341 
1094.000000	63.264656 
1093.000000	63.290071 
1092.000000	63.315987 
1091.000000	63.338994 
1090.000000	63.356351 
1089.000000	63.366699 
1088.000000	63.369870 
1087.000000	63.366603 
1086.000000	63.358235 
1085.000000	63.346338 
1084.000000	63.332200 
1083.000000	63.316798 
1082.000000	63.301014 
1081.000000	63.285374 
1080.000000	63.270330 
1079.000000	63.256096 
1078.000000	63.242888 
1077.000000	63.231039 
1076.000000	63.220834 
1075.000000	63.212847 
1074.000000	63.207435 
1073.000000	63.204956 
1072.000000	63.205862 
1071.000000	63.210105 
1070.000000	63.217020 
1069.000000	63.225626 
1068.000000	63.234519 
1067.000000	63.242077 
1066.000000	63.246703 
1065.000000	63.247060 
1064.000000	63.242721 
1063.000000	63.234210 
1062.000000	63.223075 
1061.000000	63.211822 
1060.000000	63.203454 
1059.000000	63.201022 
1058.000000	63.206672 
1057.000000	63.221549 
1056.000000	63.245320 
1055.000000	63.276290 
1054.000000	63.311743 
1053.000000	63.348412 
1052.000000	63.382935 
1051.000000	63.412785 
1050.000000	63.436007 
1049.000000	63.451528 
1048.000000	63.458466 
1047.000000	63.456583 
1046.000000	63.445377 
1045.000000	63.424396 
1044.000000	63.393449 
1043.000000	63.352847 
1042.000000	63.304114 
1041.000000	63.250112 
1040.000000	63.195085 
1039.000000	63.144326 
1038.000000	63.102984 
1037.000000	63.075304 
1036.000000	63.063549 
1035.000000	63.067603 
1034.000000	63.084793 
1033.000000	63.110566 
1032.000000	63.139247 
1031.000000	63.165378 
1030.000000	63.184618 
1029.000000	63.194847 
1028.000000	63.195943 
1027.000000	63.190102 
1026.000000	63.180780 
1025.000000	63.172030 
1024.000000	63.167309 
1023.000000	63.168597 
1022.000000	63.176274 
1021.000000	63.188552 
1020.000000	63.202381 
1019.000000	63.214015 
1018.000000	63.220191 
1017.000000	63.218975 
1016.000000	63.210535 
1015.000000	63.196873 
1014.000000	63.181614 
1013.000000	63.169360 
1012.000000	63.164520 
1011.000000	63.170075 
1010.000000	63.186693 
1009.000000	63.212752 
1008.000000	63.244318 
1007.000000	63.276433 
1006.000000	63.303542 
1005.000000	63.321232 
1004.000000	63.326668 
1003.000000	63.319444 
1002.000000	63.301086 
1001.000000	63.274574 
1000.000000	63.243365 
999.000000	 63.210749 
998.000000	 63.178896 
997.000000	 63.148927 
996.000000	 63.120603 
995.000000	 63.093042 
994.000000	 63.065552 
993.000000	 63.038015 
992.000000	 63.011837 
991.000000	 62.989592 
990.000000	 62.975192 
989.000000	 62.972474 
988.000000	 62.984895 
987.000000	 63.014316 
986.000000	 63.060212 
985.000000	 63.119316 
984.000000	 63.185763 
983.000000	 63.251781 
982.000000	 63.308978 
981.000000	 63.349723 
980.000000	 63.368105 
979.000000	 63.361382 
978.000000	 63.330435 
977.000000	 63.279581 
976.000000	 63.216066 
975.000000	 63.148641 
974.000000	 63.086295 
973.000000	 63.036680 
972.000000	 63.005232 
971.000000	 62.994289 
970.000000	 63.003206 
969.000000	 63.028478 
968.000000	 63.064885 
967.000000	 63.106369 
966.000000	 63.147044 
965.000000	 63.182020 
964.000000	 63.207817 
963.000000	 63.222885 
962.000000	 63.227176 
961.000000	 63.222169 
960.000000	 63.210391 
959.000000	 63.195013 
958.000000	 63.179492 
957.000000	 63.166809 
956.000000	 63.159275 
955.000000	 63.158226 
954.000000	 63.163781 
953.000000	 63.175439 
952.000000	 63.191843 
951.000000	 63.211178 
950.000000	 63.231134 
949.000000	 63.249421 
948.000000	 63.263750 
947.000000	 63.272237 
946.000000	 63.273382 
945.000000	 63.265919 
944.000000	 63.249325 
943.000000	 63.224077 
942.000000	 63.191461 
941.000000	 63.153409 
940.000000	 63.112497 
939.000000	 63.071680 
938.000000	 63.033986 
937.000000	 63.002300 
936.000000	 62.979173 
935.000000	 62.966227 
934.000000	 62.964606 
933.000000	 62.974691 
932.000000	 62.995815 
931.000000	 63.026165 
930.000000	 63.062453 
929.000000	 63.100361 
928.000000	 63.134646 
927.000000	 63.160300 
926.000000	 63.173413 
925.000000	 63.172745 
924.000000	 63.159751 
923.000000	 63.139152 
922.000000	 63.117885 
921.000000	 63.103699 
920.000000	 63.103556 
919.000000	 63.121581 
918.000000	 63.158321 
917.000000	 63.209891 
916.000000	 63.269329 
915.000000	 63.327264 
914.000000	 63.374495 
913.000000	 63.403630 
912.000000	 63.410758 
911.000000	 63.395833 
910.000000	 63.362431 
909.000000	 63.316702 
908.000000	 63.266015 
907.000000	 63.217091 
906.000000	 63.174772 
905.000000	 63.141775 
904.000000	 63.118648 
903.000000	 63.104104 
902.000000	 63.096022 
901.000000	 63.092017 
900.000000	 63.090276 
899.000000	 63.089585 
898.000000	 63.089442 
897.000000	 63.089346 
896.000000	 63.088989 
895.000000	 63.088083 
894.000000	 63.086533 
893.000000	 63.084268 
892.000000	 63.081145 
891.000000	 63.077497 
890.000000	 63.073682 
889.000000	 63.070154 
888.000000	 63.066816 
887.000000	 63.063406 
886.000000	 63.059186 
885.000000	 63.053083 
884.000000	 63.044238 
883.000000	 63.032555 
882.000000	 63.018751 
881.000000	 63.004374 
880.000000	 62.991738 
879.000000	 62.983417 
878.000000	 62.981796 
877.000000	 62.988567 
876.000000	 63.004183 
875.000000	 63.027453 
874.000000	 63.056206 
873.000000	 63.087272 
872.000000	 63.116717 
871.000000	 63.140296 
870.000000	 63.154506 
869.000000	 63.156795 
868.000000	 63.146114 
867.000000	 63.123178 
866.000000	 63.090491 
865.000000	 63.051724 
864.000000	 63.011312 
863.000000	 62.973499 
862.000000	 62.941837 
861.000000	 62.918281 
860.000000	 62.903046 
859.000000	 62.894630 
858.000000	 62.890529 
857.000000	 62.888050 
856.000000	 62.885069 
855.000000	 62.880873 
854.000000	 62.876033 
853.000000	 62.872457 
852.000000	 62.872409 
851.000000	 62.878155 
850.000000	 62.890982 
849.000000	 62.911152 
848.000000	 62.937831 
847.000000	 62.969374 
846.000000	 63.003540 
845.000000	 63.037896 
844.000000	 63.070034 
843.000000	 63.097691 
842.000000	 63.118910 
841.000000	 63.132429 
840.000000	 63.137745 
839.000000	 63.135075 
838.000000	 63.125514 
837.000000	 63.111114 
836.000000	 63.094425 
835.000000	 63.078427 
834.000000	 63.065719 
833.000000	 63.058280 
832.000000	 63.056969 
831.000000	 63.061594 
830.000000	 63.070821 
829.000000	 63.082671 
828.000000	 63.094902 
827.000000	 63.105583 
826.000000	 63.113164 
825.000000	 63.116741 
824.000000	 63.115978 
823.000000	 63.111090 
822.000000	 63.102793 
821.000000	 63.091897 
820.000000	 63.079547 
819.000000	 63.066649 
818.000000	 63.053798 
817.000000	 63.041138 
816.000000	 63.028240 
815.000000	 63.014364 
814.000000	 62.998700 
813.000000	 62.980437 
812.000000	 62.959408 
811.000000	 62.935638 
810.000000	 62.909698 
809.000000	 62.882375 
808.000000	 62.854456 
807.000000	 62.826585 
806.000000	 62.799000 
805.000000	 62.771797 
804.000000	 62.744855 
803.000000	 62.718605 
802.000000	 62.693953 
801.000000	 62.672758 
800.000000	 62.657332 
799.000000	 62.650012 
798.000000	 62.652564 
797.000000	 62.665605 
796.000000	 62.688136 
795.000000	 62.717890 
794.000000	 62.751507 
793.000000	 62.785196 
792.000000	 62.815451 
791.000000	 62.839412 
790.000000	 62.855529 
789.000000	 62.863636 
788.000000	 62.865066 
787.000000	 62.862539 
786.000000	 62.859344 
785.000000	 62.859177 
784.000000	 62.864732 
783.000000	 62.877368 
782.000000	 62.896180 
781.000000	 62.918472 
780.000000	 62.939977 
779.000000	 62.956023 
778.000000	 62.962484 
777.000000	 62.956929 
776.000000	 62.939214 
775.000000	 62.911868 
774.000000	 62.879323 
773.000000	 62.846851 
772.000000	 62.819409 
771.000000	 62.800502 
770.000000	 62.791633 
769.000000	 62.792181 
768.000000	 62.800264 
767.000000	 62.813425 
766.000000	 62.829566 
765.000000	 62.847590 
764.000000	 62.867116 
763.000000	 62.888145 
762.000000	 62.910413 
761.000000	 62.932896 
760.000000	 62.953829 
759.000000	 62.970709 
758.000000	 62.981319 
757.000000	 62.983536 
756.000000	 62.977004 
755.000000	 62.961983 
754.000000	 62.940311 
753.000000	 62.913608 
752.000000	 62.883138 
751.000000	 62.849092 
750.000000	 62.810730 
749.000000	 62.766742 
748.000000	 62.716078 
747.000000	 62.658929 
746.000000	 62.597513 
745.000000	 62.535643 
744.000000	 62.478041 
743.000000	 62.429642 
742.000000	 62.394356 
741.000000	 62.374210 
740.000000	 62.369012 
739.000000	 62.376308 
738.000000	 62.392258 
737.000000	 62.412357 
736.000000	 62.432670 
735.000000	 62.449932 
734.000000	 62.462425 
733.000000	 62.469673 
732.000000	 62.472367 
731.000000	 62.471485 
730.000000	 62.468123 
729.000000	 62.463116 
728.000000	 62.456870 
727.000000	 62.449574 
726.000000	 62.441515 
725.000000	 62.433123 
724.000000	 62.425804 
723.000000	 62.421631 
722.000000	 62.423539 
721.000000	 62.434601 
720.000000	 62.457871 
719.000000	 62.495660 
718.000000	 62.548255 
717.000000	 62.613201 
716.000000	 62.685632 
715.000000	 62.758779 
714.000000	 62.824583 
713.000000	 62.875127 
712.000000	 62.904548 
711.000000	 62.910103 
710.000000	 62.892508 
709.000000	 62.855958 
708.000000	 62.807345 
707.000000	 62.754631 
706.000000	 62.705349 
705.000000	 62.664771 
704.000000	 62.635326 
703.000000	 62.616157 
702.000000	 62.604355 
701.000000	 62.595963 
700.000000	 62.586975 
699.000000	 62.575531 
698.000000	 62.562036 
697.000000	 62.550020 
696.000000	 62.544012 
695.000000	 62.549757 
694.000000	 62.572407 
693.000000	 62.615251 
692.000000	 62.678647 
691.000000	 62.759280 
690.000000	 62.850594 
689.000000	 62.943744 
688.000000	 63.029265 
687.000000	 63.099551 
686.000000	 63.150024 
685.000000	 63.179969 
684.000000	 63.191723 
683.000000	 63.189792 
682.000000	 63.179016 
681.000000	 63.163256 
680.000000	 63.144350 
679.000000	 63.123559 
678.000000	 63.100528 
677.000000	 63.075757 
676.000000	 63.048815 
675.000000	 63.019680 
674.000000	 62.987589 
673.000000	 62.951278 
672.000000	 62.909293 
671.000000	 62.860441 
670.000000	 62.805151 
669.000000	 62.745428 
668.000000	 62.685942 
667.000000	 62.633156 
666.000000	 62.593913 
665.000000	 62.573862 
664.000000	 62.575149 
663.000000	 62.595582 
662.000000	 62.628531 
661.000000	 62.663984 
660.000000	 62.691497 
659.000000	 62.702369 
658.000000	 62.691473 
657.000000	 62.658166 
656.000000	 62.605905 
655.000000	 62.540841 
654.000000	 62.469267 
653.000000	 62.396430 
652.000000	 62.325787 
651.000000	 62.258887 
650.000000	 62.196779 
649.000000	 62.139916 
648.000000	 62.089014 
647.000000	 62.044906 
646.000000	 62.008905 
645.000000	 61.981987 
644.000000	 61.962914 
643.000000	 61.950111 
642.000000	 61.940932 
641.000000	 61.933636 
640.000000	 61.927103 
639.000000	 61.922621 
638.000000	 61.923432 
637.000000	 61.933636 
636.000000	 61.956429 
635.000000	 61.992645 
634.000000	 62.039828 
633.000000	 62.092137 
632.000000	 62.141370 
631.000000	 62.178802 
630.000000	 62.197446 
629.000000	 62.194013 
628.000000	 62.170147 
627.000000	 62.131118 
626.000000	 62.085723 
625.000000	 62.043952 
624.000000	 62.016010 
623.000000	 62.009787 
622.000000	 62.030744 
621.000000	 62.080359 
620.000000	 62.157607 
619.000000	 62.259435 
618.000000	 62.381482 
617.000000	 62.518143 
616.000000	 62.663054 
615.000000	 62.809300 
614.000000	 62.949204 
613.000000	 63.074159 
612.000000	 63.176083 
611.000000	 63.248682 
610.000000	 63.288545 
609.000000	 63.295578 
608.000000	 63.273930 
607.000000	 63.231086 
606.000000	 63.173985 
605.000000	 63.107180 
604.000000	 63.032078 
603.000000	 62.946867 
602.000000	 62.848353 
601.000000	 62.734341 
600.000000	 62.605094 
599.000000	 62.465763 
598.000000	 62.326741 
597.000000	 62.202692 
596.000000	 62.107300 
595.000000	 62.052750 
594.000000	 62.045955 
593.000000	 62.087941 
592.000000	 62.171673 
591.000000	 62.285232 
590.000000	 62.413191 
589.000000	 62.540555 
588.000000	 62.653446 
587.000000	 62.744402 
586.000000	 62.811279 
585.000000	 62.859654 
584.000000	 62.898588 
583.000000	 62.942790 
582.000000	 63.008379 
581.000000	 63.109755 
580.000000	 63.255023 
579.000000	 63.442945 
578.000000	 63.660764 
577.000000	 63.885545 
576.000000	 64.086723 
575.000000	 64.231848 
574.000000	 64.292216 
573.000000	 64.251303 
572.000000	 64.106655 
571.000000	 63.870835 
570.000000	 63.568568 
569.000000	 63.232612 
568.000000	 62.897014 
567.000000	 62.592196 
566.000000	 62.339758 
565.000000	 62.151360 
564.000000	 62.028074 
563.000000	 61.964273 
562.000000	 61.948704 
561.000000	 61.968040 
560.000000	 62.008738 
559.000000	 62.057709 
558.000000	 62.103629 
557.000000	 62.136006 
556.000000	 62.146806 
555.000000	 62.129974 
554.000000	 62.084484 
553.000000	 62.014484 
552.000000	 61.930203 
551.000000	 61.846113 
550.000000	 61.779689 
549.000000	 61.747097 
548.000000	 61.759662 
547.000000	 61.820268 
546.000000	 61.922693 
545.000000	 62.051200 
544.000000	 62.185239 
543.000000	 62.301015 
542.000000	 62.377405 
541.000000	 62.397789 
540.000000	 62.352585 
539.000000	 62.241291 
538.000000	 62.070584 
537.000000	 61.856365 
536.000000	 61.618781 
535.000000	 61.384654 
534.000000	 61.183261 
533.000000	 61.043930 
532.000000	 60.990810 
531.000000	 61.040234 
530.000000	 61.197018 
529.000000	 61.453437 
528.000000	 61.789488 
527.000000	 62.175488 
526.000000	 62.576365 
525.000000	 62.957501 
524.000000	 63.289761 
523.000000	 63.553810 
522.000000	 63.741183 
521.000000	 63.854670 
520.000000	 63.903808 
519.000000	 63.903307 
518.000000	 63.865685 
517.000000	 63.799881 
516.000000	 63.708043 
515.000000	 63.589859 
514.000000	 63.443350 
513.000000	 63.271212 
512.000000	 63.081288 
511.000000	 62.889194 
510.000000	 62.714743 
509.000000	 62.578320 
508.000000	 62.495946 
507.000000	 62.474060 
506.000000	 62.509703 
505.000000	 62.590241 
504.000000	 62.697672 
503.000000	 62.812304 
502.000000	 62.916803 
501.000000	 62.999105 
500.000000	 63.053655 
499.000000	 63.080787 
498.000000	 63.085770 
497.000000	 63.076329 
496.000000	 63.059520 
495.000000	 63.039708 
494.000000	 63.019824 
493.000000	 63.000464 
492.000000	 62.980484 
491.000000	 62.957978 
490.000000	 62.932515 
489.000000	 62.905335 
488.000000	 62.878918 
487.000000	 62.856984 
486.000000	 62.844347 
485.000000	 62.844657 
484.000000	 62.859773 
483.000000	 62.887549 
482.000000	 62.921619 
481.000000	 62.952613 
480.000000	 62.969684 
479.000000	 62.964129 
478.000000	 62.931370 
477.000000	 62.873625 
476.000000	 62.799739 
475.000000	 62.722802 
474.000000	 62.656998 
473.000000	 62.613010 
472.000000	 62.595510 
471.000000	 62.602043 
470.000000	 62.624335 
469.000000	 62.651038 
468.000000	 62.671327 
467.000000	 62.678647 
466.000000	 62.671613 
465.000000	 62.654852 
464.000000	 62.634849 
463.000000	 62.616181 
462.000000	 62.598204 
461.000000	 62.575173 
460.000000	 62.536573 
459.000000	 62.469291 
458.000000	 62.363648 
457.000000	 62.218999 
456.000000	 62.044334 
455.000000	 61.857938 
454.000000	 61.683201 
453.000000	 61.543130 
452.000000	 61.454439 
451.000000	 61.423373 
450.000000	 61.443591 
449.000000	 61.496853 
448.000000	 61.561012 
447.000000	 61.616539 
446.000000	 61.650395 
445.000000	 61.658763 
444.000000	 61.648178 
443.000000	 61.632585 
442.000000	 61.626553 
441.000000	 61.642074 
440.000000	 61.684203 
439.000000	 61.752390 
438.000000	 61.842966 
437.000000	 61.952877 
436.000000	 62.079477 
435.000000	 62.224555 
434.000000	 62.395596 
433.000000	 62.601709 
432.000000	 62.849688 
431.000000	 63.138079 
430.000000	 63.456225 
429.000000	 63.779854 
428.000000	 64.077401 
427.000000	 64.310193 
426.000000	 64.445662 
425.000000	 64.455533 
424.000000	 64.324116 
423.000000	 64.049601 
422.000000	 63.649344 
421.000000	 63.150715 
420.000000	 62.587547 
419.000000	 61.998891 
418.000000	 61.427021 
417.000000	 60.902285 
416.000000	 60.445547 
415.000000	 60.073518 
414.000000	 59.805226 
413.000000	 59.664058 
412.000000	 59.679222 
411.000000	 59.877705 
410.000000	 60.275769 
409.000000	 60.871553 
408.000000	 61.633658 
407.000000	 62.489271 
406.000000	 63.339638 
405.000000	 64.076995 
404.000000	 64.607572 
403.000000	 64.865064 
402.000000	 64.835214 
401.000000	 64.557290 
400.000000	 64.120411 
399.000000	 63.651442 
398.000000	 63.274478 
397.000000	 63.066911 
396.000000	 63.081216 
395.000000	 63.342905 
394.000000	 63.856673 
393.000000	 64.612817 
392.000000	 65.606069 
391.000000	 66.830849 
390.000000	 68.288803 
389.000000	 69.966602 
388.000000	 71.793985 
387.000000	 73.632645 
386.000000	 75.304293 
385.000000	 76.605010 
384.000000	 77.339982 
383.000000	 77.360677 
382.000000	 76.632189 
381.000000	 75.213336 
380.000000	 73.281955 
379.000000	 71.069431 
378.000000	 68.738865 
377.000000	 66.459584 
376.000000	 64.403867 
375.000000	 62.778520 
374.000000	 61.757564 
373.000000	 61.581158 
372.000000	 62.470936 
371.000000	 64.677834 
370.000000	 68.449401 

