PE IR       SPECTRUM    SPECTRUM    ASCII       PEDS        1.60        
  -1
BZ60B3~1.ASC
17/04/07
17:59:44.00
17/04/07
17:59:44.00
tln
$BZ1503107-1_t0058$<tbV0>[7.8,0.0,8.0,0.0,27,1,0]
370.000000
64









2002,4.07    
MIRTGS : RIGHTBACK : INTERNAL 2
MIR : ON : INTERNAL 2
OPTKBR

0.200000
8
8.000000
FILLER
RATIO
SPECTRUM
UNLOCKED 256

DOUBLE
64
COMBINED
1
0
0


1.000000
RATIO


1
0
TRUE
51149
0
LEFT NOT FITTED RIGHT NOT FITTED 0
NONE
NONE
15600
12.000000
4.427000
51148
TRUE
1 0 8 72 0 0 0 0 

15798.010000






#HDR
-1
-1
#GR
CM-1
%T
0.00002384185791015625
0.0
5000.000000
-1.000000
4631
8
82.905387
49.025821
#DATA
5000.000000	65.789985 
4999.000000	66.003298 
4998.000000	66.213893 
4997.000000	66.398668 
4996.000000	66.537094 
4995.000000	66.618871 
4994.000000	66.644072 
4993.000000	66.625618 
4992.000000	66.581630 
4991.000000	66.533160 
4990.000000	66.492867 
4989.000000	66.462421 
4988.000000	66.431379 
4987.000000	66.382312 
4986.000000	66.297340 
4985.000000	66.166353 
4984.000000	65.992736 
4983.000000	65.795302 
4982.000000	65.604591 
4981.000000	65.455627 
4980.000000	65.378737 
4979.000000	65.390539 
4978.000000	65.488982 
4977.000000	65.652680 
4976.000000	65.845751 
4975.000000	66.025590 
4974.000000	66.154813 
4973.000000	66.207075 
4972.000000	66.172337 
4971.000000	66.055798 
4970.000000	65.875005 
4969.000000	65.652489 
4968.000000	65.408754 
4967.000000	65.158677 
4966.000000	64.910292 
4965.000000	64.666461 
4964.000000	64.428639 
4963.000000	64.201307 
4962.000000	63.995528 
4961.000000	63.827061 
4960.000000	63.713574 
4959.000000	63.668298 
4958.000000	63.694882 
4957.000000	63.782787 
4956.000000	63.907909 
4955.000000	64.036107 
4954.000000	64.131760 
4953.000000	64.167332 
4952.000000	64.132523 
4951.000000	64.036917 
4950.000000	63.910436 
4949.000000	63.795208 
4948.000000	63.737130 
4947.000000	63.772511 
4946.000000	63.920783 
4945.000000	64.179062 
4944.000000	64.524435 
4943.000000	64.918446 
4942.000000	65.318989 
4941.000000	65.689992 
4940.000000	66.009283 
4939.000000	66.270637 
4938.000000	66.482806 
4937.000000	66.663074 
4936.000000	66.829276 
4935.000000	66.993689 
4934.000000	67.155814 
4933.000000	67.302846 
4932.000000	67.413449 
4931.000000	67.466568 
4930.000000	67.445445 
4929.000000	67.344474 
4928.000000	67.171692 
4927.000000	66.947722 
4926.000000	66.700339 
4925.000000	66.458463 
4924.000000	66.245484 
4923.000000	66.075181 
4922.000000	65.952229 
4921.000000	65.871930 
4920.000000	65.824294 
4919.000000	65.796422 
4918.000000	65.777468 
4917.000000	65.758514 
4916.000000	65.732240 
4915.000000	65.693116 
4914.000000	65.635204 
4913.000000	65.554141 
4912.000000	65.444278 
4911.000000	65.305233 
4910.000000	65.142726 
4909.000000	64.969825 
4908.000000	64.804553 
4907.000000	64.668178 
4906.000000	64.581179 
4905.000000	64.557218 
4904.000000	64.599442 
4903.000000	64.699101 
4902.000000	64.836668 
4901.000000	64.985942 
4900.000000	65.119409 
4899.000000	65.213489 
4898.000000	65.252876 
4897.000000	65.232586 
4896.000000	65.157794 
4895.000000	65.040302 
4894.000000	64.895653 
4893.000000	64.740014 
4892.000000	64.586949 
4891.000000	64.446139 
4890.000000	64.322948 
4889.000000	64.221262 
4888.000000	64.142966 
4887.000000	64.088940 
4886.000000	64.059972 
4885.000000	64.055705 
4884.000000	64.075684 
4883.000000	64.116883 
4882.000000	64.176225 
4881.000000	64.249205 
4880.000000	64.331650 
4879.000000	64.418625 
4878.000000	64.506816 
4877.000000	64.593911 
4876.000000	64.678573 
4875.000000	64.759564 
4874.000000	64.836001 
4873.000000	64.906144 
4872.000000	64.967012 
4871.000000	65.013909 
4870.000000	65.041542 
4869.000000	65.044426 
4868.000000	65.018677 
4867.000000	64.962935 
4866.000000	64.878988 
4865.000000	64.772462 
4864.000000	64.652347 
4863.000000	64.530396 
4862.000000	64.419603 
4861.000000	64.332842 
4860.000000	64.279699 
4859.000000	64.266490 
4858.000000	64.294481 
4857.000000	64.360809 
4856.000000	64.458775 
4855.000000	64.579176 
4854.000000	64.710974 
4853.000000	64.843130 
4852.000000	64.965248 
4851.000000	65.068840 
4850.000000	65.147471 
4849.000000	65.198063 
4848.000000	65.220737 
4847.000000	65.218830 
4846.000000	65.197610 
4845.000000	65.163469 
4844.000000	65.122079 
4843.000000	65.078091 
4842.000000	65.034151 
4841.000000	64.991354 
4840.000000	64.949703 
4839.000000	64.909482 
4838.000000	64.871525 
4837.000000	64.838337 
4836.000000	64.812660 
4835.000000	64.797163 
4834.000000	64.792776 
4833.000000	64.797759 
4832.000000	64.807415 
4831.000000	64.814710 
4830.000000	64.812397 
4829.000000	64.794492 
4828.000000	64.758610 
4827.000000	64.707040 
4826.000000	64.646267 
4825.000000	64.585423 
4824.000000	64.533972 
4823.000000	64.498949 
4822.000000	64.484548 
4821.000000	64.491224 
4820.000000	64.516043 
4819.000000	64.553785 
4818.000000	64.599347 
4817.000000	64.648818 
4816.000000	64.700055 
4815.000000	64.752292 
4814.000000	64.805316 
4813.000000	64.858078 
4812.000000	64.908337 
4811.000000	64.951729 
4810.000000	64.982461 
4809.000000	64.994478 
4808.000000	64.983844 
4807.000000	64.949631 
4806.000000	64.894652 
4805.000000	64.825677 
4804.000000	64.752507 
4803.000000	64.686107 
4802.000000	64.636325 
4801.000000	64.610075 
4800.000000	64.610385 
4799.000000	64.635181 
4798.000000	64.677882 
4797.000000	64.728641 
4796.000000	64.776587 
4795.000000	64.811682 
4794.000000	64.826846 
4793.000000	64.818835 
4792.000000	64.788842 
4791.000000	64.741754 
4790.000000	64.685249 
4789.000000	64.628005 
4788.000000	64.578270 
4787.000000	64.542984 
4786.000000	64.526724 
4785.000000	64.531326 
4784.000000	64.555597 
4783.000000	64.596009 
4782.000000	64.647388 
4781.000000	64.703321 
4780.000000	64.757895 
4779.000000	64.806222 
4778.000000	64.845991 
4777.000000	64.876866 
4776.000000	64.901256 
4775.000000	64.923167 
4774.000000	64.947366 
4773.000000	64.977788 
4772.000000	65.016198 
4771.000000	65.061473 
4770.000000	65.109443 
4769.000000	65.154051 
4768.000000	65.188312 
4767.000000	65.205979 
4766.000000	65.203070 
4765.000000	65.179014 
4764.000000	65.136480 
4763.000000	65.080904 
4762.000000	65.019178 
4761.000000	64.958238 
4760.000000	64.903759 
4759.000000	64.859318 
4758.000000	64.826703 
4757.000000	64.805674 
4756.000000	64.794874 
4755.000000	64.792442 
4754.000000	64.796543 
4753.000000	64.805746 
4752.000000	64.818763 
4751.000000	64.834332 
4750.000000	64.850521 
4749.000000	64.865064 
4748.000000	64.875507 
4747.000000	64.879345 
4746.000000	64.874529 
4745.000000	64.860486 
4744.000000	64.838314 
4743.000000	64.810490 
4742.000000	64.780306 
4741.000000	64.751458 
4740.000000	64.727473 
4739.000000	64.710736 
4738.000000	64.702463 
4737.000000	64.703273 
4736.000000	64.713406 
4735.000000	64.732670 
4734.000000	64.760446 
4733.000000	64.795613 
4732.000000	64.836359 
4731.000000	64.879631 
4730.000000	64.921522 
4729.000000	64.957499 
4728.000000	64.983606 
4727.000000	64.997696 
4726.000000	64.999914 
4725.000000	64.992594 
4724.000000	64.979672 
4723.000000	64.966726 
4722.000000	64.958024 
4721.000000	64.955997 
4720.000000	64.959645 
4719.000000	64.965558 
4718.000000	64.968228 
4717.000000	64.962029 
4716.000000	64.942717 
4715.000000	64.908981 
4714.000000	64.862465 
4713.000000	64.807510 
4712.000000	64.749741 
4711.000000	64.694595 
4710.000000	64.645576 
4709.000000	64.603805 
4708.000000	64.567661 
4707.000000	64.534235 
4706.000000	64.500236 
4705.000000	64.464211 
4704.000000	64.426779 
4703.000000	64.392352 
4702.000000	64.367413 
4701.000000	64.360642 
4700.000000	64.379024 
4699.000000	64.427518 
4698.000000	64.507055 
4697.000000	64.613866 
4696.000000	64.739441 
4695.000000	64.871644 
4694.000000	64.996910 
4693.000000	65.102601 
4692.000000	65.179061 
4691.000000	65.221405 
4690.000000	65.229797 
4689.000000	65.209746 
4688.000000	65.170621 
4687.000000	65.123128 
4686.000000	65.076947 
4685.000000	65.039134 
4684.000000	65.013170 
4683.000000	64.998722 
4682.000000	64.992451 
4681.000000	64.990067 
4680.000000	64.987778 
4679.000000	64.983296 
4678.000000	64.976215 
4677.000000	64.968037 
4676.000000	64.960908 
4675.000000	64.956283 
4674.000000	64.953827 
4673.000000	64.951133 
4672.000000	64.943933 
4671.000000	64.927268 
4670.000000	64.897298 
4669.000000	64.852547 
4668.000000	64.795470 
4667.000000	64.732289 
4666.000000	64.672303 
4665.000000	64.625310 
4664.000000	64.600396 
4663.000000	64.603781 
4662.000000	64.636993 
4661.000000	64.696383 
4660.000000	64.774012 
4659.000000	64.859342 
4658.000000	64.941382 
4657.000000	65.010833 
4656.000000	65.061783 
4655.000000	65.092301 
4654.000000	65.104389 
4653.000000	65.102672 
4652.000000	65.092492 
4651.000000	65.078568 
4650.000000	65.064167 
4649.000000	65.050601 
4648.000000	65.038108 
4647.000000	65.026140 
4646.000000	65.015196 
4645.000000	65.006065 
4644.000000	65.000557 
4643.000000	65.000033 
4642.000000	65.005159 
4641.000000	65.014934 
4640.000000	65.026235 
4639.000000	65.035080 
4638.000000	65.037012 
4637.000000	65.029573 
4636.000000	65.012931 
4635.000000	64.990711 
4634.000000	64.969158 
4633.000000	64.955449 
4632.000000	64.955592 
4631.000000	64.972352 
4630.000000	65.004205 
4629.000000	65.045547 
4628.000000	65.088200 
4627.000000	65.123200 
4626.000000	65.143275 
4625.000000	65.145111 
4624.000000	65.130090 
4623.000000	65.103316 
4622.000000	65.072441 
4621.000000	65.045404 
4620.000000	65.028643 
4619.000000	65.025401 
4618.000000	65.035223 
4617.000000	65.054941 
4616.000000	65.079402 
4615.000000	65.103602 
4614.000000	65.123438 
4613.000000	65.136671 
4612.000000	65.142750 
4611.000000	65.142488 
4610.000000	65.137171 
4609.000000	65.127730 
4608.000000	65.114712 
4607.000000	65.098309 
4606.000000	65.078353 
4605.000000	65.054821 
4604.000000	65.028262 
4603.000000	64.999771 
4602.000000	64.970827 
4601.000000	64.942741 
4600.000000	64.916276 
4599.000000	64.891314 
4598.000000	64.867305 
4597.000000	64.843344 
4596.000000	64.818477 
4595.000000	64.792323 
4594.000000	64.765524 
4593.000000	64.739656 
4592.000000	64.716696 
4591.000000	64.698839 
4590.000000	64.687418 
4589.000000	64.683270 
4588.000000	64.686203 
4587.000000	64.695906 
4586.000000	64.711117 
4585.000000	64.731383 
4584.000000	64.756584 
4583.000000	64.787411 
4582.000000	64.824414 
4581.000000	64.867949 
4580.000000	64.917540 
4579.000000	64.971232 
4578.000000	65.025472 
4577.000000	65.075540 
4576.000000	65.116190 
4575.000000	65.142583 
4574.000000	65.151190 
4573.000000	65.140557 
4572.000000	65.111446 
4571.000000	65.067052 
4570.000000	65.012264 
4569.000000	64.953041 
4568.000000	64.895558 
4567.000000	64.845371 
4566.000000	64.807033 
4565.000000	64.783501 
4564.000000	64.776587 
4563.000000	64.786505 
4562.000000	64.812922 
4561.000000	64.854264 
4560.000000	64.909100 
4559.000000	64.975523 
4558.000000	65.051770 
4557.000000	65.135478 
4556.000000	65.223813 
4555.000000	65.313076 
4554.000000	65.398788 
4553.000000	65.475988 
4552.000000	65.539145 
4551.000000	65.583038 
4550.000000	65.603494 
4549.000000	65.598225 
4548.000000	65.567231 
4547.000000	65.512871 
4546.000000	65.439772 
4545.000000	65.354037 
4544.000000	65.262389 
4543.000000	65.171170 
4542.000000	65.085792 
4541.000000	65.010309 
4540.000000	64.947485 
4539.000000	64.898943 
4538.000000	64.865398 
4537.000000	64.846754 
4536.000000	64.841628 
4535.000000	64.848160 
4534.000000	64.862728 
4533.000000	64.882183 
4532.000000	64.903306 
4531.000000	64.924573 
4530.000000	64.945292 
4529.000000	64.967107 
4528.000000	64.992928 
4527.000000	65.026283 
4526.000000	65.069484 
4525.000000	65.123224 
4524.000000	65.185737 
4523.000000	65.252137 
4522.000000	65.315246 
4521.000000	65.367317 
4520.000000	65.401792 
4519.000000	65.414690 
4518.000000	65.405774 
4517.000000	65.378499 
4516.000000	65.339231 
4515.000000	65.296578 
4514.000000	65.258669 
4513.000000	65.232086 
4512.000000	65.219402 
4511.000000	65.220665 
4510.000000	65.231800 
4509.000000	65.246105 
4508.000000	65.255641 
4507.000000	65.253067 
4506.000000	65.233850 
4505.000000	65.197610 
4504.000000	65.148067 
4503.000000	65.091681 
4502.000000	65.035963 
4501.000000	64.987635 
4500.000000	64.950251 
4499.000000	64.923429 
4498.000000	64.902901 
4497.000000	64.882016 
4496.000000	64.853763 
4495.000000	64.813256 
4494.000000	64.759659 
4493.000000	64.696979 
4492.000000	64.632749 
4491.000000	64.577102 
4490.000000	64.539885 
4489.000000	64.528679 
4488.000000	64.547252 
4487.000000	64.594388 
4486.000000	64.664483 
4485.000000	64.747571 
4484.000000	64.832401 
4483.000000	64.906501 
4482.000000	64.958024 
4481.000000	64.977431 
4480.000000	64.960980 
4479.000000	64.908456 
4478.000000	64.819931 
4477.000000	64.701294 
4476.000000	64.564943 
4475.000000	64.427185 
4474.000000	64.304947 
4473.000000	64.216160 
4472.000000	64.177823 
4471.000000	64.196062 
4470.000000	64.264917 
4469.000000	64.366912 
4468.000000	64.477634 
4467.000000	64.575839 
4466.000000	64.649081 
4465.000000	64.692783 
4464.000000	64.711451 
4463.000000	64.721488 
4462.000000	64.742231 
4461.000000	64.781260 
4460.000000	64.836978 
4459.000000	64.896655 
4458.000000	64.947772 
4457.000000	64.975595 
4456.000000	64.984154 
4455.000000	64.996910 
4454.000000	65.060639 
4453.000000	65.230154 
4452.000000	65.561008 
4451.000000	66.087365 
4450.000000	66.818261 
4449.000000	67.725253 
4448.000000	68.757605 
4447.000000	69.850087 
4446.000000	70.936846 
4445.000000	71.962594 
4444.000000	72.875833 
4443.000000	73.627090 
4442.000000	74.163341 
4441.000000	74.425196 
4440.000000	74.343824 
4439.000000	73.851752 
4438.000000	72.907757 
4437.000000	71.511483 
4436.000000	69.724440 
4435.000000	67.664623 
4434.000000	65.505099 
4433.000000	63.437676 
4432.000000	61.638140 
4431.000000	60.237336 
4430.000000	59.291172 
4429.000000	58.790302 
4428.000000	58.668923 
4427.000000	58.832120 
4426.000000	59.175777 
4425.000000	59.610748 
4424.000000	60.062098 
4423.000000	60.484504 
4422.000000	60.835433 
4421.000000	61.103391 
4420.000000	61.290073 
4419.000000	61.420655 
4418.000000	61.530780 
4417.000000	61.663770 
4416.000000	61.858987 
4415.000000	62.138581 
4414.000000	62.501239 
4413.000000	62.925601 
4412.000000	63.374304 
4411.000000	63.804268 
4410.000000	64.176034 
4409.000000	64.461541 
4408.000000	64.649534 
4407.000000	64.749765 
4406.000000	64.786481 
4405.000000	64.787054 
4404.000000	64.776992 
4403.000000	64.780497 
4402.000000	64.809966 
4401.000000	64.863824 
4400.000000	64.930558 
4399.000000	65.003919 
4398.000000	65.073966 
4397.000000	65.130996 
4396.000000	65.166091 
4395.000000	65.171980 
4394.000000	65.145039 
4393.000000	65.086197 
4392.000000	65.000391 
4391.000000	64.895749 
4390.000000	64.783096 
4389.000000	64.674711 
4388.000000	64.580106 
4387.000000	64.505290 
4386.000000	64.454722 
4385.000000	64.431500 
4384.000000	64.437365 
4383.000000	64.472532 
4382.000000	64.536309 
4381.000000	64.626049 
4380.000000	64.733886 
4379.000000	64.849162 
4378.000000	64.960408 
4377.000000	65.057420 
4376.000000	65.131258 
4375.000000	65.177726 
4374.000000	65.197873 
4373.000000	65.197873 
4372.000000	65.187191 
4371.000000	65.176606 
4370.000000	65.175938 
4369.000000	65.191769 
4368.000000	65.226435 
4367.000000	65.277743 
4366.000000	65.340232 
4365.000000	65.406417 
4364.000000	65.469002 
4363.000000	65.521574 
4362.000000	65.559959 
4361.000000	65.582180 
4360.000000	65.588212 
4359.000000	65.579271 
4358.000000	65.557169 
4357.000000	65.524435 
4356.000000	65.483880 
4355.000000	65.438652 
4354.000000	65.391612 
4353.000000	65.346217 
4352.000000	65.305185 
4351.000000	65.271401 
4350.000000	65.246391 
4349.000000	65.230035 
4348.000000	65.220642 
4347.000000	65.215182 
4346.000000	65.210080 
4345.000000	65.200924 
4344.000000	65.185093 
4343.000000	65.162110 
4342.000000	65.134143 
4341.000000	65.105390 
4340.000000	65.081262 
4339.000000	65.066933 
4338.000000	65.065979 
4337.000000	65.079379 
4336.000000	65.105652 
4335.000000	65.141057 
4334.000000	65.180563 
4333.000000	65.219044 
4332.000000	65.252065 
4331.000000	65.276908 
4330.000000	65.292096 
4329.000000	65.297675 
4328.000000	65.294742 
4327.000000	65.284729 
4326.000000	65.269279 
4325.000000	65.249562 
4324.000000	65.226411 
4323.000000	65.199995 
4322.000000	65.170764 
4321.000000	65.139126 
4320.000000	65.105819 
4319.000000	65.072083 
4318.000000	65.039777 
4317.000000	65.011215 
4316.000000	64.988589 
4315.000000	64.973950 
4314.000000	64.968657 
4313.000000	64.972853 
4312.000000	64.985299 
4311.000000	65.003728 
4310.000000	65.025091 
4309.000000	65.046429 
4308.000000	65.065097 
4307.000000	65.079712 
4306.000000	65.090298 
4305.000000	65.097713 
4304.000000	65.103149 
4303.000000	65.107560 
4302.000000	65.110945 
4301.000000	65.112257 
4300.000000	65.109562 
4299.000000	65.100717 
4298.000000	65.084218 
4297.000000	65.060162 
4296.000000	65.030407 
4295.000000	64.998698 
4294.000000	64.969587 
4293.000000	64.947485 
4292.000000	64.935588 
4291.000000	64.934992 
4290.000000	64.944958 
4289.000000	64.962840 
4288.000000	64.985585 
4287.000000	65.010285 
4286.000000	65.035438 
4285.000000	65.060949 
4284.000000	65.088009 
4283.000000	65.118551 
4282.000000	65.154004 
4281.000000	65.194654 
4280.000000	65.239238 
4279.000000	65.285110 
4278.000000	65.329027 
4277.000000	65.367650 
4276.000000	65.398621 
4275.000000	65.420556 
4274.000000	65.433239 
4273.000000	65.437197 
4272.000000	65.433263 
4271.000000	65.422224 
4270.000000	65.404820 
4269.000000	65.381693 
4268.000000	65.354204 
4267.000000	65.324068 
4266.000000	65.293765 
4265.000000	65.265965 
4264.000000	65.243101 
4263.000000	65.226960 
4262.000000	65.218162 
4261.000000	65.216350 
4260.000000	65.219855 
4259.000000	65.227246 
4258.000000	65.237760 
4257.000000	65.251469 
4256.000000	65.269184 
4255.000000	65.292072 
4254.000000	65.320968 
4253.000000	65.355157 
4252.000000	65.392136 
4251.000000	65.428018 
4250.000000	65.458178 
4249.000000	65.478348 
4248.000000	65.485692 
4247.000000	65.480017 
4246.000000	65.463757 
4245.000000	65.441584 
4244.000000	65.419268 
4243.000000	65.402626 
4242.000000	65.395855 
4241.000000	65.400910 
4240.000000	65.416574 
4239.000000	65.439558 
4238.000000	65.464091 
4237.000000	65.484166 
4236.000000	65.493941 
4235.000000	65.488934 
4234.000000	65.467000 
4233.000000	65.428352 
4232.000000	65.375900 
4231.000000	65.314483 
4230.000000	65.250420 
4229.000000	65.190315 
4228.000000	65.139985 
4227.000000	65.103340 
4226.000000	65.081715 
4225.000000	65.073800 
4224.000000	65.075755 
4223.000000	65.082573 
4222.000000	65.088844 
4221.000000	65.090489 
4220.000000	65.085601 
4219.000000	65.075302 
4218.000000	65.062642 
4217.000000	65.051889 
4216.000000	65.046930 
4215.000000	65.050125 
4214.000000	65.061283 
4213.000000	65.077567 
4212.000000	65.094494 
4211.000000	65.106964 
4210.000000	65.111064 
4209.000000	65.104866 
4208.000000	65.088939 
4207.000000	65.066289 
4206.000000	65.041160 
4205.000000	65.018296 
4204.000000	65.001296 
4203.000000	64.992260 
4202.000000	64.991474 
4201.000000	64.997720 
4200.000000	65.008854 
4199.000000	65.022754 
4198.000000	65.037798 
4197.000000	65.052533 
4196.000000	65.065598 
4195.000000	65.075850 
4194.000000	65.082192 
4193.000000	65.083646 
4192.000000	65.079808 
4191.000000	65.071129 
4190.000000	65.058898 
4189.000000	65.044975 
4188.000000	65.031552 
4187.000000	65.020418 
4186.000000	65.012812 
4185.000000	65.009188 
4184.000000	65.009355 
4183.000000	65.012860 
4182.000000	65.019154 
4181.000000	65.028071 
4180.000000	65.039682 
4179.000000	65.054106 
4178.000000	65.071368 
4177.000000	65.090990 
4176.000000	65.111923 
4175.000000	65.132570 
4174.000000	65.151381 
4173.000000	65.167140 
4172.000000	65.179634 
4171.000000	65.189528 
4170.000000	65.198230 
4169.000000	65.207099 
4168.000000	65.217018 
4167.000000	65.227723 
4166.000000	65.237760 
4165.000000	65.244793 
4164.000000	65.246248 
4163.000000	65.239620 
4162.000000	65.223574 
4161.000000	65.198063 
4160.000000	65.164518 
4159.000000	65.125560 
4158.000000	65.084600 
4157.000000	65.045261 
4156.000000	65.010690 
4155.000000	64.983320 
4154.000000	64.964342 
4153.000000	64.954113 
4152.000000	64.952206 
4151.000000	64.957642 
4150.000000	64.969086 
4149.000000	64.984798 
4148.000000	65.002584 
4147.000000	65.019893 
4146.000000	65.033936 
4145.000000	65.041756 
4144.000000	65.040993 
4143.000000	65.030002 
4142.000000	65.008664 
4141.000000	64.978551 
4140.000000	64.942765 
4139.000000	64.905428 
4138.000000	64.870810 
4137.000000	64.842581 
4136.000000	64.822983 
4135.000000	64.812278 
4134.000000	64.809203 
4133.000000	64.811158 
4132.000000	64.815688 
4131.000000	64.820861 
4130.000000	64.826440 
4129.000000	64.833736 
4128.000000	64.845132 
4127.000000	64.863109 
4126.000000	64.889049 
4125.000000	64.922666 
4124.000000	64.961218 
4123.000000	64.999914 
4122.000000	65.033149 
4121.000000	65.055751 
4120.000000	65.064716 
4119.000000	65.060043 
4118.000000	65.044879 
4117.000000	65.024709 
4116.000000	65.006017 
4115.000000	64.994525 
4114.000000	64.993500 
4113.000000	65.003156 
4112.000000	65.021204 
4111.000000	65.043592 
4110.000000	65.065979 
4109.000000	65.084886 
4108.000000	65.098834 
4107.000000	65.108370 
4106.000000	65.115594 
4105.000000	65.123224 
4104.000000	65.133666 
4103.000000	65.147995 
4102.000000	65.165996 
4101.000000	65.185785 
4100.000000	65.204763 
4099.000000	65.220236 
4098.000000	65.230250 
4097.000000	65.233755 
4096.000000	65.231132 
4095.000000	65.223407 
4094.000000	65.212321 
4093.000000	65.199232 
4092.000000	65.184712 
4091.000000	65.168666 
4090.000000	65.150380 
4089.000000	65.128684 
4088.000000	65.102362 
4087.000000	65.070772 
4086.000000	65.033888 
4085.000000	64.992165 
4084.000000	64.946675 
4083.000000	64.898777 
4082.000000	64.850258 
4081.000000	64.802980 
4080.000000	64.758968 
4079.000000	64.720034 
4078.000000	64.687943 
4077.000000	64.664220 
4076.000000	64.649987 
4075.000000	64.645195 
4074.000000	64.649319 
4073.000000	64.660906 
4072.000000	64.678502 
4071.000000	64.700222 
4070.000000	64.725041 
4069.000000	64.752483 
4068.000000	64.782929 
4067.000000	64.817309 
4066.000000	64.856648 
4065.000000	64.901542 
4064.000000	64.951801 
4063.000000	65.005993 
4062.000000	65.061426 
4061.000000	65.114426 
4060.000000	65.161347 
4059.000000	65.198969 
4058.000000	65.225291 
4057.000000	65.239453 
4056.000000	65.242433 
4055.000000	65.235996 
4054.000000	65.222263 
4053.000000	65.202856 
4052.000000	65.178990 
4051.000000	65.151119 
4050.000000	65.118908 
4049.000000	65.082049 
4048.000000	65.041017 
4047.000000	64.997363 
4046.000000	64.953613 
4045.000000	64.913296 
4044.000000	64.880084 
4043.000000	64.857292 
4042.000000	64.847111 
4041.000000	64.850091 
4040.000000	64.864850 
4039.000000	64.888715 
4038.000000	64.917993 
4037.000000	64.948844 
4036.000000	64.977836 
4035.000000	65.002322 
4034.000000	65.020704 
4033.000000	65.032315 
4032.000000	65.037012 
4031.000000	65.035271 
4030.000000	65.027856 
4029.000000	65.015530 
4028.000000	64.999127 
4027.000000	64.980053 
4026.000000	64.959955 
4025.000000	64.940929 
4024.000000	64.925003 
4023.000000	64.914321 
4022.000000	64.910292 
4021.000000	64.913535 
4020.000000	64.923453 
4019.000000	64.938068 
4018.000000	64.954614 
4017.000000	64.969849 
4016.000000	64.981198 
4015.000000	64.987015 
4014.000000	64.987683 
4013.000000	64.985418 
4012.000000	64.983940 
4011.000000	64.987468 
4010.000000	65.000009 
4009.000000	65.024209 
4008.000000	65.060448 
4007.000000	65.106439 
4006.000000	65.157723 
4005.000000	65.208244 
4004.000000	65.251755 
4003.000000	65.282797 
4002.000000	65.297865 
4001.000000	65.295886 
4000.000000	65.278458 
3999.000000	65.249347 
3998.000000	65.213441 
3997.000000	65.175724 
3996.000000	65.140414 
3995.000000	65.110206 
3994.000000	65.086603 
3993.000000	65.069556 
3992.000000	65.058112 
3991.000000	65.051484 
3990.000000	65.049123 
3989.000000	65.051507 
3988.000000	65.059709 
3987.000000	65.075206 
3986.000000	65.099143 
3985.000000	65.132021 
3984.000000	65.173077 
3983.000000	65.220332 
3982.000000	65.270280 
3981.000000	65.318799 
3980.000000	65.361404 
3979.000000	65.394425 
3978.000000	65.414643 
3977.000000	65.419626 
3976.000000	65.407872 
3975.000000	65.379166 
3974.000000	65.334486 
3973.000000	65.276384 
3972.000000	65.208864 
3971.000000	65.137290 
3970.000000	65.067863 
3969.000000	65.007233 
3968.000000	64.961647 
3967.000000	64.935398 
3966.000000	64.930796 
3965.000000	64.947295 
3964.000000	64.981913 
3963.000000	65.029478 
3962.000000	65.083575 
3961.000000	65.137553 
3960.000000	65.185332 
3959.000000	65.222024 
3958.000000	65.244483 
3957.000000	65.251469 
3956.000000	65.243601 
3955.000000	65.223288 
3954.000000	65.195155 
3953.000000	65.165328 
3952.000000	65.141224 
3951.000000	65.129780 
3950.000000	65.136671 
3949.000000	65.164208 
3948.000000	65.211176 
3947.000000	65.271997 
3946.000000	65.337824 
3945.000000	65.397953 
3944.000000	65.442085 
3943.000000	65.462398 
3942.000000	65.454649 
3941.000000	65.419363 
3940.000000	65.361857 
3939.000000	65.290713 
3938.000000	65.215730 
3937.000000	65.146279 
3936.000000	65.089678 
3935.000000	65.049886 
3934.000000	65.027379 
3933.000000	65.019392 
3932.000000	65.021467 
3931.000000	65.028309 
3930.000000	65.035557 
3929.000000	65.039753 
3928.000000	65.039324 
3927.000000	65.034747 
3926.000000	65.028524 
3925.000000	65.024042 
3924.000000	65.024948 
3923.000000	65.034031 
3922.000000	65.052890 
3921.000000	65.081405 
3920.000000	65.118074 
3919.000000	65.160465 
3918.000000	65.205717 
3917.000000	65.251088 
3916.000000	65.294241 
3915.000000	65.333318 
3914.000000	65.367031 
3913.000000	65.394401 
3912.000000	65.414762 
3911.000000	65.427899 
3910.000000	65.433883 
3909.000000	65.433645 
3908.000000	65.427803 
3907.000000	65.416908 
3906.000000	65.401077 
3905.000000	65.380406 
3904.000000	65.354490 
3903.000000	65.323019 
3902.000000	65.286207 
3901.000000	65.245342 
3900.000000	65.203237 
3899.000000	65.163969 
3898.000000	65.132308 
3897.000000	65.112614 
3896.000000	65.107870 
3895.000000	65.118718 
3894.000000	65.142774 
3893.000000	65.175151 
3892.000000	65.209388 
3891.000000	65.239024 
3890.000000	65.258622 
3889.000000	65.265655 
3888.000000	65.260767 
3887.000000	65.247869 
3886.000000	65.232586 
3885.000000	65.221405 
3884.000000	65.219950 
3883.000000	65.231513 
3882.000000	65.256571 
3881.000000	65.292024 
3880.000000	65.332317 
3879.000000	65.370154 
3878.000000	65.398478 
3877.000000	65.411400 
3876.000000	65.405607 
3875.000000	65.380668 
3874.000000	65.339159 
3873.000000	65.286064 
3872.000000	65.227842 
3871.000000	65.171313 
3870.000000	65.122604 
3869.000000	65.086317 
3868.000000	65.065026 
3867.000000	65.059351 
3866.000000	65.067863 
3865.000000	65.087604 
3864.000000	65.114569 
3863.000000	65.144038 
3862.000000	65.171885 
3861.000000	65.194392 
3860.000000	65.209436 
3859.000000	65.215992 
3858.000000	65.214776 
3857.000000	65.207982 
3856.000000	65.198683 
3855.000000	65.190219 
3854.000000	65.185117 
3853.000000	65.184593 
3852.000000	65.188002 
3851.000000	65.193295 
3850.000000	65.197038 
3849.000000	65.195727 
3848.000000	65.186500 
3847.000000	65.168166 
3846.000000	65.141391 
3845.000000	65.108871 
3844.000000	65.074586 
3843.000000	65.042996 
3842.000000	65.018129 
3841.000000	65.002655 
3840.000000	64.997577 
3839.000000	65.002083 
3838.000000	65.013837 
3837.000000	65.029859 
3836.000000	65.047097 
3835.000000	65.063214 
3834.000000	65.076541 
3833.000000	65.086627 
3832.000000	65.093564 
3831.000000	65.098071 
3830.000000	65.100908 
3829.000000	65.102815 
3828.000000	65.104031 
3827.000000	65.104746 
3826.000000	65.104913 
3825.000000	65.104722 
3824.000000	65.104556 
3823.000000	65.105295 
3822.000000	65.108036 
3821.000000	65.114092 
3820.000000	65.124320 
3819.000000	65.138554 
3818.000000	65.155363 
3817.000000	65.172219 
3816.000000	65.185880 
3815.000000	65.192794 
3814.000000	65.190172 
3813.000000	65.176749 
3812.000000	65.153646 
3811.000000	65.124177 
3810.000000	65.093493 
3809.000000	65.067434 
3808.000000	65.051412 
3807.000000	65.049123 
3806.000000	65.061616 
3805.000000	65.086913 
3804.000000	65.120530 
3803.000000	65.156626 
3802.000000	65.189003 
3801.000000	65.212345 
3800.000000	65.223050 
3799.000000	65.219759 
3798.000000	65.203189 
3797.000000	65.175747 
3796.000000	65.141224 
3795.000000	65.104007 
3794.000000	65.068936 
3793.000000	65.040659 
3792.000000	65.023589 
3791.000000	65.020990 
3790.000000	65.034770 
3789.000000	65.064549 
3788.000000	65.107345 
3787.000000	65.157771 
3786.000000	65.208292 
3785.000000	65.251016 
3784.000000	65.279245 
3783.000000	65.288925 
3782.000000	65.279531 
3781.000000	65.254068 
3780.000000	65.218472 
3779.000000	65.179800 
3778.000000	65.144824 
3777.000000	65.118408 
3776.000000	65.102696 
3775.000000	65.097284 
3774.000000	65.100049 
3773.000000	65.107989 
3772.000000	65.118551 
3771.000000	65.130281 
3770.000000	65.142893 
3769.000000	65.156841 
3768.000000	65.172696 
3767.000000	65.190219 
3766.000000	65.207958 
3765.000000	65.223622 
3764.000000	65.234351 
3763.000000	65.237975 
3762.000000	65.233016 
3761.000000	65.219283 
3760.000000	65.197587 
3759.000000	65.169501 
3758.000000	65.136766 
3757.000000	65.101099 
3756.000000	65.064001 
3755.000000	65.026760 
3754.000000	64.990639 
3753.000000	64.957261 
3752.000000	64.928603 
3751.000000	64.906787 
3750.000000	64.894056 
3749.000000	64.891982 
3748.000000	64.901351 
3747.000000	64.921760 
3746.000000	64.951300 
3745.000000	64.986586 
3744.000000	65.023469 
3743.000000	65.057682 
3742.000000	65.085268 
3741.000000	65.103173 
3740.000000	65.109753 
3739.000000	65.104794 
3738.000000	65.089750 
3737.000000	65.067219 
3736.000000	65.040779 
3735.000000	65.014171 
3734.000000	64.990925 
3733.000000	64.973545 
3732.000000	64.963364 
3731.000000	64.960503 
3730.000000	64.964079 
3729.000000	64.972734 
3728.000000	64.984774 
3727.000000	64.998888 
3726.000000	65.013909 
3725.000000	65.029549 
3724.000000	65.045762 
3723.000000	65.063166 
3722.000000	65.082645 
3721.000000	65.104937 
3720.000000	65.130662 
3719.000000	65.159678 
3718.000000	65.191054 
3717.000000	65.223097 
3716.000000	65.253663 
3715.000000	65.280628 
3714.000000	65.302181 
3713.000000	65.317392 
3712.000000	65.326309 
3711.000000	65.330004 
3710.000000	65.330052 
3709.000000	65.328073 
3708.000000	65.325212 
3707.000000	65.321731 
3706.000000	65.316939 
3705.000000	65.309286 
3704.000000	65.297317 
3703.000000	65.280175 
3702.000000	65.258002 
3701.000000	65.232157 
3700.000000	65.204739 
3699.000000	65.178322 
3698.000000	65.155076 
3697.000000	65.135979 
3696.000000	65.121269 
3695.000000	65.110254 
3694.000000	65.102219 
3693.000000	65.096449 
3692.000000	65.093135 
3691.000000	65.093159 
3690.000000	65.098023 
3689.000000	65.108990 
3688.000000	65.126919 
3687.000000	65.151667 
3686.000000	65.181875 
3685.000000	65.214943 
3684.000000	65.247774 
3683.000000	65.277099 
3682.000000	65.300250 
3681.000000	65.315032 
3680.000000	65.320396 
3679.000000	65.315866 
3678.000000	65.301680 
3677.000000	65.278482 
3676.000000	65.247249 
3675.000000	65.209221 
3674.000000	65.166521 
3673.000000	65.121340 
3672.000000	65.076231 
3671.000000	65.033912 
3670.000000	64.996910 
3669.000000	64.967441 
3668.000000	64.946794 
3667.000000	64.935755 
3666.000000	64.933943 
3665.000000	64.940571 
3664.000000	64.954137 
3663.000000	64.972925 
3662.000000	64.994955 
3661.000000	65.018391 
3660.000000	65.041613 
3659.000000	65.063095 
3658.000000	65.081501 
3657.000000	65.095686 
3656.000000	65.104627 
3655.000000	65.107583 
3654.000000	65.104150 
3653.000000	65.094590 
3652.000000	65.079784 
3651.000000	65.061378 
3650.000000	65.041756 
3649.000000	65.023660 
3648.000000	65.009760 
3647.000000	65.002560 
3646.000000	65.003657 
3645.000000	65.013575 
3644.000000	65.031290 
3643.000000	65.054726 
3642.000000	65.080666 
3641.000000	65.105104 
3640.000000	65.123987 
3639.000000	65.133929 
3638.000000	65.132927 
3637.000000	65.120339 
3636.000000	65.097403 
3635.000000	65.066885 
3634.000000	65.032744 
3633.000000	64.999389 
3632.000000	64.970970 
3631.000000	64.950394 
3630.000000	64.939236 
3629.000000	64.937496 
3628.000000	64.943671 
3627.000000	64.955425 
3626.000000	64.970350 
3625.000000	64.986705 
3624.000000	65.003228 
3623.000000	65.019726 
3622.000000	65.036368 
3621.000000	65.053653 
3620.000000	65.071463 
3619.000000	65.089416 
3618.000000	65.106439 
3617.000000	65.121459 
3616.000000	65.133786 
3615.000000	65.143346 
3614.000000	65.151023 
3613.000000	65.158247 
3612.000000	65.166854 
3611.000000	65.178060 
3610.000000	65.192246 
3609.000000	65.208363 
3608.000000	65.224194 
3607.000000	65.236735 
3606.000000	65.242981 
3605.000000	65.240740 
3604.000000	65.229320 
3603.000000	65.209317 
3602.000000	65.182709 
3601.000000	65.152359 
3600.000000	65.121293 
3599.000000	65.091967 
3598.000000	65.066003 
3597.000000	65.044045 
3596.000000	65.026187 
3595.000000	65.012121 
3594.000000	65.001749 
3593.000000	64.995098 
3592.000000	64.992618 
3591.000000	64.994716 
3590.000000	65.001773 
3589.000000	65.013337 
3588.000000	65.028309 
3587.000000	65.045094 
3586.000000	65.061855 
3585.000000	65.076756 
3584.000000	65.088534 
3583.000000	65.096759 
3582.000000	65.101647 
3581.000000	65.104055 
3580.000000	65.105199 
3579.000000	65.106201 
3578.000000	65.107941 
3577.000000	65.110850 
3576.000000	65.114831 
3575.000000	65.119528 
3574.000000	65.124368 
3573.000000	65.128803 
3572.000000	65.132331 
3571.000000	65.134549 
3570.000000	65.135431 
3569.000000	65.134835 
3568.000000	65.132856 
3567.000000	65.129446 
3566.000000	65.124773 
3565.000000	65.118956 
3564.000000	65.112233 
3563.000000	65.104913 
3562.000000	65.097355 
3561.000000	65.089964 
3560.000000	65.083074 
3559.000000	65.076994 
3558.000000	65.072107 
3557.000000	65.068769 
3556.000000	65.067291 
3555.000000	65.067839 
3554.000000	65.070343 
3553.000000	65.074276 
3552.000000	65.078926 
3551.000000	65.083050 
3550.000000	65.085244 
3549.000000	65.084314 
3548.000000	65.079665 
3547.000000	65.071392 
3546.000000	65.060567 
3545.000000	65.048933 
3544.000000	65.038633 
3543.000000	65.031552 
3542.000000	65.028738 
3541.000000	65.030097 
3540.000000	65.034437 
3539.000000	65.039634 
3538.000000	65.043592 
3537.000000	65.044546 
3536.000000	65.041923 
3535.000000	65.036487 
3534.000000	65.030431 
3533.000000	65.026783 
3532.000000	65.028643 
3531.000000	65.038084 
3530.000000	65.055751 
3529.000000	65.080213 
3528.000000	65.108275 
3527.000000	65.135884 
3526.000000	65.158939 
3525.000000	65.174341 
3524.000000	65.180635 
3523.000000	65.178370 
3522.000000	65.169477 
3521.000000	65.156698 
3520.000000	65.142846 
3519.000000	65.130162 
3518.000000	65.120005 
3517.000000	65.113043 
3516.000000	65.109515 
3515.000000	65.109634 
3514.000000	65.113830 
3513.000000	65.122771 
3512.000000	65.137076 
3511.000000	65.156912 
3510.000000	65.181446 
3509.000000	65.208864 
3508.000000	65.236306 
3507.000000	65.260505 
3506.000000	65.278363 
3505.000000	65.287756 
3504.000000	65.287923 
3503.000000	65.279650 
3502.000000	65.265274 
3501.000000	65.247821 
3500.000000	65.230321 
3499.000000	65.215516 
3498.000000	65.205359 
3497.000000	65.200567 
3496.000000	65.200877 
3495.000000	65.205454 
3494.000000	65.213251 
3493.000000	65.223073 
3492.000000	65.233874 
3491.000000	65.244698 
3490.000000	65.254926 
3489.000000	65.264081 
3488.000000	65.271830 
3487.000000	65.277838 
3486.000000	65.281963 
3485.000000	65.284371 
3484.000000	65.285491 
3483.000000	65.285658 
3482.000000	65.285015 
3481.000000	65.283536 
3480.000000	65.280628 
3479.000000	65.275573 
3478.000000	65.267252 
3477.000000	65.254688 
3476.000000	65.237069 
3475.000000	65.214085 
3474.000000	65.185928 
3473.000000	65.153312 
3472.000000	65.117216 
3471.000000	65.079164 
3470.000000	65.040540 
3469.000000	65.002918 
3468.000000	64.967632 
3467.000000	64.935922 
3466.000000	64.909029 
3465.000000	64.888310 
3464.000000	64.875149 
3463.000000	64.871168 
3462.000000	64.877486 
3461.000000	64.894628 
3460.000000	64.922285 
3459.000000	64.959001 
3458.000000	65.001988 
3457.000000	65.047669 
3456.000000	65.091919 
3455.000000	65.130758 
3454.000000	65.161156 
3453.000000	65.181398 
3452.000000	65.191245 
3451.000000	65.191769 
3450.000000	65.185236 
3449.000000	65.174174 
3448.000000	65.160965 
3447.000000	65.147447 
3446.000000	65.134811 
3445.000000	65.123534 
3444.000000	65.113759 
3443.000000	65.105628 
3442.000000	65.099287 
3441.000000	65.094733 
3440.000000	65.091586 
3439.000000	65.089106 
3438.000000	65.086317 
3437.000000	65.081691 
3436.000000	65.073871 
3435.000000	65.061879 
3434.000000	65.045809 
3433.000000	65.026783 
3432.000000	65.007042 
3431.000000	64.989376 
3430.000000	64.976811 
3429.000000	64.971947 
3428.000000	64.976119 
3427.000000	64.989423 
3426.000000	65.010094 
3425.000000	65.035176 
3424.000000	65.060782 
3423.000000	65.082883 
3422.000000	65.097832 
3421.000000	65.103149 
3420.000000	65.097880 
3419.000000	65.082740 
3418.000000	65.060162 
3417.000000	65.033817 
3416.000000	65.008330 
3415.000000	64.988327 
3414.000000	64.977908 
3413.000000	64.979362 
3412.000000	64.993333 
3411.000000	65.018033 
3410.000000	65.049743 
3409.000000	65.083193 
3408.000000	65.112638 
3407.000000	65.132761 
3406.000000	65.139532 
3405.000000	65.131330 
3404.000000	65.108919 
3403.000000	65.075778 
3402.000000	65.037107 
3401.000000	64.999246 
3400.000000	64.968419 
3399.000000	64.949417 
3398.000000	64.944958 
3397.000000	64.955067 
3396.000000	64.977264 
3395.000000	65.007233 
3394.000000	65.039896 
3393.000000	65.070176 
3392.000000	65.094184 
3391.000000	65.109753 
3390.000000	65.116667 
3389.000000	65.116190 
3388.000000	65.110516 
3387.000000	65.102171 
3386.000000	65.093421 
3385.000000	65.085911 
3384.000000	65.080547 
3383.000000	65.077829 
3382.000000	65.077924 
3381.000000	65.081405 
3380.000000	65.088915 
3379.000000	65.101337 
3378.000000	65.119242 
3377.000000	65.142273 
3376.000000	65.169000 
3375.000000	65.196967 
3374.000000	65.222597 
3373.000000	65.242052 
3372.000000	65.251946 
3371.000000	65.249991 
3370.000000	65.235757 
3369.000000	65.211105 
3368.000000	65.179371 
3367.000000	65.145015 
3366.000000	65.112209 
3365.000000	65.084218 
3364.000000	65.062355 
3363.000000	65.045857 
3362.000000	65.031933 
3361.000000	65.017056 
3360.000000	64.998126 
3359.000000	64.973711 
3358.000000	64.944481 
3357.000000	64.913487 
3356.000000	64.885115 
3355.000000	64.864301 
3354.000000	64.854621 
3353.000000	64.857649 
3352.000000	64.872121 
3351.000000	64.894390 
3350.000000	64.919137 
3349.000000	64.940810 
3348.000000	64.954948 
3347.000000	64.959502 
3346.000000	64.954948 
3345.000000	64.944410 
3344.000000	64.932465 
3343.000000	64.924168 
3342.000000	64.923620 
3341.000000	64.932990 
3340.000000	64.952158 
3339.000000	64.978837 
3338.000000	65.009260 
3337.000000	65.039014 
3336.000000	65.063881 
3335.000000	65.080904 
3334.000000	65.088844 
3333.000000	65.088152 
3332.000000	65.080571 
3331.000000	65.068745 
3330.000000	65.055298 
3329.000000	65.042304 
3328.000000	65.030932 
3327.000000	65.021109 
3326.000000	65.012025 
3325.000000	65.002870 
3324.000000	64.993095 
3323.000000	64.982986 
3322.000000	64.973664 
3321.000000	64.966893 
3320.000000	64.964699 
3319.000000	64.968538 
3318.000000	64.979076 
3317.000000	64.995789 
3316.000000	65.016984 
3315.000000	65.040230 
3314.000000	65.062928 
3313.000000	65.082907 
3312.000000	65.099000 
3311.000000	65.111088 
3310.000000	65.120005 
3309.000000	65.127015 
3308.000000	65.133213 
3307.000000	65.139079 
3306.000000	65.144348 
3305.000000	65.147924 
3304.000000	65.148091 
3303.000000	65.142893 
3302.000000	65.130782 
3301.000000	65.110921 
3300.000000	65.083599 
3299.000000	65.050053 
3298.000000	65.012407 
3297.000000	64.973568 
3296.000000	64.936375 
3295.000000	64.903903 
3294.000000	64.878416 
3293.000000	64.861702 
3292.000000	64.854645 
3291.000000	64.857530 
3290.000000	64.869713 
3289.000000	64.890241 
3288.000000	64.917445 
3287.000000	64.949750 
3286.000000	64.985227 
3285.000000	65.021848 
3284.000000	65.057206 
3283.000000	65.088915 
3282.000000	65.114617 
3281.000000	65.131902 
3280.000000	65.138816 
3279.000000	65.134167 
3278.000000	65.117979 
3277.000000	65.091562 
3276.000000	65.057420 
3275.000000	65.019130 
3274.000000	64.980626 
3273.000000	64.945769 
3272.000000	64.917802 
3271.000000	64.898848 
3270.000000	64.889788 
3269.000000	64.890336 
3268.000000	64.899730 
3267.000000	64.916515 
3266.000000	64.939308 
3265.000000	64.966845 
3264.000000	64.998006 
3263.000000	65.031599 
3262.000000	65.066194 
3261.000000	65.099954 
3260.000000	65.130519 
3259.000000	65.155553 
3258.000000	65.172791 
3257.000000	65.180420 
3256.000000	65.177655 
3255.000000	65.164923 
3254.000000	65.143704 
3253.000000	65.116333 
3252.000000	65.086007 
3251.000000	65.056085 
3250.000000	65.029788 
3249.000000	65.009737 
3248.000000	64.997863 
3247.000000	64.995193 
3246.000000	65.001773 
3245.000000	65.016865 
3244.000000	65.038704 
3243.000000	65.065145 
3242.000000	65.093517 
3241.000000	65.121436 
3240.000000	65.146446 
3239.000000	65.166878 
3238.000000	65.181756 
3237.000000	65.190911 
3236.000000	65.195012 
3235.000000	65.195059 
3234.000000	65.192389 
3233.000000	65.188145 
3232.000000	65.183258 
3231.000000	65.177989 
3230.000000	65.172028 
3229.000000	65.164518 
3228.000000	65.154600 
3227.000000	65.141391 
3226.000000	65.124440 
3225.000000	65.103912 
3224.000000	65.080833 
3223.000000	65.056967 
3222.000000	65.034556 
3221.000000	65.015697 
3220.000000	65.002226 
3219.000000	64.995312 
3218.000000	64.995431 
3217.000000	65.001869 
3216.000000	65.013313 
3215.000000	65.027976 
3214.000000	65.043902 
3213.000000	65.059518 
3212.000000	65.073561 
3211.000000	65.085268 
3210.000000	65.094089 
3209.000000	65.099620 
3208.000000	65.101313 
3207.000000	65.098357 
3206.000000	65.090060 
3205.000000	65.075993 
3204.000000	65.056395 
3203.000000	65.032291 
3202.000000	65.005493 
3201.000000	64.978456 
3200.000000	64.954066 
3199.000000	64.934992 
3198.000000	64.923667 
3197.000000	64.921593 
3196.000000	64.929437 
3195.000000	64.946746 
3194.000000	64.971756 
3193.000000	65.001845 
3192.000000	65.033674 
3191.000000	65.063977 
3190.000000	65.089893 
3189.000000	65.109562 
3188.000000	65.122389 
3187.000000	65.129065 
3186.000000	65.131163 
3185.000000	65.130472 
3184.000000	65.128922 
3183.000000	65.127515 
3182.000000	65.126323 
3181.000000	65.124392 
3180.000000	65.120315 
3179.000000	65.112614 
3178.000000	65.100574 
3177.000000	65.084457 
3176.000000	65.065598 
3175.000000	65.046143 
3174.000000	65.028333 
3173.000000	65.013957 
3172.000000	65.004134 
3171.000000	64.999032 
3170.000000	64.998006 
3169.000000	65.000033 
3168.000000	65.003967 
3167.000000	65.008735 
3166.000000	65.013551 
3165.000000	65.017628 
3164.000000	65.020465 
3163.000000	65.021610 
3162.000000	65.021133 
3161.000000	65.019083 
3160.000000	65.016055 
3159.000000	65.013217 
3158.000000	65.012025 
3157.000000	65.014052 
3156.000000	65.020346 
3155.000000	65.030884 
3154.000000	65.044569 
3153.000000	65.059232 
3152.000000	65.072083 
3151.000000	65.080332 
3150.000000	65.082073 
3149.000000	65.076613 
3148.000000	65.064597 
3147.000000	65.047645 
3146.000000	65.027809 
3145.000000	65.007448 
3144.000000	64.988613 
3143.000000	64.972543 
3142.000000	64.960002 
3141.000000	64.950919 
3140.000000	64.944481 
3139.000000	64.939355 
3138.000000	64.933729 
3137.000000	64.926075 
3136.000000	64.915108 
3135.000000	64.900875 
3134.000000	64.884257 
3133.000000	64.867711 
3132.000000	64.854383 
3131.000000	64.847874 
3130.000000	64.851450 
3129.000000	64.866971 
3128.000000	64.894127 
3127.000000	64.930486 
3126.000000	64.971661 
3125.000000	65.012502 
3124.000000	65.048360 
3123.000000	65.075993 
3122.000000	65.094208 
3121.000000	65.103697 
3120.000000	65.106630 
3119.000000	65.105605 
3118.000000	65.102720 
3117.000000	65.099191 
3116.000000	65.095067 
3115.000000	65.089678 
3114.000000	65.082192 
3113.000000	65.072107 
3112.000000	65.059614 
3111.000000	65.045762 
3110.000000	65.032553 
3109.000000	65.022110 
3108.000000	65.016841 
3107.000000	65.018367 
3106.000000	65.027713 
3105.000000	65.045213 
3104.000000	65.070176 
3103.000000	65.101432 
3102.000000	65.136480 
3101.000000	65.172290 
3100.000000	65.204715 
3099.000000	65.229463 
3098.000000	65.242409 
3097.000000	65.240597 
3096.000000	65.222811 
3095.000000	65.190148 
3094.000000	65.145969 
3093.000000	65.095400 
3092.000000	65.044546 
3091.000000	64.999222 
3090.000000	64.964056 
3089.000000	64.941620 
3088.000000	64.932227 
3087.000000	64.933967 
3086.000000	64.943385 
3085.000000	64.956307 
3084.000000	64.968752 
3083.000000	64.977741 
3082.000000	64.981818 
3081.000000	64.981174 
3080.000000	64.977002 
3079.000000	64.971446 
3078.000000	64.966726 
3077.000000	64.964747 
3076.000000	64.966559 
3075.000000	64.972162 
3074.000000	64.980697 
3073.000000	64.990544 
3072.000000	64.999961 
3071.000000	65.007543 
3070.000000	65.012788 
3069.000000	65.016222 
3068.000000	65.019202 
3067.000000	65.023612 
3066.000000	65.031361 
3065.000000	65.043783 
3064.000000	65.061140 
3063.000000	65.082287 
3062.000000	65.104889 
3061.000000	65.125894 
3060.000000	65.142178 
3059.000000	65.150928 
3058.000000	65.150165 
3057.000000	65.139389 
3056.000000	65.119242 
3055.000000	65.091133 
3054.000000	65.057134 
3053.000000	65.019416 
3052.000000	64.979934 
3051.000000	64.940762 
3050.000000	64.903545 
3049.000000	64.870119 
3048.000000	64.842104 
3047.000000	64.821076 
3046.000000	64.808297 
3045.000000	64.804387 
3044.000000	64.809203 
3043.000000	64.821720 
3042.000000	64.840221 
3041.000000	64.862346 
3040.000000	64.886093 
3039.000000	64.909815 
3038.000000	64.932632 
3037.000000	64.954376 
3036.000000	64.975357 
3035.000000	64.996027 
3034.000000	65.016508 
3033.000000	65.036392 
3032.000000	65.054941 
3031.000000	65.071010 
3030.000000	65.083742 
3029.000000	65.092515 
3028.000000	65.097332 
3027.000000	65.098404 
3026.000000	65.096402 
3025.000000	65.091896 
3024.000000	65.084981 
3023.000000	65.075588 
3022.000000	65.063476 
3021.000000	65.048742 
3020.000000	65.032100 
3019.000000	65.015006 
3018.000000	64.999890 
3017.000000	64.989495 
3016.000000	64.986038 
3015.000000	64.990854 
3014.000000	65.003657 
3013.000000	65.022706 
3012.000000	65.044879 
3011.000000	65.066432 
3010.000000	65.083789 
3009.000000	65.094423 
3008.000000	65.097188 
3007.000000	65.092492 
3006.000000	65.082025 
3005.000000	65.068578 
3004.000000	65.055274 
3003.000000	65.044951 
3002.000000	65.039443 
3001.000000	65.039634 
3000.000000	65.045022 
2999.000000	65.054297 
2998.000000	65.065240 
2997.000000	65.075421 
2996.000000	65.082740 
2995.000000	65.085530 
2994.000000	65.083503 
2993.000000	65.077328 
2992.000000	65.068721 
2991.000000	65.059995 
2990.000000	65.053415 
2989.000000	65.050578 
2988.000000	65.052080 
2987.000000	65.057373 
2986.000000	65.064787 
2985.000000	65.071988 
2984.000000	65.076494 
2983.000000	65.076375 
2982.000000	65.070319 
2981.000000	65.057778 
2980.000000	65.038847 
2979.000000	65.014219 
2978.000000	64.984703 
2977.000000	64.951419 
2976.000000	64.915704 
2975.000000	64.879298 
2974.000000	64.844441 
2973.000000	64.813923 
2972.000000	64.790821 
2971.000000	64.777588 
2970.000000	64.775562 
2969.000000	64.784312 
2968.000000	64.801383 
2967.000000	64.822840 
2966.000000	64.843797 
2965.000000	64.859938 
2964.000000	64.867925 
2963.000000	64.866638 
2962.000000	64.857125 
2961.000000	64.842510 
2960.000000	64.827036 
2959.000000	64.815092 
2958.000000	64.810013 
2957.000000	64.813661 
2956.000000	64.826130 
2955.000000	64.846038 
2954.000000	64.870834 
2953.000000	64.897656 
2952.000000	64.923787 
2951.000000	64.947009 
2950.000000	64.965820 
2949.000000	64.979338 
2948.000000	64.987421 
2947.000000	64.990520 
2946.000000	64.989423 
2945.000000	64.985656 
2944.000000	64.980554 
2943.000000	64.975523 
2942.000000	64.971089 
2941.000000	64.967465 
2940.000000	64.964175 
2939.000000	64.960169 
2938.000000	64.954614 
2937.000000	64.947032 
2936.000000	64.938092 
2935.000000	64.929389 
2934.000000	64.923453 
2933.000000	64.922904 
2932.000000	64.929437 
2931.000000	64.943218 
2930.000000	64.962458 
2929.000000	64.983463 
2928.000000	65.001797 
2927.000000	65.013027 
2926.000000	65.014314 
2925.000000	65.004968 
2924.000000	64.986348 
2923.000000	64.961767 
2922.000000	64.935183 
2921.000000	64.910650 
2920.000000	64.891338 
2919.000000	64.878964 
2918.000000	64.874005 
2917.000000	64.875578 
2916.000000	64.882326 
2915.000000	64.892506 
2914.000000	64.904546 
2913.000000	64.917254 
2912.000000	64.929699 
2911.000000	64.941358 
2910.000000	64.951515 
2909.000000	64.959502 
2908.000000	64.964699 
2907.000000	64.966630 
2906.000000	64.965176 
2905.000000	64.960694 
2904.000000	64.954185 
2903.000000	64.947104 
2902.000000	64.941024 
2901.000000	64.937448 
2900.000000	64.937424 
2899.000000	64.941406 
2898.000000	64.949011 
2897.000000	64.959430 
2896.000000	64.971351 
2895.000000	64.983439 
2894.000000	64.994382 
2893.000000	65.003395 
2892.000000	65.010023 
2891.000000	65.014171 
2890.000000	65.016198 
2889.000000	65.016460 
2888.000000	65.015387 
2887.000000	65.013408 
2886.000000	65.010809 
2885.000000	65.007972 
2884.000000	65.005111 
2883.000000	65.002512 
2882.000000	65.000319 
2881.000000	64.998364 
2880.000000	64.996361 
2879.000000	64.993739 
2878.000000	64.989805 
2877.000000	64.983987 
2876.000000	64.975833 
2875.000000	64.965319 
2874.000000	64.952850 
2873.000000	64.939284 
2872.000000	64.925813 
2871.000000	64.913702 
2870.000000	64.904546 
2869.000000	64.899587 
2868.000000	64.899587 
2867.000000	64.904594 
2866.000000	64.913773 
2865.000000	64.925360 
2864.000000	64.936876 
2863.000000	64.945697 
2862.000000	64.949560 
2861.000000	64.947366 
2860.000000	64.939260 
2859.000000	64.927220 
2858.000000	64.914464 
2857.000000	64.904880 
2856.000000	64.902138 
2855.000000	64.908671 
2854.000000	64.924907 
2853.000000	64.949011 
2852.000000	64.977335 
2851.000000	65.005278 
2850.000000	65.028262 
2849.000000	65.042877 
2848.000000	65.047669 
2847.000000	65.042972 
2846.000000	65.030884 
2845.000000	65.014290 
2844.000000	64.996099 
2843.000000	64.978599 
2842.000000	64.963102 
2841.000000	64.950037 
2840.000000	64.939165 
2839.000000	64.930081 
2838.000000	64.922547 
2837.000000	64.916682 
2836.000000	64.913129 
2835.000000	64.912438 
2834.000000	64.915227 
2833.000000	64.921283 
2832.000000	64.929986 
2831.000000	64.940214 
2830.000000	64.950537 
2829.000000	64.959621 
2828.000000	64.966464 
2827.000000	64.970660 
2826.000000	64.972209 
2825.000000	64.971399 
2824.000000	64.968466 
2823.000000	64.963626 
2822.000000	64.956808 
2821.000000	64.947772 
2820.000000	64.936280 
2819.000000	64.922547 
2818.000000	64.907145 
2817.000000	64.891266 
2816.000000	64.876580 
2815.000000	64.865159 
2814.000000	64.858794 
2813.000000	64.858722 
2812.000000	64.865326 
2811.000000	64.878106 
2810.000000	64.895582 
2809.000000	64.916062 
2808.000000	64.937567 
2807.000000	64.958477 
2806.000000	64.977765 
2805.000000	64.994645 
2804.000000	65.008807 
2803.000000	65.019845 
2802.000000	65.027308 
2801.000000	65.030479 
2800.000000	65.028858 
2799.000000	65.021991 
2798.000000	65.010142 
2797.000000	64.994096 
2796.000000	64.975333 
2795.000000	64.955759 
2794.000000	64.937257 
2793.000000	64.921474 
2792.000000	64.909219 
2791.000000	64.900445 
2790.000000	64.894413 
2789.000000	64.890003 
2788.000000	64.886116 
2787.000000	64.881992 
2786.000000	64.877748 
2785.000000	64.874005 
2784.000000	64.872145 
2783.000000	64.873409 
2782.000000	64.878940 
2781.000000	64.889144 
2780.000000	64.903616 
2779.000000	64.920926 
2778.000000	64.938998 
2777.000000	64.955329 
2776.000000	64.967632 
2775.000000	64.973974 
2774.000000	64.973664 
2773.000000	64.967179 
2772.000000	64.956188 
2771.000000	64.943075 
2770.000000	64.930558 
2769.000000	64.921140 
2768.000000	64.916443 
2767.000000	64.917016 
2766.000000	64.922380 
2765.000000	64.930963 
2764.000000	64.940857 
2763.000000	64.950299 
2762.000000	64.957880 
2761.000000	64.962863 
2760.000000	64.965295 
2759.000000	64.965605 
2758.000000	64.964342 
2757.000000	64.961838 
2756.000000	64.958167 
2755.000000	64.953207 
2754.000000	64.947009 
2753.000000	64.939999 
2752.000000	64.933109 
2751.000000	64.927363 
2750.000000	64.923930 
2749.000000	64.923429 
2748.000000	64.925718 
2747.000000	64.929747 
2746.000000	64.933848 
2745.000000	64.936184 
2744.000000	64.935064 
2743.000000	64.929938 
2742.000000	64.921259 
2741.000000	64.910721 
2740.000000	64.900588 
2739.000000	64.893102 
2738.000000	64.889717 
2737.000000	64.890813 
2736.000000	64.895606 
2735.000000	64.902448 
2734.000000	64.909291 
2733.000000	64.914464 
2732.000000	64.916944 
2731.000000	64.916563 
2730.000000	64.913821 
2729.000000	64.909386 
2728.000000	64.904165 
2727.000000	64.898538 
2726.000000	64.892840 
2725.000000	64.887118 
2724.000000	64.881610 
2723.000000	64.876675 
2722.000000	64.872813 
2721.000000	64.870786 
2720.000000	64.871144 
2719.000000	64.874005 
2718.000000	64.878892 
2717.000000	64.884614 
2716.000000	64.889740 
2715.000000	64.892816 
2714.000000	64.892959 
2713.000000	64.890050 
2712.000000	64.884948 
2711.000000	64.879059 
2710.000000	64.874124 
2709.000000	64.871501 
2708.000000	64.871883 
2707.000000	64.875245 
2706.000000	64.880585 
2705.000000	64.886522 
2704.000000	64.891600 
2703.000000	64.894723 
2702.000000	64.895558 
2701.000000	64.894652 
2700.000000	64.893269 
2699.000000	64.893126 
2698.000000	64.895796 
2697.000000	64.902186 
2696.000000	64.912390 
2695.000000	64.925503 
2694.000000	64.939808 
2693.000000	64.953327 
2692.000000	64.964175 
2691.000000	64.971160 
2690.000000	64.973974 
2689.000000	64.973115 
2688.000000	64.969706 
2687.000000	64.964914 
2686.000000	64.959740 
2685.000000	64.954614 
2684.000000	64.949202 
2683.000000	64.942765 
2682.000000	64.934563 
2681.000000	64.923977 
2680.000000	64.911198 
2679.000000	64.897274 
2678.000000	64.884114 
2677.000000	64.873909 
2676.000000	64.868807 
2675.000000	64.870262 
2674.000000	64.878535 
2673.000000	64.892601 
2672.000000	64.910101 
2671.000000	64.927983 
2670.000000	64.942765 
2669.000000	64.951562 
2668.000000	64.952397 
2667.000000	64.944696 
2666.000000	64.929366 
2665.000000	64.908647 
2664.000000	64.885377 
2663.000000	64.862561 
2662.000000	64.842772 
2661.000000	64.827680 
2660.000000	64.817976 
2659.000000	64.813399 
2658.000000	64.813184 
2657.000000	64.816546 
2656.000000	64.822888 
2655.000000	64.831805 
2654.000000	64.843201 
2653.000000	64.856982 
2652.000000	64.872717 
2651.000000	64.889645 
2650.000000	64.906311 
2649.000000	64.921236 
2648.000000	64.933061 
2647.000000	64.940857 
2646.000000	64.944243 
2645.000000	64.943456 
2644.000000	64.939570 
2643.000000	64.933681 
2642.000000	64.926886 
2641.000000	64.919877 
2640.000000	64.912724 
2639.000000	64.905095 
2638.000000	64.896631 
2637.000000	64.886927 
2636.000000	64.876008 
2635.000000	64.864277 
2634.000000	64.852499 
2633.000000	64.841532 
2632.000000	64.832091 
2631.000000	64.824366 
2630.000000	64.817953 
2629.000000	64.812135 
2628.000000	64.805912 
2627.000000	64.798545 
2626.000000	64.789891 
2625.000000	64.780402 
2624.000000	64.771366 
2623.000000	64.764404 
2622.000000	64.761447 
2621.000000	64.763855 
2620.000000	64.772367 
2619.000000	64.786744 
2618.000000	64.805793 
2617.000000	64.827632 
2616.000000	64.849972 
2615.000000	64.870429 
2614.000000	64.886927 
2613.000000	64.898037 
2612.000000	64.902997 
2611.000000	64.901971 
2610.000000	64.895606 
2609.000000	64.885163 
2608.000000	64.872074 
2607.000000	64.857840 
2606.000000	64.843845 
2605.000000	64.831280 
2604.000000	64.821171 
2603.000000	64.814233 
2602.000000	64.810991 
2601.000000	64.811682 
2600.000000	64.815950 
2599.000000	64.823269 
2598.000000	64.832472 
2597.000000	64.842486 
2596.000000	64.852118 
2595.000000	64.860630 
2594.000000	64.867830 
2593.000000	64.873909 
2592.000000	64.879441 
2591.000000	64.884805 
2590.000000	64.890289 
2589.000000	64.895510 
2588.000000	64.899587 
2587.000000	64.901113 
2586.000000	64.898872 
2585.000000	64.891934 
2584.000000	64.880204 
2583.000000	64.864635 
2582.000000	64.846873 
2581.000000	64.829277 
2580.000000	64.814090 
2579.000000	64.803099 
2578.000000	64.797139 
2577.000000	64.795970 
2576.000000	64.798355 
2575.000000	64.802551 
2574.000000	64.806675 
2573.000000	64.809179 
2572.000000	64.809370 
2571.000000	64.807176 
2570.000000	64.803290 
2569.000000	64.798879 
2568.000000	64.795231 
2567.000000	64.793181 
2566.000000	64.793372 
2565.000000	64.796018 
2564.000000	64.800906 
2563.000000	64.807748 
2562.000000	64.815998 
2561.000000	64.825272 
2560.000000	64.835023 
2559.000000	64.844655 
2558.000000	64.853549 
2557.000000	64.860939 
2556.000000	64.866042 
2555.000000	64.868330 
2554.000000	64.867305 
2553.000000	64.862799 
2552.000000	64.855003 
2551.000000	64.844632 
2550.000000	64.832711 
2549.000000	64.820289 
2548.000000	64.808702 
2547.000000	64.799070 
2546.000000	64.791941 
2545.000000	64.787316 
2544.000000	64.784598 
2543.000000	64.782834 
2542.000000	64.780688 
2541.000000	64.777159 
2540.000000	64.771461 
2539.000000	64.763689 
2538.000000	64.754486 
2537.000000	64.745283 
2536.000000	64.737677 
2535.000000	64.733266 
2534.000000	64.733171 
2533.000000	64.737987 
2532.000000	64.747405 
2531.000000	64.760613 
2530.000000	64.776349 
2529.000000	64.793467 
2528.000000	64.810991 
2527.000000	64.828538 
2526.000000	64.846277 
2525.000000	64.864754 
2524.000000	64.884591 
2523.000000	64.906191 
2522.000000	64.929485 
2521.000000	64.954090 
2520.000000	64.978981 
2519.000000	65.003013 
2518.000000	65.024733 
2517.000000	65.043091 
2516.000000	65.057206 
2515.000000	65.066647 
2514.000000	65.071129 
2513.000000	65.070724 
2512.000000	65.065407 
2511.000000	65.055418 
2510.000000	65.040898 
2509.000000	65.022373 
2508.000000	65.000700 
2507.000000	64.977359 
2506.000000	64.954209 
2505.000000	64.933204 
2504.000000	64.916157 
2503.000000	64.904332 
2502.000000	64.898180 
2501.000000	64.897108 
2500.000000	64.899802 
2499.000000	64.904737 
2498.000000	64.910507 
2497.000000	64.915990 
2496.000000	64.920783 
2495.000000	64.925122 
2494.000000	64.929509 
2493.000000	64.934492 
2492.000000	64.940309 
2491.000000	64.946770 
2490.000000	64.953184 
2489.000000	64.958524 
2488.000000	64.961981 
2487.000000	64.962959 
2486.000000	64.961600 
2485.000000	64.958143 
2484.000000	64.953112 
2483.000000	64.946699 
2482.000000	64.938783 
2481.000000	64.928650 
2480.000000	64.915299 
2479.000000	64.897680 
2478.000000	64.875268 
2477.000000	64.848279 
2476.000000	64.817810 
2475.000000	64.785861 
2474.000000	64.754962 
2473.000000	64.727854 
2472.000000	64.706945 
2471.000000	64.694023 
2470.000000	64.689946 
2469.000000	64.694666 
2468.000000	64.707207 
2467.000000	64.725947 
2466.000000	64.748930 
2465.000000	64.773941 
2464.000000	64.798927 
2463.000000	64.821982 
2462.000000	64.841604 
2461.000000	64.856791 
2460.000000	64.866948 
2459.000000	64.872121 
2458.000000	64.872813 
2457.000000	64.869856 
2456.000000	64.864301 
2455.000000	64.857411 
2454.000000	64.850258 
2453.000000	64.843821 
2452.000000	64.838647 
2451.000000	64.835095 
2450.000000	64.833092 
2449.000000	64.832282 
2448.000000	64.832043 
2447.000000	64.831733 
2446.000000	64.830660 
2445.000000	64.828419 
2444.000000	64.825034 
2443.000000	64.820909 
2442.000000	64.816832 
2441.000000	64.813923 
2440.000000	64.813399 
2439.000000	64.816212 
2438.000000	64.822936 
2437.000000	64.833402 
2436.000000	64.846706 
2435.000000	64.861321 
2434.000000	64.875602 
2433.000000	64.887976 
2432.000000	64.897298 
2431.000000	64.903116 
2430.000000	64.905929 
2429.000000	64.906907 
2428.000000	64.907622 
2427.000000	64.909410 
2426.000000	64.913201 
2425.000000	64.918780 
2424.000000	64.925360 
2423.000000	64.931201 
2422.000000	64.934372 
2421.000000	64.932966 
2420.000000	64.926028 
2419.000000	64.913415 
2418.000000	64.896202 
2417.000000	64.876317 
2416.000000	64.856195 
2415.000000	64.838361 
2414.000000	64.824628 
2413.000000	64.816164 
2412.000000	64.812803 
2411.000000	64.813351 
2410.000000	64.815926 
2409.000000	64.818120 
2408.000000	64.817810 
2407.000000	64.813423 
2406.000000	64.804339 
2405.000000	64.790725 
2404.000000	64.774131 
2403.000000	64.756846 
2402.000000	64.741659 
2401.000000	64.731144 
2400.000000	64.727258 
2399.000000	64.730954 
2398.000000	64.741778 
2397.000000	64.758110 
2396.000000	64.777469 
2395.000000	64.797115 
2394.000000	64.814615 
2393.000000	64.828372 
2392.000000	64.837932 
2391.000000	64.843726 
2390.000000	64.847016 
2389.000000	64.849352 
2388.000000	64.852166 
2387.000000	64.856314 
2386.000000	64.862060 
2385.000000	64.869117 
2384.000000	64.876723 
2383.000000	64.883899 
2382.000000	64.889955 
2381.000000	64.894509 
2380.000000	64.897274 
2379.000000	64.898204 
2378.000000	64.897227 
2377.000000	64.894318 
2376.000000	64.889287 
2375.000000	64.881873 
2374.000000	64.872121 
2373.000000	64.859938 
2372.000000	64.845776 
2371.000000	64.830255 
2370.000000	64.814233 
2369.000000	64.798879 
2368.000000	64.785242 
2367.000000	64.774131 
2366.000000	64.766144 
2365.000000	64.761328 
2364.000000	64.759349 
2363.000000	64.759349 
2362.000000	64.760208 
2361.000000	64.760828 
2360.000000	64.760541 
2359.000000	64.759039 
2358.000000	64.756727 
2357.000000	64.754557 
2356.000000	64.753961 
2355.000000	64.756417 
2354.000000	64.762926 
2353.000000	64.773774 
2352.000000	64.788126 
2351.000000	64.804220 
2350.000000	64.819598 
2349.000000	64.831542 
2348.000000	64.837789 
2347.000000	64.837074 
2346.000000	64.829230 
2345.000000	64.815545 
2344.000000	64.798212 
2343.000000	64.780044 
2342.000000	64.763641 
2341.000000	64.750909 
2340.000000	64.742612 
2339.000000	64.738392 
2338.000000	64.736843 
2337.000000	64.736151 
2336.000000	64.734363 
2335.000000	64.730262 
2334.000000	64.723420 
2333.000000	64.714360 
2332.000000	64.704298 
2331.000000	64.694952 
2330.000000	64.688062 
2329.000000	64.684867 
2328.000000	64.686131 
2327.000000	64.691638 
2326.000000	64.700651 
2325.000000	64.711952 
2324.000000	64.723873 
2323.000000	64.735198 
2322.000000	64.745068 
2321.000000	64.753317 
2320.000000	64.760136 
2319.000000	64.766216 
2318.000000	64.772486 
2317.000000	64.779806 
2316.000000	64.788699 
2315.000000	64.799070 
2314.000000	64.810228 
2313.000000	64.821028 
2312.000000	64.830112 
2311.000000	64.836311 
2310.000000	64.838862 
2309.000000	64.837837 
2308.000000	64.834141 
2307.000000	64.829182 
2306.000000	64.824724 
2305.000000	64.822411 
2304.000000	64.823269 
2303.000000	64.827656 
2302.000000	64.834737 
2301.000000	64.843082 
2300.000000	64.850401 
2299.000000	64.854192 
2298.000000	64.852166 
2297.000000	64.842605 
2296.000000	64.824938 
2295.000000	64.799785 
2294.000000	64.769053 
2293.000000	64.735627 
2292.000000	64.703130 
2291.000000	64.675283 
2290.000000	64.655303 
2289.000000	64.645195 
2288.000000	64.645409 
2287.000000	64.654874 
2286.000000	64.671039 
2285.000000	64.690446 
2284.000000	64.709568 
2283.000000	64.725446 
2282.000000	64.736175 
2281.000000	64.741134 
2280.000000	64.740896 
2279.000000	64.736795 
2278.000000	64.730358 
2277.000000	64.722943 
2276.000000	64.715504 
2275.000000	64.708566 
2274.000000	64.702486 
2273.000000	64.697718 
2272.000000	64.694905 
2271.000000	64.694905 
2270.000000	64.698863 
2269.000000	64.707398 
2268.000000	64.720630 
2267.000000	64.737796 
2266.000000	64.757156 
2265.000000	64.776277 
2264.000000	64.792656 
2263.000000	64.804029 
2262.000000	64.809274 
2261.000000	64.808177 
2260.000000	64.801502 
2259.000000	64.790725 
2258.000000	64.777684 
2257.000000	64.763927 
2256.000000	64.750432 
2255.000000	64.737701 
2254.000000	64.725708 
2253.000000	64.714264 
2252.000000	64.703178 
2251.000000	64.692616 
2250.000000	64.683151 
2249.000000	64.675736 
2248.000000	64.671540 
2247.000000	64.671540 
2246.000000	64.676308 
2245.000000	64.685869 
2244.000000	64.699411 
2243.000000	64.715528 
2242.000000	64.732408 
2241.000000	64.748096 
2240.000000	64.760851 
2239.000000	64.769268 
2238.000000	64.772629 
2237.000000	64.771008 
2236.000000	64.765191 
2235.000000	64.756512 
2234.000000	64.746809 
2233.000000	64.738059 
2232.000000	64.732193 
2231.000000	64.730715 
2230.000000	64.734554 
2229.000000	64.744019 
2228.000000	64.758586 
2227.000000	64.777255 
2226.000000	64.798426 
2225.000000	64.820218 
2224.000000	64.840865 
2223.000000	64.858675 
2222.000000	64.872407 
2221.000000	64.881157 
2220.000000	64.884495 
2219.000000	64.882469 
2218.000000	64.875483 
2217.000000	64.864134 
2216.000000	64.849424 
2215.000000	64.832282 
2214.000000	64.813923 
2213.000000	64.795565 
2212.000000	64.778447 
2211.000000	64.763617 
2210.000000	64.751625 
2209.000000	64.742684 
2208.000000	64.736485 
2207.000000	64.732313 
2206.000000	64.729380 
2205.000000	64.726829 
2204.000000	64.724040 
2203.000000	64.720511 
2202.000000	64.716148 
2201.000000	64.710831 
2200.000000	64.704608 
2199.000000	64.697575 
2198.000000	64.689970 
2197.000000	64.682054 
2196.000000	64.674067 
2195.000000	64.666342 
2194.000000	64.659166 
2193.000000	64.652442 
2192.000000	64.646053 
2191.000000	64.639902 
2190.000000	64.633917 
2189.000000	64.628195 
2188.000000	64.623355 
2187.000000	64.620184 
2186.000000	64.619827 
2185.000000	64.623403 
2184.000000	64.631628 
2183.000000	64.644408 
2182.000000	64.660668 
2181.000000	64.678573 
2180.000000	64.695310 
2179.000000	64.707684 
2178.000000	64.712786 
2177.000000	64.708733 
2176.000000	64.695215 
2175.000000	64.673614 
2174.000000	64.647030 
2173.000000	64.619612 
2172.000000	64.595603 
2171.000000	64.578533 
2170.000000	64.570379 
2169.000000	64.571475 
2168.000000	64.580607 
2167.000000	64.595389 
2166.000000	64.613008 
2165.000000	64.630889 
2164.000000	64.646816 
2163.000000	64.659428 
2162.000000	64.667868 
2161.000000	64.672207 
2160.000000	64.672851 
2159.000000	64.671039 
2158.000000	64.668178 
2157.000000	64.665865 
2156.000000	64.665341 
2155.000000	64.667367 
2154.000000	64.672088 
2153.000000	64.679169 
2152.000000	64.688062 
2151.000000	64.698004 
2150.000000	64.708328 
2149.000000	64.718532 
2148.000000	64.728426 
2147.000000	64.737820 
2146.000000	64.746618 
2145.000000	64.754676 
2144.000000	64.761614 
2143.000000	64.767026 
2142.000000	64.770221 
2141.000000	64.770507 
2140.000000	64.767169 
2139.000000	64.759802 
2138.000000	64.748549 
2137.000000	64.734196 
2136.000000	64.718341 
2135.000000	64.703130 
2134.000000	64.691019 
2133.000000	64.684581 
2132.000000	64.685773 
2131.000000	64.695620 
2130.000000	64.713644 
2129.000000	64.737963 
2128.000000	64.765596 
2127.000000	64.792656 
2126.000000	64.815545 
2125.000000	64.831352 
2124.000000	64.838695 
2123.000000	64.837765 
2122.000000	64.830255 
2121.000000	64.818882 
2120.000000	64.806532 
2119.000000	64.795565 
2118.000000	64.787268 
2117.000000	64.781570 
2116.000000	64.777398 
2115.000000	64.772844 
2114.000000	64.766097 
2113.000000	64.755749 
2112.000000	64.741396 
2111.000000	64.723730 
2110.000000	64.704322 
2109.000000	64.685297 
2108.000000	64.668512 
2107.000000	64.655590 
2106.000000	64.647221 
2105.000000	64.643502 
2104.000000	64.643836 
2103.000000	64.647388 
2102.000000	64.653229 
2101.000000	64.660739 
2100.000000	64.669466 
2099.000000	64.679145 
2098.000000	64.689493 
2097.000000	64.699935 
2096.000000	64.709496 
2095.000000	64.716649 
2094.000000	64.719772 
2093.000000	64.717388 
2092.000000	64.708805 
2091.000000	64.694261 
2090.000000	64.675235 
2089.000000	64.654183 
2088.000000	64.634346 
2087.000000	64.618539 
2086.000000	64.608812 
2085.000000	64.605903 
2084.000000	64.608979 
2083.000000	64.615869 
2082.000000	64.623546 
2081.000000	64.629125 
2080.000000	64.630365 
2079.000000	64.626312 
2078.000000	64.617466 
2077.000000	64.605402 
2076.000000	64.592242 
2075.000000	64.579844 
2074.000000	64.569473 
2073.000000	64.561343 
2072.000000	64.555311 
2071.000000	64.550852 
2070.000000	64.547824 
2069.000000	64.546656 
2068.000000	64.548254 
2067.000000	64.553761 
2066.000000	64.563918 
2065.000000	64.578437 
2064.000000	64.596080 
2063.000000	64.614701 
2062.000000	64.631581 
2061.000000	64.644312 
2060.000000	64.651370 
2059.000000	64.652538 
2058.000000	64.649033 
2057.000000	64.643096 
2056.000000	64.637398 
2055.000000	64.634251 
2054.000000	64.635062 
2053.000000	64.640021 
2052.000000	64.648056 
2051.000000	64.657330 
2050.000000	64.665865 
2049.000000	64.672136 
2048.000000	64.675211 
2047.000000	64.675211 
2046.000000	64.672994 
2045.000000	64.669919 
2044.000000	64.667177 
2043.000000	64.665675 
2042.000000	64.665770 
2041.000000	64.667153 
2040.000000	64.668965 
2039.000000	64.670014 
2038.000000	64.669227 
2037.000000	64.665627 
2036.000000	64.658856 
2035.000000	64.648699 
2034.000000	64.635348 
2033.000000	64.619112 
2032.000000	64.600539 
2031.000000	64.580130 
2030.000000	64.558434 
2029.000000	64.536380 
2028.000000	64.515352 
2027.000000	64.496564 
2026.000000	64.481711 
2025.000000	64.472079 
2024.000000	64.468955 
2023.000000	64.472794 
2022.000000	64.483666 
2021.000000	64.500904 
2020.000000	64.523625 
2019.000000	64.550495 
2018.000000	64.580130 
2017.000000	64.611363 
2016.000000	64.642882 
2015.000000	64.673233 
2014.000000	64.700794 
2013.000000	64.723849 
2012.000000	64.740490 
2011.000000	64.749026 
2010.000000	64.748287 
2009.000000	64.738059 
2008.000000	64.719223 
2007.000000	64.693784 
2006.000000	64.664459 
2005.000000	64.634156 
2004.000000	64.605712 
2003.000000	64.581227 
2002.000000	64.561891 
2001.000000	64.548015 
2000.000000	64.539217 
1999.000000	64.534831 
1998.000000	64.533948 
1997.000000	64.535927 
1996.000000	64.540314 
1995.000000	64.547014 
1994.000000	64.555954 
1993.000000	64.566922 
1992.000000	64.579367 
1991.000000	64.592266 
1990.000000	64.604258 
1989.000000	64.613699 
1988.000000	64.618921 
1987.000000	64.618849 
1986.000000	64.613246 
1985.000000	64.602732 
1984.000000	64.588737 
1983.000000	64.573264 
1982.000000	64.558577 
1981.000000	64.546751 
1980.000000	64.539289 
1979.000000	64.537024 
1978.000000	64.540100 
1977.000000	64.548015 
1976.000000	64.559960 
1975.000000	64.574837 
1974.000000	64.591479 
1973.000000	64.608836 
1972.000000	64.625906 
1971.000000	64.641714 
1970.000000	64.655303 
1969.000000	64.665842 
1968.000000	64.672613 
1967.000000	64.675307 
1966.000000	64.673781 
1965.000000	64.668416 
1964.000000	64.659547 
1963.000000	64.647603 
1962.000000	64.632868 
1961.000000	64.615583 
1960.000000	64.596199 
1959.000000	64.575386 
1958.000000	64.554238 
1957.000000	64.534354 
1956.000000	64.517593 
1955.000000	64.505624 
1954.000000	64.499783 
1953.000000	64.500546 
1952.000000	64.507341 
1951.000000	64.518618 
1950.000000	64.532113 
1949.000000	64.545488 
1948.000000	64.556527 
1947.000000	64.563655 
1946.000000	64.566230 
1945.000000	64.564538 
1944.000000	64.559459 
1943.000000	64.552330 
1942.000000	64.544367 
1941.000000	64.536809 
1940.000000	64.530420 
1939.000000	64.525723 
1938.000000	64.522957 
1937.000000	64.521956 
1936.000000	64.522385 
1935.000000	64.523720 
1934.000000	64.525365 
1933.000000	64.526820 
1932.000000	64.527845 
1931.000000	64.528632 
1930.000000	64.529728 
1929.000000	64.532089 
1928.000000	64.536738 
1927.000000	64.544510 
1926.000000	64.555740 
1925.000000	64.569997 
1924.000000	64.586091 
1923.000000	64.602279 
1922.000000	64.616560 
1921.000000	64.627170 
1920.000000	64.632916 
1919.000000	64.633560 
1918.000000	64.629721 
1917.000000	64.622783 
1916.000000	64.614534 
1915.000000	64.606809 
1914.000000	64.601039 
1913.000000	64.598155 
1912.000000	64.598512 
1911.000000	64.601945 
1910.000000	64.607739 
1909.000000	64.614892 
1908.000000	64.622187 
1907.000000	64.628267 
1906.000000	64.631938 
1905.000000	64.631986 
1904.000000	64.627647 
1903.000000	64.618420 
1902.000000	64.604353 
1901.000000	64.586114 
1900.000000	64.564704 
1899.000000	64.541721 
1898.000000	64.518833 
1897.000000	64.497613 
1896.000000	64.479327 
1895.000000	64.464855 
1894.000000	64.454722 
1893.000000	64.449119 
1892.000000	64.447832 
1891.000000	64.450359 
1890.000000	64.456105 
1889.000000	64.464402 
1888.000000	64.474344 
1887.000000	64.484882 
1886.000000	64.494872 
1885.000000	64.503264 
1884.000000	64.509153 
1883.000000	64.511871 
1882.000000	64.511036 
1881.000000	64.506745 
1880.000000	64.499521 
1879.000000	64.490389 
1878.000000	64.480733 
1877.000000	64.472198 
1876.000000	64.466309 
1875.000000	64.464306 
1874.000000	64.466762 
1873.000000	64.473676 
1872.000000	64.484214 
1871.000000	64.496898 
1870.000000	64.509749 
1869.000000	64.520812 
1868.000000	64.528346 
1867.000000	64.531230 
1866.000000	64.529037 
1865.000000	64.522266 
1864.000000	64.512085 
1863.000000	64.500188 
1862.000000	64.488339 
1861.000000	64.478135 
1860.000000	64.470791 
1859.000000	64.467024 
1858.000000	64.466834 
1857.000000	64.469790 
1856.000000	64.474916 
1855.000000	64.480948 
1854.000000	64.486598 
1853.000000	64.490628 
1852.000000	64.492011 
1851.000000	64.490175 
1850.000000	64.485049 
1849.000000	64.477038 
1848.000000	64.466953 
1847.000000	64.455842 
1846.000000	64.444971 
1845.000000	64.435529 
1844.000000	64.428496 
1843.000000	64.424490 
1842.000000	64.423799 
1841.000000	64.426302 
1840.000000	64.431500 
1839.000000	64.438700 
1838.000000	64.446806 
1837.000000	64.454650 
1836.000000	64.461112 
1835.000000	64.465141 
1834.000000	64.465856 
1833.000000	64.462900 
1832.000000	64.456462 
1831.000000	64.447546 
1830.000000	64.437532 
1829.000000	64.428186 
1828.000000	64.421319 
1827.000000	64.418363 
1826.000000	64.420032 
1825.000000	64.426088 
1824.000000	64.435410 
1823.000000	64.446187 
1822.000000	64.456343 
1821.000000	64.464020 
1820.000000	64.468240 
1819.000000	64.468836 
1818.000000	64.466691 
1817.000000	64.463329 
1816.000000	64.460372 
1815.000000	64.459252 
1814.000000	64.460635 
1813.000000	64.464187 
1812.000000	64.468693 
1811.000000	64.472365 
1810.000000	64.473223 
1809.000000	64.469623 
1808.000000	64.460659 
1807.000000	64.446258 
1806.000000	64.427399 
1805.000000	64.405655 
1804.000000	64.383196 
1803.000000	64.362168 
1802.000000	64.344596 
1801.000000	64.332103 
1800.000000	64.325690 
1799.000000	64.325690 
1798.000000	64.331650 
1797.000000	64.342474 
1796.000000	64.356350 
1795.000000	64.371132 
1794.000000	64.384675 
1793.000000	64.395380 
1792.000000	64.402151 
1791.000000	64.404797 
1790.000000	64.404010 
1789.000000	64.401078 
1788.000000	64.397597 
1787.000000	64.394807 
1786.000000	64.393329 
1785.000000	64.392948 
1784.000000	64.392733 
1783.000000	64.391398 
1782.000000	64.387607 
1781.000000	64.380574 
1780.000000	64.370274 
1779.000000	64.357876 
1778.000000	64.345264 
1777.000000	64.334917 
1776.000000	64.329051 
1775.000000	64.329218 
1774.000000	64.336013 
1773.000000	64.348840 
1772.000000	64.366054 
1771.000000	64.385032 
1770.000000	64.402818 
1769.000000	64.416480 
1768.000000	64.423608 
1767.000000	64.422869 
1766.000000	64.414024 
1765.000000	64.398026 
1764.000000	64.376831 
1763.000000	64.353394 
1762.000000	64.331102 
1761.000000	64.313149 
1760.000000	64.302301 
1759.000000	64.300155 
1758.000000	64.306998 
1757.000000	64.321565 
1756.000000	64.341211 
1755.000000	64.362454 
1754.000000	64.381361 
1753.000000	64.394354 
1752.000000	64.398694 
1751.000000	64.393138 
1750.000000	64.377927 
1749.000000	64.354848 
1748.000000	64.326810 
1747.000000	64.297318 
1746.000000	64.269804 
1745.000000	64.247155 
1744.000000	64.231038 
1743.000000	64.221858 
1742.000000	64.218831 
1741.000000	64.220142 
1740.000000	64.223575 
1739.000000	64.226961 
1738.000000	64.228701 
1737.000000	64.228057 
1736.000000	64.225363 
1735.000000	64.221739 
1734.000000	64.218783 
1733.000000	64.217877 
1732.000000	64.219594 
1731.000000	64.223504 
1730.000000	64.228320 
1729.000000	64.232206 
1728.000000	64.233231 
1727.000000	64.230084 
1726.000000	64.222836 
1725.000000	64.212656 
1724.000000	64.201903 
1723.000000	64.193224 
1722.000000	64.188885 
1721.000000	64.189934 
1720.000000	64.195895 
1719.000000	64.204740 
1718.000000	64.213442 
1717.000000	64.218759 
1716.000000	64.218282 
1715.000000	64.211153 
1714.000000	64.198422 
1713.000000	64.182567 
1712.000000	64.166736 
1711.000000	64.154076 
1710.000000	64.146733 
1709.000000	64.145398 
1708.000000	64.149236 
1707.000000	64.156413 
1706.000000	64.164686 
1705.000000	64.172148 
1704.000000	64.177846 
1703.000000	64.181661 
1702.000000	64.184594 
1701.000000	64.187741 
1700.000000	64.192080 
1699.000000	64.197802 
1698.000000	64.204263 
1697.000000	64.210224 
1696.000000	64.214086 
1695.000000	64.214611 
1694.000000	64.211130 
1693.000000	64.203906 
1692.000000	64.193868 
1691.000000	64.182710 
1690.000000	64.172172 
1689.000000	64.163708 
1688.000000	64.158368 
1687.000000	64.156627 
1686.000000	64.158391 
1685.000000	64.163208 
1684.000000	64.170432 
1683.000000	64.179444 
1682.000000	64.189600 
1681.000000	64.200282 
1680.000000	64.210915 
1679.000000	64.220809 
1678.000000	64.229202 
1677.000000	64.235186 
1676.000000	64.238190 
1675.000000	64.237880 
1674.000000	64.234280 
1673.000000	64.227938 
1672.000000	64.219594 
1671.000000	64.210200 
1670.000000	64.200949 
1669.000000	64.192724 
1668.000000	64.186215 
1667.000000	64.181733 
1666.000000	64.179348 
1665.000000	64.179015 
1664.000000	64.180541 
1663.000000	64.183902 
1662.000000	64.189076 
1661.000000	64.196181 
1660.000000	64.205288 
1659.000000	64.216113 
1658.000000	64.228224 
1657.000000	64.240789 
1656.000000	64.252996 
1655.000000	64.264225 
1654.000000	64.274263 
1653.000000	64.283394 
1652.000000	64.292263 
1651.000000	64.301776 
1650.000000	64.312481 
1649.000000	64.324426 
1648.000000	64.336657 
1647.000000	64.347648 
1646.000000	64.355182 
1645.000000	64.357185 
1644.000000	64.351820 
1643.000000	64.338326 
1642.000000	64.317059 
1641.000000	64.289593 
1640.000000	64.258623 
1639.000000	64.227318 
1638.000000	64.199018 
1637.000000	64.176440 
1636.000000	64.161562 
1635.000000	64.155268 
1634.000000	64.157342 
1633.000000	64.166545 
1632.000000	64.180850 
1631.000000	64.197874 
1630.000000	64.214825 
1629.000000	64.229273 
1628.000000	64.239215 
1627.000000	64.243650 
1626.000000	64.242291 
1625.000000	64.235877 
1624.000000	64.226031 
1623.000000	64.214920 
1622.000000	64.204835 
1621.000000	64.197683 
1620.000000	64.194917 
1619.000000	64.196944 
1618.000000	64.203333 
1617.000000	64.212656 
1616.000000	64.222812 
1615.000000	64.231443 
1614.000000	64.236330 
1613.000000	64.236092 
1612.000000	64.230227 
1611.000000	64.219379 
1610.000000	64.205169 
1609.000000	64.189815 
1608.000000	64.175701 
1607.000000	64.164972 
1606.000000	64.159131 
1605.000000	64.158463 
1604.000000	64.162397 
1603.000000	64.169454 
1602.000000	64.177918 
1601.000000	64.186048 
1600.000000	64.192438 
1599.000000	64.196324 
1598.000000	64.197325 
1597.000000	64.195489 
1596.000000	64.191079 
1595.000000	64.184188 
1594.000000	64.175105 
1593.000000	64.164257 
1592.000000	64.152288 
1591.000000	64.140152 
1590.000000	64.129066 
1589.000000	64.120221 
1588.000000	64.114308 
1587.000000	64.111471 
1586.000000	64.110827 
1585.000000	64.110755 
1584.000000	64.109206 
1583.000000	64.104270 
1582.000000	64.094924 
1581.000000	64.081358 
1580.000000	64.065265 
1579.000000	64.049291 
1578.000000	64.036536 
1577.000000	64.029622 
1576.000000	64.029979 
1575.000000	64.037466 
1574.000000	64.050722 
1573.000000	64.067244 
1572.000000	64.084339 
1571.000000	64.099693 
1570.000000	64.111828 
1569.000000	64.120388 
1568.000000	64.125776 
1567.000000	64.128875 
1566.000000	64.130592 
1565.000000	64.131689 
1564.000000	64.132547 
1563.000000	64.133238 
1562.000000	64.133715 
1561.000000	64.133882 
1560.000000	64.134120 
1559.000000	64.134812 
1558.000000	64.136338 
1557.000000	64.138770 
1556.000000	64.141845 
1555.000000	64.144873 
1554.000000	64.147067 
1553.000000	64.147758 
1552.000000	64.146494 
1551.000000	64.143347 
1550.000000	64.138841 
1549.000000	64.133763 
1548.000000	64.128947 
1547.000000	64.124941 
1546.000000	64.122080 
1545.000000	64.120292 
1544.000000	64.119195 
1543.000000	64.118456 
1542.000000	64.117765 
1541.000000	64.117169 
1540.000000	64.116859 
1539.000000	64.117264 
1538.000000	64.118885 
1537.000000	64.121890 
1536.000000	64.126205 
1535.000000	64.131474 
1534.000000	64.137029 
1533.000000	64.142179 
1532.000000	64.146327 
1531.000000	64.149045 
1530.000000	64.150190 
1529.000000	64.149904 
1528.000000	64.148616 
1527.000000	64.146971 
1526.000000	64.145708 
1525.000000	64.145374 
1524.000000	64.146351 
1523.000000	64.148569 
1522.000000	64.151573 
1521.000000	64.154672 
1520.000000	64.157223 
1519.000000	64.158725 
1518.000000	64.159059 
1517.000000	64.158320 
1516.000000	64.156746 
1515.000000	64.154767 
1514.000000	64.152646 
1513.000000	64.150595 
1512.000000	64.148831 
1511.000000	64.147710 
1510.000000	64.147710 
1509.000000	64.149284 
1508.000000	64.152932 
1507.000000	64.158868 
1506.000000	64.166903 
1505.000000	64.176368 
1504.000000	64.186191 
1503.000000	64.195013 
1502.000000	64.201641 
1501.000000	64.205360 
1500.000000	64.206123 
1499.000000	64.204645 
1498.000000	64.202022 
1497.000000	64.199447 
1496.000000	64.197945 
1495.000000	64.197707 
1494.000000	64.198279 
1493.000000	64.198780 
1492.000000	64.198088 
1491.000000	64.195418 
1490.000000	64.190411 
1489.000000	64.183425 
1488.000000	64.175271 
1487.000000	64.167046 
1486.000000	64.159774 
1485.000000	64.154362 
1484.000000	64.151334 
1483.000000	64.150834 
1482.000000	64.152359 
1481.000000	64.155340 
1480.000000	64.158844 
1479.000000	64.161944 
1478.000000	64.163923 
1477.000000	64.164471 
1476.000000	64.163708 
1475.000000	64.162111 
1474.000000	64.160227 
1473.000000	64.158701 
1472.000000	64.157915 
1471.000000	64.157700 
1470.000000	64.157509 
1469.000000	64.156460 
1468.000000	64.153647 
1467.000000	64.148259 
1466.000000	64.140009 
1465.000000	64.129281 
1464.000000	64.117169 
1463.000000	64.105296 
1462.000000	64.095520 
1461.000000	64.089298 
1460.000000	64.087605 
1459.000000	64.090394 
1458.000000	64.096593 
1457.000000	64.104223 
1456.000000	64.111018 
1455.000000	64.114785 
1454.000000	64.113807 
1453.000000	64.107513 
1452.000000	64.096498 
1451.000000	64.082312 
1450.000000	64.067077 
1449.000000	64.053010 
1448.000000	64.041805 
1447.000000	64.034390 
1446.000000	64.030742 
1445.000000	64.030003 
1444.000000	64.030957 
1443.000000	64.032149 
1442.000000	64.032626 
1441.000000	64.031934 
1440.000000	64.030289 
1439.000000	64.028429 
1438.000000	64.027285 
1437.000000	64.027690 
1436.000000	64.030170 
1435.000000	64.034557 
1434.000000	64.040493 
1433.000000	64.047074 
1432.000000	64.053511 
1431.000000	64.059257 
1430.000000	64.064288 
1429.000000	64.069008 
1428.000000	64.074158 
1427.000000	64.080452 
1426.000000	64.088416 
1425.000000	64.097905 
1424.000000	64.108324 
1423.000000	64.118456 
1422.000000	64.127063 
1421.000000	64.132881 
1420.000000	64.135050 
1419.000000	64.133405 
1418.000000	64.128327 
1417.000000	64.120888 
1416.000000	64.112591 
1415.000000	64.104938 
1414.000000	64.099311 
1413.000000	64.096426 
1412.000000	64.096355 
1411.000000	64.098429 
1410.000000	64.101409 
1409.000000	64.103698 
1408.000000	64.103817 
1407.000000	64.100742 
1406.000000	64.094066 
1405.000000	64.084124 
1404.000000	64.071702 
1403.000000	64.057731 
1402.000000	64.043354 
1401.000000	64.029407 
1400.000000	64.016509 
1399.000000	64.004850 
1398.000000	63.994455 
1397.000000	63.985395 
1396.000000	63.977813 
1395.000000	63.972067 
1394.000000	63.968586 
1393.000000	63.967633 
1392.000000	63.969349 
1391.000000	63.973355 
1390.000000	63.978910 
1389.000000	63.985037 
1388.000000	63.990569 
1387.000000	63.994526 
1386.000000	63.996195 
1385.000000	63.995265 
1384.000000	63.991904 
1383.000000	63.986587 
1382.000000	63.980388 
1381.000000	63.974571 
1380.000000	63.970875 
1379.000000	63.971066 
1378.000000	63.976860 
1377.000000	63.989377 
1376.000000	64.008831 
1375.000000	64.034557 
1374.000000	64.064383 
1373.000000	64.095187 
1372.000000	64.122843 
1371.000000	64.143323 
1370.000000	64.153051 
1369.000000	64.149880 
1368.000000	64.133405 
1367.000000	64.105343 
1366.000000	64.069223 
1365.000000	64.029669 
1364.000000	63.991713 
1363.000000	63.959908 
1362.000000	63.937377 
1361.000000	63.925409 
1360.000000	63.923358 
1359.000000	63.928747 
1358.000000	63.938117 
1357.000000	63.947701 
1356.000000	63.954114 
1355.000000	63.955378 
1354.000000	63.951134 
1353.000000	63.942837 
1352.000000	63.933205 
1351.000000	63.925528 
1350.000000	63.922739 
1349.000000	63.926744 
1348.000000	63.937950 
1347.000000	63.954949 
1346.000000	63.975024 
1345.000000	63.994646 
1344.000000	64.010429 
1343.000000	64.019966 
1342.000000	64.022302 
1341.000000	64.018297 
1340.000000	64.009904 
1339.000000	64.000034 
1338.000000	63.991570 
1337.000000	63.986682 
1336.000000	63.986372 
1335.000000	63.990402 
1334.000000	63.997220 
1333.000000	64.004921 
1332.000000	64.011549 
1331.000000	64.015626 
1330.000000	64.016294 
1329.000000	64.013767 
1328.000000	64.008998 
1327.000000	64.003276 
1326.000000	63.998031 
1325.000000	63.994097 
1324.000000	63.991951 
1323.000000	63.991451 
1322.000000	63.991928 
1321.000000	63.992524 
1320.000000	63.992142 
1319.000000	63.990116 
1318.000000	63.986039 
1317.000000	63.980007 
1316.000000	63.972473 
1315.000000	63.964295 
1314.000000	63.956260 
1313.000000	63.949060 
1312.000000	63.943076 
1311.000000	63.938403 
1310.000000	63.934898 
1309.000000	63.932228 
1308.000000	63.930368 
1307.000000	63.929653 
1306.000000	63.930869 
1305.000000	63.935160 
1304.000000	63.943767 
1303.000000	63.957619 
1302.000000	63.976812 
1301.000000	64.000177 
1300.000000	64.025473 
1299.000000	64.049506 
1298.000000	64.068698 
1297.000000	64.079785 
1296.000000	64.080572 
1295.000000	64.070463 
1294.000000	64.050841 
1293.000000	64.024639 
1292.000000	63.995695 
1291.000000	63.968205 
1290.000000	63.945651 
1289.000000	63.930368 
1288.000000	63.923120 
1287.000000	63.923144 
1286.000000	63.928699 
1285.000000	63.937520 
1284.000000	63.947343 
1283.000000	63.956427 
1282.000000	63.963627 
1281.000000	63.968443 
1280.000000	63.970613 
1279.000000	63.969993 
1278.000000	63.966345 
1277.000000	63.959288 
1276.000000	63.948392 
1275.000000	63.933420 
1274.000000	63.914799 
1273.000000	63.893723 
1272.000000	63.872122 
1271.000000	63.852334 
1270.000000	63.836693 
1269.000000	63.827276 
1268.000000	63.825082 
1267.000000	63.829851 
1266.000000	63.840079 
1265.000000	63.853263 
1264.000000	63.866567 
1263.000000	63.877081 
1262.000000	63.882994 
1261.000000	63.883423 
1260.000000	63.879060 
1259.000000	63.871693 
1258.000000	63.863897 
1257.000000	63.858079 
1256.000000	63.856101 
1255.000000	63.858866 
1254.000000	63.866162 
1253.000000	63.876724 
1252.000000	63.888740 
1251.000000	63.900232 
1250.000000	63.909363 
1249.000000	63.914918 
1248.000000	63.916325 
1247.000000	63.913774 
1246.000000	63.907742 
1245.000000	63.899040 
1244.000000	63.888621 
1243.000000	63.877272 
1242.000000	63.865661 
1241.000000	63.854265 
1240.000000	63.843560 
1239.000000	63.833904 
1238.000000	63.825726 
1237.000000	63.819408 
1236.000000	63.815116 
1235.000000	63.812994 
1234.000000	63.812804 
1233.000000	63.813972 
1232.000000	63.815736 
1231.000000	63.817310 
1230.000000	63.818001 
1229.000000	63.817429 
1228.000000	63.815379 
1227.000000	63.812136 
1226.000000	63.808274 
1225.000000	63.804626 
1224.000000	63.802099 
1223.000000	63.801479 
1222.000000	63.803625 
1221.000000	63.809084 
1220.000000	63.818073 
1219.000000	63.830685 
1218.000000	63.846349 
1217.000000	63.864231 
1216.000000	63.882851 
1215.000000	63.900160 
1214.000000	63.913941 
1213.000000	63.921999 
1212.000000	63.922929 
1211.000000	63.916516 
1210.000000	63.903832 
1209.000000	63.887476 
1208.000000	63.870620 
1207.000000	63.856458 
1206.000000	63.847303 
1205.000000	63.844084 
1204.000000	63.846039 
1203.000000	63.851022 
1202.000000	63.856077 
1201.000000	63.858222 
1200.000000	63.855099 
1199.000000	63.845682 
1198.000000	63.830184 
1197.000000	63.810014 
1196.000000	63.787627 
1195.000000	63.765811 
1194.000000	63.747262 
1193.000000	63.734006 
1192.000000	63.727045 
1191.000000	63.726782 
1190.000000	63.732337 
1189.000000	63.742566 
1188.000000	63.755822 
1187.000000	63.770508 
1186.000000	63.784933 
1185.000000	63.797736 
1184.000000	63.807535 
1183.000000	63.813447 
1182.000000	63.814759 
1181.000000	63.811397 
1180.000000	63.803815 
1179.000000	63.793015 
1178.000000	63.780570 
1177.000000	63.768076 
1176.000000	63.756799 
1175.000000	63.747262 
1174.000000	63.739371 
1173.000000	63.732314 
1172.000000	63.725090 
1171.000000	63.716745 
1170.000000	63.706588 
1169.000000	63.694500 
1168.000000	63.681101 
1167.000000	63.667249 
1166.000000	63.654232 
1165.000000	63.643407 
1164.000000	63.636159 
1163.000000	63.633561 
1162.000000	63.636398 
1161.000000	63.644313 
1160.000000	63.656425 
1159.000000	63.671159 
1158.000000	63.686943 
1157.000000	63.702440 
1156.000000	63.716769 
1155.000000	63.729953 
1154.000000	63.742065 
1153.000000	63.753104 
1152.000000	63.762426 
1151.000000	63.768696 
1150.000000	63.770270 
1149.000000	63.765645 
1148.000000	63.753914 
1147.000000	63.735198 
1146.000000	63.710308 
1145.000000	63.681006 
1144.000000	63.649344 
1143.000000	63.617706 
1142.000000	63.588404 
1141.000000	63.563585 
1140.000000	63.545274 
1139.000000	63.534903 
1138.000000	63.533210 
1137.000000	63.540077 
1136.000000	63.554191 
1135.000000	63.573861 
1134.000000	63.596677 
1133.000000	63.620781 
1132.000000	63.644599 
1131.000000	63.667535 
1130.000000	63.689446 
1129.000000	63.710522 
1128.000000	63.730883 
1127.000000	63.749957 
1126.000000	63.766503 
1125.000000	63.778567 
1124.000000	63.784050 
1123.000000	63.781189 
1122.000000	63.769435 
1121.000000	63.750004 
1120.000000	63.725709 
1119.000000	63.701057 
1118.000000	63.681101 
1117.000000	63.670420 
1116.000000	63.672089 
1115.000000	63.686537 
1114.000000	63.711404 
1113.000000	63.742208 
1112.000000	63.773441 
1111.000000	63.799691 
1110.000000	63.817191 
1109.000000	63.824653 
1108.000000	63.823413 
1107.000000	63.816595 
1106.000000	63.808441 
1105.000000	63.802623 
1104.000000	63.801693 
1103.000000	63.806486 
1102.000000	63.816046 
1101.000000	63.828206 
1100.000000	63.840031 
1099.000000	63.848972 
1098.000000	63.852930 
1097.000000	63.850760 
1096.000000	63.842058 
1095.000000	63.827109 
1094.000000	63.806772 
1093.000000	63.782262 
1092.000000	63.755249 
1091.000000	63.727927 
1090.000000	63.702893 
1089.000000	63.682961 
1088.000000	63.670587 
1087.000000	63.667583 
1086.000000	63.674092 
1085.000000	63.688921 
1084.000000	63.709259 
1083.000000	63.731312 
1082.000000	63.750934 
1081.000000	63.764357 
1080.000000	63.769197 
1079.000000	63.764548 
1078.000000	63.751077 
1077.000000	63.730740 
1076.000000	63.706207 
1075.000000	63.680410 
1074.000000	63.656091 
1073.000000	63.635230 
1072.000000	63.619184 
1071.000000	63.608598 
1070.000000	63.603758 
1069.000000	63.604545 
1068.000000	63.610553 
1067.000000	63.620996 
1066.000000	63.634514 
1065.000000	63.649296 
1064.000000	63.663172 
1063.000000	63.673949 
1062.000000	63.679766 
1061.000000	63.679623 
1060.000000	63.673639 
1059.000000	63.663268 
1058.000000	63.650918 
1057.000000	63.639211 
1056.000000	63.630628 
1055.000000	63.626837 
1054.000000	63.628506 
1053.000000	63.635039 
1052.000000	63.645100 
1051.000000	63.656830 
1050.000000	63.668775 
1049.000000	63.680076 
1048.000000	63.690805 
1047.000000	63.701701 
1046.000000	63.713574 
1045.000000	63.726878 
1044.000000	63.741397 
1043.000000	63.756179 
1042.000000	63.769626 
1041.000000	63.779926 
1040.000000	63.785409 
1039.000000	63.785147 
1038.000000	63.778901 
1037.000000	63.767194 
1036.000000	63.751077 
1035.000000	63.732218 
1034.000000	63.712859 
1033.000000	63.695430 
1032.000000	63.682675 
1031.000000	63.676857 
1030.000000	63.679647 
1029.000000	63.691163 
1028.000000	63.710236 
1027.000000	63.733863 
1026.000000	63.758039 
1025.000000	63.778400 
1024.000000	63.791012 
1023.000000	63.793563 
1022.000000	63.785767 
1021.000000	63.769555 
1020.000000	63.748574 
1019.000000	63.727283 
1018.000000	63.709712 
1017.000000	63.698577 
1016.000000	63.694572 
1015.000000	63.696527 
1014.000000	63.701963 
1013.000000	63.707804 
1012.000000	63.711404 
1011.000000	63.711094 
1010.000000	63.706707 
1009.000000	63.699102 
1008.000000	63.689923 
1007.000000	63.681149 
1006.000000	63.674759 
1005.000000	63.672065 
1004.000000	63.673543 
1003.000000	63.678765 
1002.000000	63.686442 
1001.000000	63.695025 
1000.000000	63.702893 
999.000000	 63.708686 
998.000000	 63.711905 
997.000000	 63.712549 
996.000000	 63.711476 
995.000000	 63.710069 
994.000000	 63.710069 
993.000000	 63.712978 
992.000000	 63.719630 
991.000000	 63.730001 
990.000000	 63.742876 
989.000000	 63.756370 
988.000000	 63.768005 
987.000000	 63.775396 
986.000000	 63.776826 
985.000000	 63.771557 
984.000000	 63.760042 
983.000000	 63.743805 
982.000000	 63.725185 
981.000000	 63.706874 
980.000000	 63.691687 
979.000000	 63.681840 
978.000000	 63.678836 
977.000000	 63.682913 
976.000000	 63.693165 
975.000000	 63.707232 
974.000000	 63.722133 
973.000000	 63.734388 
972.000000	 63.740706 
971.000000	 63.738727 
970.000000	 63.727474 
969.000000	 63.707566 
968.000000	 63.681411 
967.000000	 63.652348 
966.000000	 63.624310 
965.000000	 63.600635 
964.000000	 63.583421 
963.000000	 63.573122 
962.000000	 63.568520 
961.000000	 63.567376 
960.000000	 63.567090 
959.000000	 63.565587 
958.000000	 63.561773 
957.000000	 63.555836 
956.000000	 63.549137 
955.000000	 63.543415 
954.000000	 63.540339 
953.000000	 63.540935 
952.000000	 63.545298 
951.000000	 63.552665 
950.000000	 63.561725 
949.000000	 63.571310 
948.000000	 63.580560 
947.000000	 63.589453 
946.000000	 63.598537 
945.000000	 63.608694 
944.000000	 63.620853 
943.000000	 63.635349 
942.000000	 63.651776 
941.000000	 63.669037 
940.000000	 63.685250 
939.000000	 63.698673 
938.000000	 63.707399 
937.000000	 63.710093 
936.000000	 63.706040 
935.000000	 63.695454 
934.000000	 63.679337 
933.000000	 63.659453 
932.000000	 63.638138 
931.000000	 63.618087 
930.000000	 63.601970 
929.000000	 63.591909 
928.000000	 63.589096 
927.000000	 63.593292 
926.000000	 63.602828 
925.000000	 63.614797 
924.000000	 63.625288 
923.000000	 63.630461 
922.000000	 63.627266 
921.000000	 63.614559 
920.000000	 63.593077 
919.000000	 63.565945 
918.000000	 63.537502 
917.000000	 63.512921 
916.000000	 63.496708 
915.000000	 63.492035 
914.000000	 63.499975 
913.000000	 63.519477 
912.000000	 63.547658 
911.000000	 63.580513 
910.000000	 63.613772 
909.000000	 63.643550 
908.000000	 63.666963 
907.000000	 63.682126 
906.000000	 63.688111 
905.000000	 63.684868 
904.000000	 63.672995 
903.000000	 63.653707 
902.000000	 63.628602 
901.000000	 63.599944 
900.000000	 63.570427 
899.000000	 63.542723 
898.000000	 63.519239 
897.000000	 63.501667 
896.000000	 63.490796 
895.000000	 63.486504 
894.000000	 63.488101 
893.000000	 63.494300 
892.000000	 63.503909 
891.000000	 63.515949 
890.000000	 63.529968 
889.000000	 63.545632 
888.000000	 63.563036 
887.000000	 63.582062 
886.000000	 63.602375 
885.000000	 63.623213 
884.000000	 63.643527 
883.000000	 63.662004 
882.000000	 63.677358 
881.000000	 63.688778 
880.000000	 63.695836 
879.000000	 63.698649 
878.000000	 63.697767 
877.000000	 63.693952 
876.000000	 63.688015 
875.000000	 63.680529 
874.000000	 63.672018 
873.000000	 63.662886 
872.000000	 63.653588 
871.000000	 63.644480 
870.000000	 63.636183 
869.000000	 63.629484 
868.000000	 63.625097 
867.000000	 63.623476 
866.000000	 63.624906 
865.000000	 63.629174 
864.000000	 63.635349 
863.000000	 63.641905 
862.000000	 63.647174 
861.000000	 63.649630 
860.000000	 63.648128 
859.000000	 63.642382 
858.000000	 63.632845 
857.000000	 63.620710 
856.000000	 63.607811 
855.000000	 63.596200 
854.000000	 63.587641 
853.000000	 63.583707 
852.000000	 63.585686 
851.000000	 63.594174 
850.000000	 63.609123 
849.000000	 63.629841 
848.000000	 63.655042 
847.000000	 63.682675 
846.000000	 63.710331 
845.000000	 63.735556 
844.000000	 63.756322 
843.000000	 63.771271 
842.000000	 63.779950 
841.000000	 63.783240 
840.000000	 63.782787 
839.000000	 63.780760 
838.000000	 63.779330 
837.000000	 63.779973 
836.000000	 63.782954 
835.000000	 63.787627 
834.000000	 63.792109 
833.000000	 63.794517 
832.000000	 63.792800 
831.000000	 63.785791 
830.000000	 63.773036 
829.000000	 63.755059 
828.000000	 63.733100 
827.000000	 63.708591 
826.000000	 63.682913 
825.000000	 63.657140 
824.000000	 63.631963 
823.000000	 63.607788 
822.000000	 63.584709 
821.000000	 63.562822 
820.000000	 63.542318 
819.000000	 63.523507 
818.000000	 63.506698 
817.000000	 63.492417 
816.000000	 63.480806 
815.000000	 63.472056 
814.000000	 63.466167 
813.000000	 63.463044 
812.000000	 63.462471 
811.000000	 63.463878 
810.000000	 63.466405 
809.000000	 63.468885 
808.000000	 63.469839 
807.000000	 63.467907 
806.000000	 63.462090 
805.000000	 63.452267 
804.000000	 63.439035 
803.000000	 63.423943 
802.000000	 63.409161 
801.000000	 63.397097 
800.000000	 63.389849 
799.000000	 63.388943 
798.000000	 63.394999 
797.000000	 63.407802 
796.000000	 63.426423 
795.000000	 63.449239 
794.000000	 63.474440 
793.000000	 63.500094 
792.000000	 63.524365 
791.000000	 63.545799 
790.000000	 63.563156 
789.000000	 63.575553 
788.000000	 63.582515 
787.000000	 63.584184 
786.000000	 63.581013 
785.000000	 63.574123 
784.000000	 63.564562 
783.000000	 63.553452 
782.000000	 63.541412 
781.000000	 63.528943 
780.000000	 63.515806 
779.000000	 63.501524 
778.000000	 63.485527 
777.000000	 63.467574 
776.000000	 63.447976 
775.000000	 63.427662 
774.000000	 63.408184 
773.000000	 63.391375 
772.000000	 63.378858 
771.000000	 63.371443 
770.000000	 63.369059 
769.000000	 63.370609 
768.000000	 63.374280 
767.000000	 63.377809 
766.000000	 63.379096 
765.000000	 63.376426 
764.000000	 63.368821 
763.000000	 63.356089 
762.000000	 63.338375 
761.000000	 63.316392 
760.000000	 63.291168 
759.000000	 63.264179 
758.000000	 63.236975 
757.000000	 63.211297 
756.000000	 63.188648 
755.000000	 63.170433 
754.000000	 63.157725 
753.000000	 63.151288 
752.000000	 63.151097 
751.000000	 63.156938 
750.000000	 63.168120 
749.000000	 63.183879 
748.000000	 63.203144 
747.000000	 63.224887 
746.000000	 63.248038 
745.000000	 63.271307 
744.000000	 63.293194 
743.000000	 63.311910 
742.000000	 63.325691 
741.000000	 63.332962 
740.000000	 63.332390 
739.000000	 63.323426 
738.000000	 63.306045 
737.000000	 63.280987 
736.000000	 63.249516 
735.000000	 63.213229 
734.000000	 63.174080 
733.000000	 63.134503 
732.000000	 63.097405 
731.000000	 63.065862 
730.000000	 63.042974 
729.000000	 63.031220 
728.000000	 63.032293 
727.000000	 63.046336 
726.000000	 63.072156 
725.000000	 63.106870 
724.000000	 63.146924 
723.000000	 63.188195 
722.000000	 63.227033 
721.000000	 63.260340 
720.000000	 63.286447 
719.000000	 63.305020 
718.000000	 63.316798 
717.000000	 63.322806 
716.000000	 63.324046 
715.000000	 63.320994 
714.000000	 63.313484 
713.000000	 63.300681 
712.000000	 63.281679 
711.000000	 63.255834 
710.000000	 63.222980 
709.000000	 63.183999 
708.000000	 63.140797 
707.000000	 63.096547 
706.000000	 63.055181 
705.000000	 63.020992 
704.000000	 62.997555 
703.000000	 62.987279 
702.000000	 62.990760 
701.000000	 63.007068 
700.000000	 63.033127 
699.000000	 63.065600 
698.000000	 63.100886 
697.000000	 63.136744 
696.000000	 63.172173 
695.000000	 63.207793 
694.000000	 63.244962 
693.000000	 63.284850 
692.000000	 63.327479 
691.000000	 63.371157 
690.000000	 63.412332 
689.000000	 63.446497 
688.000000	 63.469362 
687.000000	 63.478589 
686.000000	 63.474559 
685.000000	 63.460969 
684.000000	 63.443803 
683.000000	 63.429737 
682.000000	 63.423776 
681.000000	 63.427877 
680.000000	 63.439750 
679.000000	 63.453483 
678.000000	 63.460779 
677.000000	 63.453650 
676.000000	 63.426780 
675.000000	 63.379168 
674.000000	 63.315010 
673.000000	 63.242554 
672.000000	 63.173007 
671.000000	 63.117218 
670.000000	 63.084006 
669.000000	 63.077616 
668.000000	 63.097643 
667.000000	 63.139104 
666.000000	 63.194417 
665.000000	 63.254714 
664.000000	 63.312602 
663.000000	 63.363313 
662.000000	 63.404631 
661.000000	 63.436412 
660.000000	 63.459897 
659.000000	 63.476467 
658.000000	 63.486957 
657.000000	 63.491296 
656.000000	 63.488888 
655.000000	 63.478827 
654.000000	 63.461828 
653.000000	 63.439154 
652.000000	 63.412642 
651.000000	 63.383936 
650.000000	 63.354325 
649.000000	 63.324451 
648.000000	 63.293933 
647.000000	 63.262462 
646.000000	 63.229632 
645.000000	 63.196873 
644.000000	 63.167834 
643.000000	 63.147234 
642.000000	 63.139915 
641.000000	 63.148522 
640.000000	 63.172674 
639.000000	 63.207674 
638.000000	 63.245081 
637.000000	 63.274526 
636.000000	 63.286161 
635.000000	 63.273429 
634.000000	 63.235354 
633.000000	 63.177371 
632.000000	 63.110899 
631.000000	 63.050580 
630.000000	 63.011693 
629.000000	 63.007020 
628.000000	 63.044238 
627.000000	 63.125085 
626.000000	 63.243937 
625.000000	 63.389849 
624.000000	 63.546800 
623.000000	 63.697719 
622.000000	 63.824892 
621.000000	 63.912653 
620.000000	 63.948774 
619.000000	 63.926219 
618.000000	 63.844156 
617.000000	 63.708186 
616.000000	 63.530325 
615.000000	 63.328647 
614.000000	 63.124012 
613.000000	 62.937784 
612.000000	 62.787914 
611.000000	 62.686991 
610.000000	 62.639331 
609.000000	 62.641263 
608.000000	 62.681508 
607.000000	 62.744426 
606.000000	 62.813687 
605.000000	 62.876152 
604.000000	 62.923693 
603.000000	 62.954711 
602.000000	 62.972640 
601.000000	 62.984514 
600.000000	 62.998104 
599.000000	 63.019371 
598.000000	 63.050651 
597.000000	 63.089966 
596.000000	 63.132667 
595.000000	 63.172030 
594.000000	 63.202118 
593.000000	 63.218617 
592.000000	 63.220334 
591.000000	 63.209557 
590.000000	 63.191556 
589.000000	 63.173222 
588.000000	 63.161230 
587.000000	 63.160181 
586.000000	 63.171601 
585.000000	 63.192772 
584.000000	 63.218092 
583.000000	 63.238763 
582.000000	 63.245177 
581.000000	 63.229846 
580.000000	 63.189864 
579.000000	 63.128423 
578.000000	 63.055229 
577.000000	 62.984824 
576.000000	 62.933683 
575.000000	 62.917494 
574.000000	 62.946796 
573.000000	 63.022994 
572.000000	 63.137912 
571.000000	 63.275671 
570.000000	 63.416194 
569.000000	 63.538479 
568.000000	 63.626527 
567.000000	 63.672828 
566.000000	 63.679480 
565.000000	 63.656711 
564.000000	 63.619160 
563.000000	 63.581490 
562.000000	 63.554024 
561.000000	 63.540315 
560.000000	 63.537192 
559.000000	 63.537502 
558.000000	 63.533425 
557.000000	 63.520741 
556.000000	 63.499093 
555.000000	 63.472390 
554.000000	 63.446784 
553.000000	 63.428115 
552.000000	 63.417840 
551.000000	 63.411235 
550.000000	 63.397955 
549.000000	 63.363909 
548.000000	 63.294935 
547.000000	 63.180565 
546.000000	 63.017845 
545.000000	 62.813234 
544.000000	 62.581491 
543.000000	 62.343835 
542.000000	 62.123179 
541.000000	 61.940145 
540.000000	 61.808133 
539.000000	 61.732196 
538.000000	 61.708140 
537.000000	 61.725187 
536.000000	 61.767888 
535.000000	 61.821675 
534.000000	 61.874055 
533.000000	 61.920070 
532.000000	 61.960530 
531.000000	 62.002825 
530.000000	 62.055730 
529.000000	 62.129497 
528.000000	 62.231636 
527.000000	 62.364697 
526.000000	 62.524485 
525.000000	 62.700152 
524.000000	 62.875628 
523.000000	 63.032793 
522.000000	 63.154911 
521.000000	 63.229870 
520.000000	 63.253068 
519.000000	 63.227653 
518.000000	 63.165140 
517.000000	 63.082051 
516.000000	 62.998652 
515.000000	 62.935519 
514.000000	 62.910890 
513.000000	 62.938356 
512.000000	 63.024282 
511.000000	 63.169741 
510.000000	 63.365745 
509.000000	 63.597035 
508.000000	 63.838815 
507.000000	 64.062213 
506.000000	 64.234447 
505.000000	 64.324045 
504.000000	 64.307737 
503.000000	 64.175295 
502.000000	 63.936018 
501.000000	 63.618421 
500.000000	 63.267302 
499.000000	 62.934899 
498.000000	 62.668609 
497.000000	 62.500405 
496.000000	 62.438368 
495.000000	 62.466549 
494.000000	 62.550306 
493.000000	 62.647819 
492.000000	 62.721300 
491.000000	 62.748098 
490.000000	 62.725591 
489.000000	 62.670111 
488.000000	 62.607717 
487.000000	 62.565469 
486.000000	 62.559676 
485.000000	 62.591791 
484.000000	 62.646341 
483.000000	 62.697720 
482.000000	 62.718558 
481.000000	 62.690401 
480.000000	 62.611675 
479.000000	 62.498521 
478.000000	 62.381267 
477.000000	 62.294960 
476.000000	 62.268519 
475.000000	 62.316393 
474.000000	 62.433648 
473.000000	 62.597870 
472.000000	 62.775397 
471.000000	 62.932419 
470.000000	 63.044071 
469.000000	 63.100814 
468.000000	 63.109469 
467.000000	 63.087582 
466.000000	 63.057541 
465.000000	 63.037514 
464.000000	 63.037610 
463.000000	 63.057661 
462.000000	 63.089275 
461.000000	 63.122415 
460.000000	 63.147926 
459.000000	 63.161778 
458.000000	 63.166141 
457.000000	 63.168621 
456.000000	 63.180017 
455.000000	 63.208222 
454.000000	 63.258767 
453.000000	 63.333106 
452.000000	 63.428282 
451.000000	 63.537645 
450.000000	 63.652062 
449.000000	 63.762831 
448.000000	 63.860130 
447.000000	 63.935112 
446.000000	 63.976764 
445.000000	 63.972997 
444.000000	 63.916373 
443.000000	 63.805937 
442.000000	 63.644695 
441.000000	 63.440465 
440.000000	 63.208460 
439.000000	 62.969470 
438.000000	 62.740373 
437.000000	 62.537956 
436.000000	 62.380313 
435.000000	 62.286329 
434.000000	 62.269234 
433.000000	 62.339496 
432.000000	 62.499928 
431.000000	 62.748217 
430.000000	 63.071775 
429.000000	 63.453769 
428.000000	 63.870859 
427.000000	 64.299798 
426.000000	 64.720654 
425.000000	 65.114450 
424.000000	 65.466475 
423.000000	 65.756630 
422.000000	 65.962767 
421.000000	 66.052365 
420.000000	 65.990209 
419.000000	 65.737104 
418.000000	 65.260648 
417.000000	 64.548206 
416.000000	 63.613414 
415.000000	 62.498354 
414.000000	 61.266589 
413.000000	 59.992671 
412.000000	 58.748388 
411.000000	 57.591414 
410.000000	 56.561899 
409.000000	 55.666518 
408.000000	 54.902386 
407.000000	 54.269051 
406.000000	 53.783154 
405.000000	 53.458237 
404.000000	 53.325486 
403.000000	 53.420686 
402.000000	 53.770899 
401.000000	 54.366207 
400.000000	 55.159640 
399.000000	 56.064724 
398.000000	 56.962442 
397.000000	 57.713770 
396.000000	 58.197903 
395.000000	 58.346104 
394.000000	 58.127331 
393.000000	 57.553839 
392.000000	 56.667709 
391.000000	 55.530548 
390.000000	 54.236698 
389.000000	 52.904963 
388.000000	 51.640558 
387.000000	 50.541257 
386.000000	 49.685025 
385.000000	 49.160146 
384.000000	 49.025821 
383.000000	 49.366092 
382.000000	 50.298357 
381.000000	 51.952695 
380.000000	 54.431509 
379.000000	 57.750415 
378.000000	 61.776328 
377.000000	 66.240310 
376.000000	 70.715546 
375.000000	 74.766421 
374.000000	 78.007960 
373.000000	 80.262088 
372.000000	 81.584048 
371.000000	 82.289648 
370.000000	 82.905387 

