PE IR       SPECTRUM    SPECTRUM    ASCII       PEDS        1.60        
  -1
BZ69A1~1.ASC
17/04/07
14:06:39.00
17/04/07
14:06:39.00
tln
$BZ1503107-1_t0011$<tbV0>[-13.0,-13.0,8.0,0.0,27,1,0]
370.000000
64









2002,4.07    
MIRTGS : RIGHTBACK : INTERNAL 2
MIR : ON : INTERNAL 2
OPTKBR

0.200000
8
8.000000
FILLER
RATIO
SPECTRUM
UNLOCKED 256

DOUBLE
64
COMBINED
1
0
0


1.000000
RATIO


1
0
TRUE
51149
0
LEFT NOT FITTED RIGHT NOT FITTED 0
NONE
NONE
15600
12.000000
4.427000
51148
TRUE
1 0 8 72 0 0 0 0 

15798.010000






#HDR
-1
-1
#GR
CM-1
%T
0.00002384185791015625
0.0
5000.000000
-1.000000
4631
8
92.815923
61.612534
#DATA
5000.000000	65.127253 
4999.000000	64.932727 
4998.000000	64.742875 
4997.000000	64.586305 
4996.000000	64.484882 
4995.000000	64.452624 
4994.000000	64.488267 
4993.000000	64.578437 
4992.000000	64.695429 
4991.000000	64.804458 
4990.000000	64.869165 
4989.000000	64.858603 
4988.000000	64.756822 
4987.000000	64.566230 
4986.000000	64.308881 
4985.000000	64.021015 
4984.000000	63.748335 
4983.000000	63.536071 
4982.000000	63.418436 
4981.000000	63.411998 
4980.000000	63.514018 
4979.000000	63.704538 
4978.000000	63.951158 
4977.000000	64.218425 
4976.000000	64.474749 
4975.000000	64.699959 
4974.000000	64.886808 
4973.000000	65.040040 
4972.000000	65.169906 
4971.000000	65.286636 
4970.000000	65.396857 
4969.000000	65.497446 
4968.000000	65.577626 
4967.000000	65.619468 
4966.000000	65.608358 
4965.000000	65.532708 
4964.000000	65.391635 
4963.000000	65.193271 
4962.000000	64.956402 
4961.000000	64.703178 
4960.000000	64.455652 
4959.000000	64.228749 
4958.000000	64.028358 
4957.000000	63.851451 
4956.000000	63.689804 
4955.000000	63.533043 
4954.000000	63.375139 
4953.000000	63.217353 
4952.000000	63.072204 
4951.000000	62.959694 
4950.000000	62.906241 
4949.000000	62.936496 
4948.000000	63.069295 
4947.000000	63.310050 
4946.000000	63.649034 
4945.000000	64.061093 
4944.000000	64.508700 
4943.000000	64.947104 
4942.000000	65.332865 
4941.000000	65.631270 
4940.000000	65.822005 
4939.000000	65.902161 
4938.000000	65.883731 
4937.000000	65.790748 
4936.000000	65.650486 
4935.000000	65.490436 
4934.000000	65.328097 
4933.000000	65.171337 
4932.000000	65.016198 
4931.000000	64.853572 
4930.000000	64.671421 
4929.000000	64.462280 
4928.000000	64.227581 
4927.000000	63.980722 
4926.000000	63.743495 
4925.000000	63.543581 
4924.000000	63.407874 
4923.000000	63.357424 
4922.000000	63.401603 
4921.000000	63.536667 
4920.000000	63.745164 
4919.000000	64.000082 
4918.000000	64.268660 
4917.000000	64.520025 
4916.000000	64.728021 
4915.000000	64.877891 
4914.000000	64.966702 
4913.000000	65.002775 
4912.000000	65.001058 
4911.000000	64.979004 
4910.000000	64.953327 
4909.000000	64.933490 
4908.000000	64.921617 
4907.000000	64.911389 
4906.000000	64.892745 
4905.000000	64.855003 
4904.000000	64.792346 
4903.000000	64.706659 
4902.000000	64.608693 
4901.000000	64.516735 
4900.000000	64.452362 
4899.000000	64.434003 
4898.000000	64.471983 
4897.000000	64.565777 
4896.000000	64.703750 
4895.000000	64.865636 
4894.000000	65.027832 
4893.000000	65.169644 
4892.000000	65.277504 
4891.000000	65.346598 
4890.000000	65.381193 
4889.000000	65.391039 
4888.000000	65.388679 
4887.000000	65.385723 
4886.000000	65.389204 
4885.000000	65.400743 
4884.000000	65.416145 
4883.000000	65.430092 
4882.000000	65.435266 
4881.000000	65.426826 
4880.000000	65.401077 
4879.000000	65.356802 
4878.000000	65.294814 
4877.000000	65.217781 
4876.000000	65.130281 
4875.000000	65.038204 
4874.000000	64.949464 
4873.000000	64.873051 
4872.000000	64.817428 
4871.000000	64.789223 
4870.000000	64.791369 
4869.000000	64.822888 
4868.000000	64.879107 
4867.000000	64.952540 
4866.000000	65.034198 
4865.000000	65.115237 
4864.000000	65.188813 
4863.000000	65.249776 
4862.000000	65.294122 
4861.000000	65.319013 
4860.000000	65.323042 
4859.000000	65.305900 
4858.000000	65.267825 
4857.000000	65.211486 
4856.000000	65.142273 
4855.000000	65.068984 
4854.000000	65.002942 
4853.000000	64.956521 
4852.000000	64.940714 
4851.000000	64.962553 
4850.000000	65.023183 
4849.000000	65.117478 
4848.000000	65.234780 
4847.000000	65.361499 
4846.000000	65.483474 
4845.000000	65.587854 
4844.000000	65.664768 
4843.000000	65.709209 
4842.000000	65.720367 
4841.000000	65.700960 
4840.000000	65.655088 
4839.000000	65.588021 
4838.000000	65.503644 
4837.000000	65.404915 
4836.000000	65.293622 
4835.000000	65.172910 
4834.000000	65.047144 
4833.000000	64.922904 
4832.000000	64.808440 
4831.000000	64.713096 
4830.000000	64.644622 
4829.000000	64.607143 
4828.000000	64.599585 
4827.000000	64.614820 
4826.000000	64.642262 
4825.000000	64.669680 
4824.000000	64.688038 
4823.000000	64.693164 
4822.000000	64.689469 
4821.000000	64.688181 
4820.000000	64.704847 
4819.000000	64.753961 
4818.000000	64.843273 
4817.000000	64.970159 
4816.000000	65.119600 
4815.000000	65.268039 
4814.000000	65.389561 
4813.000000	65.464067 
4812.000000	65.482163 
4811.000000	65.450024 
4810.000000	65.388584 
4809.000000	65.328502 
4808.000000	65.302538 
4807.000000	65.335988 
4806.000000	65.440487 
4805.000000	65.609288 
4804.000000	65.820789 
4803.000000	66.041207 
4802.000000	66.234517 
4801.000000	66.369295 
4800.000000	66.427278 
4799.000000	66.405701 
4798.000000	66.317033 
4797.000000	66.185045 
4796.000000	66.037893 
4795.000000	65.902447 
4794.000000	65.797996 
4793.000000	65.734505 
4792.000000	65.711498 
4791.000000	65.719342 
4790.000000	65.742206 
4789.000000	65.762543 
4788.000000	65.765070 
4787.000000	65.738654 
4786.000000	65.679550 
4785.000000	65.589046 
4784.000000	65.475535 
4783.000000	65.351724 
4782.000000	65.233397 
4781.000000	65.135431 
4780.000000	65.069055 
4779.000000	65.041136 
4778.000000	65.050458 
4777.000000	65.089225 
4776.000000	65.142560 
4775.000000	65.191936 
4774.000000	65.218567 
4773.000000	65.206670 
4772.000000	65.148711 
4771.000000	65.046668 
4770.000000	64.913296 
4769.000000	64.768862 
4768.000000	64.640116 
4767.000000	64.554142 
4766.000000	64.533829 
4765.000000	64.591979 
4764.000000	64.728069 
4763.000000	64.926981 
4762.000000	65.162086 
4761.000000	65.399765 
4760.000000	65.605306 
4759.000000	65.749716 
4758.000000	65.814518 
4757.000000	65.795564 
4756.000000	65.702342 
4755.000000	65.555524 
4754.000000	65.381789 
4753.000000	65.208077 
4752.000000	65.056943 
4751.000000	64.942193 
4750.000000	64.869832 
4749.000000	64.836573 
4748.000000	64.833831 
4747.000000	64.850068 
4746.000000	64.874911 
4745.000000	64.900326 
4744.000000	64.921283 
4743.000000	64.936113 
4742.000000	64.944863 
4741.000000	64.949512 
4740.000000	64.952373 
4739.000000	64.956116 
4738.000000	64.962649 
4737.000000	64.973235 
4736.000000	64.987564 
4735.000000	65.004348 
4734.000000	65.020728 
4733.000000	65.032577 
4732.000000	65.034770 
4731.000000	65.022230 
4730.000000	64.990854 
4729.000000	64.939332 
4728.000000	64.869332 
4727.000000	64.784979 
4726.000000	64.693164 
4725.000000	64.601802 
4724.000000	64.519548 
4723.000000	64.454078 
4722.000000	64.411830 
4721.000000	64.396619 
4720.000000	64.410138 
4719.000000	64.452457 
4718.000000	64.520668 
4717.000000	64.609050 
4716.000000	64.708900 
4715.000000	64.809584 
4714.000000	64.899611 
4713.000000	64.968395 
4712.000000	65.008091 
4711.000000	65.015029 
4710.000000	64.991211 
4709.000000	64.943718 
4708.000000	64.883708 
4707.000000	64.823818 
4706.000000	64.775800 
4705.000000	64.747738 
4704.000000	64.742827 
4703.000000	64.758825 
4702.000000	64.789628 
4701.000000	64.827036 
4700.000000	64.863204 
4699.000000	64.892601 
4698.000000	64.912724 
4697.000000	64.924836 
4696.000000	64.932203 
4695.000000	64.939904 
4694.000000	64.952421 
4693.000000	64.972901 
4692.000000	65.002369 
4691.000000	65.039181 
4690.000000	65.079927 
4689.000000	65.119600 
4688.000000	65.153241 
4687.000000	65.176296 
4686.000000	65.185809 
4685.000000	65.180373 
4684.000000	65.160202 
4683.000000	65.127372 
4682.000000	65.085315 
4681.000000	65.038084 
4680.000000	64.989852 
4679.000000	64.944291 
4678.000000	64.904236 
4677.000000	64.871740 
4676.000000	64.848041 
4675.000000	64.833712 
4674.000000	64.828920 
4673.000000	64.833474 
4672.000000	64.846515 
4671.000000	64.866447 
4670.000000	64.890456 
4669.000000	64.914274 
4668.000000	64.933133 
4667.000000	64.942765 
4666.000000	64.939975 
4665.000000	64.923191 
4664.000000	64.893293 
4663.000000	64.853525 
4662.000000	64.808440 
4661.000000	64.763116 
4660.000000	64.721679 
4659.000000	64.686822 
4658.000000	64.659428 
4657.000000	64.638924 
4656.000000	64.624428 
4655.000000	64.615678 
4654.000000	64.613509 
4653.000000	64.620018 
4652.000000	64.637708 
4651.000000	64.668369 
4650.000000	64.711856 
4649.000000	64.765024 
4648.000000	64.821791 
4647.000000	64.873933 
4646.000000	64.913058 
4645.000000	64.931845 
4644.000000	64.926123 
4643.000000	64.895367 
4642.000000	64.843463 
4641.000000	64.777064 
4640.000000	64.704203 
4639.000000	64.632439 
4638.000000	64.567422 
4637.000000	64.512467 
4636.000000	64.468979 
4635.000000	64.436650 
4634.000000	64.414525 
4633.000000	64.401626 
4632.000000	64.397215 
4631.000000	64.400625 
4630.000000	64.411091 
4629.000000	64.427065 
4628.000000	64.446163 
4627.000000	64.464998 
4626.000000	64.480090 
4625.000000	64.487862 
4624.000000	64.486074 
4623.000000	64.474129 
4622.000000	64.453721 
4621.000000	64.428591 
4620.000000	64.404392 
4619.000000	64.387106 
4618.000000	64.382076 
4617.000000	64.393210 
4616.000000	64.421010 
4615.000000	64.462852 
4614.000000	64.512300 
4613.000000	64.560508 
4612.000000	64.597582 
4611.000000	64.614391 
4610.000000	64.605355 
4609.000000	64.569473 
4608.000000	64.511561 
4607.000000	64.441370 
4606.000000	64.371061 
4605.000000	64.312458 
4604.000000	64.274668 
4603.000000	64.262056 
4602.000000	64.274024 
4601.000000	64.305400 
4600.000000	64.348101 
4599.000000	64.393329 
4598.000000	64.433288 
4597.000000	64.462924 
4596.000000	64.479732 
4595.000000	64.484190 
4594.000000	64.478850 
4593.000000	64.466929 
4592.000000	64.451384 
4591.000000	64.433503 
4590.000000	64.413785 
4589.000000	64.390921 
4588.000000	64.363336 
4587.000000	64.329361 
4586.000000	64.288401 
4585.000000	64.241504 
4584.000000	64.191150 
4583.000000	64.141774 
4582.000000	64.098882 
4581.000000	64.067864 
4580.000000	64.052820 
4579.000000	64.054846 
4578.000000	64.071822 
4577.000000	64.098358 
4576.000000	64.127111 
4575.000000	64.150595 
4574.000000	64.162755 
4573.000000	64.161181 
4572.000000	64.146852 
4571.000000	64.123630 
4570.000000	64.096379 
4569.000000	64.069676 
4568.000000	64.045810 
4567.000000	64.024233 
4566.000000	64.001417 
4565.000000	63.972902 
4564.000000	63.934206 
4563.000000	63.882899 
4562.000000	63.819384 
4561.000000	63.747119 
4560.000000	63.671851 
4559.000000	63.599872 
4558.000000	63.537383 
4557.000000	63.488197 
4556.000000	63.454866 
4555.000000	63.438272 
4554.000000	63.438344 
4553.000000	63.454413 
4552.000000	63.485145 
4551.000000	63.528490 
4550.000000	63.580989 
4549.000000	63.637828 
4548.000000	63.692808 
4547.000000	63.739895 
4546.000000	63.774061 
4545.000000	63.793373 
4544.000000	63.800024 
4543.000000	63.799953 
4542.000000	63.802289 
4541.000000	63.816022 
4540.000000	63.847851 
4539.000000	63.899159 
4538.000000	63.966083 
4537.000000	64.039158 
4536.000000	64.106297 
4535.000000	64.154791 
4534.000000	64.176201 
4533.000000	64.166116 
4532.000000	64.125370 
4531.000000	64.058923 
4530.000000	63.974881 
4529.000000	63.882136 
4528.000000	63.788056 
4527.000000	63.698935 
4526.000000	63.620233 
4525.000000	63.554906 
4524.000000	63.503789 
4523.000000	63.468170 
4522.000000	63.449883 
4521.000000	63.449120 
4520.000000	63.464641 
4519.000000	63.493418 
4518.000000	63.531374 
4517.000000	63.573074 
4516.000000	63.613176 
4515.000000	63.647747 
4514.000000	63.674569 
4513.000000	63.691234 
4512.000000	63.697385 
4511.000000	63.693785 
4510.000000	63.683915 
4509.000000	63.674187 
4508.000000	63.671875 
4507.000000	63.682603 
4506.000000	63.710331 
4505.000000	63.756656 
4504.000000	63.820743 
4503.000000	63.896131 
4502.000000	63.980913 
4501.000000	64.078164 
4500.000000	64.198851 
4499.000000	64.358329 
4498.000000	64.576172 
4497.000000	64.869260 
4496.000000	65.243172 
4495.000000	65.687322 
4494.000000	66.171813 
4493.000000	66.653442 
4492.000000	67.082619 
4491.000000	67.418074 
4490.000000	67.640233 
4489.000000	67.755532 
4488.000000	67.801713 
4487.000000	67.828702 
4486.000000	67.888593 
4485.000000	68.009686 
4484.000000	68.192267 
4483.000000	68.397569 
4482.000000	68.563318 
4481.000000	68.612742 
4480.000000	68.488049 
4479.000000	68.154525 
4478.000000	67.612838 
4477.000000	66.901493 
4476.000000	66.095161 
4475.000000	65.277957 
4474.000000	64.522910 
4473.000000	63.882970 
4472.000000	63.384389 
4471.000000	63.021135 
4470.000000	62.763094 
4469.000000	62.572407 
4468.000000	62.418007 
4467.000000	62.281727 
4466.000000	62.165737 
4465.000000	62.081456 
4464.000000	62.047934 
4463.000000	62.089037 
4462.000000	62.221169 
4461.000000	62.436246 
4460.000000	62.706089 
4459.000000	62.983703 
4458.000000	63.223862 
4457.000000	63.374733 
4456.000000	63.424944 
4455.000000	63.401532 
4454.000000	63.388943 
4453.000000	63.498902 
4452.000000	63.863658 
4451.000000	64.593768 
4450.000000	65.756583 
4449.000000	67.344808 
4448.000000	69.285631 
4447.000000	71.448516 
4446.000000	73.676323 
4445.000000	75.814127 
4444.000000	77.735710 
4443.000000	79.356408 
4442.000000	80.637383 
4441.000000	81.569862 
4440.000000	82.150268 
4439.000000	82.359457 
4438.000000	82.169127 
4437.000000	81.538963 
4436.000000	80.450487 
4435.000000	78.912019 
4434.000000	77.001976 
4433.000000	74.845242 
4432.000000	72.613763 
4431.000000	70.485281 
4430.000000	68.614530 
4429.000000	67.106533 
4428.000000	66.002535 
4427.000000	65.282988 
4426.000000	64.875364 
4425.000000	64.686250 
4424.000000	64.621853 
4423.000000	64.610695 
4422.000000	64.600396 
4421.000000	64.572596 
4420.000000	64.525103 
4419.000000	64.467310 
4418.000000	64.398717 
4417.000000	64.322257 
4416.000000	64.239192 
4415.000000	64.151501 
4414.000000	64.061546 
4413.000000	63.981056 
4412.000000	63.926863 
4411.000000	63.908457 
4410.000000	63.926434 
4409.000000	63.972854 
4408.000000	64.032077 
4407.000000	64.085865 
4406.000000	64.117145 
4405.000000	64.110970 
4404.000000	64.061141 
4403.000000	63.974356 
4402.000000	63.866806 
4401.000000	63.753247 
4400.000000	63.651561 
4399.000000	63.583254 
4398.000000	63.563346 
4397.000000	63.593316 
4396.000000	63.666796 
4395.000000	63.774275 
4394.000000	63.899993 
4393.000000	64.025402 
4392.000000	64.132499 
4391.000000	64.206981 
4390.000000	64.240002 
4389.000000	64.229106 
4388.000000	64.179158 
4387.000000	64.100217 
4386.000000	64.004468 
4385.000000	63.902950 
4384.000000	63.804292 
4383.000000	63.712763 
4382.000000	63.628339 
4381.000000	63.548064 
4380.000000	63.468480 
4379.000000	63.388347 
4378.000000	63.309311 
4377.000000	63.237714 
4376.000000	63.181757 
4375.000000	63.151359 
4374.000000	63.154268 
4373.000000	63.194894 
4372.000000	63.271164 
4371.000000	63.375735 
4370.000000	63.496327 
4369.000000	63.619112 
4368.000000	63.730883 
4367.000000	63.822436 
4366.000000	63.889288 
4365.000000	63.933300 
4364.000000	63.960814 
4363.000000	63.981604 
4362.000000	64.005756 
4361.000000	64.041614 
4360.000000	64.093494 
4359.000000	64.161467 
4358.000000	64.240789 
4357.000000	64.324021 
4356.000000	64.401745 
4355.000000	64.464521 
4354.000000	64.504218 
4353.000000	64.516210 
4352.000000	64.499735 
4351.000000	64.458179 
4350.000000	64.397978 
4349.000000	64.328455 
4348.000000	64.258813 
4347.000000	64.196610 
4346.000000	64.146375 
4345.000000	64.109539 
4344.000000	64.084696 
4343.000000	64.068818 
4342.000000	64.058732 
4341.000000	64.052677 
4340.000000	64.050531 
4339.000000	64.053726 
4338.000000	64.064335 
4337.000000	64.083552 
4336.000000	64.111709 
4335.000000	64.147591 
4334.000000	64.188551 
4333.000000	64.230799 
4332.000000	64.270949 
4331.000000	64.306354 
4330.000000	64.335465 
4329.000000	64.357542 
4328.000000	64.372730 
4327.000000	64.381456 
4326.000000	64.383482 
4325.000000	64.378786 
4324.000000	64.367961 
4323.000000	64.352726 
4322.000000	64.336133 
4321.000000	64.322805 
4320.000000	64.318084 
4319.000000	64.327216 
4318.000000	64.353966 
4317.000000	64.399766 
4316.000000	64.462518 
4315.000000	64.537644 
4314.000000	64.618849 
4313.000000	64.699602 
4312.000000	64.774250 
4311.000000	64.839196 
4310.000000	64.892983 
4309.000000	64.935636 
4308.000000	64.967560 
4307.000000	64.988660 
4306.000000	64.997768 
4305.000000	64.992547 
4304.000000	64.970183 
4303.000000	64.928960 
4302.000000	64.869022 
4301.000000	64.793133 
4300.000000	64.706730 
4299.000000	64.617013 
4298.000000	64.531898 
4297.000000	64.458394 
4296.000000	64.401841 
4295.000000	64.364838 
4294.000000	64.347720 
4293.000000	64.349174 
4292.000000	64.366793 
4291.000000	64.397430 
4290.000000	64.437890 
4289.000000	64.484524 
4288.000000	64.533710 
4287.000000	64.580726 
4286.000000	64.621353 
4285.000000	64.651870 
4284.000000	64.670205 
4283.000000	64.676284 
4282.000000	64.672350 
4281.000000	64.662456 
4280.000000	64.651536 
4279.000000	64.644145 
4278.000000	64.643454 
4277.000000	64.650583 
4276.000000	64.664483 
4275.000000	64.682435 
4274.000000	64.701199 
4273.000000	64.717912 
4272.000000	64.731311 
4271.000000	64.741301 
4270.000000	64.748978 
4269.000000	64.755392 
4268.000000	64.761304 
4267.000000	64.766216 
4266.000000	64.767909 
4265.000000	64.763522 
4264.000000	64.750528 
4263.000000	64.727878 
4262.000000	64.696264 
4261.000000	64.659023 
4260.000000	64.621543 
4259.000000	64.590501 
4258.000000	64.572334 
4257.000000	64.571690 
4256.000000	64.590287 
4255.000000	64.626240 
4254.000000	64.674520 
4253.000000	64.727592 
4252.000000	64.776921 
4251.000000	64.814853 
4250.000000	64.836072 
4249.000000	64.838290 
4248.000000	64.822649 
4247.000000	64.793229 
4246.000000	64.755940 
4245.000000	64.717054 
4244.000000	64.682388 
4243.000000	64.656090 
4242.000000	64.640522 
4241.000000	64.635944 
4240.000000	64.641523 
4239.000000	64.656019 
4238.000000	64.678454 
4237.000000	64.707875 
4236.000000	64.744210 
4235.000000	64.787197 
4234.000000	64.836573 
4233.000000	64.891290 
4232.000000	64.949059 
4231.000000	65.006327 
4230.000000	65.059018 
4229.000000	65.103125 
4228.000000	65.135264 
4227.000000	65.153264 
4226.000000	65.156579 
4225.000000	65.146327 
4224.000000	65.124869 
4223.000000	65.095233 
4222.000000	65.060782 
4221.000000	65.024471 
4220.000000	64.989280 
4219.000000	64.957308 
4218.000000	64.930391 
4217.000000	64.909315 
4216.000000	64.894056 
4215.000000	64.883327 
4214.000000	64.874911 
4213.000000	64.865970 
4212.000000	64.853191 
4211.000000	64.834594 
4210.000000	64.809226 
4209.000000	64.779329 
4208.000000	64.749407 
4207.000000	64.726281 
4206.000000	64.717030 
4205.000000	64.727520 
4204.000000	64.760470 
4203.000000	64.814162 
4202.000000	64.882349 
4201.000000	64.955306 
4200.000000	65.022158 
4199.000000	65.073060 
4198.000000	65.101385 
4197.000000	65.105104 
4196.000000	65.087103 
4195.000000	65.054082 
4194.000000	65.014886 
4193.000000	64.978075 
4192.000000	64.950323 
4191.000000	64.935612 
4190.000000	64.934587 
4189.000000	64.945578 
4188.000000	64.964914 
4187.000000	64.989161 
4186.000000	65.014934 
4185.000000	65.039515 
4184.000000	65.061020 
4183.000000	65.077590 
4182.000000	65.088224 
4181.000000	65.092301 
4180.000000	65.090131 
4179.000000	65.082883 
4178.000000	65.072417 
4177.000000	65.061092 
4176.000000	65.051341 
4175.000000	65.045237 
4174.000000	65.043830 
4173.000000	65.047168 
4172.000000	65.054368 
4171.000000	65.064239 
4170.000000	65.075612 
4169.000000	65.087819 
4168.000000	65.100908 
4167.000000	65.115332 
4166.000000	65.131783 
4165.000000	65.150403 
4164.000000	65.170741 
4163.000000	65.191221 
4162.000000	65.209627 
4161.000000	65.223145 
4160.000000	65.229487 
4159.000000	65.226745 
4158.000000	65.213894 
4157.000000	65.190958 
4156.000000	65.158772 
4155.000000	65.119719 
4154.000000	65.077161 
4153.000000	65.035724 
4152.000000	65.000391 
4151.000000	64.976143 
4150.000000	64.966917 
4149.000000	64.974999 
4148.000000	65.000367 
4147.000000	65.040564 
4146.000000	65.091133 
4145.000000	65.146493 
4144.000000	65.200948 
4143.000000	65.249800 
4142.000000	65.290093 
4141.000000	65.321230 
4140.000000	65.344572 
4139.000000	65.362834 
4138.000000	65.379047 
4137.000000	65.395689 
4136.000000	65.413641 
4135.000000	65.432429 
4134.000000	65.449905 
4133.000000	65.463757 
4132.000000	65.471529 
4131.000000	65.471982 
4130.000000	65.465354 
4129.000000	65.453386 
4128.000000	65.438938 
4127.000000	65.425491 
4126.000000	65.416049 
4125.000000	65.412640 
4124.000000	65.415835 
4123.000000	65.424942 
4122.000000	65.438437 
4121.000000	65.454697 
4120.000000	65.472459 
4119.000000	65.491318 
4118.000000	65.511560 
4117.000000	65.533924 
4116.000000	65.559077 
4115.000000	65.587162 
4114.000000	65.616869 
4113.000000	65.645694 
4112.000000	65.670609 
4111.000000	65.688657 
4110.000000	65.697550 
4109.000000	65.696287 
4108.000000	65.686368 
4107.000000	65.670514 
4106.000000	65.652680 
4105.000000	65.636157 
4104.000000	65.623164 
4103.000000	65.613555 
4102.000000	65.605258 
4101.000000	65.594768 
4100.000000	65.578675 
4099.000000	65.554904 
4098.000000	65.523648 
4097.000000	65.487647 
4096.000000	65.451455 
4095.000000	65.420460 
4094.000000	65.399432 
4093.000000	65.391063 
4092.000000	65.395164 
4091.000000	65.408825 
4090.000000	65.426898 
4089.000000	65.443420 
4088.000000	65.452790 
4087.000000	65.450954 
4086.000000	65.436172 
4085.000000	65.409159 
4084.000000	65.372800 
4083.000000	65.330934 
4082.000000	65.287733 
4081.000000	65.247082 
4080.000000	65.211701 
4079.000000	65.183210 
4078.000000	65.162038 
4077.000000	65.147733 
4076.000000	65.139365 
4075.000000	65.135693 
4074.000000	65.135979 
4073.000000	65.139865 
4072.000000	65.147924 
4071.000000	65.160846 
4070.000000	65.179753 
4069.000000	65.205430 
4068.000000	65.237975 
4067.000000	65.276551 
4066.000000	65.319252 
4065.000000	65.363001 
4064.000000	65.404248 
4063.000000	65.439438 
4062.000000	65.465331 
4061.000000	65.479636 
4060.000000	65.481376 
4059.000000	65.471029 
4058.000000	65.450572 
4057.000000	65.423059 
4056.000000	65.392208 
4055.000000	65.361714 
4054.000000	65.334939 
4053.000000	65.314364 
4052.000000	65.301370 
4051.000000	65.295886 
4050.000000	65.296411 
4049.000000	65.300154 
4048.000000	65.303802 
4047.000000	65.303993 
4046.000000	65.298008 
4045.000000	65.284562 
4044.000000	65.263938 
4043.000000	65.238285 
4042.000000	65.211057 
4041.000000	65.186595 
4040.000000	65.168881 
4039.000000	65.160870 
4038.000000	65.163755 
4037.000000	65.176534 
4036.000000	65.196180 
4035.000000	65.218234 
4034.000000	65.237808 
4033.000000	65.250325 
4032.000000	65.252590 
4031.000000	65.243315 
4030.000000	65.223312 
4029.000000	65.195202 
4028.000000	65.162754 
4027.000000	65.129947 
4026.000000	65.100097 
4025.000000	65.075778 
4024.000000	65.057730 
4023.000000	65.045261 
4022.000000	65.036535 
4021.000000	65.029191 
4020.000000	65.021324 
4019.000000	65.011835 
4018.000000	65.001058 
4017.000000	64.990282 
4016.000000	64.981770 
4015.000000	64.977884 
4014.000000	64.980435 
4013.000000	64.990091 
4012.000000	65.005922 
4011.000000	65.025520 
4010.000000	65.045523 
4009.000000	65.062594 
4008.000000	65.073943 
4007.000000	65.078067 
4006.000000	65.075397 
4005.000000	65.068006 
4004.000000	65.059185 
4003.000000	65.052342 
4002.000000	65.050625 
4001.000000	65.055727 
4000.000000	65.068006 
3999.000000	65.085554 
3998.000000	65.105533 
3997.000000	65.123867 
3996.000000	65.136456 
3995.000000	65.139627 
3994.000000	65.130972 
3993.000000	65.109896 
3992.000000	65.077543 
3991.000000	65.037012 
3990.000000	64.992570 
3989.000000	64.949297 
3988.000000	64.912056 
3987.000000	64.884853 
3986.000000	64.870071 
3985.000000	64.868354 
3984.000000	64.878606 
3983.000000	64.898252 
3982.000000	64.924216 
3981.000000	64.953565 
3980.000000	64.984369 
3979.000000	65.015673 
3978.000000	65.047621 
3977.000000	65.080881 
3976.000000	65.115904 
3975.000000	65.152311 
3974.000000	65.188503 
3973.000000	65.221381 
3972.000000	65.246868 
3971.000000	65.261173 
3970.000000	65.261101 
3969.000000	65.245437 
3968.000000	65.214657 
3967.000000	65.171694 
3966.000000	65.120673 
3965.000000	65.066623 
3964.000000	65.014243 
3963.000000	64.967417 
3962.000000	64.928674 
3961.000000	64.899086 
3960.000000	64.878773 
3959.000000	64.867019 
3958.000000	64.862680 
3957.000000	64.864230 
3956.000000	64.869832 
3955.000000	64.877629 
3954.000000	64.885830 
3953.000000	64.893341 
3952.000000	64.899301 
3951.000000	64.903879 
3950.000000	64.908409 
3949.000000	64.915108 
3948.000000	64.926624 
3947.000000	64.944911 
3946.000000	64.970946 
3945.000000	65.003561 
3944.000000	65.039873 
3943.000000	65.075206 
3942.000000	65.104317 
3941.000000	65.122318 
3940.000000	65.126180 
3939.000000	65.115284 
3938.000000	65.091490 
3937.000000	65.058875 
3936.000000	65.023016 
3935.000000	64.989495 
3934.000000	64.962911 
3933.000000	64.945840 
3932.000000	64.938616 
3931.000000	64.939117 
3930.000000	64.943432 
3929.000000	64.946651 
3928.000000	64.944219 
3927.000000	64.932918 
3926.000000	64.911890 
3925.000000	64.882659 
3924.000000	64.849090 
3923.000000	64.816522 
3922.000000	64.790868 
3921.000000	64.777374 
3920.000000	64.779615 
3919.000000	64.798831 
3918.000000	64.833879 
3917.000000	64.881324 
3916.000000	64.936447 
3915.000000	64.993834 
3914.000000	65.048575 
3913.000000	65.096664 
3912.000000	65.135622 
3911.000000	65.164732 
3910.000000	65.184140 
3909.000000	65.194749 
3908.000000	65.196919 
3907.000000	65.190649 
3906.000000	65.175056 
3905.000000	65.149140 
3904.000000	65.111923 
3903.000000	65.063595 
3902.000000	65.005898 
3901.000000	64.942717 
3900.000000	64.879608 
3899.000000	64.823102 
3898.000000	64.779615 
3897.000000	64.754080 
3896.000000	64.749097 
3895.000000	64.764332 
3894.000000	64.796590 
3893.000000	64.840364 
3892.000000	64.889168 
3891.000000	64.936566 
3890.000000	64.977240 
3889.000000	65.007567 
3888.000000	65.025329 
3887.000000	65.030074 
3886.000000	65.022468 
3885.000000	65.004348 
3884.000000	64.978384 
3883.000000	64.947795 
3882.000000	64.916515 
3881.000000	64.888167 
3880.000000	64.865994 
3879.000000	64.851951 
3878.000000	64.846587 
3877.000000	64.848804 
3876.000000	64.856123 
3875.000000	64.865422 
3874.000000	64.873600 
3873.000000	64.878320 
3872.000000	64.878416 
3871.000000	64.873981 
3870.000000	64.866352 
3869.000000	64.857149 
3868.000000	64.848351 
3867.000000	64.841341 
3866.000000	64.837265 
3865.000000	64.836859 
3864.000000	64.841175 
3863.000000	64.851331 
3862.000000	64.868927 
3861.000000	64.895391 
3860.000000	64.931726 
3859.000000	64.977407 
3858.000000	65.030670 
3857.000000	65.088248 
3856.000000	65.145897 
3855.000000	65.198993 
3854.000000	65.243673 
3853.000000	65.277433 
3852.000000	65.299701 
3851.000000	65.311861 
3850.000000	65.316295 
3849.000000	65.315771 
3848.000000	65.312528 
3847.000000	65.307617 
3846.000000	65.300869 
3845.000000	65.290951 
3844.000000	65.276288 
3843.000000	65.255594 
3842.000000	65.228486 
3841.000000	65.195894 
3840.000000	65.160012 
3839.000000	65.124106 
3838.000000	65.091919 
3837.000000	65.067076 
3836.000000	65.052223 
3835.000000	65.048503 
3834.000000	65.055203 
3833.000000	65.069890 
3832.000000	65.088701 
3831.000000	65.107154 
3830.000000	65.121316 
3829.000000	65.128326 
3828.000000	65.126800 
3827.000000	65.117383 
3826.000000	65.102314 
3825.000000	65.084743 
3824.000000	65.067648 
3823.000000	65.053272 
3822.000000	65.042829 
3821.000000	65.036034 
3820.000000	65.031599 
3819.000000	65.028095 
3818.000000	65.024733 
3817.000000	65.021538 
3816.000000	65.019750 
3815.000000	65.020847 
3814.000000	65.026569 
3813.000000	65.037608 
3812.000000	65.053677 
3811.000000	65.073299 
3810.000000	65.094304 
3809.000000	65.114641 
3808.000000	65.132594 
3807.000000	65.147018 
3806.000000	65.157556 
3805.000000	65.164661 
3804.000000	65.168905 
3803.000000	65.170717 
3802.000000	65.170049 
3801.000000	65.166521 
3800.000000	65.159416 
3799.000000	65.148162 
3798.000000	65.132665 
3797.000000	65.113639 
3796.000000	65.092468 
3795.000000	65.071010 
3794.000000	65.051245 
3793.000000	65.034675 
3792.000000	65.022110 
3791.000000	65.013432 
3790.000000	65.007615 
3789.000000	65.003275 
3788.000000	64.998722 
3787.000000	64.993095 
3786.000000	64.986014 
3785.000000	64.978456 
3784.000000	64.972233 
3783.000000	64.970040 
3782.000000	64.974379 
3781.000000	64.987277 
3780.000000	65.009140 
3779.000000	65.039086 
3778.000000	65.074539 
3777.000000	65.112137 
3776.000000	65.148305 
3775.000000	65.180420 
3774.000000	65.207028 
3773.000000	65.228223 
3772.000000	65.245437 
3771.000000	65.260767 
3770.000000	65.276050 
3769.000000	65.292119 
3768.000000	65.308475 
3767.000000	65.323305 
3766.000000	65.334033 
3765.000000	65.338397 
3764.000000	65.334987 
3763.000000	65.324163 
3762.000000	65.307903 
3761.000000	65.289545 
3760.000000	65.273118 
3759.000000	65.262055 
3758.000000	65.258693 
3757.000000	65.263676 
3756.000000	65.276002 
3755.000000	65.293574 
3754.000000	65.313768 
3753.000000	65.334343 
3752.000000	65.353584 
3751.000000	65.370535 
3750.000000	65.384769 
3749.000000	65.396022 
3748.000000	65.403795 
3747.000000	65.407323 
3746.000000	65.405774 
3745.000000	65.398740 
3744.000000	65.386509 
3743.000000	65.370345 
3742.000000	65.352153 
3741.000000	65.333962 
3740.000000	65.317344 
3739.000000	65.302801 
3738.000000	65.289330 
3737.000000	65.274930 
3736.000000	65.257024 
3735.000000	65.233635 
3734.000000	65.204143 
3733.000000	65.170073 
3732.000000	65.134763 
3731.000000	65.102815 
3730.000000	65.078735 
3729.000000	65.066051 
3728.000000	65.065813 
3727.000000	65.076899 
3726.000000	65.095996 
3725.000000	65.118885 
3724.000000	65.141272 
3723.000000	65.160202 
3722.000000	65.174293 
3721.000000	65.184164 
3720.000000	65.191578 
3719.000000	65.198945 
3718.000000	65.208363 
3717.000000	65.220928 
3716.000000	65.236639 
3715.000000	65.254378 
3714.000000	65.272331 
3713.000000	65.288662 
3712.000000	65.302014 
3711.000000	65.311694 
3710.000000	65.317606 
3709.000000	65.320324 
3708.000000	65.320658 
3707.000000	65.319228 
3706.000000	65.316438 
3705.000000	65.312576 
3704.000000	65.307784 
3703.000000	65.302562 
3702.000000	65.297341 
3701.000000	65.293025 
3700.000000	65.290355 
3699.000000	65.290188 
3698.000000	65.293002 
3697.000000	65.298700 
3696.000000	65.306925 
3695.000000	65.317058 
3694.000000	65.328454 
3693.000000	65.340495 
3692.000000	65.352702 
3691.000000	65.364789 
3690.000000	65.376448 
3689.000000	65.387272 
3688.000000	65.396714 
3687.000000	65.404009 
3686.000000	65.408468 
3685.000000	65.409493 
3684.000000	65.406918 
3683.000000	65.401077 
3682.000000	65.392827 
3681.000000	65.383338 
3680.000000	65.374112 
3679.000000	65.366458 
3678.000000	65.361285 
3677.000000	65.358757 
3676.000000	65.358424 
3675.000000	65.358948 
3674.000000	65.358805 
3673.000000	65.356159 
3672.000000	65.349435 
3671.000000	65.337800 
3670.000000	65.321063 
3669.000000	65.300512 
3668.000000	65.278553 
3667.000000	65.258622 
3666.000000	65.244293 
3665.000000	65.238547 
3664.000000	65.242981 
3663.000000	65.257358 
3662.000000	65.279579 
3661.000000	65.306162 
3660.000000	65.332984 
3659.000000	65.356206 
3658.000000	65.373253 
3657.000000	65.383052 
3656.000000	65.386295 
3655.000000	65.384912 
3654.000000	65.381431 
3653.000000	65.378355 
3652.000000	65.377283 
3651.000000	65.378904 
3650.000000	65.382575 
3649.000000	65.387105 
3648.000000	65.390610 
3647.000000	65.391469 
3646.000000	65.388226 
3645.000000	65.380048 
3644.000000	65.366816 
3643.000000	65.348792 
3642.000000	65.327239 
3641.000000	65.304255 
3640.000000	65.282773 
3639.000000	65.265989 
3638.000000	65.257000 
3637.000000	65.258169 
3636.000000	65.270638 
3635.000000	65.293765 
3634.000000	65.325379 
3633.000000	65.361976 
3632.000000	65.399384 
3631.000000	65.433359 
3630.000000	65.460395 
3629.000000	65.478157 
3628.000000	65.485405 
3627.000000	65.482115 
3626.000000	65.469503 
3625.000000	65.449666 
3624.000000	65.425157 
3623.000000	65.398693 
3622.000000	65.373158 
3621.000000	65.351057 
3620.000000	65.334653 
3619.000000	65.324950 
3618.000000	65.322017 
3617.000000	65.324592 
3616.000000	65.330243 
3615.000000	65.335893 
3614.000000	65.338349 
3613.000000	65.335321 
3612.000000	65.325760 
3611.000000	65.310502 
3610.000000	65.292024 
3609.000000	65.273857 
3608.000000	65.259742 
3607.000000	65.252494 
3606.000000	65.253329 
3605.000000	65.261125 
3604.000000	65.272903 
3603.000000	65.284299 
3602.000000	65.290665 
3601.000000	65.288162 
3600.000000	65.274763 
3599.000000	65.250778 
3598.000000	65.218782 
3597.000000	65.182781 
3596.000000	65.147399 
3595.000000	65.116858 
3594.000000	65.094184 
3593.000000	65.080785 
3592.000000	65.076398 
3591.000000	65.079808 
3590.000000	65.088963 
3589.000000	65.102052 
3588.000000	65.117263 
3587.000000	65.132784 
3586.000000	65.146970 
3585.000000	65.158176 
3584.000000	65.164875 
3583.000000	65.165662 
3582.000000	65.159845 
3581.000000	65.147876 
3580.000000	65.131497 
3579.000000	65.113496 
3578.000000	65.097355 
3577.000000	65.086603 
3576.000000	65.083789 
3575.000000	65.089893 
3574.000000	65.103960 
3573.000000	65.123438 
3572.000000	65.144944 
3571.000000	65.164804 
3570.000000	65.179967 
3569.000000	65.188550 
3568.000000	65.189766 
3567.000000	65.184116 
3566.000000	65.172624 
3565.000000	65.157318 
3564.000000	65.140295 
3563.000000	65.124368 
3562.000000	65.112400 
3561.000000	65.107226 
3560.000000	65.111327 
3559.000000	65.126299 
3558.000000	65.152430 
3557.000000	65.188479 
3556.000000	65.231633 
3555.000000	65.277910 
3554.000000	65.322756 
3553.000000	65.361738 
3552.000000	65.391254 
3551.000000	65.409183 
3550.000000	65.414881 
3549.000000	65.409016 
3548.000000	65.393090 
3547.000000	65.369153 
3546.000000	65.339303 
3545.000000	65.305662 
3544.000000	65.270018 
3543.000000	65.234375 
3542.000000	65.200591 
3541.000000	65.170073 
3540.000000	65.143632 
3539.000000	65.121340 
3538.000000	65.102624 
3537.000000	65.086221 
3536.000000	65.070939 
3535.000000	65.055727 
3534.000000	65.040469 
3533.000000	65.025544 
3532.000000	65.012383 
3531.000000	65.002751 
3530.000000	64.998507 
3529.000000	65.001082 
3528.000000	65.010786 
3527.000000	65.026450 
3526.000000	65.045595 
3525.000000	65.064811 
3524.000000	65.080428 
3523.000000	65.089225 
3522.000000	65.089535 
3521.000000	65.081787 
3520.000000	65.068268 
3519.000000	65.052986 
3518.000000	65.040493 
3517.000000	65.035104 
3516.000000	65.039920 
3515.000000	65.056228 
3514.000000	65.082955 
3513.000000	65.117454 
3512.000000	65.156197 
3511.000000	65.195608 
3510.000000	65.233159 
3509.000000	65.267252 
3508.000000	65.297651 
3507.000000	65.324568 
3506.000000	65.347981 
3505.000000	65.366959 
3504.000000	65.379667 
3503.000000	65.383553 
3502.000000	65.376448 
3501.000000	65.357065 
3500.000000	65.325927 
3499.000000	65.285253 
3498.000000	65.238857 
3497.000000	65.191197 
3496.000000	65.146732 
3495.000000	65.109348 
3494.000000	65.081787 
3493.000000	65.065431 
3492.000000	65.060448 
3491.000000	65.066075 
3490.000000	65.080738 
3489.000000	65.102243 
3488.000000	65.127849 
3487.000000	65.154314 
3486.000000	65.178394 
3485.000000	65.196633 
3484.000000	65.206384 
3483.000000	65.205955 
3482.000000	65.195226 
3481.000000	65.175390 
3480.000000	65.149044 
3479.000000	65.119528 
3478.000000	65.090298 
3477.000000	65.064048 
3476.000000	65.042662 
3475.000000	65.027070 
3474.000000	65.017199 
3473.000000	65.012502 
3472.000000	65.012001 
3471.000000	65.014505 
3470.000000	65.018868 
3469.000000	65.023970 
3468.000000	65.028882 
3467.000000	65.032935 
3466.000000	65.035772 
3465.000000	65.037584 
3464.000000	65.038681 
3463.000000	65.039491 
3462.000000	65.040755 
3461.000000	65.042901 
3460.000000	65.046048 
3459.000000	65.049767 
3458.000000	65.053200 
3457.000000	65.055274 
3456.000000	65.054965 
3455.000000	65.051412 
3454.000000	65.044522 
3453.000000	65.034723 
3452.000000	65.023040 
3451.000000	65.010833 
3450.000000	64.999556 
3449.000000	64.990401 
3448.000000	64.984178 
3447.000000	64.981174 
3446.000000	64.981245 
3445.000000	64.983820 
3444.000000	64.988040 
3443.000000	64.992928 
3442.000000	64.997696 
3441.000000	65.002059 
3440.000000	65.006208 
3439.000000	65.010762 
3438.000000	65.016531 
3437.000000	65.024399 
3436.000000	65.034914 
3435.000000	65.048003 
3434.000000	65.062952 
3433.000000	65.078711 
3432.000000	65.093874 
3431.000000	65.107131 
3430.000000	65.117573 
3429.000000	65.124797 
3428.000000	65.129280 
3427.000000	65.131998 
3426.000000	65.134310 
3425.000000	65.137672 
3424.000000	65.143442 
3423.000000	65.152406 
3422.000000	65.164828 
3421.000000	65.180206 
3420.000000	65.197420 
3419.000000	65.214943 
3418.000000	65.230727 
3417.000000	65.242457 
3416.000000	65.248107 
3415.000000	65.246152 
3414.000000	65.235996 
3413.000000	65.218019 
3412.000000	65.193915 
3411.000000	65.166139 
3410.000000	65.137600 
3409.000000	65.111088 
3408.000000	65.088653 
3407.000000	65.071296 
3406.000000	65.059256 
3405.000000	65.051913 
3404.000000	65.048241 
3403.000000	65.047240 
3402.000000	65.048170 
3401.000000	65.050864 
3400.000000	65.055203 
3399.000000	65.061306 
3398.000000	65.068840 
3397.000000	65.077400 
3396.000000	65.085887 
3395.000000	65.093302 
3394.000000	65.098810 
3393.000000	65.102243 
3392.000000	65.104126 
3391.000000	65.105652 
3390.000000	65.108299 
3389.000000	65.113282 
3388.000000	65.120935 
3387.000000	65.130591 
3386.000000	65.140485 
3385.000000	65.148162 
3384.000000	65.150880 
3383.000000	65.146350 
3382.000000	65.133333 
3381.000000	65.112257 
3380.000000	65.085077 
3379.000000	65.054965 
3378.000000	65.025758 
3377.000000	65.001320 
3376.000000	64.984774 
3375.000000	64.977622 
3374.000000	64.979767 
3373.000000	64.989757 
3372.000000	65.005016 
3371.000000	65.022563 
3370.000000	65.039682 
3369.000000	65.054225 
3368.000000	65.065002 
3367.000000	65.071606 
3366.000000	65.074348 
3365.000000	65.073800 
3364.000000	65.070581 
3363.000000	65.065288 
3362.000000	65.058541 
3361.000000	65.050935 
3360.000000	65.043377 
3359.000000	65.037012 
3358.000000	65.033245 
3357.000000	65.033459 
3356.000000	65.038609 
3355.000000	65.049028 
3354.000000	65.064120 
3353.000000	65.082836 
3352.000000	65.103483 
3351.000000	65.124368 
3350.000000	65.144157 
3349.000000	65.161800 
3348.000000	65.176463 
3347.000000	65.187644 
3346.000000	65.194940 
3345.000000	65.198183 
3344.000000	65.197134 
3343.000000	65.191888 
3342.000000	65.183305 
3341.000000	65.172839 
3340.000000	65.162730 
3339.000000	65.155315 
3338.000000	65.152931 
3337.000000	65.157079 
3336.000000	65.168118 
3335.000000	65.184998 
3334.000000	65.205454 
3333.000000	65.226554 
3332.000000	65.245366 
3331.000000	65.259671 
3330.000000	65.268230 
3329.000000	65.271139 
3328.000000	65.269494 
3327.000000	65.264797 
3326.000000	65.258574 
3325.000000	65.252017 
3324.000000	65.245628 
3323.000000	65.239548 
3322.000000	65.233588 
3321.000000	65.227842 
3320.000000	65.222549 
3319.000000	65.218400 
3318.000000	65.216398 
3317.000000	65.217447 
3316.000000	65.221977 
3315.000000	65.229415 
3314.000000	65.238571 
3313.000000	65.247535 
3312.000000	65.254092 
3311.000000	65.256476 
3310.000000	65.253520 
3309.000000	65.245151 
3308.000000	65.232276 
3307.000000	65.216469 
3306.000000	65.199565 
3305.000000	65.183138 
3304.000000	65.168309 
3303.000000	65.155434 
3302.000000	65.144181 
3301.000000	65.133786 
3300.000000	65.123414 
3299.000000	65.112948 
3298.000000	65.103173 
3297.000000	65.096020 
3296.000000	65.093612 
3295.000000	65.097975 
3294.000000	65.110111 
3293.000000	65.129423 
3292.000000	65.153551 
3291.000000	65.178775 
3290.000000	65.200638 
3289.000000	65.214896 
3288.000000	65.218734 
3287.000000	65.210962 
3286.000000	65.192174 
3285.000000	65.164685 
3284.000000	65.131735 
3283.000000	65.097117 
3282.000000	65.064239 
3281.000000	65.036201 
3280.000000	65.015053 
3279.000000	65.002155 
3278.000000	64.998006 
3277.000000	65.002346 
3276.000000	65.014123 
3275.000000	65.031290 
3274.000000	65.051126 
3273.000000	65.070056 
3272.000000	65.084815 
3271.000000	65.092515 
3270.000000	65.092062 
3269.000000	65.083718 
3268.000000	65.069770 
3267.000000	65.053582 
3266.000000	65.039396 
3265.000000	65.031147 
3264.000000	65.031814 
3263.000000	65.043234 
3262.000000	65.065383 
3261.000000	65.096664 
3260.000000	65.134024 
3259.000000	65.173482 
3258.000000	65.210580 
3257.000000	65.241241 
3256.000000	65.262246 
3255.000000	65.271759 
3254.000000	65.269827 
3253.000000	65.258193 
3252.000000	65.239858 
3251.000000	65.218186 
3250.000000	65.196681 
3249.000000	65.177917 
3248.000000	65.162682 
3247.000000	65.150117 
3246.000000	65.138125 
3245.000000	65.124249 
3244.000000	65.106678 
3243.000000	65.085005 
3242.000000	65.060424 
3241.000000	65.035676 
3240.000000	65.014052 
3239.000000	64.998602 
3238.000000	64.990758 
3237.000000	64.990663 
3236.000000	64.996790 
3235.000000	65.006875 
3234.000000	65.018534 
3233.000000	65.030288 
3232.000000	65.041971 
3231.000000	65.054583 
3230.000000	65.069627 
3229.000000	65.088629 
3228.000000	65.112352 
3227.000000	65.140295 
3226.000000	65.170645 
3225.000000	65.200972 
3224.000000	65.228867 
3223.000000	65.252780 
3222.000000	65.271973 
3221.000000	65.286946 
3220.000000	65.298771 
3219.000000	65.308570 
3218.000000	65.316963 
3217.000000	65.323901 
3216.000000	65.328645 
3215.000000	65.330505 
3214.000000	65.328645 
3213.000000	65.323162 
3212.000000	65.314388 
3211.000000	65.303564 
3210.000000	65.291714 
3209.000000	65.279626 
3208.000000	65.267229 
3207.000000	65.253782 
3206.000000	65.237998 
3205.000000	65.218710 
3204.000000	65.195345 
3203.000000	65.168547 
3202.000000	65.140128 
3201.000000	65.112709 
3200.000000	65.089130 
3199.000000	65.071344 
3198.000000	65.059971 
3197.000000	65.053987 
3196.000000	65.050792 
3195.000000	65.047025 
3194.000000	65.039491 
3193.000000	65.026164 
3192.000000	65.006804 
3191.000000	64.983272 
3190.000000	64.959001 
3189.000000	64.938211 
3188.000000	64.924788 
3187.000000	64.921140 
3186.000000	64.927554 
3185.000000	64.942145 
3184.000000	64.961218 
3183.000000	64.980435 
3182.000000	64.995718 
3181.000000	65.004396 
3180.000000	65.005803 
3179.000000	65.001106 
3178.000000	64.992809 
3177.000000	64.984178 
3176.000000	64.978003 
3175.000000	64.976143 
3174.000000	64.978933 
3173.000000	64.985442 
3172.000000	64.993929 
3171.000000	65.002560 
3170.000000	65.009856 
3169.000000	65.015244 
3168.000000	65.019249 
3167.000000	65.023255 
3166.000000	65.029048 
3165.000000	65.038228 
3164.000000	65.051746 
3163.000000	65.069746 
3162.000000	65.091204 
3161.000000	65.114283 
3160.000000	65.136504 
3159.000000	65.155124 
3158.000000	65.167808 
3157.000000	65.172982 
3156.000000	65.170359 
3155.000000	65.160965 
3154.000000	65.147185 
3153.000000	65.132284 
3152.000000	65.119767 
3151.000000	65.112686 
3150.000000	65.112757 
3149.000000	65.120029 
3148.000000	65.132904 
3147.000000	65.148687 
3146.000000	65.163946 
3145.000000	65.175580 
3144.000000	65.181517 
3143.000000	65.180969 
3142.000000	65.174722 
3141.000000	65.164613 
3140.000000	65.153002 
3139.000000	65.141892 
3138.000000	65.132641 
3137.000000	65.125441 
3136.000000	65.119528 
3135.000000	65.113568 
3134.000000	65.106344 
3133.000000	65.097427 
3132.000000	65.087389 
3131.000000	65.077924 
3130.000000	65.071463 
3129.000000	65.070414 
3128.000000	65.076565 
3127.000000	65.090394 
3126.000000	65.110588 
3125.000000	65.134310 
3124.000000	65.157485 
3123.000000	65.175795 
3122.000000	65.185499 
3121.000000	65.184211 
3120.000000	65.171408 
3119.000000	65.148448 
3118.000000	65.118312 
3117.000000	65.084934 
3116.000000	65.052771 
3115.000000	65.025711 
3114.000000	65.006709 
3113.000000	64.997482 
3112.000000	64.998507 
3111.000000	65.009093 
3110.000000	65.027785 
3109.000000	65.052437 
3108.000000	65.081048 
3107.000000	65.111374 
3106.000000	65.141558 
3105.000000	65.169715 
3104.000000	65.194416 
3103.000000	65.214562 
3102.000000	65.229535 
3101.000000	65.239405 
3100.000000	65.244770 
3099.000000	65.246725 
3098.000000	65.246343 
3097.000000	65.244626 
3096.000000	65.241765 
3095.000000	65.237593 
3094.000000	65.231180 
3093.000000	65.221405 
3092.000000	65.207242 
3091.000000	65.188241 
3090.000000	65.164756 
3089.000000	65.138101 
3088.000000	65.110397 
3087.000000	65.084123 
3086.000000	65.061688 
3085.000000	65.045142 
3084.000000	65.035843 
3083.000000	65.034365 
3082.000000	65.040469 
3081.000000	65.053224 
3080.000000	65.071320 
3079.000000	65.093135 
3078.000000	65.116810 
3077.000000	65.140295 
3076.000000	65.161371 
3075.000000	65.177941 
3074.000000	65.188384 
3073.000000	65.191841 
3072.000000	65.188217 
3071.000000	65.178298 
3070.000000	65.163779 
3069.000000	65.146803 
3068.000000	65.129637 
3067.000000	65.114116 
3066.000000	65.101456 
3065.000000	65.091896 
3064.000000	65.084862 
3063.000000	65.079164 
3062.000000	65.073442 
3061.000000	65.066576 
3060.000000	65.058159 
3059.000000	65.048599 
3058.000000	65.039348 
3057.000000	65.032458 
3056.000000	65.030312 
3055.000000	65.034818 
3054.000000	65.046930 
3053.000000	65.066552 
3052.000000	65.092086 
3051.000000	65.120530 
3050.000000	65.148091 
3049.000000	65.170860 
3048.000000	65.185618 
3047.000000	65.190529 
3046.000000	65.185403 
3045.000000	65.171790 
3044.000000	65.152454 
3043.000000	65.130901 
3042.000000	65.110349 
3041.000000	65.093159 
3040.000000	65.080356 
3039.000000	65.071725 
3038.000000	65.066146 
3037.000000	65.062069 
3036.000000	65.058016 
3035.000000	65.053129 
3034.000000	65.047264 
3033.000000	65.041327 
3032.000000	65.036535 
3031.000000	65.034461 
3030.000000	65.035939 
3029.000000	65.041589 
3028.000000	65.051221 
3027.000000	65.064287 
3026.000000	65.079760 
3025.000000	65.096569 
3024.000000	65.113878 
3023.000000	65.131139 
3022.000000	65.148091 
3021.000000	65.164399 
3020.000000	65.179848 
3019.000000	65.193986 
3018.000000	65.206050 
3017.000000	65.215158 
3016.000000	65.220499 
3015.000000	65.221500 
3014.000000	65.218138 
3013.000000	65.210914 
3012.000000	65.201067 
3011.000000	65.190291 
3010.000000	65.180659 
3009.000000	65.174031 
3008.000000	65.171694 
3007.000000	65.174174 
3006.000000	65.180873 
3005.000000	65.190219 
3004.000000	65.199613 
3003.000000	65.206217 
3002.000000	65.207242 
3001.000000	65.200591 
3000.000000	65.185475 
2999.000000	65.162444 
2998.000000	65.133428 
2997.000000	65.101766 
2996.000000	65.071153 
2995.000000	65.045142 
2994.000000	65.026068 
2993.000000	65.015077 
2992.000000	65.011596 
2991.000000	65.013647 
2990.000000	65.018558 
2989.000000	65.023875 
2988.000000	65.027928 
2987.000000	65.030074 
2986.000000	65.030884 
2985.000000	65.031576 
2984.000000	65.033531 
2983.000000	65.037703 
2982.000000	65.044355 
2981.000000	65.052962 
2980.000000	65.062427 
2979.000000	65.071654 
2978.000000	65.079903 
2977.000000	65.086936 
2976.000000	65.093231 
2975.000000	65.099358 
2974.000000	65.105676 
2973.000000	65.111804 
2972.000000	65.116548 
2971.000000	65.118265 
2970.000000	65.115189 
2969.000000	65.106081 
2968.000000	65.090799 
2967.000000	65.070128 
2966.000000	65.045905 
2965.000000	65.020394 
2964.000000	64.995884 
2963.000000	64.974212 
2962.000000	64.956378 
2961.000000	64.942789 
2960.000000	64.933466 
2959.000000	64.928150 
2958.000000	64.926528 
2957.000000	64.928317 
2956.000000	64.933252 
2955.000000	64.941072 
2954.000000	64.951348 
2953.000000	64.963269 
2952.000000	64.975905 
2951.000000	64.988350 
2950.000000	65.000057 
2949.000000	65.010833 
2948.000000	65.020799 
2947.000000	65.030360 
2946.000000	65.039825 
2945.000000	65.049076 
2944.000000	65.057420 
2943.000000	65.063858 
2942.000000	65.067172 
2941.000000	65.066361 
2940.000000	65.060830 
2939.000000	65.050625 
2938.000000	65.036749 
2937.000000	65.021038 
2936.000000	65.005755 
2935.000000	64.993309 
2934.000000	64.985847 
2933.000000	64.984798 
2932.000000	64.990448 
2931.000000	65.001678 
2930.000000	65.016126 
2929.000000	65.030789 
2928.000000	65.042376 
2927.000000	65.048027 
2926.000000	65.046048 
2925.000000	65.036177 
2924.000000	65.019607 
2923.000000	64.998579 
2922.000000	64.975905 
2921.000000	64.954113 
2920.000000	64.934945 
2919.000000	64.918899 
2918.000000	64.905166 
2917.000000	64.892387 
2916.000000	64.879298 
2915.000000	64.865303 
2914.000000	64.851117 
2913.000000	64.838647 
2912.000000	64.830541 
2911.000000	64.829564 
2910.000000	64.837574 
2909.000000	64.855098 
2908.000000	64.880466 
2907.000000	64.910316 
2906.000000	64.940333 
2905.000000	64.965891 
2904.000000	64.983367 
2903.000000	64.990878 
2902.000000	64.988684 
2901.000000	64.979195 
2900.000000	64.966297 
2899.000000	64.954376 
2898.000000	64.947199 
2897.000000	64.947390 
2896.000000	64.955425 
2895.000000	64.969992 
2894.000000	64.988160 
2893.000000	65.006017 
2892.000000	65.019845 
2891.000000	65.026807 
2890.000000	65.025901 
2889.000000	65.017724 
2888.000000	65.004897 
2887.000000	64.991092 
2886.000000	64.980554 
2885.000000	64.977002 
2884.000000	64.982914 
2883.000000	64.999103 
2882.000000	65.024590 
2881.000000	65.056729 
2880.000000	65.091776 
2879.000000	65.125656 
2878.000000	65.154623 
2877.000000	65.175724 
2876.000000	65.187287 
2875.000000	65.188789 
2874.000000	65.180897 
2873.000000	65.164971 
2872.000000	65.142965 
2871.000000	65.117025 
2870.000000	65.089511 
2869.000000	65.062785 
2868.000000	65.039253 
2867.000000	65.021157 
2866.000000	65.010404 
2865.000000	65.008306 
2864.000000	65.015292 
2863.000000	65.030789 
2862.000000	65.053391 
2861.000000	65.080928 
2860.000000	65.110492 
2859.000000	65.139102 
2858.000000	65.164113 
2857.000000	65.183424 
2856.000000	65.195655 
2855.000000	65.200138 
2854.000000	65.197062 
2853.000000	65.187263 
2852.000000	65.172123 
2851.000000	65.153694 
2850.000000	65.134477 
2849.000000	65.117192 
2848.000000	65.104317 
2847.000000	65.098023 
2846.000000	65.099501 
2845.000000	65.108656 
2844.000000	65.124082 
2843.000000	65.143275 
2842.000000	65.163135 
2841.000000	65.180754 
2840.000000	65.193939 
2839.000000	65.201711 
2838.000000	65.204358 
2837.000000	65.203523 
2836.000000	65.201258 
2835.000000	65.199637 
2834.000000	65.199661 
2833.000000	65.201330 
2832.000000	65.203261 
2831.000000	65.203475 
2830.000000	65.199589 
2829.000000	65.190005 
2828.000000	65.173888 
2827.000000	65.151906 
2826.000000	65.125846 
2825.000000	65.098237 
2824.000000	65.071868 
2823.000000	65.049147 
2822.000000	65.031766 
2821.000000	65.020537 
2820.000000	65.015387 
2819.000000	65.015864 
2818.000000	65.021061 
2817.000000	65.030121 
2816.000000	65.042066 
2815.000000	65.056133 
2814.000000	65.071320 
2813.000000	65.086722 
2812.000000	65.101408 
2811.000000	65.114760 
2810.000000	65.126419 
2809.000000	65.136098 
2808.000000	65.143799 
2807.000000	65.149664 
2806.000000	65.153741 
2805.000000	65.155935 
2804.000000	65.156340 
2803.000000	65.154862 
2802.000000	65.151667 
2801.000000	65.146946 
2800.000000	65.141081 
2799.000000	65.134477 
2798.000000	65.127587 
2797.000000	65.120744 
2796.000000	65.114331 
2795.000000	65.108537 
2794.000000	65.103578 
2793.000000	65.099453 
2792.000000	65.096235 
2791.000000	65.093731 
2790.000000	65.091991 
2789.000000	65.090775 
2788.000000	65.090084 
2787.000000	65.089678 
2786.000000	65.089869 
2785.000000	65.090870 
2784.000000	65.093255 
2783.000000	65.097546 
2782.000000	65.103912 
2781.000000	65.111923 
2780.000000	65.120267 
2779.000000	65.127110 
2778.000000	65.130257 
2777.000000	65.127539 
2776.000000	65.117526 
2775.000000	65.099978 
2774.000000	65.075993 
2773.000000	65.048122 
2772.000000	65.019583 
2771.000000	64.993834 
2770.000000	64.973688 
2769.000000	64.960741 
2768.000000	64.955258 
2767.000000	64.956116 
2766.000000	64.961385 
2765.000000	64.968967 
2764.000000	64.976906 
2763.000000	64.984107 
2762.000000	64.990043 
2761.000000	64.994978 
2760.000000	64.999175 
2759.000000	65.003418 
2758.000000	65.008354 
2757.000000	65.014624 
2756.000000	65.023016 
2755.000000	65.034008 
2754.000000	65.048265 
2753.000000	65.065789 
2752.000000	65.086221 
2751.000000	65.108275 
2750.000000	65.129995 
2749.000000	65.148925 
2748.000000	65.162682 
2747.000000	65.169382 
2746.000000	65.168285 
2745.000000	65.159869 
2744.000000	65.146064 
2743.000000	65.129637 
2742.000000	65.113735 
2741.000000	65.101003 
2740.000000	65.093016 
2739.000000	65.090155 
2738.000000	65.091657 
2737.000000	65.095901 
2736.000000	65.101099 
2735.000000	65.105652 
2734.000000	65.108466 
2733.000000	65.109300 
2732.000000	65.108561 
2731.000000	65.106892 
2730.000000	65.105032 
2729.000000	65.103459 
2728.000000	65.102410 
2727.000000	65.101814 
2726.000000	65.101575 
2725.000000	65.101671 
2724.000000	65.102338 
2723.000000	65.103960 
2722.000000	65.106940 
2721.000000	65.111422 
2720.000000	65.117073 
2719.000000	65.122938 
2718.000000	65.127468 
2717.000000	65.128707 
2716.000000	65.124678 
2715.000000	65.114045 
2714.000000	65.096259 
2713.000000	65.071940 
2712.000000	65.042996 
2711.000000	65.012288 
2710.000000	64.983248 
2709.000000	64.959430 
2708.000000	64.943718 
2707.000000	64.938187 
2706.000000	64.943504 
2705.000000	64.959073 
2704.000000	64.982986 
2703.000000	65.012550 
2702.000000	65.044498 
2701.000000	65.075731 
2700.000000	65.103292 
2699.000000	65.125417 
2698.000000	65.141057 
2697.000000	65.150475 
2696.000000	65.154719 
2695.000000	65.155434 
2694.000000	65.154576 
2693.000000	65.153861 
2692.000000	65.154480 
2691.000000	65.156888 
2690.000000	65.160989 
2689.000000	65.165996 
2688.000000	65.170788 
2687.000000	65.174412 
2686.000000	65.176296 
2685.000000	65.176391 
2684.000000	65.175008 
2683.000000	65.172863 
2682.000000	65.170669 
2681.000000	65.168833 
2680.000000	65.167546 
2679.000000	65.166521 
2678.000000	65.165257 
2677.000000	65.163326 
2676.000000	65.160584 
2675.000000	65.157389 
2674.000000	65.154480 
2673.000000	65.152955 
2672.000000	65.153717 
2671.000000	65.157151 
2670.000000	65.162992 
2669.000000	65.170264 
2668.000000	65.177392 
2667.000000	65.182662 
2666.000000	65.184783 
2665.000000	65.183329 
2664.000000	65.179109 
2663.000000	65.173697 
2662.000000	65.169167 
2661.000000	65.167284 
2660.000000	65.168976 
2659.000000	65.173888 
2658.000000	65.180397 
2657.000000	65.185737 
2656.000000	65.186882 
2655.000000	65.181183 
2654.000000	65.167117 
2653.000000	65.144872 
2652.000000	65.116143 
2651.000000	65.084099 
2650.000000	65.052485 
2649.000000	65.025281 
2648.000000	65.005660 
2647.000000	64.995431 
2646.000000	64.995265 
2645.000000	65.004086 
2644.000000	65.019869 
2643.000000	65.039706 
2642.000000	65.060520 
2641.000000	65.079498 
2640.000000	65.094375 
2639.000000	65.103960 
2638.000000	65.108108 
2637.000000	65.107774 
2636.000000	65.104460 
2635.000000	65.100073 
2634.000000	65.096282 
2633.000000	65.094327 
2632.000000	65.094637 
2631.000000	65.096950 
2630.000000	65.100455 
2629.000000	65.104126 
2628.000000	65.107035 
2627.000000	65.108489 
2626.000000	65.108036 
2625.000000	65.105509 
2624.000000	65.100955 
2623.000000	65.094470 
2622.000000	65.086197 
2621.000000	65.076303 
2620.000000	65.065026 
2619.000000	65.052890 
2618.000000	65.040564 
2617.000000	65.029191 
2616.000000	65.019941 
2615.000000	65.013718 
2614.000000	65.011191 
2613.000000	65.012311 
2612.000000	65.016174 
2611.000000	65.021467 
2610.000000	65.026640 
2609.000000	65.030217 
2608.000000	65.031385 
2607.000000	65.030193 
2606.000000	65.027570 
2605.000000	65.025091 
2604.000000	65.024662 
2603.000000	65.027976 
2602.000000	65.036010 
2601.000000	65.048956 
2600.000000	65.065956 
2599.000000	65.085291 
2598.000000	65.104913 
2597.000000	65.122652 
2596.000000	65.136599 
2595.000000	65.145230 
2594.000000	65.147852 
2593.000000	65.144419 
2592.000000	65.135478 
2591.000000	65.122103 
2590.000000	65.105819 
2589.000000	65.088486 
2588.000000	65.072059 
2587.000000	65.058326 
2586.000000	65.048933 
2585.000000	65.044975 
2584.000000	65.046715 
2583.000000	65.053677 
2582.000000	65.064525 
2581.000000	65.077352 
2580.000000	65.089964 
2579.000000	65.100240 
2578.000000	65.106630 
2577.000000	65.108466 
2576.000000	65.106177 
2575.000000	65.101170 
2574.000000	65.095424 
2573.000000	65.091323 
2572.000000	65.090823 
2571.000000	65.095353 
2570.000000	65.105295 
2569.000000	65.119981 
2568.000000	65.137958 
2567.000000	65.156936 
2566.000000	65.174436 
2565.000000	65.188288 
2564.000000	65.196633 
2563.000000	65.198421 
2562.000000	65.193486 
2561.000000	65.182518 
2560.000000	65.166831 
2559.000000	65.148377 
2558.000000	65.129184 
2557.000000	65.111184 
2556.000000	65.095853 
2555.000000	65.084147 
2554.000000	65.076470 
2553.000000	65.072703 
2552.000000	65.072226 
2551.000000	65.074133 
2550.000000	65.077638 
2549.000000	65.081954 
2548.000000	65.086412 
2547.000000	65.090441 
2546.000000	65.093469 
2545.000000	65.095067 
2544.000000	65.094757 
2543.000000	65.092229 
2542.000000	65.087580 
2541.000000	65.081381 
2540.000000	65.074634 
2539.000000	65.068578 
2538.000000	65.064525 
2537.000000	65.063357 
2536.000000	65.065264 
2535.000000	65.069699 
2534.000000	65.075492 
2533.000000	65.081000 
2532.000000	65.084719 
2531.000000	65.085291 
2530.000000	65.081930 
2529.000000	65.074467 
2528.000000	65.063524 
2527.000000	65.049982 
2526.000000	65.034914 
2525.000000	65.019392 
2524.000000	65.004420 
2523.000000	64.990758 
2522.000000	64.979147 
2521.000000	64.970326 
2520.000000	64.965057 
2519.000000	64.963889 
2518.000000	64.967036 
2517.000000	64.974141 
2516.000000	64.984464 
2515.000000	64.996647 
2514.000000	65.009188 
2513.000000	65.020275 
2512.000000	65.028548 
2511.000000	65.033173 
2510.000000	65.034079 
2509.000000	65.031790 
2508.000000	65.027689 
2507.000000	65.023708 
2506.000000	65.022087 
2505.000000	65.024781 
2504.000000	65.033125 
2503.000000	65.047693 
2502.000000	65.067839 
2501.000000	65.091943 
2500.000000	65.117740 
2499.000000	65.142703 
2498.000000	65.164566 
2497.000000	65.181875 
2496.000000	65.194368 
2495.000000	65.202903 
2494.000000	65.209412 
2493.000000	65.216207 
2492.000000	65.225148 
2491.000000	65.236997 
2490.000000	65.251350 
2489.000000	65.266442 
2488.000000	65.279769 
2487.000000	65.288424 
2486.000000	65.290284 
2485.000000	65.284037 
2484.000000	65.269827 
2483.000000	65.248942 
2482.000000	65.223598 
2481.000000	65.196442 
2480.000000	65.170121 
2479.000000	65.146708 
2478.000000	65.127468 
2477.000000	65.112662 
2476.000000	65.101695 
2475.000000	65.093278 
2474.000000	65.085792 
2473.000000	65.077853 
2472.000000	65.068507 
2471.000000	65.057563 
2470.000000	65.045571 
2469.000000	65.034031 
2468.000000	65.024924 
2467.000000	65.020227 
2466.000000	65.021419 
2465.000000	65.029025 
2464.000000	65.042400 
2463.000000	65.059590 
2462.000000	65.078067 
2461.000000	65.095162 
2460.000000	65.108799 
2459.000000	65.117907 
2458.000000	65.122556 
2457.000000	65.123891 
2456.000000	65.123605 
2455.000000	65.123319 
2454.000000	65.124011 
2453.000000	65.125918 
2452.000000	65.128231 
2451.000000	65.129804 
2450.000000	65.129256 
2449.000000	65.125513 
2448.000000	65.118241 
2447.000000	65.108156 
2446.000000	65.096688 
2445.000000	65.085744 
2444.000000	65.077233 
2443.000000	65.072751 
2442.000000	65.073299 
2441.000000	65.079021 
2440.000000	65.089321 
2439.000000	65.102863 
2438.000000	65.117716 
2437.000000	65.131545 
2436.000000	65.141916 
2435.000000	65.146660 
2434.000000	65.144181 
2433.000000	65.133881 
2432.000000	65.116238 
2431.000000	65.092778 
2430.000000	65.066051 
2429.000000	65.039181 
2428.000000	65.015220 
2427.000000	64.996862 
2426.000000	64.986014 
2425.000000	64.983510 
2424.000000	64.988994 
2423.000000	65.001130 
2422.000000	65.018081 
2421.000000	65.037775 
2420.000000	65.058159 
2419.000000	65.077614 
2418.000000	65.095090 
2417.000000	65.109920 
2416.000000	65.121793 
2415.000000	65.130615 
2414.000000	65.136337 
2413.000000	65.138936 
2412.000000	65.138387 
2411.000000	65.134644 
2410.000000	65.127611 
2409.000000	65.117502 
2408.000000	65.104889 
2407.000000	65.090894 
2406.000000	65.076947 
2405.000000	65.064644 
2404.000000	65.055680 
2403.000000	65.051102 
2402.000000	65.051269 
2401.000000	65.055489 
2400.000000	65.062475 
2399.000000	65.070223 
2398.000000	65.076756 
2397.000000	65.080523 
2396.000000	65.080666 
2395.000000	65.077280 
2394.000000	65.071320 
2393.000000	65.064167 
2392.000000	65.057158 
2391.000000	65.051245 
2390.000000	65.046596 
2389.000000	65.042829 
2388.000000	65.039253 
2387.000000	65.035152 
2386.000000	65.030384 
2385.000000	65.025377 
2384.000000	65.021252 
2383.000000	65.019631 
2382.000000	65.021967 
2381.000000	65.029120 
2380.000000	65.041184 
2379.000000	65.057015 
2378.000000	65.074777 
2377.000000	65.091967 
2376.000000	65.106129 
2375.000000	65.115284 
2374.000000	65.118145 
2373.000000	65.114617 
2372.000000	65.105581 
2371.000000	65.092825 
2370.000000	65.078520 
2369.000000	65.065097 
2368.000000	65.054941 
2367.000000	65.050053 
2366.000000	65.051698 
2365.000000	65.060114 
2364.000000	65.074634 
2363.000000	65.093421 
2362.000000	65.113973 
2361.000000	65.133333 
2360.000000	65.148711 
2359.000000	65.158057 
2358.000000	65.160417 
2357.000000	65.156221 
2356.000000	65.147113 
2355.000000	65.135502 
2354.000000	65.123939 
2353.000000	65.114545 
2352.000000	65.108346 
2351.000000	65.105152 
2350.000000	65.103626 
2349.000000	65.101766 
2348.000000	65.097475 
2347.000000	65.089178 
2346.000000	65.076184 
2345.000000	65.058970 
2344.000000	65.038895 
2343.000000	65.017890 
2342.000000	64.998030 
2341.000000	64.981079 
2340.000000	64.968252 
2339.000000	64.960122 
2338.000000	64.956855 
2337.000000	64.958143 
2336.000000	64.963650 
2335.000000	64.972758 
2334.000000	64.984703 
2333.000000	64.998459 
2332.000000	65.012383 
2331.000000	65.024614 
2330.000000	65.033173 
2329.000000	65.036225 
2328.000000	65.032625 
2327.000000	65.022110 
2326.000000	65.005397 
2325.000000	64.984226 
2324.000000	64.960885 
2323.000000	64.937853 
2322.000000	64.917302 
2321.000000	64.900994 
2320.000000	64.889717 
2319.000000	64.883732 
2318.000000	64.882683 
2317.000000	64.886021 
2316.000000	64.892935 
2315.000000	64.902710 
2314.000000	64.914464 
2313.000000	64.927363 
2312.000000	64.940261 
2311.000000	64.951848 
2310.000000	64.960813 
2309.000000	64.966130 
2308.000000	64.967179 
2307.000000	64.964151 
2306.000000	64.957976 
2305.000000	64.950203 
2304.000000	64.942550 
2303.000000	64.936876 
2302.000000	64.934325 
2301.000000	64.935350 
2300.000000	64.939451 
2299.000000	64.945459 
2298.000000	64.951872 
2297.000000	64.957165 
2296.000000	64.960289 
2295.000000	64.960813 
2294.000000	64.958810 
2293.000000	64.954972 
2292.000000	64.950108 
2291.000000	64.944672 
2290.000000	64.938855 
2289.000000	64.932465 
2288.000000	64.925074 
2287.000000	64.916181 
2286.000000	64.905762 
2285.000000	64.894127 
2284.000000	64.882206 
2283.000000	64.871096 
2282.000000	64.861989 
2281.000000	64.855599 
2280.000000	64.852190 
2279.000000	64.851403 
2278.000000	64.852190 
2277.000000	64.853429 
2276.000000	64.853835 
2275.000000	64.852619 
2274.000000	64.849448 
2273.000000	64.844608 
2272.000000	64.838910 
2271.000000	64.833593 
2270.000000	64.829754 
2269.000000	64.828610 
2268.000000	64.830827 
2267.000000	64.836740 
2266.000000	64.846205 
2265.000000	64.858651 
2264.000000	64.873194 
2263.000000	64.888763 
2262.000000	64.904260 
2261.000000	64.918780 
2260.000000	64.931797 
2259.000000	64.943051 
2258.000000	64.952802 
2257.000000	64.961457 
2256.000000	64.969515 
2255.000000	64.977455 
2254.000000	64.985418 
2253.000000	64.993286 
2252.000000	65.000605 
2251.000000	65.006899 
2250.000000	65.011739 
2249.000000	65.015029 
2248.000000	65.016889 
2247.000000	65.017771 
2246.000000	65.018296 
2245.000000	65.018916 
2244.000000	65.019941 
2243.000000	65.021181 
2242.000000	65.022182 
2241.000000	65.022158 
2240.000000	65.020346 
2239.000000	65.016436 
2238.000000	65.010404 
2237.000000	65.002822 
2236.000000	64.994406 
2235.000000	64.986085 
2234.000000	64.978575 
2233.000000	64.972305 
2232.000000	64.967036 
2231.000000	64.962196 
2230.000000	64.957022 
2229.000000	64.950942 
2228.000000	64.943790 
2227.000000	64.936041 
2226.000000	64.928841 
2225.000000	64.923739 
2224.000000	64.922237 
2223.000000	64.925217 
2222.000000	64.932656 
2221.000000	64.943432 
2220.000000	64.955234 
2219.000000	64.965462 
2218.000000	64.971494 
2217.000000	64.971804 
2216.000000	64.966058 
2215.000000	64.955449 
2214.000000	64.942169 
2213.000000	64.928984 
2212.000000	64.918494 
2211.000000	64.912390 
2210.000000	64.911031 
2209.000000	64.913463 
2208.000000	64.917850 
2207.000000	64.922237 
2206.000000	64.925026 
2205.000000	64.925718 
2204.000000	64.924931 
2203.000000	64.924025 
2202.000000	64.924764 
2201.000000	64.928603 
2200.000000	64.936017 
2199.000000	64.946460 
2198.000000	64.958167 
2197.000000	64.968872 
2196.000000	64.976263 
2195.000000	64.978480 
2194.000000	64.974570 
2193.000000	64.964628 
2192.000000	64.949917 
2191.000000	64.932489 
2190.000000	64.914870 
2189.000000	64.899277 
2188.000000	64.887499 
2187.000000	64.880514 
2186.000000	64.878535 
2185.000000	64.880919 
2184.000000	64.886426 
2183.000000	64.893674 
2182.000000	64.901423 
2181.000000	64.908480 
2180.000000	64.914202 
2179.000000	64.918065 
2178.000000	64.920067 
2177.000000	64.920330 
2176.000000	64.919209 
2175.000000	64.917135 
2174.000000	64.914727 
2173.000000	64.912652 
2172.000000	64.911794 
2171.000000	64.912986 
2170.000000	64.916968 
2169.000000	64.923739 
2168.000000	64.932537 
2167.000000	64.941620 
2166.000000	64.948391 
2165.000000	64.950132 
2164.000000	64.944529 
2163.000000	64.930200 
2162.000000	64.907431 
2161.000000	64.877772 
2160.000000	64.843964 
2159.000000	64.809012 
2158.000000	64.775824 
2157.000000	64.746594 
2156.000000	64.722275 
2155.000000	64.703106 
2154.000000	64.688611 
2153.000000	64.678740 
2152.000000	64.673590 
2151.000000	64.674139 
2150.000000	64.681625 
2149.000000	64.697074 
2148.000000	64.720678 
2147.000000	64.751243 
2146.000000	64.786171 
2145.000000	64.821791 
2144.000000	64.854049 
2143.000000	64.879441 
2142.000000	64.895749 
2141.000000	64.902234 
2140.000000	64.899849 
2139.000000	64.890742 
2138.000000	64.877915 
2137.000000	64.864587 
2136.000000	64.853692 
2135.000000	64.847517 
2134.000000	64.847517 
2133.000000	64.854264 
2132.000000	64.867472 
2131.000000	64.886116 
2130.000000	64.908719 
2129.000000	64.933371 
2128.000000	64.958047 
2127.000000	64.980745 
2126.000000	64.999651 
2125.000000	65.013432 
2124.000000	65.021347 
2123.000000	65.023469 
2122.000000	65.020537 
2121.000000	65.013861 
2120.000000	65.005111 
2119.000000	64.996075 
2118.000000	64.988374 
2117.000000	64.983105 
2116.000000	64.980864 
2115.000000	64.981484 
2114.000000	64.983963 
2113.000000	64.986848 
2112.000000	64.988398 
2111.000000	64.986944 
2110.000000	64.981722 
2109.000000	64.972758 
2108.000000	64.961075 
2107.000000	64.948201 
2106.000000	64.935755 
2105.000000	64.925098 
2104.000000	64.916682 
2103.000000	64.910078 
2102.000000	64.904022 
2101.000000	64.896821 
2100.000000	64.886975 
2099.000000	64.873600 
2098.000000	64.856719 
2097.000000	64.837360 
2096.000000	64.817285 
2095.000000	64.798545 
2094.000000	64.783096 
2093.000000	64.772367 
2092.000000	64.766860 
2091.000000	64.766311 
2090.000000	64.770030 
2089.000000	64.777016 
2088.000000	64.786314 
2087.000000	64.797139 
2086.000000	64.808917 
2085.000000	64.821195 
2084.000000	64.833569 
2083.000000	64.845490 
2082.000000	64.856195 
2081.000000	64.864969 
2080.000000	64.871191 
2079.000000	64.874482 
2078.000000	64.874887 
2077.000000	64.873027 
2076.000000	64.870047 
2075.000000	64.867258 
2074.000000	64.865946 
2073.000000	64.867115 
2072.000000	64.871215 
2071.000000	64.877915 
2070.000000	64.886260 
2069.000000	64.894914 
2068.000000	64.902329 
2067.000000	64.907050 
2066.000000	64.908099 
2065.000000	64.905214 
2064.000000	64.899063 
2063.000000	64.890885 
2062.000000	64.882493 
2061.000000	64.875674 
2060.000000	64.871716 
2059.000000	64.871263 
2058.000000	64.873981 
2057.000000	64.878964 
2056.000000	64.885258 
2055.000000	64.892196 
2054.000000	64.899611 
2053.000000	64.908027 
2052.000000	64.918231 
2051.000000	64.930891 
2050.000000	64.946174 
2049.000000	64.963316 
2048.000000	64.980888 
2047.000000	64.996743 
2046.000000	65.008831 
2045.000000	65.015459 
2044.000000	65.015840 
2043.000000	65.010309 
2042.000000	65.000319 
2041.000000	64.987969 
2040.000000	64.975571 
2039.000000	64.965009 
2038.000000	64.957618 
2037.000000	64.953970 
2036.000000	64.953875 
2035.000000	64.956808 
2034.000000	64.962053 
2033.000000	64.968872 
2032.000000	64.976668 
2031.000000	64.984893 
2030.000000	64.992880 
2029.000000	64.999818 
2028.000000	65.004801 
2027.000000	65.006709 
2026.000000	65.004611 
2025.000000	64.997816 
2024.000000	64.986133 
2023.000000	64.970064 
2022.000000	64.950919 
2021.000000	64.930868 
2020.000000	64.912319 
2019.000000	64.897704 
2018.000000	64.888930 
2017.000000	64.886951 
2016.000000	64.891624 
2015.000000	64.901518 
2014.000000	64.914464 
2013.000000	64.927959 
2012.000000	64.939594 
2011.000000	64.947748 
2010.000000	64.951634 
2009.000000	64.951539 
2008.000000	64.948511 
2007.000000	64.943957 
2006.000000	64.939141 
2005.000000	64.934825 
2004.000000	64.931178 
2003.000000	64.927816 
2002.000000	64.924192 
2001.000000	64.919686 
2000.000000	64.914274 
1999.000000	64.908313 
1998.000000	64.902520 
1997.000000	64.898014 
1996.000000	64.895606 
1995.000000	64.895915 
1994.000000	64.899158 
1993.000000	64.904880 
1992.000000	64.912390 
1991.000000	64.920544 
1990.000000	64.928102 
1989.000000	64.933800 
1988.000000	64.936518 
1987.000000	64.935564 
1986.000000	64.930605 
1985.000000	64.921998 
1984.000000	64.910793 
1983.000000	64.898467 
1982.000000	64.886832 
1981.000000	64.877700 
1980.000000	64.872598 
1979.000000	64.872360 
1978.000000	64.876937 
1977.000000	64.885401 
1976.000000	64.896082 
1975.000000	64.906954 
1974.000000	64.916181 
1973.000000	64.922571 
1972.000000	64.925718 
1971.000000	64.926242 
1970.000000	64.925551 
1969.000000	64.925408 
1968.000000	64.927434 
1967.000000	64.932537 
1966.000000	64.940834 
1965.000000	64.951491 
1964.000000	64.962911 
1963.000000	64.973282 
1962.000000	64.980959 
1961.000000	64.985132 
1960.000000	64.986014 
1959.000000	64.984774 
1958.000000	64.983129 
1957.000000	64.982795 
1956.000000	64.984846 
1955.000000	64.989209 
1954.000000	64.994597 
1953.000000	64.998912 
1952.000000	64.999842 
1951.000000	64.995551 
1950.000000	64.985322 
1949.000000	64.969992 
1948.000000	64.951562 
1947.000000	64.932775 
1946.000000	64.916539 
1945.000000	64.904975 
1944.000000	64.898920 
1943.000000	64.897990 
1942.000000	64.900588 
1941.000000	64.904451 
1940.000000	64.907383 
1939.000000	64.907622 
1938.000000	64.904403 
1937.000000	64.897847 
1936.000000	64.889001 
1935.000000	64.879131 
1934.000000	64.869523 
1933.000000	64.861083 
1932.000000	64.854359 
1931.000000	64.849519 
1930.000000	64.846372 
1929.000000	64.844727 
1928.000000	64.844322 
1927.000000	64.845013 
1926.000000	64.846682 
1925.000000	64.849209 
1924.000000	64.852499 
1923.000000	64.856433 
1922.000000	64.861106 
1921.000000	64.866638 
1920.000000	64.873337 
1919.000000	64.881753 
1918.000000	64.892244 
1917.000000	64.905095 
1916.000000	64.920067 
1915.000000	64.936470 
1914.000000	64.952969 
1913.000000	64.967894 
1912.000000	64.979577 
1911.000000	64.986562 
1910.000000	64.988064 
1909.000000	64.984202 
1908.000000	64.975929 
1907.000000	64.964795 
1906.000000	64.952611 
1905.000000	64.941000 
1904.000000	64.931106 
1903.000000	64.923524 
1902.000000	64.918088 
1901.000000	64.914178 
1900.000000	64.911246 
1899.000000	64.908957 
1898.000000	64.907550 
1897.000000	64.907670 
1896.000000	64.910078 
1895.000000	64.915537 
1894.000000	64.924359 
1893.000000	64.935970 
1892.000000	64.949131 
1891.000000	64.961791 
1890.000000	64.971780 
1889.000000	64.976954 
1888.000000	64.976024 
1887.000000	64.968562 
1886.000000	64.955019 
1885.000000	64.936661 
1884.000000	64.915323 
1883.000000	64.892911 
1882.000000	64.871263 
1881.000000	64.851951 
1880.000000	64.836120 
1879.000000	64.824700 
1878.000000	64.818525 
1877.000000	64.818263 
1876.000000	64.824438 
1875.000000	64.837145 
1874.000000	64.855813 
1873.000000	64.879131 
1872.000000	64.904952 
1871.000000	64.930510 
1870.000000	64.952754 
1869.000000	64.968729 
1868.000000	64.976286 
1867.000000	64.974403 
1866.000000	64.963507 
1865.000000	64.945197 
1864.000000	64.922094 
1863.000000	64.897370 
1862.000000	64.874029 
1861.000000	64.854645 
1860.000000	64.840841 
1859.000000	64.833378 
1858.000000	64.831852 
1857.000000	64.835143 
1856.000000	64.841628 
1855.000000	64.849448 
1854.000000	64.856696 
1853.000000	64.861798 
1852.000000	64.863634 
1851.000000	64.861631 
1850.000000	64.855909 
1849.000000	64.847230 
1848.000000	64.836835 
1847.000000	64.826107 
1846.000000	64.816451 
1845.000000	64.808773 
1844.000000	64.803576 
1843.000000	64.800715 
1842.000000	64.799332 
1841.000000	64.798355 
1840.000000	64.796781 
1839.000000	64.794111 
1838.000000	64.790225 
1837.000000	64.785814 
1836.000000	64.781665 
1835.000000	64.778804 
1834.000000	64.777898 
1833.000000	64.779257 
1832.000000	64.782667 
1831.000000	64.787411 
1830.000000	64.792776 
1829.000000	64.798021 
1828.000000	64.802479 
1827.000000	64.805889 
1826.000000	64.808154 
1825.000000	64.809608 
1824.000000	64.810848 
1823.000000	64.812397 
1822.000000	64.814615 
1821.000000	64.817547 
1820.000000	64.820814 
1819.000000	64.823842 
1818.000000	64.825820 
1817.000000	64.825820 
1816.000000	64.823055 
1815.000000	64.817261 
1814.000000	64.808750 
1813.000000	64.798426 
1812.000000	64.787793 
1811.000000	64.778661 
1810.000000	64.772796 
1809.000000	64.771556 
1808.000000	64.775490 
1807.000000	64.784479 
1806.000000	64.797639 
1805.000000	64.813566 
1804.000000	64.830589 
1803.000000	64.847183 
1802.000000	64.861726 
1801.000000	64.872837 
1800.000000	64.879274 
1799.000000	64.879965 
1798.000000	64.874434 
1797.000000	64.862751 
1796.000000	64.845895 
1795.000000	64.825654 
1794.000000	64.804506 
1793.000000	64.785242 
1792.000000	64.770412 
1791.000000	64.761781 
1790.000000	64.759993 
1789.000000	64.764285 
1788.000000	64.772701 
1787.000000	64.782452 
1786.000000	64.790773 
1785.000000	64.795589 
1784.000000	64.795732 
1783.000000	64.791560 
1782.000000	64.784479 
1781.000000	64.776778 
1780.000000	64.770698 
1779.000000	64.768552 
1778.000000	64.771819 
1777.000000	64.781236 
1776.000000	64.796471 
1775.000000	64.816355 
1774.000000	64.839029 
1773.000000	64.862108 
1772.000000	64.883160 
1771.000000	64.899992 
1770.000000	64.911079 
1769.000000	64.915704 
1768.000000	64.914107 
1767.000000	64.907312 
1766.000000	64.896941 
1765.000000	64.884805 
1764.000000	64.872670 
1763.000000	64.861750 
1762.000000	64.852643 
1761.000000	64.845275 
1760.000000	64.838981 
1759.000000	64.833021 
1758.000000	64.826607 
1757.000000	64.819121 
1756.000000	64.810109 
1755.000000	64.799213 
1754.000000	64.786171 
1753.000000	64.770507 
1752.000000	64.751935 
1751.000000	64.730262 
1750.000000	64.705872 
1749.000000	64.679670 
1748.000000	64.653468 
1747.000000	64.629507 
1746.000000	64.610385 
1745.000000	64.598464 
1744.000000	64.595532 
1743.000000	64.602303 
1742.000000	64.618325 
1741.000000	64.641785 
1740.000000	64.669919 
1739.000000	64.699220 
1738.000000	64.726138 
1737.000000	64.747166 
1736.000000	64.759421 
1735.000000	64.760899 
1734.000000	64.750814 
1733.000000	64.729547 
1732.000000	64.698719 
1731.000000	64.660906 
1730.000000	64.619898 
1729.000000	64.579796 
1728.000000	64.544773 
1727.000000	64.518237 
1726.000000	64.502739 
1725.000000	64.499139 
1724.000000	64.506673 
1723.000000	64.523172 
1722.000000	64.545392 
1721.000000	64.569830 
1720.000000	64.593100 
1719.000000	64.612936 
1718.000000	64.628362 
1717.000000	64.639520 
1716.000000	64.647436 
1715.000000	64.653611 
1714.000000	64.659333 
1713.000000	64.665651 
1712.000000	64.672827 
1711.000000	64.680695 
1710.000000	64.688706 
1709.000000	64.696669 
1708.000000	64.704608 
1707.000000	64.713001 
1706.000000	64.722466 
1705.000000	64.733719 
1704.000000	64.746832 
1703.000000	64.761352 
1702.000000	64.775919 
1701.000000	64.788579 
1700.000000	64.797139 
1699.000000	64.799928 
1698.000000	64.796257 
1697.000000	64.786505 
1696.000000	64.772510 
1695.000000	64.757299 
1694.000000	64.744472 
1693.000000	64.737391 
1692.000000	64.738583 
1691.000000	64.749121 
1690.000000	64.768338 
1689.000000	64.793658 
1688.000000	64.821195 
1687.000000	64.846396 
1686.000000	64.864706 
1685.000000	64.872598 
1684.000000	64.868021 
1683.000000	64.851140 
1682.000000	64.824128 
1681.000000	64.791250 
1680.000000	64.757585 
1679.000000	64.728426 
1678.000000	64.708304 
1677.000000	64.699816 
1676.000000	64.703416 
1675.000000	64.717316 
1674.000000	64.737987 
1673.000000	64.761018 
1672.000000	64.781951 
1671.000000	64.797425 
1670.000000	64.805579 
1669.000000	64.806652 
1668.000000	64.802289 
1667.000000	64.795374 
1666.000000	64.789104 
1665.000000	64.786314 
1664.000000	64.788889 
1663.000000	64.797592 
1662.000000	64.812016 
1661.000000	64.830946 
1660.000000	64.852643 
1659.000000	64.874815 
1658.000000	64.895057 
1657.000000	64.911031 
1656.000000	64.920473 
1655.000000	64.921784 
1654.000000	64.914107 
1653.000000	64.897632 
1652.000000	64.873528 
1651.000000	64.843916 
1650.000000	64.811491 
1649.000000	64.779472 
1648.000000	64.750838 
1647.000000	64.728140 
1646.000000	64.713120 
1645.000000	64.706373 
1644.000000	64.707660 
1643.000000	64.715838 
1642.000000	64.729213 
1641.000000	64.745450 
1640.000000	64.762187 
1639.000000	64.777183 
1638.000000	64.788699 
1637.000000	64.795517 
1636.000000	64.797282 
1635.000000	64.794445 
1634.000000	64.788246 
1633.000000	64.780354 
1632.000000	64.772510 
1631.000000	64.765977 
1630.000000	64.761471 
1629.000000	64.759111 
1628.000000	64.758634 
1627.000000	64.759707 
1626.000000	64.762139 
1625.000000	64.765810 
1624.000000	64.770817 
1623.000000	64.777088 
1622.000000	64.784049 
1621.000000	64.790558 
1620.000000	64.794754 
1619.000000	64.794564 
1618.000000	64.788150 
1617.000000	64.774441 
1616.000000	64.753627 
1615.000000	64.727306 
1614.000000	64.698624 
1613.000000	64.671301 
1612.000000	64.649105 
1611.000000	64.634728 
1610.000000	64.629554 
1609.000000	64.633107 
1608.000000	64.643311 
1607.000000	64.657044 
1606.000000	64.670944 
1605.000000	64.682078 
1604.000000	64.688467 
1603.000000	64.689397 
1602.000000	64.685463 
1601.000000	64.678263 
1600.000000	64.669871 
1599.000000	64.662361 
1598.000000	64.657187 
1597.000000	64.654874 
1596.000000	64.655065 
1595.000000	64.656591 
1594.000000	64.658069 
1593.000000	64.658212 
1592.000000	64.656352 
1591.000000	64.652752 
1590.000000	64.648699 
1589.000000	64.645814 
1588.000000	64.646077 
1587.000000	64.651131 
1586.000000	64.662146 
1585.000000	64.679527 
1584.000000	64.702868 
1583.000000	64.730930 
1582.000000	64.761662 
1581.000000	64.792490 
1580.000000	64.820623 
1579.000000	64.843368 
1578.000000	64.858722 
1577.000000	64.865446 
1576.000000	64.863324 
1575.000000	64.853191 
1574.000000	64.836668 
1573.000000	64.815926 
1572.000000	64.793205 
1571.000000	64.770913 
1570.000000	64.751315 
1569.000000	64.736485 
1568.000000	64.728236 
1567.000000	64.728045 
1566.000000	64.736819 
1565.000000	64.754629 
1564.000000	64.780497 
1563.000000	64.812350 
1562.000000	64.847135 
1561.000000	64.881300 
1560.000000	64.911055 
1559.000000	64.933204 
1558.000000	64.945602 
1557.000000	64.947462 
1556.000000	64.939427 
1555.000000	64.923214 
1554.000000	64.901137 
1553.000000	64.875602 
1552.000000	64.848828 
1551.000000	64.822626 
1550.000000	64.798402 
1549.000000	64.777469 
1548.000000	64.760947 
1547.000000	64.749956 
1546.000000	64.745330 
1545.000000	64.747571 
1544.000000	64.756250 
1543.000000	64.770054 
1542.000000	64.786672 
1541.000000	64.803075 
1540.000000	64.816188 
1539.000000	64.823317 
1538.000000	64.822721 
1537.000000	64.814138 
1536.000000	64.798688 
1535.000000	64.778780 
1534.000000	64.757275 
1533.000000	64.736986 
1532.000000	64.720201 
1531.000000	64.708352 
1530.000000	64.701747 
1529.000000	64.699935 
1528.000000	64.701700 
1527.000000	64.705586 
1526.000000	64.710235 
1525.000000	64.714598 
1524.000000	64.718174 
1523.000000	64.721059 
1522.000000	64.723682 
1521.000000	64.726853 
1520.000000	64.731240 
1519.000000	64.737343 
1518.000000	64.745473 
1517.000000	64.755654 
1516.000000	64.767742 
1515.000000	64.781475 
1514.000000	64.796543 
1513.000000	64.812350 
1512.000000	64.827919 
1511.000000	64.841771 
1510.000000	64.852213 
1509.000000	64.857268 
1508.000000	64.855122 
1507.000000	64.844560 
1506.000000	64.825630 
1505.000000	64.799952 
1504.000000	64.770627 
1503.000000	64.741969 
1502.000000	64.718723 
1501.000000	64.704823 
1500.000000	64.702582 
1499.000000	64.712023 
1498.000000	64.730882 
1497.000000	64.755201 
1496.000000	64.780235 
1495.000000	64.801526 
1494.000000	64.815950 
1493.000000	64.822101 
1492.000000	64.820432 
1491.000000	64.812612 
1490.000000	64.800977 
1489.000000	64.787721 
1488.000000	64.774537 
1487.000000	64.762306 
1486.000000	64.751434 
1485.000000	64.742326 
1484.000000	64.735460 
1483.000000	64.731740 
1482.000000	64.731860 
1481.000000	64.736413 
1480.000000	64.745187 
1479.000000	64.756798 
1478.000000	64.769172 
1477.000000	64.779758 
1476.000000	64.786267 
1475.000000	64.787220 
1474.000000	64.782118 
1473.000000	64.771509 
1472.000000	64.756631 
1471.000000	64.739179 
1470.000000	64.720654 
1469.000000	64.702343 
1468.000000	64.685225 
1467.000000	64.670085 
1466.000000	64.657592 
1465.000000	64.648485 
1464.000000	64.643502 
1463.000000	64.643192 
1462.000000	64.647698 
1461.000000	64.656352 
1460.000000	64.667582 
1459.000000	64.678955 
1458.000000	64.687514 
1457.000000	64.690494 
1456.000000	64.685893 
1455.000000	64.673113 
1454.000000	64.653015 
1453.000000	64.627814 
1452.000000	64.600825 
1451.000000	64.575481 
1450.000000	64.554834 
1449.000000	64.540886 
1448.000000	64.534258 
1447.000000	64.534568 
1446.000000	64.540648 
1445.000000	64.551210 
1444.000000	64.565134 
1443.000000	64.581680 
1442.000000	64.600491 
1441.000000	64.621305 
1440.000000	64.643740 
1439.000000	64.666986 
1438.000000	64.689707 
1437.000000	64.710235 
1436.000000	64.726662 
1435.000000	64.737439 
1434.000000	64.741587 
1433.000000	64.739084 
1432.000000	64.730811 
1431.000000	64.718770 
1430.000000	64.705371 
1429.000000	64.693236 
1428.000000	64.684271 
1427.000000	64.679384 
1426.000000	64.678049 
1425.000000	64.678645 
1424.000000	64.678740 
1423.000000	64.675903 
1422.000000	64.668178 
1421.000000	64.654946 
1420.000000	64.637064 
1419.000000	64.616632 
1418.000000	64.596772 
1417.000000	64.580702 
1416.000000	64.571022 
1415.000000	64.569091 
1414.000000	64.574432 
1413.000000	64.584970 
1412.000000	64.597511 
1411.000000	64.608168 
1410.000000	64.613509 
1409.000000	64.611196 
1408.000000	64.600253 
1407.000000	64.581632 
1406.000000	64.557647 
1405.000000	64.531683 
1404.000000	64.507389 
1403.000000	64.488101 
1402.000000	64.476251 
1401.000000	64.472723 
1400.000000	64.477038 
1399.000000	64.487266 
1398.000000	64.500880 
1397.000000	64.515161 
1396.000000	64.527583 
1395.000000	64.536428 
1394.000000	64.541029 
1393.000000	64.541459 
1392.000000	64.538311 
1391.000000	64.532399 
1390.000000	64.524316 
1389.000000	64.514422 
1388.000000	64.502811 
1387.000000	64.489674 
1386.000000	64.475512 
1385.000000	64.461350 
1384.000000	64.448738 
1383.000000	64.439535 
1382.000000	64.435458 
1381.000000	64.437556 
1380.000000	64.445948 
1379.000000	64.459156 
1378.000000	64.475083 
1377.000000	64.490771 
1376.000000	64.503788 
1375.000000	64.512491 
1374.000000	64.516711 
1373.000000	64.517545 
1372.000000	64.517092 
1371.000000	64.518046 
1370.000000	64.522480 
1369.000000	64.531421 
1368.000000	64.544391 
1367.000000	64.559626 
1366.000000	64.574313 
1365.000000	64.585566 
1364.000000	64.591145 
1363.000000	64.590167 
1362.000000	64.583253 
1361.000000	64.572548 
1360.000000	64.560937 
1359.000000	64.551329 
1358.000000	64.545845 
1357.000000	64.544987 
1356.000000	64.547944 
1355.000000	64.552497 
1354.000000	64.555978 
1353.000000	64.555716 
1352.000000	64.550137 
1351.000000	64.539122 
1350.000000	64.524078 
1349.000000	64.507460 
1348.000000	64.492034 
1347.000000	64.480209 
1346.000000	64.473271 
1345.000000	64.471149 
1344.000000	64.472460 
1343.000000	64.475131 
1342.000000	64.477396 
1341.000000	64.478158 
1340.000000	64.477539 
1339.000000	64.476633 
1338.000000	64.477109 
1337.000000	64.480495 
1336.000000	64.487433 
1335.000000	64.497494 
1334.000000	64.509105 
1333.000000	64.519977 
1332.000000	64.527654 
1331.000000	64.530420 
1330.000000	64.527630 
1329.000000	64.519929 
1328.000000	64.509153 
1327.000000	64.497637 
1326.000000	64.487648 
1325.000000	64.480805 
1324.000000	64.477515 
1323.000000	64.476919 
1322.000000	64.477014 
1321.000000	64.475584 
1320.000000	64.470624 
1319.000000	64.461040 
1318.000000	64.446926 
1317.000000	64.429521 
1316.000000	64.410924 
1315.000000	64.393424 
1314.000000	64.379143 
1313.000000	64.369225 
1312.000000	64.363980 
1311.000000	64.362812 
1310.000000	64.364552 
1309.000000	64.367914 
1308.000000	64.371728 
1307.000000	64.375329 
1306.000000	64.378333 
1305.000000	64.380621 
1304.000000	64.382123 
1303.000000	64.382696 
1302.000000	64.382147 
1301.000000	64.380407 
1300.000000	64.377856 
1299.000000	64.375495 
1298.000000	64.374876 
1297.000000	64.377999 
1296.000000	64.386725 
1295.000000	64.401936 
1294.000000	64.423584 
1293.000000	64.449930 
1292.000000	64.477658 
1291.000000	64.502573 
1290.000000	64.520406 
1289.000000	64.527654 
1288.000000	64.522457 
1287.000000	64.505052 
1286.000000	64.477705 
1285.000000	64.444231 
1284.000000	64.408874 
1283.000000	64.375829 
1282.000000	64.348435 
1281.000000	64.328527 
1280.000000	64.316725 
1279.000000	64.312410 
1278.000000	64.314198 
1277.000000	64.320588 
1276.000000	64.329862 
1275.000000	64.340329 
1274.000000	64.350581 
1273.000000	64.359426 
1272.000000	64.365983 
1271.000000	64.369630 
1270.000000	64.370274 
1269.000000	64.368224 
1268.000000	64.364409 
1267.000000	64.360094 
1266.000000	64.356565 
1265.000000	64.354801 
1264.000000	64.355349 
1263.000000	64.358091 
1262.000000	64.362478 
1261.000000	64.367914 
1260.000000	64.373826 
1259.000000	64.380049 
1258.000000	64.386773 
1257.000000	64.394497 
1256.000000	64.403605 
1255.000000	64.414095 
1254.000000	64.425206 
1253.000000	64.435219 
1252.000000	64.442014 
1251.000000	64.443373 
1250.000000	64.437294 
1249.000000	64.422678 
1248.000000	64.399790 
1247.000000	64.370441 
1246.000000	64.337515 
1245.000000	64.304685 
1244.000000	64.275789 
1243.000000	64.253830 
1242.000000	64.240884 
1241.000000	64.237356 
1240.000000	64.242100 
1239.000000	64.252567 
1238.000000	64.265394 
1237.000000	64.277076 
1236.000000	64.284229 
1235.000000	64.285016 
1234.000000	64.279127 
1233.000000	64.268016 
1232.000000	64.254379 
1231.000000	64.241576 
1230.000000	64.232778 
1229.000000	64.230251 
1228.000000	64.234948 
1227.000000	64.246320 
1226.000000	64.262700 
1225.000000	64.281821 
1224.000000	64.301586 
1223.000000	64.320588 
1222.000000	64.338445 
1221.000000	64.355754 
1220.000000	64.373612 
1219.000000	64.393520 
1218.000000	64.416384 
1217.000000	64.442396 
1216.000000	64.470505 
1215.000000	64.498877 
1214.000000	64.524745 
1213.000000	64.545488 
1212.000000	64.558529 
1211.000000	64.561891 
1210.000000	64.554572 
1209.000000	64.536786 
1208.000000	64.509987 
1207.000000	64.476990 
1206.000000	64.441514 
1205.000000	64.407825 
1204.000000	64.379954 
1203.000000	64.361190 
1202.000000	64.353394 
1201.000000	64.356637 
1200.000000	64.369106 
1199.000000	64.387392 
1198.000000	64.407134 
1197.000000	64.423871 
1196.000000	64.433789 
1195.000000	64.434576 
1194.000000	64.425516 
1193.000000	64.407682 
1192.000000	64.383411 
1191.000000	64.355874 
1190.000000	64.328241 
1189.000000	64.303231 
1188.000000	64.282679 
1187.000000	64.267492 
1186.000000	64.257478 
1185.000000	64.251852 
1184.000000	64.249324 
1183.000000	64.248776 
1182.000000	64.248991 
1181.000000	64.249563 
1180.000000	64.250588 
1179.000000	64.253067 
1178.000000	64.258217 
1177.000000	64.267420 
1176.000000	64.281558 
1175.000000	64.300775 
1174.000000	64.324259 
1173.000000	64.350080 
1172.000000	64.375329 
1171.000000	64.396882 
1170.000000	64.411878 
1169.000000	64.418292 
1168.000000	64.415431 
1167.000000	64.404106 
1166.000000	64.386534 
1165.000000	64.365792 
1164.000000	64.345121 
1163.000000	64.327621 
1162.000000	64.315009 
1161.000000	64.307737 
1160.000000	64.304757 
1159.000000	64.304208 
1158.000000	64.303851 
1157.000000	64.302062 
1156.000000	64.298105 
1155.000000	64.292263 
1154.000000	64.285874 
1153.000000	64.280509 
1152.000000	64.277744 
1151.000000	64.278531 
1150.000000	64.283204 
1149.000000	64.291667 
1148.000000	64.303493 
1147.000000	64.318323 
1146.000000	64.335727 
1145.000000	64.355301 
1144.000000	64.376425 
1143.000000	64.398264 
1142.000000	64.419603 
1141.000000	64.439272 
1140.000000	64.456152 
1139.000000	64.469456 
1138.000000	64.479494 
1137.000000	64.487123 
1136.000000	64.493989 
1135.000000	64.501428 
1134.000000	64.510226 
1133.000000	64.520072 
1132.000000	64.529466 
1131.000000	64.536070 
1130.000000	64.537286 
1129.000000	64.531064 
1128.000000	64.516878 
1127.000000	64.495611 
1126.000000	64.469385 
1125.000000	64.441132 
1124.000000	64.414048 
1123.000000	64.390754 
1122.000000	64.372944 
1121.000000	64.361333 
1120.000000	64.355683 
1119.000000	64.355158 
1118.000000	64.358425 
1117.000000	64.364051 
1116.000000	64.370727 
1115.000000	64.377188 
1114.000000	64.382362 
1113.000000	64.385128 
1112.000000	64.384365 
1111.000000	64.379048 
1110.000000	64.368414 
1109.000000	64.352130 
1108.000000	64.330434 
1107.000000	64.304542 
1106.000000	64.276576 
1105.000000	64.249038 
1104.000000	64.225149 
1103.000000	64.207839 
1102.000000	64.200019 
1101.000000	64.203429 
1100.000000	64.218854 
1099.000000	64.245963 
1098.000000	64.283084 
1097.000000	64.327335 
1096.000000	64.375066 
1095.000000	64.422202 
1094.000000	64.464807 
1093.000000	64.499521 
1092.000000	64.523959 
1091.000000	64.537024 
1090.000000	64.539265 
1089.000000	64.532494 
1088.000000	64.519357 
1087.000000	64.502787 
1086.000000	64.485692 
1085.000000	64.470171 
1084.000000	64.457273 
1083.000000	64.446830 
1082.000000	64.437913 
1081.000000	64.428949 
1080.000000	64.418530 
1079.000000	64.405798 
1078.000000	64.390492 
1077.000000	64.373064 
1076.000000	64.354491 
1075.000000	64.335823 
1074.000000	64.317727 
1073.000000	64.300704 
1072.000000	64.284801 
1071.000000	64.269876 
1070.000000	64.255738 
1069.000000	64.242339 
1068.000000	64.229941 
1067.000000	64.219141 
1066.000000	64.210677 
1065.000000	64.205527 
1064.000000	64.204716 
1063.000000	64.209032 
1062.000000	64.218759 
1061.000000	64.233803 
1060.000000	64.253258 
1059.000000	64.275527 
1058.000000	64.298248 
1057.000000	64.318513 
1056.000000	64.333105 
1055.000000	64.339184 
1054.000000	64.334797 
1053.000000	64.319062 
1052.000000	64.292407 
1051.000000	64.257073 
1050.000000	64.216089 
1049.000000	64.172983 
1048.000000	64.131140 
1047.000000	64.093399 
1046.000000	64.061880 
1045.000000	64.037775 
1044.000000	64.021992 
1043.000000	64.014983 
1042.000000	64.017152 
1041.000000	64.028644 
1040.000000	64.049267 
1039.000000	64.078330 
1038.000000	64.114594 
1037.000000	64.156055 
1036.000000	64.200305 
1035.000000	64.244580 
1034.000000	64.286375 
1033.000000	64.323496 
1032.000000	64.354491 
1031.000000	64.378666 
1030.000000	64.396142 
1029.000000	64.407610 
1028.000000	64.414167 
1027.000000	64.416861 
1026.000000	64.416956 
1025.000000	64.415383 
1024.000000	64.413022 
1023.000000	64.410614 
1022.000000	64.408802 
1021.000000	64.408111 
1020.000000	64.408993 
1019.000000	64.411401 
1018.000000	64.414834 
1017.000000	64.418554 
1016.000000	64.421796 
1015.000000	64.423918 
1014.000000	64.424490 
1013.000000	64.423561 
1012.000000	64.421749 
1011.000000	64.419889 
1010.000000	64.418506 
1009.000000	64.417672 
1008.000000	64.416670 
1007.000000	64.414262 
1006.000000	64.408898 
1005.000000	64.398980 
1004.000000	64.383673 
1003.000000	64.363121 
1002.000000	64.338707 
1001.000000	64.312601 
1000.000000	64.287424 
999.000000	 64.265656 
998.000000	 64.249157 
997.000000	 64.238572 
996.000000	 64.233636 
995.000000	 64.233207 
994.000000	 64.236187 
993.000000	 64.241600 
992.000000	 64.249253 
991.000000	 64.259719 
990.000000	 64.274144 
989.000000	 64.293503 
988.000000	 64.318466 
987.000000	 64.348721 
986.000000	 64.382982 
985.000000	 64.418840 
984.000000	 64.453387 
983.000000	 64.483690 
982.000000	 64.507341 
981.000000	 64.522767 
980.000000	 64.529490 
979.000000	 64.527821 
978.000000	 64.519047 
977.000000	 64.504718 
976.000000	 64.486455 
975.000000	 64.465761 
974.000000	 64.444303 
973.000000	 64.423584 
972.000000	 64.405250 
971.000000	 64.390563 
970.000000	 64.380884 
969.000000	 64.376807 
968.000000	 64.378046 
967.000000	 64.383244 
966.000000	 64.390206 
965.000000	 64.396238 
964.000000	 64.398789 
963.000000	 64.396071 
962.000000	 64.387321 
961.000000	 64.373421 
960.000000	 64.356470 
959.000000	 64.339327 
958.000000	 64.324855 
957.000000	 64.315438 
956.000000	 64.312529 
955.000000	 64.316272 
954.000000	 64.325857 
953.000000	 64.340066 
952.000000	 64.357471 
951.000000	 64.376997 
950.000000	 64.397954 
949.000000	 64.419865 
948.000000	 64.442324 
947.000000	 64.464664 
946.000000	 64.485859 
945.000000	 64.504528 
944.000000	 64.518976 
943.000000	 64.528083 
942.000000	 64.530801 
941.000000	 64.526700 
940.000000	 64.515638 
939.000000	 64.498138 
938.000000	 64.474868 
937.000000	 64.446830 
936.000000	 64.415216 
935.000000	 64.381456 
934.000000	 64.347338 
933.000000	 64.315056 
932.000000	 64.286994 
931.000000	 64.265298 
930.000000	 64.251732 
929.000000	 64.247274 
928.000000	 64.251708 
927.000000	 64.264011 
926.000000	 64.282298 
925.000000	 64.304423 
924.000000	 64.328122 
923.000000	 64.351582 
922.000000	 64.373683 
921.000000	 64.393925 
920.000000	 64.411973 
919.000000	 64.427566 
918.000000	 64.440727 
917.000000	 64.451336 
916.000000	 64.459156 
915.000000	 64.463853 
914.000000	 64.465308 
913.000000	 64.463543 
912.000000	 64.458942 
911.000000	 64.451885 
910.000000	 64.442944 
909.000000	 64.432501 
908.000000	 64.421105 
907.000000	 64.409255 
906.000000	 64.397478 
905.000000	 64.386510 
904.000000	 64.377117 
903.000000	 64.370107 
902.000000	 64.365887 
901.000000	 64.364457 
900.000000	 64.365100 
899.000000	 64.366292 
898.000000	 64.365673 
897.000000	 64.360761 
896.000000	 64.349126 
895.000000	 64.329218 
894.000000	 64.300513 
893.000000	 64.263892 
892.000000	 64.221668 
891.000000	 64.177036 
890.000000	 64.133882 
889.000000	 64.095783 
888.000000	 64.065885 
887.000000	 64.046216 
886.000000	 64.037752 
885.000000	 64.040112 
884.000000	 64.052081 
883.000000	 64.071297 
882.000000	 64.094996 
881.000000	 64.120197 
880.000000	 64.144110 
879.000000	 64.164400 
878.000000	 64.179563 
877.000000	 64.188981 
876.000000	 64.193153 
875.000000	 64.193201 
874.000000	 64.191055 
873.000000	 64.188623 
872.000000	 64.187693 
871.000000	 64.189481 
870.000000	 64.194345 
869.000000	 64.201903 
868.000000	 64.211177 
867.000000	 64.220881 
866.000000	 64.229893 
865.000000	 64.237761 
864.000000	 64.244341 
863.000000	 64.250564 
862.000000	 64.257574 
861.000000	 64.266991 
860.000000	 64.280343 
859.000000	 64.298582 
858.000000	 64.322185 
857.000000	 64.350509 
856.000000	 64.382123 
855.000000	 64.414811 
854.000000	 64.446139 
853.000000	 64.473581 
852.000000	 64.495110 
851.000000	 64.509224 
850.000000	 64.515304 
849.000000	 64.513397 
848.000000	 64.504003 
847.000000	 64.488077 
846.000000	 64.466667 
845.000000	 64.440941 
844.000000	 64.412260 
843.000000	 64.382123 
842.000000	 64.352464 
841.000000	 64.325499 
840.000000	 64.303421 
839.000000	 64.288163 
838.000000	 64.280819 
837.000000	 64.281487 
836.000000	 64.289069 
835.000000	 64.300894 
834.000000	 64.313769 
833.000000	 64.324378 
832.000000	 64.330244 
831.000000	 64.329910 
830.000000	 64.323687 
829.000000	 64.313530 
828.000000	 64.302515 
827.000000	 64.294028 
826.000000	 64.290833 
825.000000	 64.294338 
824.000000	 64.304256 
823.000000	 64.318752 
822.000000	 64.335131 
821.000000	 64.350700 
820.000000	 64.363336 
819.000000	 64.371943 
818.000000	 64.376235 
817.000000	 64.376521 
816.000000	 64.373207 
815.000000	 64.366555 
814.000000	 64.356684 
813.000000	 64.343357 
812.000000	 64.326739 
811.000000	 64.307022 
810.000000	 64.284420 
809.000000	 64.259505 
808.000000	 64.233088 
807.000000	 64.206409 
806.000000	 64.180922 
805.000000	 64.158558 
804.000000	 64.141535 
803.000000	 64.132213 
802.000000	 64.132571 
801.000000	 64.143753 
800.000000	 64.165472 
799.000000	 64.195990 
798.000000	 64.232206 
797.000000	 64.269971 
796.000000	 64.304828 
795.000000	 64.333009 
794.000000	 64.352059 
793.000000	 64.361262 
792.000000	 64.361500 
791.000000	 64.354729 
790.000000	 64.343237 
789.000000	 64.329028 
788.000000	 64.313387 
787.000000	 64.297175 
786.000000	 64.281105 
785.000000	 64.266395 
784.000000	 64.254665 
783.000000	 64.247941 
782.000000	 64.248347 
781.000000	 64.257478 
780.000000	 64.275836 
779.000000	 64.302134 
778.000000	 64.333534 
777.000000	 64.365935 
776.000000	 64.394474 
775.000000	 64.414477 
774.000000	 64.422416 
773.000000	 64.416646 
772.000000	 64.397501 
771.000000	 64.367413 
770.000000	 64.330077 
769.000000	 64.289975 
768.000000	 64.251422 
767.000000	 64.217972 
766.000000	 64.191818 
765.000000	 64.173626 
764.000000	 64.162755 
763.000000	 64.157724 
762.000000	 64.156508 
761.000000	 64.157271 
760.000000	 64.158535 
759.000000	 64.159679 
758.000000	 64.160728 
757.000000	 64.162182 
756.000000	 64.164566 
755.000000	 64.168286 
754.000000	 64.173126 
753.000000	 64.178371 
752.000000	 64.183044 
751.000000	 64.185976 
750.000000	 64.186358 
749.000000	 64.183759 
748.000000	 64.178490 
747.000000	 64.171338 
746.000000	 64.163494 
745.000000	 64.156055 
744.000000	 64.149641 
743.000000	 64.144253 
742.000000	 64.139485 
741.000000	 64.134526 
740.000000	 64.128899 
739.000000	 64.122629 
738.000000	 64.116716 
737.000000	 64.112830 
736.000000	 64.113211 
735.000000	 64.120221 
734.000000	 64.135408 
733.000000	 64.159107 
732.000000	 64.189743 
731.000000	 64.224243 
730.000000	 64.258027 
729.000000	 64.286065 
728.000000	 64.303636 
727.000000	 64.307093 
726.000000	 64.294719 
725.000000	 64.267325 
724.000000	 64.227938 
723.000000	 64.181470 
722.000000	 64.134001 
721.000000	 64.091801 
720.000000	 64.060378 
719.000000	 64.043498 
718.000000	 64.042544 
717.000000	 64.056491 
716.000000	 64.082026 
715.000000	 64.114165 
714.000000	 64.146924 
713.000000	 64.174628 
712.000000	 64.192867 
711.000000	 64.199376 
710.000000	 64.194369 
709.000000	 64.180350 
708.000000	 64.161491 
707.000000	 64.142370 
706.000000	 64.127016 
705.000000	 64.117693 
704.000000	 64.114475 
703.000000	 64.115166 
702.000000	 64.116358 
701.000000	 64.114165 
700.000000	 64.105606 
699.000000	 64.089298 
698.000000	 64.066028 
697.000000	 64.038228 
696.000000	 64.009213 
695.000000	 63.982057 
694.000000	 63.958597 
693.000000	 63.939309 
692.000000	 63.923239 
691.000000	 63.909339 
690.000000	 63.897037 
689.000000	 63.887405 
688.000000	 63.883137 
687.000000	 63.887834 
686.000000	 63.904929 
685.000000	 63.935804 
684.000000	 63.979077 
683.000000	 64.030456 
682.000000	 64.083313 
681.000000	 64.129996 
680.000000	 64.163351 
679.000000	 64.178347 
678.000000	 64.173126 
677.000000	 64.149570 
676.000000	 64.112567 
675.000000	 64.068579 
674.000000	 64.024472 
673.000000	 63.986253 
672.000000	 63.957977 
671.000000	 63.941121 
670.000000	 63.934993 
669.000000	 63.937902 
668.000000	 63.947200 
667.000000	 63.960433 
666.000000	 63.975310 
665.000000	 63.989949 
664.000000	 64.002680 
663.000000	 64.011621 
662.000000	 64.014697 
661.000000	 64.009404 
660.000000	 63.993120 
659.000000	 63.963842 
658.000000	 63.921046 
657.000000	 63.866591 
656.000000	 63.805484 
655.000000	 63.745474 
654.000000	 63.695836 
653.000000	 63.665366 
652.000000	 63.660502 
651.000000	 63.683891 
650.000000	 63.732790 
649.000000	 63.800621 
648.000000	 63.878107 
647.000000	 63.956093 
646.000000	 64.027285 
645.000000	 64.087700 
644.000000	 64.136886 
643.000000	 64.177012 
642.000000	 64.211606 
641.000000	 64.243078 
640.000000	 64.271330 
639.000000	 64.293694 
638.000000	 64.305949 
637.000000	 64.303946 
636.000000	 64.285516 
635.000000	 64.251780 
634.000000	 64.207434 
633.000000	 64.159131 
632.000000	 64.113879 
631.000000	 64.076423 
630.000000	 64.048218 
629.000000	 64.027690 
628.000000	 64.011049 
627.000000	 63.993859 
626.000000	 63.972926 
625.000000	 63.947391 
624.000000	 63.919496 
623.000000	 63.893127 
622.000000	 63.873767 
621.000000	 63.865709 
620.000000	 63.871932 
619.000000	 63.892793 
618.000000	 63.926506 
617.000000	 63.969159 
616.000000	 64.016246 
615.000000	 64.063358 
614.000000	 64.107203 
613.000000	 64.146280 
612.000000	 64.180421 
611.000000	 64.210391 
610.000000	 64.236903 
609.000000	 64.259791 
608.000000	 64.278006 
607.000000	 64.289426 
606.000000	 64.291095 
605.000000	 64.279770 
604.000000	 64.252424 
603.000000	 64.207196 
602.000000	 64.143919 
601.000000	 64.065027 
600.000000	 63.975000 
599.000000	 63.880777 
598.000000	 63.790798 
597.000000	 63.714623 
596.000000	 63.661313 
595.000000	 63.638210 
594.000000	 63.649201 
593.000000	 63.694024 
592.000000	 63.767385 
591.000000	 63.860654 
590.000000	 63.962030 
589.000000	 64.060282 
588.000000	 64.145684 
587.000000	 64.212870 
586.000000	 64.260411 
585.000000	 64.292073 
584.000000	 64.315223 
583.000000	 64.337992 
582.000000	 64.366436 
581.000000	 64.402055 
580.000000	 64.441227 
579.000000	 64.475011 
578.000000	 64.491581 
577.000000	 64.478135 
576.000000	 64.425063 
575.000000	 64.329648 
574.000000	 64.197945 
573.000000	 64.044022 
572.000000	 63.887786 
571.000000	 63.751029 
570.000000	 63.652467 
569.000000	 63.604307 
568.000000	 63.609004 
567.000000	 63.657736 
566.000000	 63.734507 
565.000000	 63.819003 
564.000000	 63.894701 
563.000000	 63.950824 
562.000000	 63.988852 
561.000000	 64.020013 
560.000000	 64.063858 
559.000000	 64.140963 
558.000000	 64.266657 
557.000000	 64.445161 
556.000000	 64.665627 
555.000000	 64.903402 
554.000000	 65.122938 
553.000000	 65.285897 
552.000000	 65.357136 
551.000000	 65.313601 
550.000000	 65.149354 
549.000000	 64.878845 
548.000000	 64.534401 
547.000000	 64.161562 
546.000000	 63.811159 
545.000000	 63.529729 
544.000000	 63.351058 
543.000000	 63.290762 
542.000000	 63.344645 
541.000000	 63.492560 
540.000000	 63.703870 
539.000000	 63.946676 
538.000000	 64.191651 
537.000000	 64.420080 
536.000000	 64.622235 
535.000000	 64.798474 
534.000000	 64.952063 
533.000000	 65.087914 
532.000000	 65.208268 
531.000000	 65.311241 
530.000000	 65.390968 
529.000000	 65.440654 
528.000000	 65.456581 
527.000000	 65.439105 
526.000000	 65.394592 
525.000000	 65.335369 
524.000000	 65.277647 
523.000000	 65.237736 
522.000000	 65.228176 
521.000000	 65.255498 
520.000000	 65.317845 
519.000000	 65.406751 
518.000000	 65.507364 
517.000000	 65.601897 
516.000000	 65.671896 
515.000000	 65.703725 
514.000000	 65.689063 
513.000000	 65.624427 
512.000000	 65.513682 
511.000000	 65.366506 
510.000000	 65.198016 
509.000000	 65.028047 
508.000000	 64.875078 
507.000000	 64.754676 
506.000000	 64.673161 
505.000000	 64.628791 
504.000000	 64.607715 
503.000000	 64.587330 
502.000000	 64.542627 
501.000000	 64.453268 
500.000000	 64.309453 
499.000000	 64.115500 
498.000000	 63.890814 
497.000000	 63.666200 
496.000000	 63.476395 
495.000000	 63.352274 
494.000000	 63.313055 
493.000000	 63.362956 
492.000000	 63.490557 
491.000000	 63.672995 
490.000000	 63.882136 
489.000000	 64.090728 
488.000000	 64.278745 
487.000000	 64.433932 
486.000000	 64.551734 
485.000000	 64.631319 
484.000000	 64.672541 
483.000000	 64.672827 
482.000000	 64.626598 
481.000000	 64.527082 
480.000000	 64.372444 
479.000000	 64.165592 
478.000000	 63.918161 
477.000000	 63.648772 
476.000000	 63.382411 
475.000000	 63.143610 
474.000000	 62.952399 
473.000000	 62.820816 
472.000000	 62.751746 
471.000000	 62.740206 
470.000000	 62.776374 
469.000000	 62.848973 
468.000000	 62.948441 
467.000000	 63.067841 
466.000000	 63.202857 
465.000000	 63.347673 
464.000000	 63.495326 
463.000000	 63.634681 
462.000000	 63.754129 
461.000000	 63.841843 
460.000000	 63.891482 
459.000000	 63.904333 
458.000000	 63.890337 
457.000000	 63.867878 
456.000000	 63.857436 
455.000000	 63.878130 
454.000000	 63.939785 
453.000000	 64.040660 
452.000000	 64.166760 
451.000000	 64.295363 
450.000000	 64.401984 
449.000000	 64.467310 
448.000000	 64.482879 
447.000000	 64.453315 
446.000000	 64.395642 
445.000000	 64.334201 
444.000000	 64.290189 
443.000000	 64.274144 
442.000000	 64.284348 
441.000000	 64.305830 
440.000000	 64.312314 
439.000000	 64.275169 
438.000000	 64.173007 
437.000000	 64.000296 
436.000000	 63.770651 
435.000000	 63.516139 
434.000000	 63.278961 
433.000000	 63.102602 
432.000000	 63.020157 
431.000000	 63.046669 
430.000000	 63.175535 
429.000000	 63.379359 
428.000000	 63.618278 
427.000000	 63.847374 
426.000000	 64.025735 
425.000000	 64.126873 
424.000000	 64.142751 
423.000000	 64.083862 
422.000000	 63.971495 
421.000000	 63.839006 
420.000000	 63.723158 
419.000000	 63.660025 
418.000000	 63.677787 
417.000000	 63.798475 
416.000000	 64.032959 
415.000000	 64.379668 
414.000000	 64.821839 
413.000000	 65.324234 
412.000000	 65.838575 
411.000000	 66.311120 
410.000000	 66.693735 
409.000000	 66.949176 
408.000000	 67.062854 
407.000000	 67.047739 
406.000000	 66.939973 
405.000000	 66.793537 
404.000000	 66.659402 
403.000000	 66.593694 
402.000000	 66.615295 
401.000000	 66.691565 
400.000000	 66.756463 
399.000000	 66.742205 
398.000000	 66.585111 
397.000000	 66.247868 
396.000000	 65.731644 
395.000000	 65.084934 
394.000000	 64.372777 
393.000000	 63.651800 
392.000000	 62.991666 
391.000000	 62.473249 
390.000000	 62.104773 
389.000000	 61.845874 
388.000000	 61.687612 
387.000000	 61.612534 
386.000000	 61.852240 
385.000000	 62.715959 
384.000000	 63.861632 
383.000000	 64.774131 
382.000000	 65.071105 
381.000000	 64.603996 
380.000000	 64.302682 
379.000000	 65.110993 
378.000000	 67.316222 
377.000000	 70.710802 
376.000000	 73.131942 
375.000000	 73.064780 
374.000000	 70.969820 
373.000000	 68.584966 
372.000000	 70.516824 
371.000000	 79.193282 
370.000000	 92.815923 

