PE IR       SPECTRUM    SPECTRUM    ASCII       PEDS        1.60        
  -1
BZ61B0~1.ASC
17/04/07
16:24:22.00
17/04/07
16:24:22.00
tln
$BZ1503107-1_t0039$<tbV0>[0.0,-5.2,8.0,0.0,27,1,0]
370.000000
64









2002,4.07    
MIRTGS : RIGHTBACK : INTERNAL 2
MIR : ON : INTERNAL 2
OPTKBR

0.200000
8
8.000000
FILLER
RATIO
SPECTRUM
UNLOCKED 256

DOUBLE
64
COMBINED
1
0
0


1.000000
RATIO


1
0
TRUE
51149
0
LEFT NOT FITTED RIGHT NOT FITTED 0
NONE
NONE
15600
12.000000
4.427000
51148
TRUE
1 0 8 72 0 0 0 0 

15798.010000






#HDR
-1
-1
#GR
CM-1
%T
0.00002384185791015625
0.0
5000.000000
-1.000000
4631
8
77.563762
36.142158
#DATA
5000.000000	65.769195 
4999.000000	65.696668 
4998.000000	65.571498 
4997.000000	65.416169 
4996.000000	65.254974 
4995.000000	65.110540 
4994.000000	64.998507 
4993.000000	64.926338 
4992.000000	64.892435 
4991.000000	64.889574 
4990.000000	64.906477 
4989.000000	64.932441 
4988.000000	64.957737 
4987.000000	64.975118 
4986.000000	64.980292 
4985.000000	64.971137 
4984.000000	64.948225 
4983.000000	64.913725 
4982.000000	64.872121 
4981.000000	64.828872 
4980.000000	64.790272 
4979.000000	64.761424 
4978.000000	64.745330 
4977.000000	64.741706 
4976.000000	64.747166 
4975.000000	64.755868 
4974.000000	64.760112 
4973.000000	64.753198 
4972.000000	64.731478 
4971.000000	64.695906 
4970.000000	64.651012 
4969.000000	64.604473 
4968.000000	64.564776 
4967.000000	64.539217 
4966.000000	64.531207 
4965.000000	64.540410 
4964.000000	64.562726 
4963.000000	64.592289 
4962.000000	64.623641 
4961.000000	64.652490 
4960.000000	64.676547 
4959.000000	64.695572 
4958.000000	64.710783 
4957.000000	64.723563 
4956.000000	64.734482 
4955.000000	64.742684 
4954.000000	64.745783 
4953.000000	64.740681 
4952.000000	64.724564 
4951.000000	64.695882 
4950.000000	64.655470 
4949.000000	64.606690 
4948.000000	64.554691 
4947.000000	64.506196 
4946.000000	64.467144 
4945.000000	64.441704 
4944.000000	64.430451 
4943.000000	64.430975 
4942.000000	64.437580 
4941.000000	64.442181 
4940.000000	64.436459 
4939.000000	64.413809 
4938.000000	64.371633 
4937.000000	64.311552 
4936.000000	64.240455 
4935.000000	64.168810 
4934.000000	64.108586 
4933.000000	64.070177 
4932.000000	64.059972 
4931.000000	64.078640 
4930.000000	64.120817 
4929.000000	64.176416 
4928.000000	64.232635 
4927.000000	64.276957 
4926.000000	64.299416 
4925.000000	64.295363 
4924.000000	64.265608 
4923.000000	64.216709 
4922.000000	64.158582 
4921.000000	64.103031 
4920.000000	64.060807 
4919.000000	64.039993 
4918.000000	64.044308 
4917.000000	64.073348 
4916.000000	64.123535 
4915.000000	64.189410 
4914.000000	64.264440 
4913.000000	64.342999 
4912.000000	64.421105 
4911.000000	64.496350 
4910.000000	64.566922 
4909.000000	64.631295 
4908.000000	64.687418 
4907.000000	64.732313 
4906.000000	64.762449 
4905.000000	64.774537 
4904.000000	64.766764 
4903.000000	64.739751 
4902.000000	64.697217 
4901.000000	64.645719 
4900.000000	64.593386 
4899.000000	64.548635 
4898.000000	64.518070 
4897.000000	64.504981 
4896.000000	64.508795 
4895.000000	64.525032 
4894.000000	64.547252 
4893.000000	64.568495 
4892.000000	64.584159 
4891.000000	64.592981 
4890.000000	64.598202 
4889.000000	64.606022 
4888.000000	64.624476 
4887.000000	64.660358 
4886.000000	64.717388 
4885.000000	64.794373 
4884.000000	64.885163 
4883.000000	64.980411 
4882.000000	65.068507 
4881.000000	65.138792 
4880.000000	65.182852 
4879.000000	65.196490 
4878.000000	65.179014 
4877.000000	65.133190 
4876.000000	65.063858 
4875.000000	64.977240 
4874.000000	64.880251 
4873.000000	64.780116 
4872.000000	64.684581 
4871.000000	64.601588 
4870.000000	64.539551 
4869.000000	64.505958 
4868.000000	64.505624 
4867.000000	64.539408 
4866.000000	64.602947 
4865.000000	64.687561 
4864.000000	64.780831 
4863.000000	64.869570 
4862.000000	64.941287 
4861.000000	64.987850 
4860.000000	65.006589 
4859.000000	65.000510 
4858.000000	64.976835 
4857.000000	64.944720 
4856.000000	64.913225 
4855.000000	64.888215 
4854.000000	64.871668 
4853.000000	64.861202 
4852.000000	64.852118 
4851.000000	64.838862 
4850.000000	64.817380 
4849.000000	64.786911 
4848.000000	64.751029 
4847.000000	64.716744 
4846.000000	64.693140 
4845.000000	64.689183 
4844.000000	64.711213 
4843.000000	64.762043 
4842.000000	64.839291 
4841.000000	64.934968 
4840.000000	65.036678 
4839.000000	65.130496 
4838.000000	65.202689 
4837.000000	65.242624 
4836.000000	65.244388 
4835.000000	65.208005 
4834.000000	65.138769 
4833.000000	65.045976 
4832.000000	64.940786 
4831.000000	64.834308 
4830.000000	64.735317 
4829.000000	64.650273 
4828.000000	64.581704 
4827.000000	64.529371 
4826.000000	64.490532 
4825.000000	64.461588 
4824.000000	64.438962 
4823.000000	64.420151 
4822.000000	64.404749 
4821.000000	64.394283 
4820.000000	64.392066 
4819.000000	64.402079 
4818.000000	64.428305 
4817.000000	64.473390 
4816.000000	64.537477 
4815.000000	64.617562 
4814.000000	64.707970 
4813.000000	64.800786 
4812.000000	64.887356 
4811.000000	64.959931 
4810.000000	65.013742 
4809.000000	65.047287 
4808.000000	65.062808 
4807.000000	65.064525 
4806.000000	65.058207 
4805.000000	65.048408 
4804.000000	65.037918 
4803.000000	65.026712 
4802.000000	65.012526 
4801.000000	64.991974 
4800.000000	64.963078 
4799.000000	64.925622 
4798.000000	64.882040 
4797.000000	64.837121 
4796.000000	64.797449 
4795.000000	64.768862 
4794.000000	64.754724 
4793.000000	64.755272 
4792.000000	64.767360 
4791.000000	64.785337 
4790.000000	64.802241 
4789.000000	64.812278 
4788.000000	64.811778 
4787.000000	64.799690 
4786.000000	64.777684 
4785.000000	64.748930 
4784.000000	64.717459 
4783.000000	64.686751 
4782.000000	64.659786 
4781.000000	64.638066 
4780.000000	64.622569 
4779.000000	64.614295 
4778.000000	64.614272 
4777.000000	64.623308 
4776.000000	64.641928 
4775.000000	64.669990 
4774.000000	64.706206 
4773.000000	64.747405 
4772.000000	64.790010 
4771.000000	64.830207 
4770.000000	64.865565 
4769.000000	64.895153 
4768.000000	64.920401 
4767.000000	64.944362 
4766.000000	64.971232 
4765.000000	65.004825 
4764.000000	65.047860 
4763.000000	65.100932 
4762.000000	65.162682 
4761.000000	65.229654 
4760.000000	65.297293 
4759.000000	65.360617 
4758.000000	65.415525 
4757.000000	65.458989 
4756.000000	65.490412 
4755.000000	65.510177 
4754.000000	65.520048 
4753.000000	65.521168 
4752.000000	65.514063 
4751.000000	65.497589 
4750.000000	65.470385 
4749.000000	65.430402 
4748.000000	65.376472 
4747.000000	65.308976 
4746.000000	65.230846 
4745.000000	65.147113 
4744.000000	65.064525 
4743.000000	64.989900 
4742.000000	64.928960 
4741.000000	64.885091 
4740.000000	64.858722 
4739.000000	64.847707 
4738.000000	64.847970 
4737.000000	64.855480 
4736.000000	64.866828 
4735.000000	64.879965 
4734.000000	64.893794 
4733.000000	64.907217 
4732.000000	64.918637 
4731.000000	64.924526 
4730.000000	64.920878 
4729.000000	64.903950 
4728.000000	64.872312 
4727.000000	64.827609 
4726.000000	64.775323 
4725.000000	64.724302 
4724.000000	64.684700 
4723.000000	64.665603 
4722.000000	64.672732 
4721.000000	64.706516 
4720.000000	64.762353 
4719.000000	64.831233 
4718.000000	64.902615 
4717.000000	64.966940 
4716.000000	65.018177 
4715.000000	65.054965 
4714.000000	65.080308 
4713.000000	65.099930 
4712.000000	65.120029 
4711.000000	65.145015 
4710.000000	65.175986 
4709.000000	65.210318 
4708.000000	65.243148 
4707.000000	65.268468 
4706.000000	65.281295 
4705.000000	65.278744 
4704.000000	65.261626 
4703.000000	65.233612 
4702.000000	65.200400 
4701.000000	65.168023 
4700.000000	65.141606 
4699.000000	65.123796 
4698.000000	65.114712 
4697.000000	65.111780 
4696.000000	65.111088 
4695.000000	65.108108 
4694.000000	65.099406 
4693.000000	65.082931 
4692.000000	65.058469 
4691.000000	65.027356 
4690.000000	64.991903 
4689.000000	64.954662 
4688.000000	64.917683 
4687.000000	64.882254 
4686.000000	64.849019 
4685.000000	64.818000 
4684.000000	64.789462 
4683.000000	64.764618 
4682.000000	64.746117 
4681.000000	64.737391 
4680.000000	64.742326 
4679.000000	64.764046 
4678.000000	64.804077 
4677.000000	64.861297 
4676.000000	64.931821 
4675.000000	65.009617 
4674.000000	65.087080 
4673.000000	65.156412 
4672.000000	65.210390 
4671.000000	65.243625 
4670.000000	65.252852 
4669.000000	65.237760 
4668.000000	65.200328 
4667.000000	65.144419 
4666.000000	65.075707 
4665.000000	65.000963 
4664.000000	64.927554 
4663.000000	64.862918 
4662.000000	64.813446 
4661.000000	64.783906 
4660.000000	64.776206 
4659.000000	64.789223 
4658.000000	64.818620 
4657.000000	64.857792 
4656.000000	64.899420 
4655.000000	64.936876 
4654.000000	64.965438 
4653.000000	64.983034 
4652.000000	64.989829 
4651.000000	64.987826 
4650.000000	64.979386 
4649.000000	64.966869 
4648.000000	64.951753 
4647.000000	64.934682 
4646.000000	64.916062 
4645.000000	64.896106 
4644.000000	64.876294 
4643.000000	64.858484 
4642.000000	64.845252 
4641.000000	64.838433 
4640.000000	64.838910 
4639.000000	64.845633 
4638.000000	64.855670 
4637.000000	64.864873 
4636.000000	64.868855 
4635.000000	64.863991 
4634.000000	64.848637 
4633.000000	64.823055 
4632.000000	64.789032 
4631.000000	64.749670 
4630.000000	64.708662 
4629.000000	64.669656 
4628.000000	64.635682 
4627.000000	64.609456 
4626.000000	64.592909 
4625.000000	64.586877 
4624.000000	64.590764 
4623.000000	64.602684 
4622.000000	64.619469 
4621.000000	64.636635 
4620.000000	64.649558 
4619.000000	64.653968 
4618.000000	64.647626 
4617.000000	64.630866 
4616.000000	64.607167 
4615.000000	64.582419 
4614.000000	64.563512 
4613.000000	64.556550 
4612.000000	64.564967 
4611.000000	64.588618 
4610.000000	64.623403 
4609.000000	64.662313 
4608.000000	64.696979 
4607.000000	64.720177 
4606.000000	64.727520 
4605.000000	64.718961 
4604.000000	64.698386 
4603.000000	64.673018 
4602.000000	64.652037 
4601.000000	64.644622 
4600.000000	64.657926 
4599.000000	64.695453 
4598.000000	64.756679 
4597.000000	64.836835 
4596.000000	64.928460 
4595.000000	65.022158 
4594.000000	65.108180 
4593.000000	65.178060 
4592.000000	65.225434 
4591.000000	65.247416 
4590.000000	65.244293 
4589.000000	65.219807 
4588.000000	65.180230 
4587.000000	65.133500 
4586.000000	65.088391 
4585.000000	65.052080 
4584.000000	65.030145 
4583.000000	65.024137 
4582.000000	65.032362 
4581.000000	65.049076 
4580.000000	65.066552 
4579.000000	65.075850 
4578.000000	65.068984 
4577.000000	65.040373 
4576.000000	64.988398 
4575.000000	64.915871 
4574.000000	64.829730 
4573.000000	64.739561 
4572.000000	64.655947 
4571.000000	64.588570 
4570.000000	64.544534 
4569.000000	64.526939 
4568.000000	64.534616 
4567.000000	64.563202 
4566.000000	64.605808 
4565.000000	64.654159 
4564.000000	64.700150 
4563.000000	64.737176 
4562.000000	64.760804 
4561.000000	64.768528 
4560.000000	64.760589 
4559.000000	64.738893 
4558.000000	64.707231 
4557.000000	64.670348 
4556.000000	64.633417 
4555.000000	64.601016 
4554.000000	64.577031 
4553.000000	64.564299 
4552.000000	64.564204 
4551.000000	64.576530 
4550.000000	64.599895 
4549.000000	64.632010 
4548.000000	64.669752 
4547.000000	64.709329 
4546.000000	64.746689 
4545.000000	64.777469 
4544.000000	64.797139 
4543.000000	64.801478 
4542.000000	64.787292 
4541.000000	64.753198 
4540.000000	64.699840 
4539.000000	64.630794 
4538.000000	64.552259 
4537.000000	64.472794 
4536.000000	64.402580 
4535.000000	64.351177 
4534.000000	64.325618 
4533.000000	64.329123 
4532.000000	64.360499 
4531.000000	64.414000 
4530.000000	64.480304 
4529.000000	64.549064 
4528.000000	64.611005 
4527.000000	64.660143 
4526.000000	64.694356 
4525.000000	64.715099 
4524.000000	64.726161 
4523.000000	64.732360 
4522.000000	64.737606 
4521.000000	64.744281 
4520.000000	64.752602 
4519.000000	64.761877 
4518.000000	64.770460 
4517.000000	64.777183 
4516.000000	64.780807 
4515.000000	64.781308 
4514.000000	64.778137 
4513.000000	64.770078 
4512.000000	64.754295 
4511.000000	64.727163 
4510.000000	64.684891 
4509.000000	64.624714 
4508.000000	64.546442 
4507.000000	64.453172 
4506.000000	64.351487 
4505.000000	64.250421 
4504.000000	64.160203 
4503.000000	64.090037 
4502.000000	64.047026 
4501.000000	64.034581 
4500.000000	64.052081 
4499.000000	64.095115 
4498.000000	64.156365 
4497.000000	64.227342 
4496.000000	64.299154 
4495.000000	64.364409 
4494.000000	64.418125 
4493.000000	64.458775 
4492.000000	64.487767 
4491.000000	64.509367 
4490.000000	64.529919 
4489.000000	64.555859 
4488.000000	64.593148 
4487.000000	64.644360 
4486.000000	64.708089 
4485.000000	64.778280 
4484.000000	64.845514 
4483.000000	64.898991 
4482.000000	64.929676 
4481.000000	64.932107 
4480.000000	64.907574 
4479.000000	64.861702 
4478.000000	64.802598 
4477.000000	64.739465 
4476.000000	64.680409 
4475.000000	64.631867 
4474.000000	64.597725 
4473.000000	64.580488 
4472.000000	64.582180 
4471.000000	64.601659 
4470.000000	64.635086 
4469.000000	64.676523 
4468.000000	64.718961 
4467.000000	64.756917 
4466.000000	64.786958 
4465.000000	64.808487 
4464.000000	64.822578 
4463.000000	64.831352 
4462.000000	64.836525 
4461.000000	64.834618 
4460.000000	64.820647 
4459.000000	64.792656 
4458.000000	64.752626 
4457.000000	64.702534 
4456.000000	64.650130 
4455.000000	64.612007 
4454.000000	64.605879 
4453.000000	64.644289 
4452.000000	64.732646 
4451.000000	64.864754 
4450.000000	65.027546 
4449.000000	65.204548 
4448.000000	65.379261 
4447.000000	65.535545 
4446.000000	65.671086 
4445.000000	65.799522 
4444.000000	65.934610 
4443.000000	66.082978 
4442.000000	66.244554 
4441.000000	66.408586 
4440.000000	66.556596 
4439.000000	66.662764 
4438.000000	66.705179 
4437.000000	66.661882 
4436.000000	66.522145 
4435.000000	66.273665 
4434.000000	65.909552 
4433.000000	65.414667 
4432.000000	64.772558 
4431.000000	63.964819 
4430.000000	62.975978 
4429.000000	61.813735 
4428.000000	60.511255 
4427.000000	59.148788 
4426.000000	57.830739 
4425.000000	56.704092 
4424.000000	55.916738 
4423.000000	55.620837 
4422.000000	55.921578 
4421.000000	56.887006 
4420.000000	58.520054 
4419.000000	60.755968 
4418.000000	63.457393 
4417.000000	66.418290 
4416.000000	69.384098 
4415.000000	72.077155 
4414.000000	74.236822 
4413.000000	75.665664 
4412.000000	76.259398 
4411.000000	76.036381 
4410.000000	75.120186 
4409.000000	73.721003 
4408.000000	72.077035 
4407.000000	70.428228 
4406.000000	68.952417 
4405.000000	67.760372 
4404.000000	66.871929 
4403.000000	66.254663 
4402.000000	65.832233 
4401.000000	65.524721 
4400.000000	65.270280 
4399.000000	65.037536 
4398.000000	64.832687 
4397.000000	64.673852 
4396.000000	64.591956 
4395.000000	64.597606 
4394.000000	64.690089 
4393.000000	64.845871 
4392.000000	65.033388 
4391.000000	65.219163 
4390.000000	65.375709 
4389.000000	65.488123 
4388.000000	65.547394 
4387.000000	65.550208 
4386.000000	65.505623 
4385.000000	65.430736 
4384.000000	65.341305 
4383.000000	65.248703 
4382.000000	65.165901 
4381.000000	65.100789 
4380.000000	65.053176 
4379.000000	65.016555 
4378.000000	64.981603 
4377.000000	64.938902 
4376.000000	64.887881 
4375.000000	64.831972 
4374.000000	64.771938 
4373.000000	64.710927 
4372.000000	64.654469 
4371.000000	64.607882 
4370.000000	64.572954 
4369.000000	64.550638 
4368.000000	64.541578 
4367.000000	64.545035 
4366.000000	64.559054 
4365.000000	64.580774 
4364.000000	64.606618 
4363.000000	64.632153 
4362.000000	64.652395 
4361.000000	64.662671 
4360.000000	64.659476 
4359.000000	64.642715 
4358.000000	64.615535 
4357.000000	64.583516 
4356.000000	64.553141 
4355.000000	64.530205 
4354.000000	64.518022 
4353.000000	64.516282 
4352.000000	64.521694 
4351.000000	64.528942 
4350.000000	64.532685 
4349.000000	64.530014 
4348.000000	64.521384 
4347.000000	64.509606 
4346.000000	64.499998 
4345.000000	64.497733 
4344.000000	64.507555 
4343.000000	64.531707 
4342.000000	64.570116 
4341.000000	64.620733 
4340.000000	64.679360 
4339.000000	64.740562 
4338.000000	64.798402 
4337.000000	64.847636 
4336.000000	64.883208 
4335.000000	64.900803 
4334.000000	64.897227 
4333.000000	64.870905 
4332.000000	64.822077 
4331.000000	64.753103 
4330.000000	64.669036 
4329.000000	64.577031 
4328.000000	64.485740 
4327.000000	64.403867 
4326.000000	64.339280 
4325.000000	64.297437 
4324.000000	64.280152 
4323.000000	64.285683 
4322.000000	64.308953 
4321.000000	64.343428 
4320.000000	64.381670 
4319.000000	64.418125 
4318.000000	64.448714 
4317.000000	64.472794 
4316.000000	64.491581 
4315.000000	64.508581 
4314.000000	64.527344 
4313.000000	64.551782 
4312.000000	64.584946 
4311.000000	64.628243 
4310.000000	64.681148 
4309.000000	64.741253 
4308.000000	64.804553 
4307.000000	64.865922 
4306.000000	64.920115 
4305.000000	64.963173 
4304.000000	64.993333 
4303.000000	65.011692 
4302.000000	65.021705 
4301.000000	65.028262 
4300.000000	65.036106 
4299.000000	65.049076 
4298.000000	65.068531 
4297.000000	65.092682 
4296.000000	65.117359 
4295.000000	65.137767 
4294.000000	65.149593 
4293.000000	65.150904 
4292.000000	65.142130 
4291.000000	65.126848 
4290.000000	65.109467 
4289.000000	65.094065 
4288.000000	65.082263 
4287.000000	65.072250 
4286.000000	65.059566 
4285.000000	65.038466 
4284.000000	65.003895 
4283.000000	64.953517 
4282.000000	64.888978 
4281.000000	64.816117 
4280.000000	64.743661 
4279.000000	64.681220 
4278.000000	64.637660 
4277.000000	64.618825 
4276.000000	64.626193 
4275.000000	64.656782 
4274.000000	64.704203 
4273.000000	64.760160 
4272.000000	64.816117 
4271.000000	64.865088 
4270.000000	64.902520 
4269.000000	64.926886 
4268.000000	64.938664 
4267.000000	64.940071 
4266.000000	64.933300 
4265.000000	64.920330 
4264.000000	64.902520 
4263.000000	64.880585 
4262.000000	64.855146 
4261.000000	64.826822 
4260.000000	64.797282 
4259.000000	64.768862 
4258.000000	64.744520 
4257.000000	64.726924 
4256.000000	64.717912 
4255.000000	64.717459 
4254.000000	64.723658 
4253.000000	64.733004 
4252.000000	64.741420 
4251.000000	64.745402 
4250.000000	64.743065 
4249.000000	64.734816 
4248.000000	64.723587 
4247.000000	64.713215 
4246.000000	64.707899 
4245.000000	64.710569 
4244.000000	64.722752 
4243.000000	64.743852 
4242.000000	64.772033 
4241.000000	64.804887 
4240.000000	64.840316 
4239.000000	64.877557 
4238.000000	64.916491 
4237.000000	64.957880 
4236.000000	65.001606 
4235.000000	65.046310 
4234.000000	65.088796 
4233.000000	65.124440 
4232.000000	65.148138 
4231.000000	65.155410 
4230.000000	65.144348 
4229.000000	65.116429 
4228.000000	65.076351 
4227.000000	65.031313 
4226.000000	64.989304 
4225.000000	64.957451 
4224.000000	64.940333 
4223.000000	64.939260 
4222.000000	64.952015 
4221.000000	64.973807 
4220.000000	64.999127 
4219.000000	65.022945 
4218.000000	65.041899 
4217.000000	65.054655 
4216.000000	65.062046 
4215.000000	65.066266 
4214.000000	65.069437 
4213.000000	65.073037 
4212.000000	65.077280 
4211.000000	65.081214 
4210.000000	65.083408 
4209.000000	65.082573 
4208.000000	65.078592 
4207.000000	65.072703 
4206.000000	65.067267 
4205.000000	65.065670 
4204.000000	65.071415 
4203.000000	65.086865 
4202.000000	65.112376 
4201.000000	65.146183 
4200.000000	65.184497 
4199.000000	65.222334 
4198.000000	65.254259 
4197.000000	65.274834 
4196.000000	65.279650 
4195.000000	65.266275 
4194.000000	65.234470 
4193.000000	65.185952 
4192.000000	65.124297 
4191.000000	65.054440 
4190.000000	64.982295 
4189.000000	64.914011 
4188.000000	64.855504 
4187.000000	64.811682 
4186.000000	64.786434 
4185.000000	64.782285 
4184.000000	64.799809 
4183.000000	64.837598 
4182.000000	64.891386 
4181.000000	64.954352 
4180.000000	65.017509 
4179.000000	65.070772 
4178.000000	65.104961 
4177.000000	65.113258 
4176.000000	65.093588 
4175.000000	65.048980 
4174.000000	64.988303 
4173.000000	64.924359 
4172.000000	64.871978 
4171.000000	64.844274 
4170.000000	64.849805 
4169.000000	64.890241 
4168.000000	64.959740 
4167.000000	65.046143 
4166.000000	65.133857 
4165.000000	65.207457 
4164.000000	65.254902 
4163.000000	65.270328 
4162.000000	65.254497 
4161.000000	65.214586 
4160.000000	65.161442 
4159.000000	65.107536 
4158.000000	65.063357 
4157.000000	65.035963 
4156.000000	65.028333 
4155.000000	65.038919 
4154.000000	65.063571 
4153.000000	65.096306 
4152.000000	65.131449 
4151.000000	65.164279 
4150.000000	65.191698 
4149.000000	65.212178 
4148.000000	65.225243 
4147.000000	65.231704 
4146.000000	65.233039 
4145.000000	65.231227 
4144.000000	65.228295 
4143.000000	65.225553 
4142.000000	65.223336 
4141.000000	65.221023 
4140.000000	65.217137 
4139.000000	65.209865 
4138.000000	65.197706 
4137.000000	65.180206 
4136.000000	65.158128 
4135.000000	65.133786 
4134.000000	65.110254 
4133.000000	65.090370 
4132.000000	65.076112 
4131.000000	65.068078 
4130.000000	65.065336 
4129.000000	65.065622 
4128.000000	65.066194 
4127.000000	65.064597 
4126.000000	65.059685 
4125.000000	65.052056 
4124.000000	65.043902 
4123.000000	65.038180 
4122.000000	65.037918 
4121.000000	65.045022 
4120.000000	65.060377 
4119.000000	65.083456 
4118.000000	65.112447 
4117.000000	65.144705 
4116.000000	65.177035 
4115.000000	65.206289 
4114.000000	65.229392 
4113.000000	65.244007 
4112.000000	65.248465 
4111.000000	65.242195 
4110.000000	65.226101 
4109.000000	65.202164 
4108.000000	65.173316 
4107.000000	65.143036 
4106.000000	65.115141 
4105.000000	65.092945 
4104.000000	65.079140 
4103.000000	65.074968 
4102.000000	65.080499 
4101.000000	65.094184 
4100.000000	65.113329 
4099.000000	65.134572 
4098.000000	65.154385 
4097.000000	65.169572 
4096.000000	65.177655 
4095.000000	65.177202 
4094.000000	65.167880 
4093.000000	65.150332 
4092.000000	65.126132 
4091.000000	65.097308 
4090.000000	65.066123 
4089.000000	65.034651 
4088.000000	65.004706 
4087.000000	64.977741 
4086.000000	64.955425 
4085.000000	64.939546 
4084.000000	64.932274 
4083.000000	64.935636 
4082.000000	64.951229 
4081.000000	64.979434 
4080.000000	65.018939 
4079.000000	65.066623 
4078.000000	65.117669 
4077.000000	65.166640 
4076.000000	65.208315 
4075.000000	65.238833 
4074.000000	65.256333 
4073.000000	65.261292 
4072.000000	65.256142 
4071.000000	65.244603 
4070.000000	65.230274 
4069.000000	65.216064 
4068.000000	65.203475 
4067.000000	65.192627 
4066.000000	65.182757 
4065.000000	65.172982 
4064.000000	65.163016 
4063.000000	65.153479 
4062.000000	65.145683 
4061.000000	65.141367 
4060.000000	65.142059 
4059.000000	65.148496 
4058.000000	65.160393 
4057.000000	65.176391 
4056.000000	65.194725 
4055.000000	65.213584 
4054.000000	65.231394 
4053.000000	65.246915 
4052.000000	65.259480 
4051.000000	65.268516 
4050.000000	65.273165 
4049.000000	65.272283 
4048.000000	65.264296 
4047.000000	65.247941 
4046.000000	65.223050 
4045.000000	65.190768 
4044.000000	65.153789 
4043.000000	65.115904 
4042.000000	65.081405 
4041.000000	65.054273 
4040.000000	65.037155 
4039.000000	65.031099 
4038.000000	65.035390 
4037.000000	65.047907 
4036.000000	65.065932 
4035.000000	65.086770 
4034.000000	65.108466 
4033.000000	65.129733 
4032.000000	65.150284 
4031.000000	65.170550 
4030.000000	65.191268 
4029.000000	65.212917 
4028.000000	65.235352 
4027.000000	65.257954 
4026.000000	65.278911 
4025.000000	65.296292 
4024.000000	65.307235 
4023.000000	65.309095 
4022.000000	65.299606 
4021.000000	65.277481 
4020.000000	65.243577 
4019.000000	65.200710 
4018.000000	65.154194 
4017.000000	65.110802 
4016.000000	65.077877 
4015.000000	65.061783 
4014.000000	65.066123 
4013.000000	65.090990 
4012.000000	65.132141 
4011.000000	65.181851 
4010.000000	65.230441 
4009.000000	65.268373 
4008.000000	65.288162 
4007.000000	65.286231 
4006.000000	65.263605 
4005.000000	65.225481 
4004.000000	65.179800 
4003.000000	65.135526 
4002.000000	65.100026 
4001.000000	65.078067 
4000.000000	65.071153 
3999.000000	65.077280 
3998.000000	65.092802 
3997.000000	65.112709 
3996.000000	65.132498 
3995.000000	65.148663 
3994.000000	65.159130 
3993.000000	65.163278 
3992.000000	65.161323 
3991.000000	65.154123 
3990.000000	65.142345 
3989.000000	65.126848 
3988.000000	65.108680 
3987.000000	65.089249 
3986.000000	65.070629 
3985.000000	65.055060 
3984.000000	65.044713 
3983.000000	65.041208 
3982.000000	65.045118 
3981.000000	65.055394 
3980.000000	65.069603 
3979.000000	65.084314 
3978.000000	65.095901 
3977.000000	65.101289 
3976.000000	65.099024 
3975.000000	65.089130 
3974.000000	65.073585 
3973.000000	65.055489 
3972.000000	65.038490 
3971.000000	65.025973 
3970.000000	65.019941 
3969.000000	65.020608 
3968.000000	65.026259 
3967.000000	65.033960 
3966.000000	65.039896 
3965.000000	65.040302 
3964.000000	65.032243 
3963.000000	65.014243 
3962.000000	64.986753 
3961.000000	64.951848 
3960.000000	64.913272 
3959.000000	64.875555 
3958.000000	64.843773 
3957.000000	64.822554 
3956.000000	64.815545 
3955.000000	64.824795 
3954.000000	64.850473 
3953.000000	64.890480 
3952.000000	64.940905 
3951.000000	64.996504 
3950.000000	65.051078 
3949.000000	65.098810 
3948.000000	65.134954 
3947.000000	65.156674 
3946.000000	65.163540 
3945.000000	65.157580 
3944.000000	65.142393 
3943.000000	65.122747 
3942.000000	65.103363 
3941.000000	65.088081 
3940.000000	65.079545 
3939.000000	65.078711 
3938.000000	65.085124 
3937.000000	65.097260 
3936.000000	65.113449 
3935.000000	65.131664 
3934.000000	65.149974 
3933.000000	65.166425 
3932.000000	65.179181 
3931.000000	65.186381 
3930.000000	65.186572 
3929.000000	65.178966 
3928.000000	65.163803 
3927.000000	65.142798 
3926.000000	65.119004 
3925.000000	65.096521 
3924.000000	65.079641 
3923.000000	65.071773 
3922.000000	65.074443 
3921.000000	65.086627 
3920.000000	65.105056 
3919.000000	65.125060 
3918.000000	65.141797 
3917.000000	65.150976 
3916.000000	65.150666 
3915.000000	65.141487 
3914.000000	65.126800 
3913.000000	65.111255 
3912.000000	65.100264 
3911.000000	65.098500 
3910.000000	65.108728 
3909.000000	65.131258 
3908.000000	65.163540 
3907.000000	65.200829 
3906.000000	65.237092 
3905.000000	65.266537 
3904.000000	65.284633 
3903.000000	65.289187 
3902.000000	65.280556 
3901.000000	65.261530 
3900.000000	65.236473 
3899.000000	65.210247 
3898.000000	65.187358 
3897.000000	65.170407 
3896.000000	65.160322 
3895.000000	65.155649 
3894.000000	65.153694 
3893.000000	65.150904 
3892.000000	65.143799 
3891.000000	65.129709 
3890.000000	65.107393 
3889.000000	65.077209 
3888.000000	65.040349 
3887.000000	64.999318 
3886.000000	64.956665 
3885.000000	64.915680 
3884.000000	64.879655 
3883.000000	64.851975 
3882.000000	64.835524 
3881.000000	64.832210 
3880.000000	64.842629 
3879.000000	64.865756 
3878.000000	64.898633 
3877.000000	64.937186 
3876.000000	64.976572 
3875.000000	65.012049 
3874.000000	65.039801 
3873.000000	65.057516 
3872.000000	65.064454 
3871.000000	65.061473 
3870.000000	65.050625 
3869.000000	65.034675 
3868.000000	65.016746 
3867.000000	64.999818 
3866.000000	64.986348 
3865.000000	64.978384 
3864.000000	64.977169 
3863.000000	64.983367 
3862.000000	64.996552 
3861.000000	65.015482 
3860.000000	65.037822 
3859.000000	65.060687 
3858.000000	65.080928 
3857.000000	65.095686 
3856.000000	65.103030 
3855.000000	65.102434 
3854.000000	65.094757 
3853.000000	65.081787 
3852.000000	65.066266 
3851.000000	65.051245 
3850.000000	65.039634 
3849.000000	65.033721 
3848.000000	65.034937 
3847.000000	65.043544 
3846.000000	65.058636 
3845.000000	65.078091 
3844.000000	65.098500 
3843.000000	65.115618 
3842.000000	65.125036 
3841.000000	65.123033 
3840.000000	65.106916 
3839.000000	65.076375 
3838.000000	65.033364 
3837.000000	64.982509 
3836.000000	64.930391 
3835.000000	64.884328 
3834.000000	64.851093 
3833.000000	64.835476 
3832.000000	64.839434 
3831.000000	64.861702 
3830.000000	64.898061 
3829.000000	64.942407 
3828.000000	64.988183 
3827.000000	65.029668 
3826.000000	65.062832 
3825.000000	65.085911 
3824.000000	65.099167 
3823.000000	65.104460 
3822.000000	65.104174 
3821.000000	65.100622 
3820.000000	65.095233 
3819.000000	65.088415 
3818.000000	65.079689 
3817.000000	65.068507 
3816.000000	65.054655 
3815.000000	65.038990 
3814.000000	65.023398 
3813.000000	65.010619 
3812.000000	65.003275 
3811.000000	65.002799 
3810.000000	65.009689 
3809.000000	65.022420 
3808.000000	65.039086 
3807.000000	65.057301 
3806.000000	65.075802 
3805.000000	65.094852 
3804.000000	65.116286 
3803.000000	65.142655 
3802.000000	65.176200 
3801.000000	65.217804 
3800.000000	65.265893 
3799.000000	65.316486 
3798.000000	65.363669 
3797.000000	65.400743 
3796.000000	65.422129 
3795.000000	65.424609 
3794.000000	65.408015 
3793.000000	65.375185 
3792.000000	65.331101 
3791.000000	65.281939 
3790.000000	65.233182 
3789.000000	65.189051 
3788.000000	65.152215 
3787.000000	65.124011 
3786.000000	65.105056 
3785.000000	65.095853 
3784.000000	65.096998 
3783.000000	65.109348 
3782.000000	65.133166 
3781.000000	65.168142 
3780.000000	65.212273 
3779.000000	65.262436 
3778.000000	65.314078 
3777.000000	65.362238 
3776.000000	65.402364 
3775.000000	65.431141 
3774.000000	65.447139 
3773.000000	65.450525 
3772.000000	65.443277 
3771.000000	65.427827 
3770.000000	65.406560 
3769.000000	65.381193 
3768.000000	65.352821 
3767.000000	65.321469 
3766.000000	65.286707 
3765.000000	65.247941 
3764.000000	65.205192 
3763.000000	65.159106 
3762.000000	65.111494 
3761.000000	65.064787 
3760.000000	65.022063 
3759.000000	64.986634 
3758.000000	64.961385 
3757.000000	64.947509 
3756.000000	64.945030 
3755.000000	64.952254 
3754.000000	64.966869 
3753.000000	64.985895 
3752.000000	65.006780 
3751.000000	65.027713 
3750.000000	65.047693 
3749.000000	65.066075 
3748.000000	65.082001 
3747.000000	65.094256 
3746.000000	65.100383 
3745.000000	65.097188 
3744.000000	65.080928 
3743.000000	65.048456 
3742.000000	64.998269 
3741.000000	64.931392 
3740.000000	64.851856 
3739.000000	64.766716 
3738.000000	64.684867 
3737.000000	64.615941 
3736.000000	64.568400 
3735.000000	64.548254 
3734.000000	64.557743 
3733.000000	64.595484 
3732.000000	64.656448 
3731.000000	64.733552 
3730.000000	64.818429 
3729.000000	64.903640 
3728.000000	64.983224 
3727.000000	65.054130 
3726.000000	65.115499 
3725.000000	65.168762 
3724.000000	65.216231 
3723.000000	65.260291 
3722.000000	65.302515 
3721.000000	65.342736 
3720.000000	65.379571 
3719.000000	65.410089 
3718.000000	65.431332 
3717.000000	65.440464 
3716.000000	65.436172 
3715.000000	65.418410 
3714.000000	65.388894 
3713.000000	65.350317 
3712.000000	65.306329 
3711.000000	65.260410 
3710.000000	65.215635 
3709.000000	65.174484 
3708.000000	65.138888 
3707.000000	65.110111 
3706.000000	65.089225 
3705.000000	65.077161 
3704.000000	65.074706 
3703.000000	65.081977 
3702.000000	65.098476 
3701.000000	65.122365 
3700.000000	65.150761 
3699.000000	65.179920 
3698.000000	65.205979 
3697.000000	65.225100 
3696.000000	65.234684 
3695.000000	65.234017 
3694.000000	65.224289 
3693.000000	65.208172 
3692.000000	65.189409 
3691.000000	65.172100 
3690.000000	65.159583 
3689.000000	65.153741 
3688.000000	65.154695 
3687.000000	65.160942 
3686.000000	65.169954 
3685.000000	65.178775 
3684.000000	65.184760 
3683.000000	65.186119 
3682.000000	65.182328 
3681.000000	65.174055 
3680.000000	65.162491 
3679.000000	65.149402 
3678.000000	65.136432 
3677.000000	65.124869 
3676.000000	65.115714 
3675.000000	65.109634 
3674.000000	65.107083 
3673.000000	65.108656 
3672.000000	65.114951 
3671.000000	65.126347 
3670.000000	65.142703 
3669.000000	65.163087 
3668.000000	65.185713 
3667.000000	65.207958 
3666.000000	65.226650 
3665.000000	65.238857 
3664.000000	65.242505 
3663.000000	65.237092 
3662.000000	65.223884 
3661.000000	65.205907 
3660.000000	65.187168 
3659.000000	65.172100 
3658.000000	65.164232 
3657.000000	65.165495 
3656.000000	65.175437 
3655.000000	65.191769 
3654.000000	65.210509 
3653.000000	65.227246 
3652.000000	65.237998 
3651.000000	65.240311 
3650.000000	65.233540 
3649.000000	65.218973 
3648.000000	65.199136 
3647.000000	65.177083 
3646.000000	65.155386 
3645.000000	65.135645 
3644.000000	65.118145 
3643.000000	65.102291 
3642.000000	65.087151 
3641.000000	65.072154 
3640.000000	65.057730 
3639.000000	65.045428 
3638.000000	65.037751 
3637.000000	65.037465 
3636.000000	65.046811 
3635.000000	65.066432 
3634.000000	65.095210 
3633.000000	65.130329 
3632.000000	65.167641 
3631.000000	65.202617 
3630.000000	65.231728 
3629.000000	65.252852 
3628.000000	65.265965 
3627.000000	65.272712 
3626.000000	65.275812 
3625.000000	65.278005 
3624.000000	65.281438 
3623.000000	65.286898 
3622.000000	65.293884 
3621.000000	65.300750 
3620.000000	65.305685 
3619.000000	65.307140 
3618.000000	65.304851 
3617.000000	65.299630 
3616.000000	65.293478 
3615.000000	65.288758 
3614.000000	65.287613 
3613.000000	65.291380 
3612.000000	65.300130 
3611.000000	65.312480 
3610.000000	65.326309 
3609.000000	65.338802 
3608.000000	65.347385 
3607.000000	65.349912 
3606.000000	65.345215 
3605.000000	65.333127 
3604.000000	65.314316 
3603.000000	65.290355 
3602.000000	65.263533 
3601.000000	65.236639 
3600.000000	65.212464 
3599.000000	65.193819 
3598.000000	65.182828 
3597.000000	65.180730 
3596.000000	65.187311 
3595.000000	65.201067 
3594.000000	65.219235 
3593.000000	65.238118 
3592.000000	65.253758 
3591.000000	65.262770 
3590.000000	65.263032 
3589.000000	65.253877 
3588.000000	65.236520 
3587.000000	65.213632 
3586.000000	65.188479 
3585.000000	65.164542 
3584.000000	65.144419 
3583.000000	65.129542 
3582.000000	65.119934 
3581.000000	65.114569 
3580.000000	65.111732 
3579.000000	65.109777 
3578.000000	65.107512 
3577.000000	65.104651 
3576.000000	65.101790 
3575.000000	65.100073 
3574.000000	65.100955 
3573.000000	65.105319 
3572.000000	65.113115 
3571.000000	65.123033 
3570.000000	65.132951 
3569.000000	65.140271 
3568.000000	65.142464 
3567.000000	65.137696 
3566.000000	65.125560 
3565.000000	65.106892 
3564.000000	65.083813 
3563.000000	65.059280 
3562.000000	65.036392 
3561.000000	65.017914 
3560.000000	65.005755 
3559.000000	65.000700 
3558.000000	65.002393 
3557.000000	65.009284 
3556.000000	65.019392 
3555.000000	65.030169 
3554.000000	65.039229 
3553.000000	65.044736 
3552.000000	65.045499 
3551.000000	65.041446 
3550.000000	65.033531 
3549.000000	65.023756 
3548.000000	65.014648 
3547.000000	65.009117 
3546.000000	65.009260 
3545.000000	65.016055 
3544.000000	65.028905 
3543.000000	65.045690 
3542.000000	65.063238 
3541.000000	65.078043 
3540.000000	65.087246 
3539.000000	65.089321 
3538.000000	65.084719 
3537.000000	65.075850 
3536.000000	65.066218 
3535.000000	65.059518 
3534.000000	65.058517 
3533.000000	65.064311 
3532.000000	65.075683 
3531.000000	65.089774 
3530.000000	65.102410 
3529.000000	65.109395 
3528.000000	65.107750 
3527.000000	65.096545 
3526.000000	65.077280 
3525.000000	65.053343 
3524.000000	65.029358 
3523.000000	65.009832 
3522.000000	64.998650 
3521.000000	64.998197 
3520.000000	65.008950 
3519.000000	65.029764 
3518.000000	65.058541 
3517.000000	65.092778 
3516.000000	65.129899 
3515.000000	65.167427 
3514.000000	65.203166 
3513.000000	65.234875 
3512.000000	65.260338 
3511.000000	65.277242 
3510.000000	65.283656 
3509.000000	65.278601 
3508.000000	65.262365 
3507.000000	65.236854 
3506.000000	65.205359 
3505.000000	65.172266 
3504.000000	65.142464 
3503.000000	65.120363 
3502.000000	65.108871 
3501.000000	65.109205 
3500.000000	65.120625 
3499.000000	65.140509 
3498.000000	65.164947 
3497.000000	65.189480 
3496.000000	65.209746 
3495.000000	65.222311 
3494.000000	65.224838 
3493.000000	65.216302 
3492.000000	65.196943 
3491.000000	65.168070 
3490.000000	65.131831 
3489.000000	65.090727 
3488.000000	65.047430 
3487.000000	65.004611 
3486.000000	64.964795 
3485.000000	64.929986 
3484.000000	64.901995 
3483.000000	64.882373 
3482.000000	64.872407 
3481.000000	64.872598 
3480.000000	64.882946 
3479.000000	64.902377 
3478.000000	64.929246 
3477.000000	64.960861 
3476.000000	64.994668 
3475.000000	65.028214 
3474.000000	65.059852 
3473.000000	65.088796 
3472.000000	65.114927 
3471.000000	65.138435 
3470.000000	65.159368 
3469.000000	65.177512 
3468.000000	65.192031 
3467.000000	65.201520 
3466.000000	65.204548 
3465.000000	65.199899 
3464.000000	65.187430 
3463.000000	65.167880 
3462.000000	65.143299 
3461.000000	65.116477 
3460.000000	65.090203 
3459.000000	65.066885 
3458.000000	65.048432 
3457.000000	65.035653 
3456.000000	65.028309 
3455.000000	65.025472 
3454.000000	65.026187 
3453.000000	65.029191 
3452.000000	65.033054 
3451.000000	65.036368 
3450.000000	65.037775 
3449.000000	65.036273 
3448.000000	65.031361 
3447.000000	65.023136 
3446.000000	65.012383 
3445.000000	65.000510 
3444.000000	64.989256 
3443.000000	64.980340 
3442.000000	64.974689 
3441.000000	64.972758 
3440.000000	64.974045 
3439.000000	64.977455 
3438.000000	64.981508 
3437.000000	64.985036 
3436.000000	64.987611 
3435.000000	64.989519 
3434.000000	64.992070 
3433.000000	64.997005 
3432.000000	65.006422 
3431.000000	65.021848 
3430.000000	65.044140 
3429.000000	65.073060 
3428.000000	65.107321 
3427.000000	65.144896 
3426.000000	65.182828 
3425.000000	65.217876 
3424.000000	65.246772 
3423.000000	65.266942 
3422.000000	65.276765 
3421.000000	65.276002 
3420.000000	65.265893 
3419.000000	65.249037 
3418.000000	65.228939 
3417.000000	65.209269 
3416.000000	65.193223 
3415.000000	65.183091 
3414.000000	65.179562 
3413.000000	65.182018 
3412.000000	65.188646 
3411.000000	65.197062 
3410.000000	65.204668 
3409.000000	65.209650 
3408.000000	65.210723 
3407.000000	65.207910 
3406.000000	65.201687 
3405.000000	65.193295 
3404.000000	65.183925 
3403.000000	65.174770 
3402.000000	65.166950 
3401.000000	65.161299 
3400.000000	65.158462 
3399.000000	65.158605 
3398.000000	65.161895 
3397.000000	65.167999 
3396.000000	65.176105 
3395.000000	65.185141 
3394.000000	65.194129 
3393.000000	65.202093 
3392.000000	65.208244 
3391.000000	65.212440 
3390.000000	65.214991 
3389.000000	65.216493 
3388.000000	65.217638 
3387.000000	65.218782 
3386.000000	65.219807 
3385.000000	65.220236 
3384.000000	65.219473 
3383.000000	65.217185 
3382.000000	65.213394 
3381.000000	65.208888 
3380.000000	65.204930 
3379.000000	65.203046 
3378.000000	65.204167 
3377.000000	65.208458 
3376.000000	65.214729 
3375.000000	65.220689 
3374.000000	65.223336 
3373.000000	65.219855 
3372.000000	65.208196 
3371.000000	65.187621 
3370.000000	65.159106 
3369.000000	65.125155 
3368.000000	65.089344 
3367.000000	65.055274 
3366.000000	65.026068 
3365.000000	65.003681 
3364.000000	64.988946 
3363.000000	64.981770 
3362.000000	64.981389 
3361.000000	64.986753 
3360.000000	64.996695 
3359.000000	65.009999 
3358.000000	65.025258 
3357.000000	65.040993 
3356.000000	65.055274 
3355.000000	65.066313 
3354.000000	65.072441 
3353.000000	65.072703 
3352.000000	65.067362 
3351.000000	65.057992 
3350.000000	65.047144 
3349.000000	65.038251 
3348.000000	65.034890 
3347.000000	65.039873 
3346.000000	65.054678 
3345.000000	65.078783 
3344.000000	65.109944 
3343.000000	65.144157 
3342.000000	65.176844 
3341.000000	65.203404 
3340.000000	65.220093 
3339.000000	65.224909 
3338.000000	65.218019 
3337.000000	65.201711 
3336.000000	65.179920 
3335.000000	65.157580 
3334.000000	65.139627 
3333.000000	65.130138 
3332.000000	65.131497 
3331.000000	65.144157 
3330.000000	65.166401 
3329.000000	65.194845 
3328.000000	65.224981 
3327.000000	65.251946 
3326.000000	65.271425 
3325.000000	65.280175 
3324.000000	65.276622 
3323.000000	65.260744 
3322.000000	65.234065 
3321.000000	65.199351 
3320.000000	65.160250 
3319.000000	65.120720 
3318.000000	65.084838 
3317.000000	65.056514 
3316.000000	65.039038 
3315.000000	65.034770 
3314.000000	65.044379 
3313.000000	65.066814 
3312.000000	65.098714 
3311.000000	65.135049 
3310.000000	65.169715 
3309.000000	65.196657 
3308.000000	65.210890 
3307.000000	65.209603 
3306.000000	65.192604 
3305.000000	65.162396 
3304.000000	65.123796 
3303.000000	65.082907 
3302.000000	65.045857 
3301.000000	65.017390 
3300.000000	65.000367 
3299.000000	64.994955 
3298.000000	64.999055 
3297.000000	65.008687 
3296.000000	65.019154 
3295.000000	65.026426 
3294.000000	65.027785 
3293.000000	65.022802 
3292.000000	65.012645 
3291.000000	65.000200 
3290.000000	64.988875 
3289.000000	64.981794 
3288.000000	64.980721 
3287.000000	64.985942 
3286.000000	64.996194 
3285.000000	65.009355 
3284.000000	65.023183 
3283.000000	65.036058 
3282.000000	65.047454 
3281.000000	65.058064 
3280.000000	65.069508 
3279.000000	65.083742 
3278.000000	65.102100 
3277.000000	65.124917 
3276.000000	65.151047 
3275.000000	65.178132 
3274.000000	65.203070 
3273.000000	65.223097 
3272.000000	65.236091 
3271.000000	65.241312 
3270.000000	65.239167 
3269.000000	65.231394 
3268.000000	65.220093 
3267.000000	65.207219 
3266.000000	65.193724 
3265.000000	65.179610 
3264.000000	65.164017 
3263.000000	65.145611 
3262.000000	65.123343 
3261.000000	65.097045 
3260.000000	65.067815 
3259.000000	65.037941 
3258.000000	65.010595 
3257.000000	64.989113 
3256.000000	64.976310 
3255.000000	64.973783 
3254.000000	64.981508 
3253.000000	64.997792 
3252.000000	65.019917 
3251.000000	65.044617 
3250.000000	65.068650 
3249.000000	65.089631 
3248.000000	65.106201 
3247.000000	65.118098 
3246.000000	65.125799 
3245.000000	65.130114 
3244.000000	65.131735 
3243.000000	65.130901 
3242.000000	65.127348 
3241.000000	65.120458 
3240.000000	65.109634 
3239.000000	65.094757 
3238.000000	65.076494 
3237.000000	65.056610 
3236.000000	65.037631 
3235.000000	65.022516 
3234.000000	65.014100 
3233.000000	65.014219 
3232.000000	65.023517 
3231.000000	65.040874 
3230.000000	65.063619 
3229.000000	65.088105 
3228.000000	65.110325 
3227.000000	65.126705 
3226.000000	65.134739 
3225.000000	65.133428 
3224.000000	65.123462 
3223.000000	65.106773 
3222.000000	65.086197 
3221.000000	65.064597 
3220.000000	65.044593 
3219.000000	65.028095 
3218.000000	65.016388 
3217.000000	65.010190 
3216.000000	65.009903 
3215.000000	65.015816 
3214.000000	65.027856 
3213.000000	65.045595 
3212.000000	65.067934 
3211.000000	65.092897 
3210.000000	65.117859 
3209.000000	65.139651 
3208.000000	65.155100 
3207.000000	65.161800 
3206.000000	65.158224 
3205.000000	65.144157 
3204.000000	65.120673 
3203.000000	65.090012 
3202.000000	65.054917 
3201.000000	65.018296 
3200.000000	64.982724 
3199.000000	64.950370 
3198.000000	64.922857 
3197.000000	64.901518 
3196.000000	64.887332 
3195.000000	64.880990 
3194.000000	64.882850 
3193.000000	64.892721 
3192.000000	64.909482 
3191.000000	64.931297 
3190.000000	64.955353 
3189.000000	64.978408 
3188.000000	64.997243 
3187.000000	65.009450 
3186.000000	65.013575 
3185.000000	65.009832 
3184.000000	65.000009 
3183.000000	64.987301 
3182.000000	64.975595 
3181.000000	64.968848 
3180.000000	64.970016 
3179.000000	64.980292 
3178.000000	64.999175 
3177.000000	65.024113 
3176.000000	65.051150 
3175.000000	65.075802 
3174.000000	65.094184 
3173.000000	65.103745 
3172.000000	65.103912 
3171.000000	65.095925 
3170.000000	65.082502 
3169.000000	65.067219 
3168.000000	65.053534 
3167.000000	65.043973 
3166.000000	65.039753 
3165.000000	65.040731 
3164.000000	65.045928 
3163.000000	65.054059 
3162.000000	65.064144 
3161.000000	65.075898 
3160.000000	65.089797 
3159.000000	65.106821 
3158.000000	65.127611 
3157.000000	65.152049 
3156.000000	65.178585 
3155.000000	65.204429 
3154.000000	65.225601 
3153.000000	65.237832 
3152.000000	65.237712 
3151.000000	65.223360 
3150.000000	65.195274 
3149.000000	65.156364 
3148.000000	65.111374 
3147.000000	65.066027 
3146.000000	65.025782 
3145.000000	64.994764 
3144.000000	64.975214 
3143.000000	64.967083 
3142.000000	64.968299 
3141.000000	64.975500 
3140.000000	64.984989 
3139.000000	64.993906 
3138.000000	65.000176 
3137.000000	65.003418 
3136.000000	65.004301 
3135.000000	65.004348 
3134.000000	65.005087 
3133.000000	65.007543 
3132.000000	65.012001 
3131.000000	65.017724 
3130.000000	65.023350 
3129.000000	65.027213 
3128.000000	65.028071 
3127.000000	65.025424 
3126.000000	65.019607 
3125.000000	65.011858 
3124.000000	65.004014 
3123.000000	64.998006 
3122.000000	64.995288 
3121.000000	64.996790 
3120.000000	65.002608 
3119.000000	65.012049 
3118.000000	65.023851 
3117.000000	65.036177 
3116.000000	65.047454 
3115.000000	65.056371 
3114.000000	65.062332 
3113.000000	65.065121 
3112.000000	65.065240 
3111.000000	65.063643 
3110.000000	65.061473 
3109.000000	65.059971 
3108.000000	65.059733 
3107.000000	65.061163 
3106.000000	65.063881 
3105.000000	65.067052 
3104.000000	65.069460 
3103.000000	65.069937 
3102.000000	65.067696 
3101.000000	65.062522 
3100.000000	65.054798 
3099.000000	65.045452 
3098.000000	65.035367 
3097.000000	65.025019 
3096.000000	65.014338 
3095.000000	65.002679 
3094.000000	64.989089 
3093.000000	64.972758 
3092.000000	64.953732 
3091.000000	64.933156 
3090.000000	64.913177 
3089.000000	64.896893 
3088.000000	64.887452 
3087.000000	64.887356 
3086.000000	64.897871 
3085.000000	64.918661 
3084.000000	64.947724 
3083.000000	64.981675 
3082.000000	65.016698 
3081.000000	65.049076 
3080.000000	65.075874 
3079.000000	65.095210 
3078.000000	65.106487 
3077.000000	65.110158 
3076.000000	65.107178 
3075.000000	65.099191 
3074.000000	65.088033 
3073.000000	65.075755 
3072.000000	65.064525 
3071.000000	65.056395 
3070.000000	65.053367 
3069.000000	65.056777 
3068.000000	65.067267 
3067.000000	65.084433 
3066.000000	65.106749 
3065.000000	65.131735 
3064.000000	65.156340 
3063.000000	65.177416 
3062.000000	65.192317 
3061.000000	65.199470 
3060.000000	65.198469 
3059.000000	65.190243 
3058.000000	65.176677 
3057.000000	65.160202 
3056.000000	65.143418 
3055.000000	65.128445 
3054.000000	65.116548 
3053.000000	65.108275 
3052.000000	65.103101 
3051.000000	65.099954 
3050.000000	65.097355 
3049.000000	65.093755 
3048.000000	65.088176 
3047.000000	65.080046 
3046.000000	65.069651 
3045.000000	65.057826 
3044.000000	65.045762 
3043.000000	65.034651 
3042.000000	65.025353 
3041.000000	65.018224 
3040.000000	65.013194 
3039.000000	65.009713 
3038.000000	65.007114 
3037.000000	65.004897 
3036.000000	65.002918 
3035.000000	65.001511 
3034.000000	65.001320 
3033.000000	65.003204 
3032.000000	65.007805 
3031.000000	65.015435 
3030.000000	65.025734 
3029.000000	65.037775 
3028.000000	65.050506 
3027.000000	65.062904 
3026.000000	65.074419 
3025.000000	65.085053 
3024.000000	65.095305 
3023.000000	65.105938 
3022.000000	65.117883 
3021.000000	65.131688 
3020.000000	65.147256 
3019.000000	65.163755 
3018.000000	65.179920 
3017.000000	65.193986 
3016.000000	65.204286 
3015.000000	65.209531 
3014.000000	65.209293 
3013.000000	65.204000 
3012.000000	65.194869 
3011.000000	65.183687 
3010.000000	65.172505 
3009.000000	65.163111 
3008.000000	65.156793 
3007.000000	65.153837 
3006.000000	65.153551 
3005.000000	65.154242 
3004.000000	65.153861 
3003.000000	65.149950 
3002.000000	65.140748 
3001.000000	65.125584 
3000.000000	65.105247 
2999.000000	65.081667 
2998.000000	65.057945 
2997.000000	65.037178 
2996.000000	65.022158 
2995.000000	65.014457 
2994.000000	65.014362 
2993.000000	65.020895 
2992.000000	65.032267 
2991.000000	65.046286 
2990.000000	65.060758 
2989.000000	65.074062 
2988.000000	65.085053 
2987.000000	65.093040 
2986.000000	65.097522 
2985.000000	65.098047 
2984.000000	65.094041 
2983.000000	65.084910 
2982.000000	65.070438 
2981.000000	65.050745 
2980.000000	65.026855 
2979.000000	65.000224 
2978.000000	64.972686 
2977.000000	64.945960 
2976.000000	64.921355 
2975.000000	64.899849 
2974.000000	64.882016 
2973.000000	64.868354 
2972.000000	64.859056 
2971.000000	64.854311 
2970.000000	64.854121 
2969.000000	64.858150 
2968.000000	64.865374 
2967.000000	64.874482 
2966.000000	64.883685 
2965.000000	64.891505 
2964.000000	64.896798 
2963.000000	64.899206 
2962.000000	64.899277 
2961.000000	64.898228 
2960.000000	64.897751 
2959.000000	64.899420 
2958.000000	64.904236 
2957.000000	64.912438 
2956.000000	64.923405 
2955.000000	64.936137 
2954.000000	64.949321 
2953.000000	64.961957 
2952.000000	64.973282 
2951.000000	64.982581 
2950.000000	64.988994 
2949.000000	64.991736 
2948.000000	64.989781 
2947.000000	64.982271 
2946.000000	64.968681 
2945.000000	64.949464 
2944.000000	64.925885 
2943.000000	64.899826 
2942.000000	64.873456 
2941.000000	64.849019 
2940.000000	64.828372 
2939.000000	64.812731 
2938.000000	64.802789 
2937.000000	64.798545 
2936.000000	64.799809 
2935.000000	64.806103 
2934.000000	64.816975 
2933.000000	64.831709 
2932.000000	64.849424 
2931.000000	64.868736 
2930.000000	64.887952 
2929.000000	64.905214 
2928.000000	64.919042 
2927.000000	64.928483 
2926.000000	64.933633 
2925.000000	64.935612 
2924.000000	64.936375 
2923.000000	64.938116 
2922.000000	64.942717 
2921.000000	64.951205 
2920.000000	64.963555 
2919.000000	64.978575 
2918.000000	64.994525 
2917.000000	65.009045 
2916.000000	65.020108 
2915.000000	65.025997 
2914.000000	65.025830 
2913.000000	65.019941 
2912.000000	65.009474 
2911.000000	64.996480 
2910.000000	64.983320 
2909.000000	64.972496 
2908.000000	64.966034 
2907.000000	64.965271 
2906.000000	64.970636 
2905.000000	64.981651 
2904.000000	64.996862 
2903.000000	65.014123 
2902.000000	65.030956 
2901.000000	65.044927 
2900.000000	65.054106 
2899.000000	65.057253 
2898.000000	65.054178 
2897.000000	65.045785 
2896.000000	65.033817 
2895.000000	65.020680 
2894.000000	65.008807 
2893.000000	65.000438 
2892.000000	64.996647 
2891.000000	64.997744 
2890.000000	65.002632 
2889.000000	65.009236 
2888.000000	65.014863 
2887.000000	65.016698 
2886.000000	65.012717 
2885.000000	65.002059 
2884.000000	64.985156 
2883.000000	64.963698 
2882.000000	64.940381 
2881.000000	64.918351 
2880.000000	64.900374 
2879.000000	64.888405 
2878.000000	64.883351 
2877.000000	64.885115 
2876.000000	64.892745 
2875.000000	64.904952 
2874.000000	64.920330 
2873.000000	64.937925 
2872.000000	64.956951 
2871.000000	64.976978 
2870.000000	64.997553 
2869.000000	65.018177 
2868.000000	65.037941 
2867.000000	65.055727 
2866.000000	65.070438 
2865.000000	65.081167 
2864.000000	65.087819 
2863.000000	65.090823 
2862.000000	65.091204 
2861.000000	65.090298 
2860.000000	65.089535 
2859.000000	65.089821 
2858.000000	65.091300 
2857.000000	65.093207 
2856.000000	65.094375 
2855.000000	65.093088 
2854.000000	65.087890 
2853.000000	65.077757 
2852.000000	65.062665 
2851.000000	65.043401 
2850.000000	65.021634 
2849.000000	64.999389 
2848.000000	64.978837 
2847.000000	64.961647 
2846.000000	64.949107 
2845.000000	64.941596 
2844.000000	64.938879 
2843.000000	64.940309 
2842.000000	64.945197 
2841.000000	64.952492 
2840.000000	64.961528 
2839.000000	64.971733 
2838.000000	64.982962 
2837.000000	64.994955 
2836.000000	65.007615 
2835.000000	65.020728 
2834.000000	65.034246 
2833.000000	65.048003 
2832.000000	65.061759 
2831.000000	65.075325 
2830.000000	65.088319 
2829.000000	65.100455 
2828.000000	65.111064 
2827.000000	65.119242 
2826.000000	65.124058 
2825.000000	65.124678 
2824.000000	65.120673 
2823.000000	65.112257 
2822.000000	65.100264 
2821.000000	65.086197 
2820.000000	65.071749 
2819.000000	65.058231 
2818.000000	65.046620 
2817.000000	65.036988 
2816.000000	65.028643 
2815.000000	65.020561 
2814.000000	65.011668 
2813.000000	65.001296 
2812.000000	64.989757 
2811.000000	64.978265 
2810.000000	64.968514 
2809.000000	64.962649 
2808.000000	64.962482 
2807.000000	64.969325 
2806.000000	64.983177 
2805.000000	65.003228 
2804.000000	65.027737 
2803.000000	65.054750 
2802.000000	65.082168 
2801.000000	65.108370 
2800.000000	65.132284 
2799.000000	65.153455 
2798.000000	65.171623 
2797.000000	65.186858 
2796.000000	65.199184 
2795.000000	65.208506 
2794.000000	65.214514 
2793.000000	65.216875 
2792.000000	65.214920 
2791.000000	65.208315 
2790.000000	65.196895 
2789.000000	65.180850 
2788.000000	65.160751 
2787.000000	65.137577 
2786.000000	65.112686 
2785.000000	65.087509 
2784.000000	65.063643 
2783.000000	65.042400 
2782.000000	65.024924 
2781.000000	65.011954 
2780.000000	65.003824 
2779.000000	65.000247 
2778.000000	65.000557 
2777.000000	65.003490 
2776.000000	65.007662 
2775.000000	65.011429 
2774.000000	65.013432 
2773.000000	65.012669 
2772.000000	65.008807 
2771.000000	65.002155 
2770.000000	64.993619 
2769.000000	64.984679 
2768.000000	64.976882 
2767.000000	64.971518 
2766.000000	64.969468 
2765.000000	64.970946 
2764.000000	64.975428 
2763.000000	64.981937 
2762.000000	64.989089 
2761.000000	64.995503 
2760.000000	65.000176 
2759.000000	65.002465 
2758.000000	65.002250 
2757.000000	64.999818 
2756.000000	64.995789 
2755.000000	64.990806 
2754.000000	64.985275 
2753.000000	64.979386 
2752.000000	64.973163 
2751.000000	64.966559 
2750.000000	64.959669 
2749.000000	64.952778 
2748.000000	64.946627 
2747.000000	64.941930 
2746.000000	64.939475 
2745.000000	64.939641 
2744.000000	64.942383 
2743.000000	64.946985 
2742.000000	64.952373 
2741.000000	64.957022 
2740.000000	64.959526 
2739.000000	64.958739 
2738.000000	64.954018 
2737.000000	64.945507 
2736.000000	64.934062 
2735.000000	64.920997 
2734.000000	64.908099 
2733.000000	64.897203 
2732.000000	64.889907 
2731.000000	64.887428 
2730.000000	64.890193 
2729.000000	64.897894 
2728.000000	64.909434 
2727.000000	64.923095 
2726.000000	64.936995 
2725.000000	64.949107 
2724.000000	64.958119 
2723.000000	64.963483 
2722.000000	64.965629 
2721.000000	64.965844 
2720.000000	64.965701 
2719.000000	64.966845 
2718.000000	64.970254 
2717.000000	64.976167 
2716.000000	64.983773 
2715.000000	64.991593 
2714.000000	64.998006 
2713.000000	65.001702 
2712.000000	65.002202 
2711.000000	65.000033 
2710.000000	64.996600 
2709.000000	64.993906 
2708.000000	64.993929 
2707.000000	64.998078 
2706.000000	65.006589 
2705.000000	65.018677 
2704.000000	65.032696 
2703.000000	65.046405 
2702.000000	65.057754 
2701.000000	65.065073 
2700.000000	65.067458 
2699.000000	65.064859 
2698.000000	65.057873 
2697.000000	65.047621 
2696.000000	65.035533 
2695.000000	65.023112 
2694.000000	65.011692 
2693.000000	65.002441 
2692.000000	64.996337 
2691.000000	64.994001 
2690.000000	64.995813 
2689.000000	65.001797 
2688.000000	65.011382 
2687.000000	65.023708 
2686.000000	65.037441 
2685.000000	65.050935 
2684.000000	65.062260 
2683.000000	65.069627 
2682.000000	65.071535 
2681.000000	65.067100 
2680.000000	65.056061 
2679.000000	65.039062 
2678.000000	65.017247 
2677.000000	64.992403 
2676.000000	64.966368 
2675.000000	64.940953 
2674.000000	64.917540 
2673.000000	64.896821 
2672.000000	64.879107 
2671.000000	64.863991 
2670.000000	64.851284 
2669.000000	64.840888 
2668.000000	64.833378 
2667.000000	64.829683 
2666.000000	64.831113 
2665.000000	64.838814 
2664.000000	64.853501 
2663.000000	64.874863 
2662.000000	64.901590 
2661.000000	64.931392 
2660.000000	64.961504 
2659.000000	64.988946 
2658.000000	65.011119 
2657.000000	65.026307 
2656.000000	65.033912 
2655.000000	65.034222 
2654.000000	65.028452 
2653.000000	65.018343 
2652.000000	65.005588 
2651.000000	64.991760 
2650.000000	64.978003 
2649.000000	64.965057 
2648.000000	64.953184 
2647.000000	64.942598 
2646.000000	64.933466 
2645.000000	64.926123 
2644.000000	64.920973 
2643.000000	64.918494 
2642.000000	64.918851 
2641.000000	64.922094 
2640.000000	64.927697 
2639.000000	64.934802 
2638.000000	64.942336 
2637.000000	64.949107 
2636.000000	64.954137 
2635.000000	64.956784 
2634.000000	64.956712 
2633.000000	64.953970 
2632.000000	64.949035 
2631.000000	64.942550 
2630.000000	64.935350 
2629.000000	64.928174 
2628.000000	64.921593 
2627.000000	64.916253 
2626.000000	64.912366 
2625.000000	64.909982 
2624.000000	64.908719 
2623.000000	64.907908 
2622.000000	64.906978 
2621.000000	64.905142 
2620.000000	64.901876 
2619.000000	64.896726 
2618.000000	64.889669 
2617.000000	64.881014 
2616.000000	64.871478 
2615.000000	64.861798 
2614.000000	64.852929 
2613.000000	64.845800 
2612.000000	64.841413 
2611.000000	64.840579 
2610.000000	64.844059 
2609.000000	64.852333 
2608.000000	64.865541 
2607.000000	64.883422 
2606.000000	64.905047 
2605.000000	64.928770 
2604.000000	64.952182 
2603.000000	64.972448 
2602.000000	64.986634 
2601.000000	64.992380 
2600.000000	64.988207 
2599.000000	64.974212 
2598.000000	64.952063 
2597.000000	64.924979 
2596.000000	64.896845 
2595.000000	64.871716 
2594.000000	64.853048 
2593.000000	64.843249 
2592.000000	64.843130 
2591.000000	64.852094 
2590.000000	64.868426 
2589.000000	64.889764 
2588.000000	64.913511 
2587.000000	64.937162 
2586.000000	64.958572 
2585.000000	64.976072 
2584.000000	64.988374 
2583.000000	64.994502 
2582.000000	64.993786 
2581.000000	64.985966 
2580.000000	64.971351 
2579.000000	64.950942 
2578.000000	64.926433 
2577.000000	64.900302 
2576.000000	64.875388 
2575.000000	64.854478 
2574.000000	64.839911 
2573.000000	64.833021 
2572.000000	64.834260 
2571.000000	64.842796 
2570.000000	64.857029 
2569.000000	64.874911 
2568.000000	64.894437 
2567.000000	64.913892 
2566.000000	64.932060 
2565.000000	64.948105 
2564.000000	64.961504 
2563.000000	64.971947 
2562.000000	64.979028 
2561.000000	64.982247 
2560.000000	64.981102 
2559.000000	64.975309 
2558.000000	64.965033 
2557.000000	64.951133 
2556.000000	64.934849 
2555.000000	64.917564 
2554.000000	64.900565 
2553.000000	64.884829 
2552.000000	64.870595 
2551.000000	64.857625 
2550.000000	64.845466 
2549.000000	64.833998 
2548.000000	64.823460 
2547.000000	64.814805 
2546.000000	64.809346 
2545.000000	64.808464 
2544.000000	64.813041 
2543.000000	64.823293 
2542.000000	64.838290 
2541.000000	64.856362 
2540.000000	64.875340 
2539.000000	64.893317 
2538.000000	64.908885 
2537.000000	64.921522 
2536.000000	64.931583 
2535.000000	64.940047 
2534.000000	64.947915 
2533.000000	64.955711 
2532.000000	64.963245 
2531.000000	64.969563 
2530.000000	64.973235 
2529.000000	64.972710 
2528.000000	64.967012 
2527.000000	64.955830 
2526.000000	64.940094 
2525.000000	64.921283 
2524.000000	64.901518 
2523.000000	64.882731 
2522.000000	64.866542 
2521.000000	64.853858 
2520.000000	64.844894 
2519.000000	64.839315 
2518.000000	64.836573 
2517.000000	64.836096 
2516.000000	64.837765 
2515.000000	64.841556 
2514.000000	64.848065 
2513.000000	64.857649 
2512.000000	64.870905 
2511.000000	64.888238 
2510.000000	64.909625 
2509.000000	64.934611 
2508.000000	64.961981 
2507.000000	64.989876 
2506.000000	65.015649 
2505.000000	65.036320 
2504.000000	65.048885 
2503.000000	65.050792 
2502.000000	65.040516 
2501.000000	65.017986 
2500.000000	64.984726 
2499.000000	64.943766 
2498.000000	64.899253 
2497.000000	64.855766 
2496.000000	64.817714 
2495.000000	64.788675 
2494.000000	64.770865 
2493.000000	64.764857 
2492.000000	64.769840 
2491.000000	64.783668 
2490.000000	64.803314 
2489.000000	64.825534 
2488.000000	64.847087 
2487.000000	64.865493 
2486.000000	64.878654 
2485.000000	64.885759 
2484.000000	64.886951 
2483.000000	64.883637 
2482.000000	64.877843 
2481.000000	64.871978 
2480.000000	64.868283 
2479.000000	64.868426 
2478.000000	64.873123 
2477.000000	64.881920 
2476.000000	64.893674 
2475.000000	64.906573 
2474.000000	64.918613 
2473.000000	64.928126 
2472.000000	64.934086 
2471.000000	64.936280 
2470.000000	64.935183 
2469.000000	64.931774 
2468.000000	64.926981 
2467.000000	64.921736 
2466.000000	64.916419 
2465.000000	64.910793 
2464.000000	64.903998 
2463.000000	64.895129 
2462.000000	64.883327 
2461.000000	64.868164 
2460.000000	64.849710 
2459.000000	64.828920 
2458.000000	64.807462 
2457.000000	64.787459 
2456.000000	64.771080 
2455.000000	64.760041 
2454.000000	64.755225 
2453.000000	64.756345 
2452.000000	64.762067 
2451.000000	64.770078 
2450.000000	64.777946 
2449.000000	64.783549 
2448.000000	64.785885 
2447.000000	64.785051 
2446.000000	64.782619 
2445.000000	64.781069 
2444.000000	64.783048 
2443.000000	64.790725 
2442.000000	64.805173 
2441.000000	64.826130 
2440.000000	64.852070 
2439.000000	64.880657 
2438.000000	64.909172 
2437.000000	64.935207 
2436.000000	64.957404 
2435.000000	64.975428 
2434.000000	64.989757 
2433.000000	65.001153 
2432.000000	65.010476 
2431.000000	65.018010 
2430.000000	65.023493 
2429.000000	65.025639 
2428.000000	65.023374 
2427.000000	65.015316 
2426.000000	65.000939 
2425.000000	64.980077 
2424.000000	64.953756 
2423.000000	64.923238 
2422.000000	64.890146 
2421.000000	64.856076 
2420.000000	64.822292 
2419.000000	64.790129 
2418.000000	64.760851 
2417.000000	64.736008 
2416.000000	64.717364 
2415.000000	64.707088 
2414.000000	64.707279 
2413.000000	64.719367 
2412.000000	64.743590 
2411.000000	64.778709 
2410.000000	64.821815 
2409.000000	64.868521 
2408.000000	64.913725 
2407.000000	64.952421 
2406.000000	64.980864 
2405.000000	64.996886 
2404.000000	65.000414 
2403.000000	64.993166 
2402.000000	64.978194 
2401.000000	64.959216 
2400.000000	64.939570 
2399.000000	64.921879 
2398.000000	64.907598 
2397.000000	64.897179 
2396.000000	64.890027 
2395.000000	64.885187 
2394.000000	64.881491 
2393.000000	64.878201 
2392.000000	64.874720 
2391.000000	64.870786 
2390.000000	64.866352 
2389.000000	64.861488 
2388.000000	64.855933 
2387.000000	64.849281 
2386.000000	64.841008 
2385.000000	64.830708 
2384.000000	64.817881 
2383.000000	64.802455 
2382.000000	64.784622 
2381.000000	64.765238 
2380.000000	64.745593 
2379.000000	64.727544 
2378.000000	64.712953 
2377.000000	64.703488 
2376.000000	64.700603 
2375.000000	64.704942 
2374.000000	64.715981 
2373.000000	64.732456 
2372.000000	64.752483 
2371.000000	64.773845 
2370.000000	64.794397 
2369.000000	64.812374 
2368.000000	64.826512 
2367.000000	64.836382 
2366.000000	64.842176 
2365.000000	64.844393 
2364.000000	64.843893 
2363.000000	64.841532 
2362.000000	64.838242 
2361.000000	64.834976 
2360.000000	64.832568 
2359.000000	64.831948 
2358.000000	64.833950 
2357.000000	64.839196 
2356.000000	64.847922 
2355.000000	64.859986 
2354.000000	64.874577 
2353.000000	64.890527 
2352.000000	64.906239 
2351.000000	64.920282 
2350.000000	64.931225 
2349.000000	64.938235 
2348.000000	64.940881 
2347.000000	64.939355 
2346.000000	64.934253 
2345.000000	64.926266 
2344.000000	64.916229 
2343.000000	64.904785 
2342.000000	64.892554 
2341.000000	64.880251 
2340.000000	64.868497 
2339.000000	64.858055 
2338.000000	64.849805 
2337.000000	64.844703 
2336.000000	64.843368 
2335.000000	64.846038 
2334.000000	64.852309 
2333.000000	64.861202 
2332.000000	64.871263 
2331.000000	64.880919 
2330.000000	64.888787 
2329.000000	64.893984 
2328.000000	64.896249 
2327.000000	64.895868 
2326.000000	64.893603 
2325.000000	64.890170 
2324.000000	64.885997 
2323.000000	64.881253 
2322.000000	64.875698 
2321.000000	64.868998 
2320.000000	64.860796 
2319.000000	64.851045 
2318.000000	64.840030 
2317.000000	64.828372 
2316.000000	64.816999 
2315.000000	64.806652 
2314.000000	64.797949 
2313.000000	64.791131 
2312.000000	64.786028 
2311.000000	64.782333 
2310.000000	64.779710 
2309.000000	64.777898 
2308.000000	64.777016 
2307.000000	64.777207 
2306.000000	64.778661 
2305.000000	64.781475 
2304.000000	64.785385 
2303.000000	64.789938 
2302.000000	64.794683 
2301.000000	64.799213 
2300.000000	64.803409 
2299.000000	64.807391 
2298.000000	64.811539 
2297.000000	64.816403 
2296.000000	64.822459 
2295.000000	64.829969 
2294.000000	64.838838 
2293.000000	64.848589 
2292.000000	64.858460 
2291.000000	64.867305 
2290.000000	64.873957 
2289.000000	64.877557 
2288.000000	64.877319 
2287.000000	64.873123 
2286.000000	64.865207 
2285.000000	64.854168 
2284.000000	64.840888 
2283.000000	64.826440 
2282.000000	64.811825 
2281.000000	64.797854 
2280.000000	64.785146 
2279.000000	64.774084 
2278.000000	64.764595 
2277.000000	64.756536 
2276.000000	64.749670 
2275.000000	64.743924 
2274.000000	64.739298 
2273.000000	64.735841 
2272.000000	64.733719 
2271.000000	64.733099 
2270.000000	64.733934 
2269.000000	64.736247 
2268.000000	64.739942 
2267.000000	64.744853 
2266.000000	64.750790 
2265.000000	64.757442 
2264.000000	64.764404 
2263.000000	64.771199 
2262.000000	64.777112 
2261.000000	64.781522 
2260.000000	64.784049 
2259.000000	64.784526 
2258.000000	64.783215 
2257.000000	64.780807 
2256.000000	64.778327 
2255.000000	64.776754 
2254.000000	64.776873 
2253.000000	64.778733 
2252.000000	64.781737 
2251.000000	64.784646 
2250.000000	64.785981 
2249.000000	64.784359 
2248.000000	64.779090 
2247.000000	64.770412 
2246.000000	64.759683 
2245.000000	64.748811 
2244.000000	64.740180 
2243.000000	64.735627 
2242.000000	64.736461 
2241.000000	64.742875 
2240.000000	64.754033 
2239.000000	64.768409 
2238.000000	64.784097 
2237.000000	64.799189 
2236.000000	64.812135 
2235.000000	64.822030 
2234.000000	64.828372 
2233.000000	64.831089 
2232.000000	64.830350 
2231.000000	64.826440 
2230.000000	64.819669 
2229.000000	64.810395 
2228.000000	64.799237 
2227.000000	64.787125 
2226.000000	64.775204 
2225.000000	64.764642 
2224.000000	64.756512 
2223.000000	64.751529 
2222.000000	64.749717 
2221.000000	64.750576 
2220.000000	64.753055 
2219.000000	64.755725 
2218.000000	64.757275 
2217.000000	64.756608 
2216.000000	64.753389 
2215.000000	64.747929 
2214.000000	64.741230 
2213.000000	64.734864 
2212.000000	64.730286 
2211.000000	64.728951 
2210.000000	64.731669 
2209.000000	64.738678 
2208.000000	64.749550 
2207.000000	64.763379 
2206.000000	64.779305 
2205.000000	64.796423 
2204.000000	64.814019 
2203.000000	64.831614 
2202.000000	64.848685 
2201.000000	64.864730 
2200.000000	64.879083 
2199.000000	64.890766 
2198.000000	64.898848 
2197.000000	64.902591 
2196.000000	64.901709 
2195.000000	64.896464 
2194.000000	64.887690 
2193.000000	64.876842 
2192.000000	64.865565 
2191.000000	64.855265 
2190.000000	64.846849 
2189.000000	64.840602 
2188.000000	64.836096 
2187.000000	64.832615 
2186.000000	64.829206 
2185.000000	64.825201 
2184.000000	64.820337 
2183.000000	64.814829 
2182.000000	64.809346 
2181.000000	64.804553 
2180.000000	64.801096 
2179.000000	64.799356 
2178.000000	64.799284 
2177.000000	64.800357 
2176.000000	64.802002 
2175.000000	64.803481 
2174.000000	64.804148 
2173.000000	64.803624 
2172.000000	64.801907 
2171.000000	64.799451 
2170.000000	64.796853 
2169.000000	64.794898 
2168.000000	64.794254 
2167.000000	64.795398 
2166.000000	64.798569 
2165.000000	64.803457 
2164.000000	64.809584 
2163.000000	64.816069 
2162.000000	64.821815 
2161.000000	64.825797 
2160.000000	64.827036 
2159.000000	64.824771 
2158.000000	64.818549 
2157.000000	64.808320 
2156.000000	64.794230 
2155.000000	64.776897 
2154.000000	64.757061 
2153.000000	64.735841 
2152.000000	64.714503 
2151.000000	64.694499 
2150.000000	64.677309 
2149.000000	64.664268 
2148.000000	64.656376 
2147.000000	64.654135 
2146.000000	64.657473 
2145.000000	64.665770 
2144.000000	64.677977 
2143.000000	64.692878 
2142.000000	64.709305 
2141.000000	64.726233 
2140.000000	64.742875 
2139.000000	64.758753 
2138.000000	64.773297 
2137.000000	64.786005 
2136.000000	64.795994 
2135.000000	64.802360 
2134.000000	64.804124 
2133.000000	64.800691 
2132.000000	64.792013 
2131.000000	64.778852 
2130.000000	64.762616 
2129.000000	64.745354 
2128.000000	64.729189 
2127.000000	64.716005 
2126.000000	64.706897 
2125.000000	64.702081 
2124.000000	64.700746 
2123.000000	64.701461 
2122.000000	64.702510 
2121.000000	64.702296 
2120.000000	64.699912 
2119.000000	64.695334 
2118.000000	64.689373 
2117.000000	64.683151 
2116.000000	64.678096 
2115.000000	64.675259 
2114.000000	64.675116 
2113.000000	64.677548 
2112.000000	64.681577 
2111.000000	64.685869 
2110.000000	64.689159 
2109.000000	64.690637 
2108.000000	64.689993 
2107.000000	64.687776 
2106.000000	64.685225 
2105.000000	64.683938 
2104.000000	64.685463 
2103.000000	64.690756 
2102.000000	64.699935 
2101.000000	64.712142 
2100.000000	64.725708 
2099.000000	64.738440 
2098.000000	64.748191 
2097.000000	64.753437 
2096.000000	64.753603 
2095.000000	64.749407 
2094.000000	64.742517 
2093.000000	64.735317 
2092.000000	64.730167 
2091.000000	64.728760 
2090.000000	64.731383 
2089.000000	64.736986 
2088.000000	64.743351 
2087.000000	64.747691 
2086.000000	64.747476 
2085.000000	64.741230 
2084.000000	64.728927 
2083.000000	64.711809 
2082.000000	64.692258 
2081.000000	64.673209 
2080.000000	64.657497 
2079.000000	64.647269 
2078.000000	64.643573 
2077.000000	64.646244 
2076.000000	64.653944 
2075.000000	64.664435 
2074.000000	64.675140 
2073.000000	64.683651 
2072.000000	64.688420 
2071.000000	64.689040 
2070.000000	64.686560 
2069.000000	64.682865 
2068.000000	64.680600 
2067.000000	64.682197 
2066.000000	64.689230 
2065.000000	64.701938 
2064.000000	64.719200 
2063.000000	64.738655 
2062.000000	64.757275 
2061.000000	64.772391 
2060.000000	64.782047 
2059.000000	64.785766 
2058.000000	64.784574 
2057.000000	64.780664 
2056.000000	64.776730 
2055.000000	64.775061 
2054.000000	64.776921 
2053.000000	64.782118 
2052.000000	64.789175 
2051.000000	64.795589 
2050.000000	64.798831 
2049.000000	64.796781 
2048.000000	64.788436 
2047.000000	64.774107 
2046.000000	64.755344 
2045.000000	64.734625 
2044.000000	64.714598 
2043.000000	64.697504 
2042.000000	64.684724 
2041.000000	64.676642 
2040.000000	64.672732 
2039.000000	64.671754 
2038.000000	64.672350 
2037.000000	64.673280 
2036.000000	64.673757 
2035.000000	64.673495 
2034.000000	64.672684 
2033.000000	64.671683 
2032.000000	64.670825 
2031.000000	64.670300 
2030.000000	64.669799 
2029.000000	64.668917 
2028.000000	64.667034 
2027.000000	64.663624 
2026.000000	64.658212 
2025.000000	64.650821 
2024.000000	64.641833 
2023.000000	64.631891 
2022.000000	64.622020 
2021.000000	64.613080 
2020.000000	64.605879 
2019.000000	64.600849 
2018.000000	64.598178 
2017.000000	64.597725 
2016.000000	64.599323 
2015.000000	64.602565 
2014.000000	64.607310 
2013.000000	64.613509 
2012.000000	64.621424 
2011.000000	64.631414 
2010.000000	64.643883 
2009.000000	64.659023 
2008.000000	64.676761 
2007.000000	64.696526 
2006.000000	64.717102 
2005.000000	64.736747 
2004.000000	64.753580 
2003.000000	64.765787 
2002.000000	64.771938 
2001.000000	64.771366 
2000.000000	64.764571 
1999.000000	64.752840 
1998.000000	64.738345 
1997.000000	64.723324 
1996.000000	64.710044 
1995.000000	64.700126 
1994.000000	64.694309 
1993.000000	64.692282 
1992.000000	64.693021 
1991.000000	64.694809 
1990.000000	64.695787 
1989.000000	64.694452 
1988.000000	64.689779 
1987.000000	64.681577 
1986.000000	64.670252 
1985.000000	64.656758 
1984.000000	64.642477 
1983.000000	64.628887 
1982.000000	64.617466 
1981.000000	64.609384 
1980.000000	64.605569 
1979.000000	64.606595 
1978.000000	64.612722 
1977.000000	64.623665 
1976.000000	64.638876 
1975.000000	64.657378 
1974.000000	64.678001 
1973.000000	64.699268 
1972.000000	64.719605 
1971.000000	64.737391 
1970.000000	64.751148 
1969.000000	64.759755 
1968.000000	64.762592 
1967.000000	64.759564 
1966.000000	64.751243 
1965.000000	64.738869 
1964.000000	64.724206 
1963.000000	64.709234 
1962.000000	64.695763 
1961.000000	64.685416 
1960.000000	64.679241 
1959.000000	64.677715 
1958.000000	64.680552 
1957.000000	64.686942 
1956.000000	64.695644 
1955.000000	64.705252 
1954.000000	64.714288 
1953.000000	64.721655 
1952.000000	64.726448 
1951.000000	64.728403 
1950.000000	64.727687 
1949.000000	64.724946 
1948.000000	64.721369 
1947.000000	64.718270 
1946.000000	64.716958 
1945.000000	64.718437 
1944.000000	64.723348 
1943.000000	64.731502 
1942.000000	64.742136 
1941.000000	64.753794 
1940.000000	64.764714 
1939.000000	64.773035 
1938.000000	64.777112 
1937.000000	64.775800 
1936.000000	64.768600 
1935.000000	64.755773 
1934.000000	64.738321 
1933.000000	64.717650 
1932.000000	64.695405 
1931.000000	64.673280 
1930.000000	64.652729 
1929.000000	64.634680 
1928.000000	64.619469 
1927.000000	64.606928 
1926.000000	64.596486 
1925.000000	64.587259 
1924.000000	64.578366 
1923.000000	64.569211 
1922.000000	64.559555 
1921.000000	64.549612 
1920.000000	64.540004 
1919.000000	64.531660 
1918.000000	64.525485 
1917.000000	64.522051 
1916.000000	64.521622 
1915.000000	64.523911 
1914.000000	64.528226 
1913.000000	64.533710 
1912.000000	64.539527 
1911.000000	64.544939 
1910.000000	64.549660 
1909.000000	64.553904 
1908.000000	64.557909 
1907.000000	64.562010 
1906.000000	64.566087 
1905.000000	64.569664 
1904.000000	64.571762 
1903.000000	64.571380 
1902.000000	64.567732 
1901.000000	64.560651 
1900.000000	64.550876 
1899.000000	64.540195 
1898.000000	64.530801 
1897.000000	64.525103 
1896.000000	64.524936 
1895.000000	64.531493 
1894.000000	64.544796 
1893.000000	64.563965 
1892.000000	64.587235 
1891.000000	64.612364 
1890.000000	64.636921 
1889.000000	64.658570 
1888.000000	64.675354 
1887.000000	64.685821 
1886.000000	64.689159 
1885.000000	64.685201 
1884.000000	64.674520 
1883.000000	64.658427 
1882.000000	64.638829 
1881.000000	64.618039 
1880.000000	64.598441 
1879.000000	64.582133 
1878.000000	64.570617 
1877.000000	64.564466 
1876.000000	64.563345 
1875.000000	64.566326 
1874.000000	64.571952 
1873.000000	64.578747 
1872.000000	64.585494 
1871.000000	64.591407 
1870.000000	64.596009 
1869.000000	64.598989 
1868.000000	64.600229 
1867.000000	64.599442 
1866.000000	64.596295 
1865.000000	64.590454 
1864.000000	64.581823 
1863.000000	64.570808 
1862.000000	64.558315 
1861.000000	64.545774 
1860.000000	64.534974 
1859.000000	64.527654 
1858.000000	64.525389 
1857.000000	64.528822 
1856.000000	64.537882 
1855.000000	64.551758 
1854.000000	64.569139 
1853.000000	64.588427 
1852.000000	64.608144 
1851.000000	64.627075 
1850.000000	64.644384 
1849.000000	64.659667 
1848.000000	64.672589 
1847.000000	64.682841 
1846.000000	64.690184 
1845.000000	64.694118 
1844.000000	64.694190 
1843.000000	64.689826 
1842.000000	64.680790 
1841.000000	64.667081 
1840.000000	64.649081 
1839.000000	64.627456 
1838.000000	64.603352 
1837.000000	64.578056 
1836.000000	64.552783 
1835.000000	64.528942 
1834.000000	64.507865 
1833.000000	64.490795 
1832.000000	64.478683 
1831.000000	64.472270 
1830.000000	64.471721 
1829.000000	64.476752 
1828.000000	64.486384 
1827.000000	64.499092 
1826.000000	64.513015 
1825.000000	64.526319 
1824.000000	64.537358 
1823.000000	64.545154 
1822.000000	64.549422 
1821.000000	64.550590 
1820.000000	64.549612 
1819.000000	64.547681 
1818.000000	64.545607 
1817.000000	64.543843 
1816.000000	64.542126 
1815.000000	64.539694 
1814.000000	64.535689 
1813.000000	64.529609 
1812.000000	64.521431 
1811.000000	64.512062 
1810.000000	64.503121 
1809.000000	64.496421 
1808.000000	64.493560 
1807.000000	64.495587 
1806.000000	64.502453 
1805.000000	64.513158 
1804.000000	64.525938 
1803.000000	64.538741 
1802.000000	64.549708 
1801.000000	64.557695 
1800.000000	64.562249 
1799.000000	64.563679 
1798.000000	64.562654 
1797.000000	64.560103 
1796.000000	64.556479 
1795.000000	64.551782 
1794.000000	64.545750 
1793.000000	64.538168 
1792.000000	64.528894 
1791.000000	64.518260 
1790.000000	64.507150 
1789.000000	64.496898 
1788.000000	64.488840 
1787.000000	64.484238 
1786.000000	64.483880 
1785.000000	64.488029 
1784.000000	64.496183 
1783.000000	64.507436 
1782.000000	64.520502 
1781.000000	64.533972 
1780.000000	64.546585 
1779.000000	64.557194 
1778.000000	64.565086 
1777.000000	64.569568 
1776.000000	64.570426 
1775.000000	64.567351 
1774.000000	64.560270 
1773.000000	64.549040 
1772.000000	64.533734 
1771.000000	64.514589 
1770.000000	64.492177 
1769.000000	64.467263 
1768.000000	64.440894 
1767.000000	64.414334 
1766.000000	64.388895 
1765.000000	64.365911 
1764.000000	64.346408 
1763.000000	64.331150 
1762.000000	64.320468 
1761.000000	64.314126 
1760.000000	64.311599 
1759.000000	64.311766 
1758.000000	64.313387 
1757.000000	64.315223 
1756.000000	64.316201 
1755.000000	64.315533 
1754.000000	64.313054 
1753.000000	64.309144 
1752.000000	64.304637 
1751.000000	64.300608 
1750.000000	64.297962 
1749.000000	64.297533 
1748.000000	64.299368 
1747.000000	64.302849 
1746.000000	64.306569 
1745.000000	64.308786 
1744.000000	64.307641 
1743.000000	64.301896 
1742.000000	64.290857 
1741.000000	64.274835 
1740.000000	64.254784 
1739.000000	64.232277 
1738.000000	64.209055 
1737.000000	64.186954 
1736.000000	64.167428 
1735.000000	64.151716 
1734.000000	64.140844 
1733.000000	64.135575 
1732.000000	64.136409 
1731.000000	64.143705 
1730.000000	64.157366 
1729.000000	64.177417 
1728.000000	64.203214 
1727.000000	64.234089 
1726.000000	64.269065 
1725.000000	64.306879 
1724.000000	64.346218 
1723.000000	64.385366 
1722.000000	64.422512 
1721.000000	64.455389 
1720.000000	64.481639 
1719.000000	64.498877 
1718.000000	64.505338 
1717.000000	64.500164 
1716.000000	64.483880 
1715.000000	64.458680 
1714.000000	64.428091 
1713.000000	64.396357 
1712.000000	64.367675 
1711.000000	64.345479 
1710.000000	64.332008 
1709.000000	64.327788 
1708.000000	64.331746 
1707.000000	64.342069 
1706.000000	64.356541 
1705.000000	64.372849 
1704.000000	64.389348 
1703.000000	64.404916 
1702.000000	64.419221 
1701.000000	64.432287 
1700.000000	64.444279 
1699.000000	64.455342 
1698.000000	64.465379 
1697.000000	64.474272 
1696.000000	64.481568 
1695.000000	64.486861 
1694.000000	64.489650 
1693.000000	64.489555 
1692.000000	64.485979 
1691.000000	64.478445 
1690.000000	64.466643 
1689.000000	64.450883 
1688.000000	64.431953 
1687.000000	64.411354 
1686.000000	64.391207 
1685.000000	64.374017 
1684.000000	64.362263 
1683.000000	64.357924 
1682.000000	64.361834 
1681.000000	64.373707 
1680.000000	64.392018 
1679.000000	64.414262 
1678.000000	64.437365 
1677.000000	64.458274 
1676.000000	64.474439 
1675.000000	64.484477 
1674.000000	64.488315 
1673.000000	64.486980 
1672.000000	64.482045 
1671.000000	64.475321 
1670.000000	64.468264 
1669.000000	64.461445 
1668.000000	64.454722 
1667.000000	64.447021 
1666.000000	64.437127 
1665.000000	64.423847 
1664.000000	64.406728 
1663.000000	64.385914 
1662.000000	64.362359 
1661.000000	64.337491 
1660.000000	64.313173 
1659.000000	64.291214 
1658.000000	64.273285 
1657.000000	64.260792 
1656.000000	64.254713 
1655.000000	64.255690 
1654.000000	64.263677 
1653.000000	64.278030 
1652.000000	64.297294 
1651.000000	64.319205 
1650.000000	64.340972 
1649.000000	64.359211 
1648.000000	64.371132 
1647.000000	64.374876 
1646.000000	64.370131 
1645.000000	64.358282 
1644.000000	64.342093 
1643.000000	64.325189 
1642.000000	64.311361 
1641.000000	64.303612 
1640.000000	64.303517 
1639.000000	64.311099 
1638.000000	64.324808 
1637.000000	64.342236 
1636.000000	64.360404 
1635.000000	64.376568 
1634.000000	64.388656 
1633.000000	64.395499 
1632.000000	64.396858 
1631.000000	64.393281 
1630.000000	64.385843 
1629.000000	64.375710 
1628.000000	64.364004 
1627.000000	64.351367 
1626.000000	64.338469 
1625.000000	64.325475 
1624.000000	64.312219 
1623.000000	64.298343 
1622.000000	64.283323 
1621.000000	64.266943 
1620.000000	64.249396 
1619.000000	64.231491 
1618.000000	64.214301 
1617.000000	64.199399 
1616.000000	64.188361 
1615.000000	64.182472 
1614.000000	64.182257 
1613.000000	64.187574 
1612.000000	64.197492 
1611.000000	64.210510 
1610.000000	64.224743 
1609.000000	64.238286 
1608.000000	64.249515 
1607.000000	64.257240 
1606.000000	64.260792 
1605.000000	64.260363 
1604.000000	64.256834 
1603.000000	64.251708 
1602.000000	64.246869 
1601.000000	64.244270 
1600.000000	64.245510 
1599.000000	64.251804 
1598.000000	64.263200 
1597.000000	64.278841 
1596.000000	64.296603 
1595.000000	64.313864 
1594.000000	64.327645 
1593.000000	64.335274 
1592.000000	64.334702 
1591.000000	64.325308 
1590.000000	64.307856 
1589.000000	64.284229 
1588.000000	64.257192 
1587.000000	64.230036 
1586.000000	64.205455 
1585.000000	64.185333 
1584.000000	64.170265 
1583.000000	64.159917 
1582.000000	64.153146 
1581.000000	64.148521 
1580.000000	64.144802 
1579.000000	64.141249 
1578.000000	64.137864 
1577.000000	64.135408 
1576.000000	64.134812 
1575.000000	64.136910 
1574.000000	64.142227 
1573.000000	64.150810 
1572.000000	64.162087 
1571.000000	64.174985 
1570.000000	64.188265 
1569.000000	64.200711 
1568.000000	64.211368 
1567.000000	64.219713 
1566.000000	64.225673 
1565.000000	64.229607 
1564.000000	64.232277 
1563.000000	64.234590 
1562.000000	64.237594 
1561.000000	64.242148 
1560.000000	64.248728 
1559.000000	64.257335 
1558.000000	64.267373 
1557.000000	64.277768 
1556.000000	64.287257 
1555.000000	64.294576 
1554.000000	64.298892 
1553.000000	64.300227 
1552.000000	64.299249 
1551.000000	64.297533 
1550.000000	64.296770 
1549.000000	64.298677 
1548.000000	64.304113 
1547.000000	64.313030 
1546.000000	64.324116 
1545.000000	64.335227 
1544.000000	64.343929 
1543.000000	64.348173 
1542.000000	64.346909 
1541.000000	64.340543 
1540.000000	64.330554 
1539.000000	64.319300 
1538.000000	64.309191 
1537.000000	64.301967 
1536.000000	64.298343 
1535.000000	64.297914 
1534.000000	64.299273 
1533.000000	64.300537 
1532.000000	64.299798 
1531.000000	64.295649 
1530.000000	64.287590 
1529.000000	64.275979 
1528.000000	64.262342 
1527.000000	64.248824 
1526.000000	64.237976 
1525.000000	64.231991 
1524.000000	64.232277 
1523.000000	64.239311 
1522.000000	64.252257 
1521.000000	64.269471 
1520.000000	64.288711 
1519.000000	64.307808 
1518.000000	64.324975 
1517.000000	64.339017 
1516.000000	64.349603 
1515.000000	64.357066 
1514.000000	64.361929 
1513.000000	64.364862 
1512.000000	64.366507 
1511.000000	64.367222 
1510.000000	64.367270 
1509.000000	64.366722 
1508.000000	64.365887 
1507.000000	64.364933 
1506.000000	64.364266 
1505.000000	64.363956 
1504.000000	64.363741 
1503.000000	64.362859 
1502.000000	64.360380 
1501.000000	64.355373 
1500.000000	64.347410 
1499.000000	64.336872 
1498.000000	64.325094 
1497.000000	64.314079 
1496.000000	64.306116 
1495.000000	64.303183 
1494.000000	64.306426 
1493.000000	64.315795 
1492.000000	64.329838 
1491.000000	64.346122 
1490.000000	64.361572 
1489.000000	64.373254 
1488.000000	64.379096 
1487.000000	64.378070 
1486.000000	64.370274 
1485.000000	64.357042 
1484.000000	64.340329 
1483.000000	64.322352 
1482.000000	64.304995 
1481.000000	64.289712 
1480.000000	64.277243 
1479.000000	64.267969 
1478.000000	64.261627 
1477.000000	64.257764 
1476.000000	64.255833 
1475.000000	64.255261 
1474.000000	64.255619 
1473.000000	64.256381 
1472.000000	64.257311 
1471.000000	64.258265 
1470.000000	64.258980 
1469.000000	64.259195 
1468.000000	64.258861 
1467.000000	64.257812 
1466.000000	64.256048 
1465.000000	64.253616 
1464.000000	64.250659 
1463.000000	64.247107 
1462.000000	64.242839 
1461.000000	64.237594 
1460.000000	64.230966 
1459.000000	64.222979 
1458.000000	64.213776 
1457.000000	64.204168 
1456.000000	64.195466 
1455.000000	64.189338 
1454.000000	64.187288 
1453.000000	64.190506 
1452.000000	64.199423 
1451.000000	64.213633 
1450.000000	64.231729 
1449.000000	64.251875 
1448.000000	64.271903 
1447.000000	64.289999 
1446.000000	64.304661 
1445.000000	64.315199 
1444.000000	64.321446 
1443.000000	64.323616 
1442.000000	64.322137 
1441.000000	64.317178 
1440.000000	64.308762 
1439.000000	64.296817 
1438.000000	64.281368 
1437.000000	64.262938 
1436.000000	64.242553 
1435.000000	64.222049 
1434.000000	64.203643 
1433.000000	64.189815 
1432.000000	64.182424 
1431.000000	64.182448 
1430.000000	64.189600 
1429.000000	64.202237 
1428.000000	64.217710 
1427.000000	64.233016 
1426.000000	64.245223 
1425.000000	64.252328 
1424.000000	64.253544 
1423.000000	64.249396 
1422.000000	64.241576 
1421.000000	64.232206 
1420.000000	64.223480 
1419.000000	64.216828 
1418.000000	64.212822 
1417.000000	64.210820 
1416.000000	64.209413 
1415.000000	64.206910 
1414.000000	64.201760 
1413.000000	64.192986 
1412.000000	64.180493 
1411.000000	64.165115 
1410.000000	64.148354 
1409.000000	64.131951 
1408.000000	64.117670 
1407.000000	64.106941 
1406.000000	64.100527 
1405.000000	64.098763 
1404.000000	64.101099 
1403.000000	64.106750 
1402.000000	64.114594 
1401.000000	64.123678 
1400.000000	64.133286 
1399.000000	64.142942 
1398.000000	64.152407 
1397.000000	64.161491 
1396.000000	64.170145 
1395.000000	64.177942 
1394.000000	64.184284 
1393.000000	64.188289 
1392.000000	64.189219 
1391.000000	64.186477 
1390.000000	64.180088 
1389.000000	64.170575 
1388.000000	64.158916 
1387.000000	64.146566 
1386.000000	64.135169 
1385.000000	64.126014 
1384.000000	64.119958 
1383.000000	64.117288 
1382.000000	64.117908 
1381.000000	64.121413 
1380.000000	64.127373 
1379.000000	64.135718 
1378.000000	64.146208 
1377.000000	64.158463 
1376.000000	64.171695 
1375.000000	64.184570 
1374.000000	64.195013 
1373.000000	64.200353 
1372.000000	64.197993 
1371.000000	64.185929 
1370.000000	64.163637 
1369.000000	64.132380 
1368.000000	64.095163 
1367.000000	64.056563 
1366.000000	64.021682 
1365.000000	63.995289 
1364.000000	63.980674 
1363.000000	63.979172 
1362.000000	63.989853 
1361.000000	64.009833 
1360.000000	64.034986 
1359.000000	64.060902 
1358.000000	64.083623 
1357.000000	64.100623 
1356.000000	64.110660 
1355.000000	64.114189 
1354.000000	64.112639 
1353.000000	64.108228 
1352.000000	64.103341 
1351.000000	64.099860 
1350.000000	64.099311 
1349.000000	64.102268 
1348.000000	64.108920 
1347.000000	64.118623 
1346.000000	64.130663 
1345.000000	64.143824 
1344.000000	64.156818 
1343.000000	64.168238 
1342.000000	64.176821 
1341.000000	64.181566 
1340.000000	64.181804 
1339.000000	64.177322 
1338.000000	64.168334 
1337.000000	64.155650 
1336.000000	64.140582 
1335.000000	64.124512 
1334.000000	64.108848 
1333.000000	64.094924 
1332.000000	64.083671 
1331.000000	64.075756 
1330.000000	64.071273 
1329.000000	64.069914 
1328.000000	64.071226 
1327.000000	64.074635 
1326.000000	64.079523 
1325.000000	64.085125 
1324.000000	64.090871 
1323.000000	64.096307 
1322.000000	64.101052 
1321.000000	64.104819 
1320.000000	64.107227 
1319.000000	64.107799 
1318.000000	64.106154 
1317.000000	64.101910 
1316.000000	64.095044 
1315.000000	64.085841 
1314.000000	64.074993 
1313.000000	64.063620 
1312.000000	64.053082 
1311.000000	64.044785 
1310.000000	64.039754 
1309.000000	64.038562 
1308.000000	64.041209 
1307.000000	64.047098 
1306.000000	64.055252 
1305.000000	64.064478 
1304.000000	64.073538 
1303.000000	64.081358 
1302.000000	64.087152 
1301.000000	64.090514 
1300.000000	64.091157 
1299.000000	64.088988 
1298.000000	64.084315 
1297.000000	64.077496 
1296.000000	64.069175 
1295.000000	64.060211 
1294.000000	64.051771 
1293.000000	64.045166 
1292.000000	64.041686 
1291.000000	64.042329 
1290.000000	64.047598 
1289.000000	64.057183 
1288.000000	64.069938 
1287.000000	64.084076 
1286.000000	64.097547 
1285.000000	64.108324 
1284.000000	64.114880 
1283.000000	64.116644 
1282.000000	64.113879 
1281.000000	64.107513 
1280.000000	64.098811 
1279.000000	64.088988 
1278.000000	64.078760 
1277.000000	64.068579 
1276.000000	64.058279 
1275.000000	64.047670 
1274.000000	64.036488 
1273.000000	64.024853 
1272.000000	64.013099 
1271.000000	64.001870 
1270.000000	63.991928 
1269.000000	63.984036 
1268.000000	63.978552 
1267.000000	63.975286 
1266.000000	63.973927 
1265.000000	63.973832 
1264.000000	63.974666 
1263.000000	63.976216 
1262.000000	63.978981 
1261.000000	63.983774 
1260.000000	63.991856 
1259.000000	64.004206 
1258.000000	64.021396 
1257.000000	64.043164 
1256.000000	64.068388 
1255.000000	64.094901 
1254.000000	64.119815 
1253.000000	64.140176 
1252.000000	64.153337 
1251.000000	64.157700 
1250.000000	64.152884 
1249.000000	64.139866 
1248.000000	64.121007 
1247.000000	64.099407 
1246.000000	64.078211 
1245.000000	64.059996 
1244.000000	64.046454 
1243.000000	64.037942 
1242.000000	64.033889 
1241.000000	64.032721 
1240.000000	64.032554 
1239.000000	64.031672 
1238.000000	64.029073 
1237.000000	64.024233 
1236.000000	64.017295 
1235.000000	64.008569 
1234.000000	63.998436 
1233.000000	63.986945 
1232.000000	63.973832 
1231.000000	63.958787 
1230.000000	63.941764 
1229.000000	63.923358 
1228.000000	63.904857 
1227.000000	63.888144 
1226.000000	63.875532 
1225.000000	63.869094 
1224.000000	63.870429 
1223.000000	63.880252 
1222.000000	63.898038 
1221.000000	63.922357 
1220.000000	63.950705 
1219.000000	63.980102 
1218.000000	64.007163 
1217.000000	64.028763 
1216.000000	64.042067 
1215.000000	64.044833 
1214.000000	64.035654 
1213.000000	64.014244 
1212.000000	63.981842 
1211.000000	63.940787 
1210.000000	63.894677 
1209.000000	63.847970 
1208.000000	63.805437 
1207.000000	63.771390 
1206.000000	63.748979 
1205.000000	63.739609 
1204.000000	63.743019 
1203.000000	63.757395 
1202.000000	63.779902 
1201.000000	63.807082 
1200.000000	63.835835 
1199.000000	63.863682 
1198.000000	63.888907 
1197.000000	63.910675 
1196.000000	63.928627 
1195.000000	63.942742 
1194.000000	63.953018 
1193.000000	63.959574 
1192.000000	63.962674 
1191.000000	63.962912 
1190.000000	63.961315 
1189.000000	63.959360 
1188.000000	63.959097 
1187.000000	63.962149 
1186.000000	63.969731 
1185.000000	63.981819 
1184.000000	63.997340 
1183.000000	64.013934 
1182.000000	64.028620 
1181.000000	64.038109 
1180.000000	64.039659 
1179.000000	64.031600 
1178.000000	64.013934 
1177.000000	63.988041 
1176.000000	63.956618 
1175.000000	63.923144 
1174.000000	63.891148 
1173.000000	63.863706 
1172.000000	63.842988 
1171.000000	63.830018 
1170.000000	63.824796 
1169.000000	63.826799 
1168.000000	63.835144 
1167.000000	63.848567 
1166.000000	63.865733 
1165.000000	63.884592 
1164.000000	63.903045 
1163.000000	63.918423 
1162.000000	63.928318 
1161.000000	63.931155 
1160.000000	63.926434 
1159.000000	63.915109 
1158.000000	63.899207 
1157.000000	63.881230 
1156.000000	63.863658 
1155.000000	63.848400 
1154.000000	63.836622 
1153.000000	63.828873 
1152.000000	63.825321 
1151.000000	63.826060 
1150.000000	63.830876 
1149.000000	63.839197 
1148.000000	63.849949 
1147.000000	63.861632 
1146.000000	63.872337 
1145.000000	63.880181 
1144.000000	63.883686 
1143.000000	63.882255 
1142.000000	63.876509 
1141.000000	63.868021 
1140.000000	63.859248 
1139.000000	63.852715 
1138.000000	63.850569 
1137.000000	63.853931 
1136.000000	63.862538 
1135.000000	63.874936 
1134.000000	63.888716 
1133.000000	63.901257 
1132.000000	63.910245 
1131.000000	63.914227 
1130.000000	63.912892 
1129.000000	63.906955 
1128.000000	63.897800 
1127.000000	63.887453 
1126.000000	63.878059 
1125.000000	63.871598 
1124.000000	63.869571 
1123.000000	63.872504 
1122.000000	63.880014 
1121.000000	63.890647 
1120.000000	63.902163 
1119.000000	63.911914 
1118.000000	63.917374 
1117.000000	63.916540 
1116.000000	63.908433 
1115.000000	63.893294 
1114.000000	63.872623 
1113.000000	63.848924 
1112.000000	63.825488 
1111.000000	63.805961 
1110.000000	63.793540 
1109.000000	63.790774 
1108.000000	63.798522 
1107.000000	63.815665 
1106.000000	63.839221 
1105.000000	63.864827 
1104.000000	63.887572 
1103.000000	63.902902 
1102.000000	63.907718 
1101.000000	63.900947 
1100.000000	63.883638 
1099.000000	63.858723 
1098.000000	63.830256 
1097.000000	63.802504 
1096.000000	63.779282 
1095.000000	63.763260 
1094.000000	63.755607 
1093.000000	63.756155 
1092.000000	63.763308 
1091.000000	63.774752 
1090.000000	63.787674 
1089.000000	63.799500 
1088.000000	63.808155 
1087.000000	63.812875 
1086.000000	63.813638 
1085.000000	63.811898 
1084.000000	63.809847 
1083.000000	63.810253 
1082.000000	63.815808 
1081.000000	63.828444 
1080.000000	63.848996 
1079.000000	63.876748 
1078.000000	63.909673 
1077.000000	63.944768 
1076.000000	63.978743 
1075.000000	64.008665 
1074.000000	64.032411 
1073.000000	64.049005 
1072.000000	64.058709 
1071.000000	64.062523 
1070.000000	64.061784 
1069.000000	64.057636 
1068.000000	64.050579 
1067.000000	64.040851 
1066.000000	64.028263 
1065.000000	64.012551 
1064.000000	63.993620 
1063.000000	63.972139 
1062.000000	63.949513 
1061.000000	63.927364 
1060.000000	63.907408 
1059.000000	63.890910 
1058.000000	63.878655 
1057.000000	63.870620 
1056.000000	63.865828 
1055.000000	63.862800 
1054.000000	63.859701 
1053.000000	63.854694 
1052.000000	63.846254 
1051.000000	63.833141 
1050.000000	63.814997 
1049.000000	63.792634 
1048.000000	63.767814 
1047.000000	63.742804 
1046.000000	63.720345 
1045.000000	63.703298 
1044.000000	63.694024 
1043.000000	63.693714 
1042.000000	63.702559 
1041.000000	63.719677 
1040.000000	63.743305 
1039.000000	63.771343 
1038.000000	63.801813 
1037.000000	63.833498 
1036.000000	63.865971 
1035.000000	63.899660 
1034.000000	63.935375 
1033.000000	63.973855 
1032.000000	64.015221 
1031.000000	64.058518 
1030.000000	64.101672 
1029.000000	64.141273 
1028.000000	64.173769 
1027.000000	64.195251 
1026.000000	64.202713 
1025.000000	64.193940 
1024.000000	64.168715 
1023.000000	64.128351 
1022.000000	64.075779 
1021.000000	64.015221 
1020.000000	63.951730 
1019.000000	63.890504 
1018.000000	63.836336 
1017.000000	63.792920 
1016.000000	63.762760 
1015.000000	63.746881 
1014.000000	63.744616 
1013.000000	63.754057 
1012.000000	63.772368 
1011.000000	63.796353 
1010.000000	63.822984 
1009.000000	63.849663 
1008.000000	63.874387 
1007.000000	63.896083 
1006.000000	63.914394 
1005.000000	63.929224 
1004.000000	63.940453 
1003.000000	63.948154 
1002.000000	63.951969 
1001.000000	63.951563 
1000.000000	63.946509 
999.000000	 63.936877 
998.000000	 63.923168 
997.000000	 63.906455 
996.000000	 63.888263 
995.000000	 63.870525 
994.000000	 63.855099 
993.000000	 63.843512 
992.000000	 63.836932 
991.000000	 63.835787 
990.000000	 63.839960 
989.000000	 63.848924 
988.000000	 63.861870 
987.000000	 63.877749 
986.000000	 63.895487 
985.000000	 63.913917 
984.000000	 63.931822 
983.000000	 63.948035 
982.000000	 63.961386 
981.000000	 63.971018 
980.000000	 63.976478 
979.000000	 63.977861 
978.000000	 63.975763 
977.000000	 63.971018 
976.000000	 63.964700 
975.000000	 63.957595 
974.000000	 63.950252 
973.000000	 63.942861 
972.000000	 63.935446 
971.000000	 63.928198 
970.000000	 63.921618 
969.000000	 63.916730 
968.000000	 63.914871 
967.000000	 63.917255 
966.000000	 63.924860 
965.000000	 63.937401 
964.000000	 63.953018 
963.000000	 63.968467 
962.000000	 63.979697 
961.000000	 63.982725 
960.000000	 63.974809 
959.000000	 63.955235 
958.000000	 63.925647 
957.000000	 63.889741 
956.000000	 63.852500 
955.000000	 63.819050 
954.000000	 63.793706 
953.000000	 63.778877 
952.000000	 63.774847 
951.000000	 63.779926 
950.000000	 63.791203 
949.000000	 63.804960 
948.000000	 63.818049 
947.000000	 63.828015 
946.000000	 63.834118 
945.000000	 63.836789 
944.000000	 63.838005 
943.000000	 63.840103 
942.000000	 63.845801 
941.000000	 63.857412 
940.000000	 63.876199 
939.000000	 63.902115 
938.000000	 63.933324 
937.000000	 63.966464 
936.000000	 63.997077 
935.000000	 64.020586 
934.000000	 64.033675 
933.000000	 64.035058 
932.000000	 64.026165 
931.000000	 64.011073 
930.000000	 63.995647 
929.000000	 63.986134 
928.000000	 63.987731 
927.000000	 64.003252 
926.000000	 64.032316 
925.000000	 64.071345 
924.000000	 64.114809 
923.000000	 64.156055 
922.000000	 64.189243 
921.000000	 64.209914 
920.000000	 64.216113 
919.000000	 64.207863 
918.000000	 64.186763 
917.000000	 64.155411 
916.000000	 64.116334 
915.000000	 64.072084 
914.000000	 64.025187 
913.000000	 63.978266 
912.000000	 63.934683 
911.000000	 63.897919 
910.000000	 63.871216 
909.000000	 63.856792 
908.000000	 63.855171 
907.000000	 63.864803 
906.000000	 63.882207 
905.000000	 63.902688 
904.000000	 63.921213 
903.000000	 63.934111 
902.000000	 63.939809 
901.000000	 63.939166 
900.000000	 63.934874 
899.000000	 63.930225 
898.000000	 63.927698 
897.000000	 63.928055 
896.000000	 63.930106 
895.000000	 63.931012 
894.000000	 63.927578 
893.000000	 63.917493 
892.000000	 63.900256 
891.000000	 63.877987 
890.000000	 63.854956 
889.000000	 63.836216 
888.000000	 63.826775 
887.000000	 63.830256 
886.000000	 63.847851 
885.000000	 63.878011 
884.000000	 63.916420 
883.000000	 63.957309 
882.000000	 63.994193 
881.000000	 64.021563 
880.000000	 64.035773 
879.000000	 64.035701 
878.000000	 64.022994 
877.000000	 64.001655 
876.000000	 63.977384 
875.000000	 63.956522 
874.000000	 63.944888 
873.000000	 63.946628 
872.000000	 63.963556 
871.000000	 63.994526 
870.000000	 64.035677 
869.000000	 64.080953 
868.000000	 64.123678 
867.000000	 64.157438 
866.000000	 64.177465 
865.000000	 64.181137 
864.000000	 64.168357 
863.000000	 64.140915 
862.000000	 64.102435 
861.000000	 64.057040 
860.000000	 64.009022 
859.000000	 63.961791 
858.000000	 63.918256 
857.000000	 63.880181 
856.000000	 63.848686 
855.000000	 63.824129 
854.000000	 63.806533 
853.000000	 63.795804 
852.000000	 63.791799 
851.000000	 63.794136 
850.000000	 63.801574 
849.000000	 63.812661 
848.000000	 63.825464 
847.000000	 63.837671 
846.000000	 63.846874 
845.000000	 63.850831 
844.000000	 63.848066 
843.000000	 63.838028 
842.000000	 63.821649 
841.000000	 63.800859 
840.000000	 63.778924 
839.000000	 63.759660 
838.000000	 63.747048 
837.000000	 63.744616 
836.000000	 63.754487 
835.000000	 63.777065 
834.000000	 63.810801 
833.000000	 63.852572 
832.000000	 63.897776 
831.000000	 63.941287 
830.000000	 63.977622 
829.000000	 64.001584 
828.000000	 64.009356 
827.000000	 63.999199 
826.000000	 63.971543 
825.000000	 63.928985 
824.000000	 63.876271 
823.000000	 63.819646 
822.000000	 63.765645 
821.000000	 63.720035 
820.000000	 63.686919 
819.000000	 63.668346 
818.000000	 63.664627 
817.000000	 63.674473 
816.000000	 63.695764 
815.000000	 63.725948 
814.000000	 63.762378 
813.000000	 63.802361 
812.000000	 63.842773 
811.000000	 63.880443 
810.000000	 63.911437 
809.000000	 63.932251 
808.000000	 63.939499 
807.000000	 63.931632 
806.000000	 63.909101 
805.000000	 63.875269 
804.000000	 63.836216 
803.000000	 63.799691 
802.000000	 63.774037 
801.000000	 63.765788 
800.000000	 63.778448 
799.000000	 63.811182 
798.000000	 63.859009 
797.000000	 63.913273 
796.000000	 63.963603 
795.000000	 63.999891 
794.000000	 64.015102 
793.000000	 64.006423 
792.000000	 63.976192 
791.000000	 63.931274 
790.000000	 63.881158 
789.000000	 63.836216 
788.000000	 63.804459 
787.000000	 63.790082 
786.000000	 63.792228 
785.000000	 63.805770 
784.000000	 63.822770 
783.000000	 63.835430 
782.000000	 63.838243 
781.000000	 63.829016 
780.000000	 63.809990 
779.000000	 63.786554 
778.000000	 63.765549 
777.000000	 63.752722 
776.000000	 63.750958 
775.000000	 63.759183 
774.000000	 63.772773 
773.000000	 63.784813 
772.000000	 63.788318 
771.000000	 63.778305 
770.000000	 63.753461 
769.000000	 63.716793 
768.000000	 63.674378 
767.000000	 63.633966 
766.000000	 63.602733 
765.000000	 63.585495 
764.000000	 63.583827 
763.000000	 63.595771 
762.000000	 63.616847 
761.000000	 63.640904 
760.000000	 63.661360 
759.000000	 63.672709 
758.000000	 63.671350 
757.000000	 63.656353 
756.000000	 63.629102 
755.000000	 63.593244 
754.000000	 63.553500 
753.000000	 63.514804 
752.000000	 63.481187 
751.000000	 63.455104 
750.000000	 63.437151 
749.000000	 63.426637 
748.000000	 63.422322 
747.000000	 63.423132 
746.000000	 63.428354 
745.000000	 63.438057 
744.000000	 63.452816 
743.000000	 63.473129 
742.000000	 63.498878 
741.000000	 63.528990 
740.000000	 63.561701 
739.000000	 63.594627 
738.000000	 63.625502 
737.000000	 63.653111 
736.000000	 63.677549 
735.000000	 63.700294 
734.000000	 63.723301 
733.000000	 63.748049 
732.000000	 63.774681 
731.000000	 63.801360 
730.000000	 63.824892 
729.000000	 63.841795 
728.000000	 63.848996 
727.000000	 63.845276 
726.000000	 63.830780 
725.000000	 63.807439 
724.000000	 63.777780 
723.000000	 63.744902 
722.000000	 63.710927 
721.000000	 63.676404 
720.000000	 63.641071 
719.000000	 63.604784 
718.000000	 63.567924 
717.000000	 63.531947 
716.000000	 63.499355 
715.000000	 63.473224 
714.000000	 63.456058 
713.000000	 63.449072 
712.000000	 63.451313 
711.000000	 63.459777 
710.000000	 63.470482 
709.000000	 63.479065 
708.000000	 63.482356 
707.000000	 63.478183 
706.000000	 63.465404 
705.000000	 63.443970 
704.000000	 63.413214 
703.000000	 63.373661 
702.000000	 63.326191 
701.000000	 63.274407 
700.000000	 63.223481 
699.000000	 63.182187 
698.000000	 63.160943 
697.000000	 63.170528 
696.000000	 63.219308 
695.000000	 63.310432 
694.000000	 63.440299 
693.000000	 63.597297 
692.000000	 63.763475 
691.000000	 63.917517 
690.000000	 64.038920 
689.000000	 64.112305 
688.000000	 64.130568 
687.000000	 64.096689 
686.000000	 64.022636 
685.000000	 63.926959 
684.000000	 63.830208 
683.000000	 63.750648 
682.000000	 63.699984 
681.000000	 63.682746 
680.000000	 63.694882 
679.000000	 63.727021 
678.000000	 63.766336 
677.000000	 63.800454 
676.000000	 63.820338 
675.000000	 63.821840 
674.000000	 63.806414 
673.000000	 63.779354 
672.000000	 63.748049 
671.000000	 63.718819 
670.000000	 63.695740 
669.000000	 63.680171 
668.000000	 63.669848 
667.000000	 63.660454 
666.000000	 63.646316 
665.000000	 63.622856 
664.000000	 63.586425 
663.000000	 63.535475 
662.000000	 63.470435 
661.000000	 63.393902 
660.000000	 63.312888 
659.000000	 63.237452 
658.000000	 63.179278 
657.000000	 63.148593 
656.000000	 63.151741 
655.000000	 63.188624 
654.000000	 63.251399 
653.000000	 63.326096 
652.000000	 63.394308 
651.000000	 63.439393 
650.000000	 63.449239 
649.000000	 63.421750 
648.000000	 63.364243 
647.000000	 63.293695 
646.000000	 63.231444 
645.000000	 63.199591 
644.000000	 63.214874 
643.000000	 63.285422 
642.000000	 63.408684 
641.000000	 63.572263 
640.000000	 63.757753 
639.000000	 63.942980 
638.000000	 64.107489 
637.000000	 64.232707 
636.000000	 64.304685 
635.000000	 64.314842 
634.000000	 64.260959 
633.000000	 64.147686 
632.000000	 63.986420 
631.000000	 63.796353 
630.000000	 63.601255 
629.000000	 63.426113 
628.000000	 63.292193 
627.000000	 63.214230 
626.000000	 63.197064 
625.000000	 63.234829 
624.000000	 63.313031 
623.000000	 63.411259 
622.000000	 63.509106 
621.000000	 63.590073 
620.000000	 63.645172 
619.000000	 63.672518 
618.000000	 63.676977 
617.000000	 63.666272 
616.000000	 63.648295 
615.000000	 63.627290 
614.000000	 63.604497 
613.000000	 63.578629 
612.000000	 63.548421 
611.000000	 63.514804 
610.000000	 63.482284 
609.000000	 63.459277 
608.000000	 63.455724 
607.000000	 63.480782 
606.000000	 63.541078 
605.000000	 63.638496 
604.000000	 63.769006 
603.000000	 63.922595 
602.000000	 64.084887 
601.000000	 64.239168 
600.000000	 64.369511 
599.000000	 64.463520 
598.000000	 64.513874 
597.000000	 64.519405 
596.000000	 64.485454 
595.000000	 64.421701 
594.000000	 64.341139 
593.000000	 64.256048 
592.000000	 64.177680 
591.000000	 64.112210 
590.000000	 64.061760 
589.000000	 64.023137 
588.000000	 63.990283 
587.000000	 63.956284 
586.000000	 63.915920 
585.000000	 63.867497 
584.000000	 63.813710 
583.000000	 63.760519 
582.000000	 63.715100 
581.000000	 63.684344 
580.000000	 63.672518 
579.000000	 63.681244 
578.000000	 63.708543 
577.000000	 63.750004 
576.000000	 63.798856 
575.000000	 63.847732 
574.000000	 63.889002 
573.000000	 63.915014 
572.000000	 63.919281 
571.000000	 63.897705 
570.000000	 63.849568 
569.000000	 63.776421 
568.000000	 63.683867 
567.000000	 63.580942 
566.000000	 63.479447 
565.000000	 63.391876 
564.000000	 63.329887 
563.000000	 63.301420 
562.000000	 63.310599 
561.000000	 63.356518 
560.000000	 63.434529 
559.000000	 63.536691 
558.000000	 63.654255 
557.000000	 63.778805 
556.000000	 63.902616 
555.000000	 64.018487 
554.000000	 64.119982 
553.000000	 64.201021 
552.000000	 64.256644 
551.000000	 64.282846 
550.000000	 64.277744 
549.000000	 64.241194 
548.000000	 64.175200 
547.000000	 64.083003 
546.000000	 63.969373 
545.000000	 63.839817 
544.000000	 63.701248 
543.000000	 63.561582 
542.000000	 63.429450 
541.000000	 63.313937 
540.000000	 63.223195 
539.000000	 63.164186 
538.000000	 63.140940 
537.000000	 63.154482 
536.000000	 63.200688 
535.000000	 63.272714 
534.000000	 63.360691 
533.000000	 63.455104 
532.000000	 63.547348 
531.000000	 63.631868 
530.000000	 63.705587 
529.000000	 63.767576 
528.000000	 63.817787 
527.000000	 63.855361 
526.000000	 63.877773 
525.000000	 63.881444 
524.000000	 63.862466 
523.000000	 63.818407 
522.000000	 63.748979 
521.000000	 63.656926 
520.000000	 63.548088 
519.000000	 63.430404 
518.000000	 63.313746 
517.000000	 63.207769 
516.000000	 63.122367 
515.000000	 63.066005 
514.000000	 63.045859 
513.000000	 63.065958 
512.000000	 63.127303 
511.000000	 63.227295 
510.000000	 63.358640 
509.000000	 63.509607 
508.000000	 63.664340 
507.000000	 63.804244 
506.000000	 63.911604 
505.000000	 63.972735 
504.000000	 63.980364 
503.000000	 63.934946 
502.000000	 63.845539 
501.000000	 63.728642 
500.000000	 63.604259 
499.000000	 63.491964 
498.000000	 63.408207 
497.000000	 63.363385 
496.000000	 63.359928 
495.000000	 63.392853 
494.000000	 63.451123 
493.000000	 63.521289 
492.000000	 63.589954 
491.000000	 63.648080 
490.000000	 63.691902 
489.000000	 63.723754 
488.000000	 63.750863 
487.000000	 63.781309 
486.000000	 63.821148 
485.000000	 63.870167 
484.000000	 63.923215 
483.000000	 63.967537 
482.000000	 63.987088 
481.000000	 63.964867 
480.000000	 63.889479 
479.000000	 63.756489 
478.000000	 63.571786 
477.000000	 63.349652 
476.000000	 63.110446 
475.000000	 62.876176 
474.000000	 62.666225 
473.000000	 62.493681 
472.000000	 62.363600 
471.000000	 62.274265 
470.000000	 62.219762 
469.000000	 62.192058 
468.000000	 62.184119 
467.000000	 62.191605 
466.000000	 62.213730 
465.000000	 62.249445 
464.000000	 62.298297 
463.000000	 62.357664 
462.000000	 62.424564 
461.000000	 62.493205 
460.000000	 62.558889 
459.000000	 62.619280 
458.000000	 62.675118 
457.000000	 62.730050 
456.000000	 62.789082 
455.000000	 62.857007 
454.000000	 62.935686 
453.000000	 63.023567 
452.000000	 63.114476 
451.000000	 63.198351 
450.000000	 63.265228 
449.000000	 63.309192 
448.000000	 63.327503 
447.000000	 63.320899 
446.000000	 63.293886 
445.000000	 63.253164 
444.000000	 63.200473 
443.000000	 63.131570 
442.000000	 63.038063 
441.000000	 62.910008 
440.000000	 62.739348 
439.000000	 62.524509 
438.000000	 62.273788 
437.000000	 62.004709 
436.000000	 61.743712 
435.000000	 61.518764 
434.000000	 61.348199 
433.000000	 61.239981 
432.000000	 61.192250 
431.000000	 61.193752 
430.000000	 61.219573 
429.000000	 61.248826 
428.000000	 61.268591 
427.000000	 61.282300 
426.000000	 61.306333 
425.000000	 61.367964 
424.000000	 61.490774 
423.000000	 61.696314 
422.000000	 61.995697 
421.000000	 62.384700 
420.000000	 62.840485 
419.000000	 63.333559 
418.000000	 63.833427 
417.000000	 64.305901 
416.000000	 64.716911 
415.000000	 65.046024 
414.000000	 65.282535 
413.000000	 65.423297 
412.000000	 65.462708 
411.000000	 65.402102 
410.000000	 65.229940 
409.000000	 64.933967 
408.000000	 64.485573 
407.000000	 63.852047 
406.000000	 63.001775 
405.000000	 61.917805 
404.000000	 60.621213 
403.000000	 59.156894 
402.000000	 57.633709 
401.000000	 56.221771 
400.000000	 55.121350 
399.000000	 54.490447 
398.000000	 54.460453 
397.000000	 55.111408 
396.000000	 56.431508 
395.000000	 58.296346 
394.000000	 60.522508 
393.000000	 62.894964 
392.000000	 65.223479 
391.000000	 67.370176 
390.000000	 69.285106 
389.000000	 70.988106 
388.000000	 72.537302 
387.000000	 73.977398 
386.000000	 75.302505 
385.000000	 76.431417 
384.000000	 77.236604 
383.000000	 77.563762 
382.000000	 77.303552 
381.000000	 76.401066 
380.000000	 74.969148 
379.000000	 73.157668 
378.000000	 71.193051 
377.000000	 69.172930 
376.000000	 67.131114 
375.000000	 64.854955 
374.000000	 61.933732 
373.000000	 57.873344 
372.000000	 52.249979 
371.000000	 44.926953 
370.000000	 36.142158 

