PE IR       SPECTRUM    SPECTRUM    ASCII       PEDS        1.60        
  -1
BZ4CFC~1.ASC
17/04/07
22:52:59.00
17/04/07
22:52:59.00
tln
$BZ1503107-1_t0117$<tbV0>[-2.6,13.0,8.0,0.0,27,1,0]
370.000000
64









2002,4.07    
MIRTGS : RIGHTBACK : INTERNAL 2
MIR : ON : INTERNAL 2
OPTKBR

0.200000
8
8.000000
FILLER
RATIO
SPECTRUM
UNLOCKED 256

DOUBLE
64
COMBINED
1
0
0


1.000000
RATIO


1
0
TRUE
51149
0
LEFT NOT FITTED RIGHT NOT FITTED 0
NONE
NONE
15600
12.000000
4.427000
51148
TRUE
1 0 8 72 0 0 0 0 

15798.010000






#HDR
-1
-1
#GR
CM-1
%T
0.00002384185791015625
0.0
5000.000000
-1.000000
4631
8
86.443495
38.889002
#DATA
5000.000000	65.379571 
4999.000000	65.221333 
4998.000000	65.063977 
4997.000000	64.928555 
4996.000000	64.835858 
4995.000000	64.802765 
4994.000000	64.838814 
4993.000000	64.944267 
4992.000000	65.108704 
4991.000000	65.313053 
4990.000000	65.530824 
4989.000000	65.733575 
4988.000000	65.892457 
4987.000000	65.983009 
4986.000000	65.987396 
4985.000000	65.897369 
4984.000000	65.714645 
4983.000000	65.451288 
4982.000000	65.128803 
4981.000000	64.775609 
4980.000000	64.423465 
4979.000000	64.104104 
4978.000000	63.845157 
4977.000000	63.667654 
4976.000000	63.584423 
4975.000000	63.598871 
4974.000000	63.703250 
4973.000000	63.881754 
4972.000000	64.110636 
4971.000000	64.364671 
4970.000000	64.616131 
4969.000000	64.844250 
4968.000000	65.033841 
4967.000000	65.181112 
4966.000000	65.291333 
4965.000000	65.376520 
4964.000000	65.450930 
4963.000000	65.526223 
4962.000000	65.609693 
4961.000000	65.699410 
4960.000000	65.786337 
4959.000000	65.856027 
4958.000000	65.894436 
4957.000000	65.891599 
4956.000000	65.845680 
4955.000000	65.763592 
4954.000000	65.659499 
4953.000000	65.550351 
4952.000000	65.451073 
4951.000000	65.370798 
4950.000000	65.310788 
4949.000000	65.264272 
4948.000000	65.219783 
4947.000000	65.166473 
4946.000000	65.097856 
4945.000000	65.013289 
4944.000000	64.920449 
4943.000000	64.831233 
4942.000000	64.761757 
4941.000000	64.726853 
4940.000000	64.738178 
4939.000000	64.798760 
4938.000000	64.905142 
4937.000000	65.048074 
4936.000000	65.214228 
4935.000000	65.388131 
4934.000000	65.556049 
4933.000000	65.707826 
4932.000000	65.837168 
4931.000000	65.941023 
4930.000000	66.018676 
4929.000000	66.070199 
4928.000000	66.095685 
4927.000000	66.094756 
4926.000000	66.066884 
4925.000000	66.012167 
4924.000000	65.933275 
4923.000000	65.835881 
4922.000000	65.728878 
4921.000000	65.623021 
4920.000000	65.530610 
4919.000000	65.461683 
4918.000000	65.422034 
4917.000000	65.411520 
4916.000000	65.424227 
4915.000000	65.449953 
4914.000000	65.476489 
4913.000000	65.492939 
4912.000000	65.491652 
4911.000000	65.470290 
4910.000000	65.431141 
4909.000000	65.380358 
4908.000000	65.325331 
4907.000000	65.273261 
4906.000000	65.229225 
4905.000000	65.195727 
4904.000000	65.172481 
4903.000000	65.158176 
4902.000000	65.151596 
4901.000000	65.151977 
4900.000000	65.159440 
4899.000000	65.174818 
4898.000000	65.198874 
4897.000000	65.230751 
4896.000000	65.267753 
4895.000000	65.305233 
4894.000000	65.337824 
4893.000000	65.360713 
4892.000000	65.370535 
4891.000000	65.366506 
4890.000000	65.350270 
4889.000000	65.325713 
4888.000000	65.297627 
4887.000000	65.270209 
4886.000000	65.246033 
4885.000000	65.225815 
4884.000000	65.208554 
4883.000000	65.192270 
4882.000000	65.175700 
4881.000000	65.158939 
4880.000000	65.144419 
4879.000000	65.136671 
4878.000000	65.140891 
4877.000000	65.161299 
4876.000000	65.198445 
4875.000000	65.248227 
4874.000000	65.302324 
4873.000000	65.349721 
4872.000000	65.379309 
4871.000000	65.382814 
4870.000000	65.357422 
4869.000000	65.306520 
4868.000000	65.238952 
4867.000000	65.166425 
4866.000000	65.100884 
4865.000000	65.050888 
4864.000000	65.019845 
4863.000000	65.005064 
4862.000000	64.999675 
4861.000000	64.994549 
4860.000000	64.982056 
4859.000000	64.957666 
4858.000000	64.921236 
4857.000000	64.877009 
4856.000000	64.831352 
4855.000000	64.791655 
4854.000000	64.763045 
4853.000000	64.749002 
4852.000000	64.750337 
4851.000000	64.766764 
4850.000000	64.797139 
4849.000000	64.840030 
4848.000000	64.893770 
4847.000000	64.955949 
4846.000000	65.023064 
4845.000000	65.090322 
4844.000000	65.152049 
4843.000000	65.202641 
4842.000000	65.237712 
4841.000000	65.255379 
4840.000000	65.256547 
4839.000000	65.245628 
4838.000000	65.228414 
4837.000000	65.211057 
4836.000000	65.197539 
4835.000000	65.189528 
4834.000000	65.184807 
4833.000000	65.178704 
4832.000000	65.164756 
4831.000000	65.137553 
4830.000000	65.093731 
4829.000000	65.033316 
4828.000000	64.959836 
4827.000000	64.879512 
4826.000000	64.800667 
4825.000000	64.731812 
4824.000000	64.680433 
4823.000000	64.651250 
4822.000000	64.645791 
4821.000000	64.662170 
4820.000000	64.695405 
4819.000000	64.738917 
4818.000000	64.786124 
4817.000000	64.831948 
4816.000000	64.873170 
4815.000000	64.908790 
4814.000000	64.939880 
4813.000000	64.968562 
4812.000000	64.996552 
4811.000000	65.024280 
4810.000000	65.050578 
4809.000000	65.072250 
4808.000000	65.085625 
4807.000000	65.086793 
4806.000000	65.073442 
4805.000000	65.045142 
4804.000000	65.004491 
4803.000000	64.955949 
4802.000000	64.905118 
4801.000000	64.857387 
4800.000000	64.817047 
4799.000000	64.786267 
4798.000000	64.765095 
4797.000000	64.751672 
4796.000000	64.743447 
4795.000000	64.737272 
4794.000000	64.730215 
4793.000000	64.720082 
4792.000000	64.706063 
4791.000000	64.688062 
4790.000000	64.667010 
4789.000000	64.644336 
4788.000000	64.622044 
4787.000000	64.602160 
4786.000000	64.586710 
4785.000000	64.577436 
4784.000000	64.575433 
4783.000000	64.581394 
4782.000000	64.594960 
4781.000000	64.614987 
4780.000000	64.639186 
4779.000000	64.664244 
4778.000000	64.686679 
4777.000000	64.703011 
4776.000000	64.711093 
4775.000000	64.710569 
4774.000000	64.703178 
4773.000000	64.692544 
4772.000000	64.683270 
4771.000000	64.679718 
4770.000000	64.685225 
4769.000000	64.701533 
4768.000000	64.727973 
4767.000000	64.761638 
4766.000000	64.798665 
4765.000000	64.835095 
4764.000000	64.867663 
4763.000000	64.894604 
4762.000000	64.915609 
4761.000000	64.931654 
4760.000000	64.944386 
4759.000000	64.955496 
4758.000000	64.966320 
4757.000000	64.977645 
4756.000000	64.990162 
4755.000000	65.004014 
4754.000000	65.019774 
4753.000000	65.037155 
4752.000000	65.055441 
4751.000000	65.072894 
4750.000000	65.086722 
4749.000000	65.094232 
4748.000000	65.093159 
4747.000000	65.083265 
4746.000000	65.066528 
4745.000000	65.047502 
4744.000000	65.032768 
4743.000000	65.029191 
4742.000000	65.042185 
4741.000000	65.074205 
4740.000000	65.123677 
4739.000000	65.185022 
4738.000000	65.249633 
4737.000000	65.307879 
4736.000000	65.350985 
4735.000000	65.373468 
4734.000000	65.373849 
4733.000000	65.354847 
4732.000000	65.322160 
4731.000000	65.282797 
4730.000000	65.243220 
4729.000000	65.208315 
4728.000000	65.180420 
4727.000000	65.159344 
4726.000000	65.143322 
4725.000000	65.130519 
4724.000000	65.119504 
4723.000000	65.110158 
4722.000000	65.103244 
4721.000000	65.099906 
4720.000000	65.100860 
4719.000000	65.105605 
4718.000000	65.112423 
4717.000000	65.118432 
4716.000000	65.120601 
4715.000000	65.116477 
4714.000000	65.105175 
4713.000000	65.087914 
4712.000000	65.067720 
4711.000000	65.048813 
4710.000000	65.036082 
4709.000000	65.033674 
4708.000000	65.044164 
4707.000000	65.067100 
4706.000000	65.099406 
4705.000000	65.134739 
4704.000000	65.165162 
4703.000000	65.182256 
4702.000000	65.178775 
4701.000000	65.150666 
4700.000000	65.097904 
4699.000000	65.025305 
4698.000000	64.941382 
4697.000000	64.857602 
4696.000000	64.786267 
4695.000000	64.737963 
4694.000000	64.719223 
4693.000000	64.731287 
4692.000000	64.770007 
4691.000000	64.826273 
4690.000000	64.888381 
4689.000000	64.943838 
4688.000000	64.981961 
4687.000000	64.995551 
4686.000000	64.981961 
4685.000000	64.943099 
4684.000000	64.884710 
4683.000000	64.815425 
4682.000000	64.744830 
4681.000000	64.682102 
4680.000000	64.634037 
4679.000000	64.604640 
4678.000000	64.594316 
4677.000000	64.600253 
4676.000000	64.617800 
4675.000000	64.641308 
4674.000000	64.666295 
4673.000000	64.689636 
4672.000000	64.710831 
4671.000000	64.731121 
4670.000000	64.753222 
4669.000000	64.779853 
4668.000000	64.812684 
4667.000000	64.850878 
4666.000000	64.891219 
4665.000000	64.928913 
4664.000000	64.958119 
4663.000000	64.973521 
4662.000000	64.971756 
4661.000000	64.952588 
4660.000000	64.918565 
4659.000000	64.874291 
4658.000000	64.825463 
4657.000000	64.777398 
4656.000000	64.733886 
4655.000000	64.696550 
4654.000000	64.665055 
4653.000000	64.637708 
4652.000000	64.611768 
4651.000000	64.585113 
4650.000000	64.556860 
4649.000000	64.528656 
4648.000000	64.503383 
4647.000000	64.486002 
4646.000000	64.481163 
4645.000000	64.493155 
4644.000000	64.523887 
4643.000000	64.572787 
4642.000000	64.636087 
4641.000000	64.707922 
4640.000000	64.781188 
4639.000000	64.848899 
4638.000000	64.905285 
4637.000000	64.947175 
4636.000000	64.974308 
4635.000000	64.989089 
4634.000000	64.995622 
4633.000000	64.998817 
4632.000000	65.003371 
4631.000000	65.012812 
4630.000000	65.028929 
4629.000000	65.051865 
4628.000000	65.080308 
4627.000000	65.112304 
4626.000000	65.145969 
4625.000000	65.179705 
4624.000000	65.212631 
4623.000000	65.244388 
4622.000000	65.275382 
4621.000000	65.306091 
4620.000000	65.336799 
4619.000000	65.368008 
4618.000000	65.399479 
4617.000000	65.430998 
4616.000000	65.461063 
4615.000000	65.488123 
4614.000000	65.509152 
4613.000000	65.521168 
4612.000000	65.520477 
4611.000000	65.503811 
4610.000000	65.469169 
4609.000000	65.416955 
4608.000000	65.350198 
4607.000000	65.274500 
4606.000000	65.197992 
4605.000000	65.129899 
4604.000000	65.078687 
4603.000000	65.050387 
4602.000000	65.046715 
4601.000000	65.064787 
4600.000000	65.097522 
4599.000000	65.135502 
4598.000000	65.169334 
4597.000000	65.192151 
4596.000000	65.201044 
4595.000000	65.197491 
4594.000000	65.186214 
4593.000000	65.173292 
4592.000000	65.164017 
4591.000000	65.161013 
4590.000000	65.163993 
4589.000000	65.169239 
4588.000000	65.171313 
4587.000000	65.164256 
4586.000000	65.144157 
4585.000000	65.109610 
4584.000000	65.062332 
4583.000000	65.007519 
4582.000000	64.952540 
4581.000000	64.905524 
4580.000000	64.873361 
4579.000000	64.860916 
4578.000000	64.869832 
4577.000000	64.898705 
4576.000000	64.943456 
4575.000000	64.997720 
4574.000000	65.054440 
4573.000000	65.107011 
4572.000000	65.151071 
4571.000000	65.185189 
4570.000000	65.210986 
4569.000000	65.232634 
4568.000000	65.255093 
4567.000000	65.282845 
4566.000000	65.317773 
4565.000000	65.358853 
4564.000000	65.401196 
4563.000000	65.438318 
4562.000000	65.462374 
4561.000000	65.467596 
4560.000000	65.449881 
4559.000000	65.408253 
4558.000000	65.344381 
4557.000000	65.262961 
4556.000000	65.170025 
4555.000000	65.072154 
4554.000000	64.976286 
4553.000000	64.889121 
4552.000000	64.817142 
4551.000000	64.766097 
4550.000000	64.740610 
4549.000000	64.742946 
4548.000000	64.772176 
4547.000000	64.823722 
4546.000000	64.888644 
4545.000000	64.955401 
4544.000000	65.011382 
4543.000000	65.045928 
4542.000000	65.051913 
4541.000000	65.027809 
4540.000000	64.977717 
4539.000000	64.910912 
4538.000000	64.839220 
4537.000000	64.774942 
4536.000000	64.728426 
4535.000000	64.706540 
4534.000000	64.711999 
4533.000000	64.743518 
4532.000000	64.796805 
4531.000000	64.865708 
4530.000000	64.943838 
4529.000000	65.024685 
4528.000000	65.102338 
4527.000000	65.170955 
4526.000000	65.224933 
4525.000000	65.259027 
4524.000000	65.268659 
4523.000000	65.251326 
4522.000000	65.207552 
4521.000000	65.141391 
4520.000000	65.060281 
4519.000000	64.974498 
4518.000000	64.895367 
4517.000000	64.833164 
4516.000000	64.795160 
4515.000000	64.783954 
4514.000000	64.797568 
4513.000000	64.829993 
4512.000000	64.873600 
4511.000000	64.920306 
4510.000000	64.964389 
4509.000000	65.003108 
4508.000000	65.037155 
4507.000000	65.069174 
4506.000000	65.102529 
4505.000000	65.139603 
4504.000000	65.179991 
4503.000000	65.220832 
4502.000000	65.255975 
4501.000000	65.277862 
4500.000000	65.279412 
4499.000000	65.256285 
4498.000000	65.208411 
4497.000000	65.140390 
4496.000000	65.061020 
4495.000000	64.980912 
4494.000000	64.908528 
4493.000000	64.848518 
4492.000000	64.800643 
4491.000000	64.761281 
4490.000000	64.725065 
4489.000000	64.687657 
4488.000000	64.648723 
4487.000000	64.611530 
4486.000000	64.581441 
4485.000000	64.564085 
4484.000000	64.561820 
4483.000000	64.573812 
4482.000000	64.594793 
4481.000000	64.617037 
4480.000000	64.631843 
4479.000000	64.632916 
4478.000000	64.618039 
4477.000000	64.590144 
4476.000000	64.556241 
4475.000000	64.526295 
4474.000000	64.510273 
4473.000000	64.515471 
4472.000000	64.543080 
4471.000000	64.594888 
4470.000000	64.674139 
4469.000000	64.780592 
4468.000000	64.909839 
4467.000000	65.059733 
4466.000000	65.228772 
4465.000000	65.403747 
4464.000000	65.565872 
4463.000000	65.702033 
4462.000000	65.803027 
4461.000000	65.873575 
4460.000000	65.922164 
4459.000000	65.943098 
4458.000000	65.926933 
4457.000000	65.875911 
4456.000000	65.794944 
4455.000000	65.682744 
4454.000000	65.545225 
4453.000000	65.405750 
4452.000000	65.288996 
4451.000000	65.218496 
4450.000000	65.202879 
4449.000000	65.234780 
4448.000000	65.283584 
4447.000000	65.304946 
4446.000000	65.240263 
4445.000000	65.030431 
4444.000000	64.619994 
4443.000000	63.966751 
4442.000000	63.030934 
4441.000000	61.783862 
4440.000000	60.188627 
4439.000000	58.237862 
4438.000000	55.940461 
4437.000000	53.395771 
4436.000000	50.799250 
4435.000000	48.480582 
4434.000000	46.841239 
4433.000000	46.315217 
4432.000000	47.264051 
4431.000000	49.888586 
4430.000000	54.139447 
4429.000000	59.702610 
4428.000000	66.029524 
4427.000000	72.423028 
4426.000000	78.162813 
4425.000000	82.633805 
4424.000000	85.436606 
4423.000000	86.443495 
4422.000000	85.805678 
4421.000000	83.882308 
4420.000000	81.149601 
4419.000000	78.094196 
4418.000000	75.132775 
4417.000000	72.545766 
4416.000000	70.468950 
4415.000000	68.918442 
4414.000000	67.836833 
4413.000000	67.121267 
4412.000000	66.670370 
4411.000000	66.388869 
4410.000000	66.215586 
4409.000000	66.097331 
4408.000000	66.009664 
4407.000000	65.925669 
4406.000000	65.836286 
4405.000000	65.731644 
4404.000000	65.615224 
4403.000000	65.497899 
4402.000000	65.396857 
4401.000000	65.330505 
4400.000000	65.311360 
4399.000000	65.333366 
4398.000000	65.382575 
4397.000000	65.447473 
4396.000000	65.511751 
4395.000000	65.550899 
4394.000000	65.552878 
4393.000000	65.526962 
4392.000000	65.485143 
4391.000000	65.436053 
4390.000000	65.388321 
4389.000000	65.346288 
4388.000000	65.317893 
4387.000000	65.314126 
4386.000000	65.335893 
4385.000000	65.375781 
4384.000000	65.428829 
4383.000000	65.491008 
4382.000000	65.554189 
4381.000000	65.609407 
4380.000000	65.650606 
4379.000000	65.673923 
4378.000000	65.677738 
4377.000000	65.662288 
4376.000000	65.630602 
4375.000000	65.586280 
4374.000000	65.533566 
4373.000000	65.475559 
4372.000000	65.414881 
4371.000000	65.352964 
4370.000000	65.290284 
4369.000000	65.227961 
4368.000000	65.168571 
4367.000000	65.116524 
4366.000000	65.077638 
4365.000000	65.058016 
4364.000000	65.062260 
4363.000000	65.091991 
4362.000000	65.144705 
4361.000000	65.213489 
4360.000000	65.287899 
4359.000000	65.356516 
4358.000000	65.408754 
4357.000000	65.437531 
4356.000000	65.439867 
4355.000000	65.417051 
4354.000000	65.373134 
4353.000000	65.313649 
4352.000000	65.243792 
4351.000000	65.167450 
4350.000000	65.087175 
4349.000000	65.004897 
4348.000000	64.923119 
4347.000000	64.846491 
4346.000000	64.781618 
4345.000000	64.736199 
4344.000000	64.717578 
4343.000000	64.730238 
4342.000000	64.774537 
4341.000000	64.845108 
4340.000000	64.932465 
4339.000000	65.024065 
4338.000000	65.107607 
4337.000000	65.173220 
4336.000000	65.214467 
4335.000000	65.229010 
4334.000000	65.218091 
4333.000000	65.185761 
4332.000000	65.137386 
4331.000000	65.078806 
4330.000000	65.015959 
4329.000000	64.954233 
4328.000000	64.899182 
4327.000000	64.855670 
4326.000000	64.827895 
4325.000000	64.818263 
4324.000000	64.827322 
4323.000000	64.852786 
4322.000000	64.889597 
4321.000000	64.930272 
4320.000000	64.965462 
4319.000000	64.986443 
4318.000000	64.986681 
4317.000000	64.963746 
4316.000000	64.919185 
4315.000000	64.859294 
4314.000000	64.793586 
4313.000000	64.733266 
4312.000000	64.688706 
4311.000000	64.667797 
4310.000000	64.674305 
4309.000000	64.707827 
4308.000000	64.763808 
4307.000000	64.834809 
4306.000000	64.911794 
4305.000000	64.985489 
4304.000000	65.047669 
4303.000000	65.091943 
4302.000000	65.114402 
4301.000000	65.113377 
4300.000000	65.089797 
4299.000000	65.046977 
4298.000000	64.990448 
4297.000000	64.927124 
4296.000000	64.864659 
4295.000000	64.811229 
4294.000000	64.773631 
4293.000000	64.757108 
4292.000000	64.763832 
4291.000000	64.792442 
4290.000000	64.838194 
4289.000000	64.893913 
4288.000000	64.950776 
4287.000000	64.999604 
4286.000000	65.033221 
4285.000000	65.047621 
4284.000000	65.043020 
4283.000000	65.023303 
4282.000000	64.995980 
4281.000000	64.970064 
4280.000000	64.954614 
4279.000000	64.956569 
4278.000000	64.979147 
4277.000000	65.021491 
4276.000000	65.078687 
4275.000000	65.142989 
4274.000000	65.206027 
4273.000000	65.260148 
4272.000000	65.300178 
4271.000000	65.323662 
4270.000000	65.331149 
4269.000000	65.324831 
4268.000000	65.308022 
4267.000000	65.282988 
4266.000000	65.250682 
4265.000000	65.210223 
4264.000000	65.160608 
4263.000000	65.100765 
4262.000000	65.031123 
4261.000000	64.954137 
4260.000000	64.874649 
4259.000000	64.798760 
4258.000000	64.732789 
4257.000000	64.681863 
4256.000000	64.648246 
4255.000000	64.631724 
4254.000000	64.629864 
4253.000000	64.638447 
4252.000000	64.652752 
4251.000000	64.668560 
4250.000000	64.683008 
4249.000000	64.694404 
4248.000000	64.702510 
4247.000000	64.707541 
4246.000000	64.710235 
4245.000000	64.711117 
4244.000000	64.710855 
4243.000000	64.710068 
4242.000000	64.709734 
4241.000000	64.711070 
4240.000000	64.715647 
4239.000000	64.725208 
4238.000000	64.741086 
4237.000000	64.763665 
4236.000000	64.792132 
4235.000000	64.824819 
4234.000000	64.858961 
4233.000000	64.891600 
4232.000000	64.919590 
4231.000000	64.940071 
4230.000000	64.951181 
4229.000000	64.952468 
4228.000000	64.944624 
4227.000000	64.929485 
4226.000000	64.910221 
4225.000000	64.890861 
4224.000000	64.875411 
4223.000000	64.867377 
4222.000000	64.869427 
4221.000000	64.883041 
4220.000000	64.908385 
4219.000000	64.944362 
4218.000000	64.988684 
4217.000000	65.038013 
4216.000000	65.088582 
4215.000000	65.136027 
4214.000000	65.176129 
4213.000000	65.204668 
4212.000000	65.218114 
4211.000000	65.214014 
4210.000000	65.191459 
4209.000000	65.151691 
4208.000000	65.098333 
4207.000000	65.037059 
4206.000000	64.974951 
4205.000000	64.919257 
4204.000000	64.876437 
4203.000000	64.850664 
4202.000000	64.843630 
4201.000000	64.854192 
4200.000000	64.879274 
4199.000000	64.914417 
4198.000000	64.954614 
4197.000000	64.994907 
4196.000000	65.031075 
4195.000000	65.059494 
4194.000000	65.077710 
4193.000000	65.084075 
4192.000000	65.078091 
4191.000000	65.060544 
4190.000000	65.033507 
4189.000000	65.000581 
4188.000000	64.965939 
4187.000000	64.934444 
4186.000000	64.909815 
4185.000000	64.894628 
4184.000000	64.889025 
4183.000000	64.890861 
4182.000000	64.896464 
4181.000000	64.901781 
4180.000000	64.903354 
4179.000000	64.899325 
4178.000000	64.889883 
4177.000000	64.876961 
4176.000000	64.863801 
4175.000000	64.854073 
4174.000000	64.850926 
4173.000000	64.856266 
4172.000000	64.870834 
4171.000000	64.894032 
4170.000000	64.924144 
4169.000000	64.958572 
4168.000000	64.994502 
4167.000000	65.028977 
4166.000000	65.059280 
4165.000000	65.083265 
4164.000000	65.099477 
4163.000000	65.107250 
4162.000000	65.107274 
4161.000000	65.101075 
4160.000000	65.091395 
4159.000000	65.080761 
4158.000000	65.071225 
4157.000000	65.063428 
4156.000000	65.056991 
4155.000000	65.050292 
4154.000000	65.041375 
4153.000000	65.028834 
4152.000000	65.012454 
4151.000000	64.993596 
4150.000000	64.974880 
4149.000000	64.959740 
4148.000000	64.951229 
4147.000000	64.951825 
4146.000000	64.962720 
4145.000000	64.983487 
4144.000000	65.011954 
4143.000000	65.044808 
4142.000000	65.078115 
4141.000000	65.108013 
4140.000000	65.131616 
4139.000000	65.147686 
4138.000000	65.156722 
4137.000000	65.160727 
4136.000000	65.162467 
4135.000000	65.164923 
4134.000000	65.170431 
4133.000000	65.179896 
4132.000000	65.192961 
4131.000000	65.208292 
4130.000000	65.223693 
4129.000000	65.237307 
4128.000000	65.247416 
4127.000000	65.253329 
4126.000000	65.254712 
4125.000000	65.251922 
4124.000000	65.245151 
4123.000000	65.234327 
4122.000000	65.219140 
4121.000000	65.199208 
4120.000000	65.174818 
4119.000000	65.147089 
4118.000000	65.118312 
4117.000000	65.091586 
4116.000000	65.070414 
4115.000000	65.057730 
4114.000000	65.054869 
4113.000000	65.061306 
4112.000000	65.074753 
4111.000000	65.091657 
4110.000000	65.107822 
4109.000000	65.119576 
4108.000000	65.124249 
4107.000000	65.121030 
4106.000000	65.110635 
4105.000000	65.095257 
4104.000000	65.077495 
4103.000000	65.060114 
4102.000000	65.045428 
4101.000000	65.034699 
4100.000000	65.028119 
4099.000000	65.025043 
4098.000000	65.024447 
4097.000000	65.024971 
4096.000000	65.025711 
4095.000000	65.025782 
4094.000000	65.024638 
4093.000000	65.021491 
4092.000000	65.015363 
4091.000000	65.005016 
4090.000000	64.989399 
4089.000000	64.967608 
4088.000000	64.939785 
4087.000000	64.907217 
4086.000000	64.872717 
4085.000000	64.840459 
4084.000000	64.815616 
4083.000000	64.803051 
4082.000000	64.806914 
4081.000000	64.829254 
4080.000000	64.869737 
4079.000000	64.925169 
4078.000000	64.990568 
4077.000000	65.059900 
4076.000000	65.127134 
4075.000000	65.187025 
4074.000000	65.235781 
4073.000000	65.271282 
4072.000000	65.293097 
4071.000000	65.302062 
4070.000000	65.300273 
4069.000000	65.290474 
4068.000000	65.276074 
4067.000000	65.260648 
4066.000000	65.247511 
4065.000000	65.239310 
4064.000000	65.237522 
4063.000000	65.242362 
4062.000000	65.252351 
4061.000000	65.264606 
4060.000000	65.275502 
4059.000000	65.281486 
4058.000000	65.280103 
4057.000000	65.270423 
4056.000000	65.253400 
4055.000000	65.231323 
4054.000000	65.207195 
4053.000000	65.183830 
4052.000000	65.163207 
4051.000000	65.146183 
4050.000000	65.132713 
4049.000000	65.121889 
4048.000000	65.112853 
4047.000000	65.104579 
4046.000000	65.096545 
4045.000000	65.088295 
4044.000000	65.079140 
4043.000000	65.068507 
4042.000000	65.056109 
4041.000000	65.042090 
4040.000000	65.027141 
4039.000000	65.013194 
4038.000000	65.002989 
4037.000000	64.999794 
4036.000000	65.006184 
4035.000000	65.023136 
4034.000000	65.049433 
4033.000000	65.081310 
4032.000000	65.113282 
4031.000000	65.139508 
4030.000000	65.155243 
4029.000000	65.158152 
4028.000000	65.148878 
4027.000000	65.131044 
4026.000000	65.110039 
4025.000000	65.091562 
4024.000000	65.080308 
4023.000000	65.078496 
4022.000000	65.085959 
4021.000000	65.100383 
4020.000000	65.117979 
4019.000000	65.134882 
4018.000000	65.147900 
4017.000000	65.155315 
4016.000000	65.156793 
4015.000000	65.152978 
4014.000000	65.144991 
4013.000000	65.133738 
4012.000000	65.119910 
4011.000000	65.103912 
4010.000000	65.086388 
4009.000000	65.068149 
4008.000000	65.050435 
4007.000000	65.034651 
4006.000000	65.021800 
4005.000000	65.012407 
4004.000000	65.005946 
4003.000000	65.001392 
4002.000000	64.997005 
4001.000000	64.991307 
4000.000000	64.983773 
3999.000000	64.975094 
3998.000000	64.967107 
3997.000000	64.962172 
3996.000000	64.962530 
3995.000000	64.969229 
3994.000000	64.981842 
3993.000000	64.998054 
3992.000000	65.013909 
3991.000000	65.024852 
3990.000000	65.027165 
3989.000000	65.018892 
3988.000000	65.000319 
3987.000000	64.974141 
3986.000000	64.944672 
3985.000000	64.916706 
3984.000000	64.894270 
3983.000000	64.879703 
3982.000000	64.873194 
3981.000000	64.872908 
3980.000000	64.875769 
3979.000000	64.878559 
3978.000000	64.878582 
3977.000000	64.873886 
3976.000000	64.864110 
3975.000000	64.849710 
3974.000000	64.832615 
3973.000000	64.815139 
3972.000000	64.800333 
3971.000000	64.791274 
3970.000000	64.790844 
3969.000000	64.801359 
3968.000000	64.823675 
3967.000000	64.857387 
3966.000000	64.900088 
3965.000000	64.947628 
3964.000000	64.994978 
3963.000000	65.036630 
3962.000000	65.068292 
3961.000000	65.087676 
3960.000000	65.094995 
3959.000000	65.092706 
3958.000000	65.084719 
3957.000000	65.075445 
3956.000000	65.068626 
3955.000000	65.066504 
3954.000000	65.069818 
3953.000000	65.078067 
3952.000000	65.090560 
3951.000000	65.106749 
3950.000000	65.126204 
3949.000000	65.148901 
3948.000000	65.174603 
3947.000000	65.202713 
3946.000000	65.231752 
3945.000000	65.259480 
3944.000000	65.283322 
3943.000000	65.300846 
3942.000000	65.310811 
3941.000000	65.312743 
3940.000000	65.307974 
3939.000000	65.297865 
3938.000000	65.284085 
3937.000000	65.267086 
3936.000000	65.246248 
3935.000000	65.219926 
3934.000000	65.186309 
3933.000000	65.144276 
3932.000000	65.094399 
3931.000000	65.039277 
3930.000000	64.983749 
3929.000000	64.933681 
3928.000000	64.894938 
3927.000000	64.872264 
3926.000000	64.868378 
3925.000000	64.883184 
3924.000000	64.913940 
3923.000000	64.955997 
3922.000000	65.003585 
3921.000000	65.051031 
3920.000000	65.093445 
3919.000000	65.127158 
3918.000000	65.150213 
3917.000000	65.161752 
3916.000000	65.162158 
3915.000000	65.152812 
3914.000000	65.135669 
3913.000000	65.113496 
3912.000000	65.089106 
3911.000000	65.065646 
3910.000000	65.045952 
3909.000000	65.032458 
3908.000000	65.026640 
3907.000000	65.028762 
3906.000000	65.037846 
3905.000000	65.052056 
3904.000000	65.068554 
3903.000000	65.084099 
3902.000000	65.095710 
3901.000000	65.101122 
3900.000000	65.098977 
3899.000000	65.089368 
3898.000000	65.073609 
3897.000000	65.054249 
3896.000000	65.034317 
3895.000000	65.016984 
3894.000000	65.005111 
3893.000000	65.000605 
3892.000000	65.004301 
3891.000000	65.015673 
3890.000000	65.032815 
3889.000000	65.053105 
3888.000000	65.073513 
3887.000000	65.091562 
3886.000000	65.105295 
3885.000000	65.114378 
3884.000000	65.119957 
3883.000000	65.124559 
3882.000000	65.131115 
3881.000000	65.142321 
3880.000000	65.159749 
3879.000000	65.183234 
3878.000000	65.210914 
3877.000000	65.239381 
3876.000000	65.264558 
3875.000000	65.282845 
3874.000000	65.291786 
3873.000000	65.290760 
3872.000000	65.280842 
3871.000000	65.264654 
3870.000000	65.245580 
3869.000000	65.226888 
3868.000000	65.210986 
3867.000000	65.199494 
3866.000000	65.192747 
3865.000000	65.190410 
3864.000000	65.191364 
3863.000000	65.194606 
3862.000000	65.198802 
3861.000000	65.202641 
3860.000000	65.204334 
3859.000000	65.201902 
3858.000000	65.193104 
3857.000000	65.176057 
3856.000000	65.149497 
3855.000000	65.113258 
3854.000000	65.068840 
3853.000000	65.019369 
3852.000000	64.969038 
3851.000000	64.922380 
3850.000000	64.883708 
3849.000000	64.856505 
3848.000000	64.842772 
3847.000000	64.842844 
3846.000000	64.856243 
3845.000000	64.882040 
3844.000000	64.918780 
3843.000000	64.964842 
3842.000000	65.018033 
3841.000000	65.075659 
3840.000000	65.134072 
3839.000000	65.188884 
3838.000000	65.235233 
3837.000000	65.268683 
3836.000000	65.286397 
3835.000000	65.287351 
3834.000000	65.273165 
3833.000000	65.247201 
3832.000000	65.214562 
3831.000000	65.180349 
3830.000000	65.149068 
3829.000000	65.123271 
3828.000000	65.103769 
3827.000000	65.089321 
3826.000000	65.077662 
3825.000000	65.066051 
3824.000000	65.052366 
3823.000000	65.034937 
3822.000000	65.013027 
3821.000000	64.986538 
3820.000000	64.956283 
3819.000000	64.923667 
3818.000000	64.891147 
3817.000000	64.861869 
3816.000000	64.839553 
3815.000000	64.828467 
3814.000000	64.832162 
3813.000000	64.852952 
3812.000000	64.890623 
3811.000000	64.942145 
3810.000000	65.001869 
3809.000000	65.062046 
3808.000000	65.114545 
3807.000000	65.152573 
3806.000000	65.172171 
3805.000000	65.172910 
3804.000000	65.157818 
3803.000000	65.132379 
3802.000000	65.103173 
3801.000000	65.076327 
3800.000000	65.056324 
3799.000000	65.045309 
3798.000000	65.043354 
3797.000000	65.049052 
3796.000000	65.059828 
3795.000000	65.072941 
3794.000000	65.085792 
3793.000000	65.096259 
3792.000000	65.102601 
3791.000000	65.103650 
3790.000000	65.098643 
3789.000000	65.087604 
3788.000000	65.071821 
3787.000000	65.053629 
3786.000000	65.036535 
3785.000000	65.024375 
3784.000000	65.020465 
3783.000000	65.026736 
3782.000000	65.043091 
3781.000000	65.067458 
3780.000000	65.096116 
3779.000000	65.124535 
3778.000000	65.148830 
3777.000000	65.166068 
3776.000000	65.174984 
3775.000000	65.175914 
3774.000000	65.170264 
3773.000000	65.160083 
3772.000000	65.147590 
3771.000000	65.134572 
3770.000000	65.122175 
3769.000000	65.111112 
3768.000000	65.101432 
3767.000000	65.092897 
3766.000000	65.085291 
3765.000000	65.077996 
3764.000000	65.070152 
3763.000000	65.060591 
3762.000000	65.048289 
3761.000000	65.032482 
3760.000000	65.013527 
3759.000000	64.992690 
3758.000000	64.972734 
3757.000000	64.956951 
3756.000000	64.949321 
3755.000000	64.953207 
3754.000000	64.971089 
3753.000000	65.003776 
3752.000000	65.050268 
3751.000000	65.107917 
3750.000000	65.172052 
3749.000000	65.236806 
3748.000000	65.295600 
3747.000000	65.341997 
3746.000000	65.370702 
3745.000000	65.378546 
3744.000000	65.364861 
3743.000000	65.331625 
3742.000000	65.283703 
3741.000000	65.227985 
3740.000000	65.172362 
3739.000000	65.124392 
3738.000000	65.089893 
3737.000000	65.072107 
3736.000000	65.071272 
3735.000000	65.084719 
3734.000000	65.107727 
3733.000000	65.134859 
3732.000000	65.160799 
3731.000000	65.181756 
3730.000000	65.195536 
3729.000000	65.202260 
3728.000000	65.203309 
3727.000000	65.201282 
3726.000000	65.199255 
3725.000000	65.199828 
3724.000000	65.205097 
3723.000000	65.215492 
3722.000000	65.230178 
3721.000000	65.246534 
3720.000000	65.261054 
3719.000000	65.269231 
3718.000000	65.267086 
3717.000000	65.251469 
3716.000000	65.220952 
3715.000000	65.176725 
3714.000000	65.122771 
3713.000000	65.065240 
3712.000000	65.011548 
3711.000000	64.969038 
3710.000000	64.943385 
3709.000000	64.937639 
3708.000000	64.951467 
3707.000000	64.981293 
3706.000000	65.021133 
3705.000000	65.063810 
3704.000000	65.102767 
3703.000000	65.132832 
3702.000000	65.151476 
3701.000000	65.158438 
3700.000000	65.155982 
3699.000000	65.147638 
3698.000000	65.137553 
3697.000000	65.129303 
3696.000000	65.125250 
3695.000000	65.126228 
3694.000000	65.131473 
3693.000000	65.139484 
3692.000000	65.148043 
3691.000000	65.155148 
3690.000000	65.159273 
3689.000000	65.159773 
3688.000000	65.156984 
3687.000000	65.151691 
3686.000000	65.145111 
3685.000000	65.138363 
3684.000000	65.132260 
3683.000000	65.126943 
3682.000000	65.122246 
3681.000000	65.117573 
3680.000000	65.111875 
3679.000000	65.104532 
3678.000000	65.095019 
3677.000000	65.083742 
3676.000000	65.071702 
3675.000000	65.060877 
3674.000000	65.053296 
3673.000000	65.050983 
3672.000000	65.055441 
3671.000000	65.067172 
3670.000000	65.085387 
3669.000000	65.108275 
3668.000000	65.133500 
3667.000000	65.158534 
3666.000000	65.181136 
3665.000000	65.199923 
3664.000000	65.214276 
3663.000000	65.224480 
3662.000000	65.231347 
3661.000000	65.235924 
3660.000000	65.239143 
3659.000000	65.241622 
3658.000000	65.243530 
3657.000000	65.244531 
3656.000000	65.243935 
3655.000000	65.240883 
3654.000000	65.234470 
3653.000000	65.223717 
3652.000000	65.208053 
3651.000000	65.187382 
3650.000000	65.162181 
3649.000000	65.133905 
3648.000000	65.104842 
3647.000000	65.077924 
3646.000000	65.056324 
3645.000000	65.042686 
3644.000000	65.038633 
3643.000000	65.044260 
3642.000000	65.058279 
3641.000000	65.077805 
3640.000000	65.099430 
3639.000000	65.119528 
3638.000000	65.135502 
3637.000000	65.146160 
3636.000000	65.152049 
3635.000000	65.154647 
3634.000000	65.156149 
3633.000000	65.158581 
3632.000000	65.163040 
3631.000000	65.169286 
3630.000000	65.176010 
3629.000000	65.180921 
3628.000000	65.181803 
3627.000000	65.176892 
3626.000000	65.165376 
3625.000000	65.147686 
3624.000000	65.125250 
3623.000000	65.100765 
3622.000000	65.077090 
3621.000000	65.057492 
3620.000000	65.044927 
3619.000000	65.041685 
3618.000000	65.049362 
3617.000000	65.068221 
3616.000000	65.097403 
3615.000000	65.134024 
3614.000000	65.173816 
3613.000000	65.211153 
3612.000000	65.240168 
3611.000000	65.255594 
3610.000000	65.253806 
3609.000000	65.233731 
3608.000000	65.197062 
3607.000000	65.147900 
3606.000000	65.092206 
3605.000000	65.036439 
3604.000000	64.986419 
3603.000000	64.946365 
3602.000000	64.918375 
3601.000000	64.902591 
3600.000000	64.897561 
3599.000000	64.900827 
3598.000000	64.909338 
3597.000000	64.920139 
3596.000000	64.930748 
3595.000000	64.938855 
3594.000000	64.942979 
3593.000000	64.941930 
3592.000000	64.935612 
3591.000000	64.924907 
3590.000000	64.911961 
3589.000000	64.899921 
3588.000000	64.892053 
3587.000000	64.891242 
3586.000000	64.898705 
3585.000000	64.913702 
3584.000000	64.933490 
3583.000000	64.953947 
3582.000000	64.970588 
3581.000000	64.979648 
3580.000000	64.979147 
3579.000000	64.969778 
3578.000000	64.954686 
3577.000000	64.938735 
3576.000000	64.927458 
3575.000000	64.925670 
3574.000000	64.936518 
3573.000000	64.960670 
3572.000000	64.996051 
3571.000000	65.038561 
3570.000000	65.083122 
3569.000000	65.124559 
3568.000000	65.158772 
3567.000000	65.182948 
3566.000000	65.196180 
3565.000000	65.198993 
3564.000000	65.193152 
3563.000000	65.180897 
3562.000000	65.164709 
3561.000000	65.146350 
3560.000000	65.127110 
3559.000000	65.107417 
3558.000000	65.087628 
3557.000000	65.067839 
3556.000000	65.048336 
3555.000000	65.029835 
3554.000000	65.013337 
3553.000000	65.000081 
3552.000000	64.991211 
3551.000000	64.987349 
3550.000000	64.988470 
3549.000000	64.994049 
3548.000000	65.003061 
3547.000000	65.014004 
3546.000000	65.025401 
3545.000000	65.035867 
3544.000000	65.044236 
3543.000000	65.049719 
3542.000000	65.051889 
3541.000000	65.050530 
3540.000000	65.045762 
3539.000000	65.037894 
3538.000000	65.027570 
3537.000000	65.015983 
3536.000000	65.004777 
3535.000000	64.995884 
3534.000000	64.991140 
3533.000000	64.991950 
3532.000000	64.998912 
3531.000000	65.011811 
3530.000000	65.029358 
3529.000000	65.049648 
3528.000000	65.070319 
3527.000000	65.089058 
3526.000000	65.103816 
3525.000000	65.113019 
3524.000000	65.115880 
3523.000000	65.112447 
3522.000000	65.103721 
3521.000000	65.091538 
3520.000000	65.078425 
3519.000000	65.067028 
3518.000000	65.059661 
3517.000000	65.057659 
3516.000000	65.061044 
3515.000000	65.068531 
3514.000000	65.077590 
3513.000000	65.085434 
3512.000000	65.089416 
3511.000000	65.087962 
3510.000000	65.081071 
3509.000000	65.070199 
3508.000000	65.058064 
3507.000000	65.047955 
3506.000000	65.042591 
3505.000000	65.043377 
3504.000000	65.050029 
3503.000000	65.060591 
3502.000000	65.072011 
3501.000000	65.081071 
3500.000000	65.085196 
3499.000000	65.083360 
3498.000000	65.076231 
3497.000000	65.065860 
3496.000000	65.055036 
3495.000000	65.046262 
3494.000000	65.041232 
3493.000000	65.039920 
3492.000000	65.040874 
3491.000000	65.041637 
3490.000000	65.039682 
3489.000000	65.033078 
3488.000000	65.021419 
3487.000000	65.006017 
3486.000000	64.989590 
3485.000000	64.975523 
3484.000000	64.967274 
3483.000000	64.966964 
3482.000000	64.975118 
3481.000000	64.990377 
3480.000000	65.009760 
3479.000000	65.029501 
3478.000000	65.045690 
3477.000000	65.055465 
3476.000000	65.057301 
3475.000000	65.051317 
3474.000000	65.038990 
3473.000000	65.022873 
3472.000000	65.005874 
3471.000000	64.990687 
3470.000000	64.979314 
3469.000000	64.972710 
3468.000000	64.970922 
3467.000000	64.972996 
3466.000000	64.977407 
3465.000000	64.982557 
3464.000000	64.986896 
3463.000000	64.989471 
3462.000000	64.990091 
3461.000000	64.989233 
3460.000000	64.987778 
3459.000000	64.986777 
3458.000000	64.987158 
3457.000000	64.989280 
3456.000000	64.992856 
3455.000000	64.996886 
3454.000000	64.999890 
3453.000000	65.000295 
3452.000000	64.996623 
3451.000000	64.988112 
3450.000000	64.974832 
3449.000000	64.957714 
3448.000000	64.938282 
3447.000000	64.918398 
3446.000000	64.899921 
3445.000000	64.884328 
3444.000000	64.872622 
3443.000000	64.865088 
3442.000000	64.861536 
3441.000000	64.861536 
3440.000000	64.864730 
3439.000000	64.870858 
3438.000000	64.880037 
3437.000000	64.892649 
3436.000000	64.909362 
3435.000000	64.930438 
3434.000000	64.955687 
3433.000000	64.984250 
3432.000000	65.014505 
3431.000000	65.044093 
3430.000000	65.070438 
3429.000000	65.091252 
3428.000000	65.104961 
3427.000000	65.111160 
3426.000000	65.110874 
3425.000000	65.106153 
3424.000000	65.099906 
3423.000000	65.095305 
3422.000000	65.094971 
3421.000000	65.100693 
3420.000000	65.112805 
3419.000000	65.130233 
3418.000000	65.150523 
3417.000000	65.170478 
3416.000000	65.186595 
3415.000000	65.195679 
3414.000000	65.195465 
3413.000000	65.184926 
3412.000000	65.164518 
3411.000000	65.135836 
3410.000000	65.101552 
3409.000000	65.064883 
3408.000000	65.029287 
3407.000000	64.997792 
3406.000000	64.972829 
3405.000000	64.955878 
3404.000000	64.947628 
3403.000000	64.947938 
3402.000000	64.955878 
3401.000000	64.970040 
3400.000000	64.988565 
3399.000000	65.009307 
3398.000000	65.029978 
3397.000000	65.048456 
3396.000000	65.062618 
3395.000000	65.070772 
3394.000000	65.071964 
3393.000000	65.065741 
3392.000000	65.052437 
3391.000000	65.032792 
3390.000000	65.007853 
3389.000000	64.978790 
3388.000000	64.946866 
3387.000000	64.913082 
3386.000000	64.878535 
3385.000000	64.844489 
3384.000000	64.812612 
3383.000000	64.784836 
3382.000000	64.763545 
3381.000000	64.750933 
3380.000000	64.748716 
3379.000000	64.757323 
3378.000000	64.775943 
3377.000000	64.802122 
3376.000000	64.832639 
3375.000000	64.863824 
3374.000000	64.892482 
3373.000000	64.916419 
3372.000000	64.934730 
3371.000000	64.947772 
3370.000000	64.956641 
3369.000000	64.962553 
3368.000000	64.966154 
3367.000000	64.967513 
3366.000000	64.966011 
3365.000000	64.960694 
3364.000000	64.950752 
3363.000000	64.936184 
3362.000000	64.918160 
3361.000000	64.899253 
3360.000000	64.882826 
3359.000000	64.872527 
3358.000000	64.871430 
3357.000000	64.881467 
3356.000000	64.902949 
3355.000000	64.934325 
3354.000000	64.972686 
3353.000000	65.013885 
3352.000000	65.053629 
3351.000000	65.087699 
3350.000000	65.112924 
3349.000000	65.127158 
3348.000000	65.129780 
3347.000000	65.121388 
3346.000000	65.103793 
3345.000000	65.079617 
3344.000000	65.051865 
3343.000000	65.023541 
3342.000000	64.997482 
3341.000000	64.975881 
3340.000000	64.960741 
3339.000000	64.953255 
3338.000000	64.953899 
3337.000000	64.962506 
3336.000000	64.978265 
3335.000000	64.999651 
3334.000000	65.024638 
3333.000000	65.050601 
3332.000000	65.074753 
3331.000000	65.094208 
3330.000000	65.106272 
3329.000000	65.109038 
3328.000000	65.101575 
3327.000000	65.084099 
3326.000000	65.057969 
3325.000000	65.025830 
3324.000000	64.990949 
3323.000000	64.957070 
3322.000000	64.927649 
3321.000000	64.905571 
3320.000000	64.892554 
3319.000000	64.888930 
3318.000000	64.893484 
3317.000000	64.903640 
3316.000000	64.916062 
3315.000000	64.927077 
3314.000000	64.933824 
3313.000000	64.934611 
3312.000000	64.929437 
3311.000000	64.919805 
3310.000000	64.908027 
3309.000000	64.896321 
3308.000000	64.886093 
3307.000000	64.877533 
3306.000000	64.869189 
3305.000000	64.858675 
3304.000000	64.843392 
3303.000000	64.821481 
3302.000000	64.792490 
3301.000000	64.757990 
3300.000000	64.721059 
3299.000000	64.686274 
3298.000000	64.658308 
3297.000000	64.641451 
3296.000000	64.638161 
3295.000000	64.649033 
3294.000000	64.672374 
3293.000000	64.704990 
3292.000000	64.742732 
3291.000000	64.781308 
3290.000000	64.817023 
3289.000000	64.847564 
3288.000000	64.871764 
3287.000000	64.889955 
3286.000000	64.903116 
3285.000000	64.912724 
3284.000000	64.920043 
3283.000000	64.926218 
3282.000000	64.931988 
3281.000000	64.937949 
3280.000000	64.944577 
3279.000000	64.952301 
3278.000000	64.961481 
3277.000000	64.972352 
3276.000000	64.984893 
3275.000000	64.998292 
3274.000000	65.011000 
3273.000000	65.020990 
3272.000000	65.026068 
3271.000000	65.024518 
3270.000000	65.015602 
3269.000000	64.999866 
3268.000000	64.979171 
3267.000000	64.956426 
3266.000000	64.934992 
3265.000000	64.918136 
3264.000000	64.907932 
3263.000000	64.905285 
3262.000000	64.909267 
3261.000000	64.917755 
3260.000000	64.927840 
3259.000000	64.936757 
3258.000000	64.942193 
3257.000000	64.942669 
3256.000000	64.937973 
3255.000000	64.929032 
3254.000000	64.917302 
3253.000000	64.904546 
3252.000000	64.892625 
3251.000000	64.883112 
3250.000000	64.877152 
3249.000000	64.875197 
3248.000000	64.876985 
3247.000000	64.881491 
3246.000000	64.887022 
3245.000000	64.891719 
3244.000000	64.893674 
3243.000000	64.891695 
3242.000000	64.885258 
3241.000000	64.875102 
3240.000000	64.862656 
3239.000000	64.849901 
3238.000000	64.839053 
3237.000000	64.831852 
3236.000000	64.828991 
3235.000000	64.829969 
3234.000000	64.833450 
3233.000000	64.837193 
3232.000000	64.838814 
3231.000000	64.836049 
3230.000000	64.827585 
3229.000000	64.812850 
3228.000000	64.792323 
3227.000000	64.767289 
3226.000000	64.739489 
3225.000000	64.710974 
3224.000000	64.683818 
3223.000000	64.659857 
3222.000000	64.640688 
3221.000000	64.627242 
3220.000000	64.620041 
3219.000000	64.618945 
3218.000000	64.623618 
3217.000000	64.633297 
3216.000000	64.647579 
3215.000000	64.665818 
3214.000000	64.687752 
3213.000000	64.713215 
3212.000000	64.742016 
3211.000000	64.773607 
3210.000000	64.807057 
3209.000000	64.840722 
3208.000000	64.872431 
3207.000000	64.899969 
3206.000000	64.921307 
3205.000000	64.934945 
3204.000000	64.940404 
3203.000000	64.938545 
3202.000000	64.931249 
3201.000000	64.920854 
3200.000000	64.909863 
3199.000000	64.900541 
3198.000000	64.894151 
3197.000000	64.891052 
3196.000000	64.890718 
3195.000000	64.892172 
3194.000000	64.894223 
3193.000000	64.896035 
3192.000000	64.897298 
3191.000000	64.897990 
3190.000000	64.898538 
3189.000000	64.899516 
3188.000000	64.901018 
3187.000000	64.902901 
3186.000000	64.904832 
3185.000000	64.906334 
3184.000000	64.907073 
3183.000000	64.907002 
3182.000000	64.906692 
3181.000000	64.907097 
3180.000000	64.909291 
3179.000000	64.914393 
3178.000000	64.923310 
3177.000000	64.936399 
3176.000000	64.953184 
3175.000000	64.972615 
3174.000000	64.993238 
3173.000000	65.013146 
3172.000000	65.030360 
3171.000000	65.043020 
3170.000000	65.049600 
3169.000000	65.049242 
3168.000000	65.041589 
3167.000000	65.027022 
3166.000000	65.006422 
3165.000000	64.981365 
3164.000000	64.953851 
3163.000000	64.925980 
3162.000000	64.899802 
3161.000000	64.877176 
3160.000000	64.859580 
3159.000000	64.848256 
3158.000000	64.843893 
3157.000000	64.846634 
3156.000000	64.855933 
3155.000000	64.870548 
3154.000000	64.888596 
3153.000000	64.907550 
3152.000000	64.924693 
3151.000000	64.937186 
3150.000000	64.942884 
3149.000000	64.940428 
3148.000000	64.929485 
3147.000000	64.910602 
3146.000000	64.885377 
3145.000000	64.856076 
3144.000000	64.825272 
3143.000000	64.795517 
3142.000000	64.769148 
3141.000000	64.747929 
3140.000000	64.733362 
3139.000000	64.726185 
3138.000000	64.726543 
3137.000000	64.733481 
3136.000000	64.745235 
3135.000000	64.759254 
3134.000000	64.772391 
3133.000000	64.781522 
3132.000000	64.783859 
3131.000000	64.778065 
3130.000000	64.764308 
3129.000000	64.744853 
3128.000000	64.723062 
3127.000000	64.703440 
3126.000000	64.690470 
3125.000000	64.687657 
3124.000000	64.696884 
3123.000000	64.717936 
3122.000000	64.748859 
3121.000000	64.786219 
3120.000000	64.826011 
3119.000000	64.864253 
3118.000000	64.897727 
3117.000000	64.924001 
3116.000000	64.941501 
3115.000000	64.949488 
3114.000000	64.947891 
3113.000000	64.937186 
3112.000000	64.918184 
3111.000000	64.892601 
3110.000000	64.862704 
3109.000000	64.831328 
3108.000000	64.801383 
3107.000000	64.775681 
3106.000000	64.756345 
3105.000000	64.744424 
3104.000000	64.739561 
3103.000000	64.740467 
3102.000000	64.745020 
3101.000000	64.751005 
3100.000000	64.756584 
3099.000000	64.760684 
3098.000000	64.762949 
3097.000000	64.763855 
3096.000000	64.764213 
3095.000000	64.764809 
3094.000000	64.766097 
3093.000000	64.768218 
3092.000000	64.771103 
3091.000000	64.774584 
3090.000000	64.778995 
3089.000000	64.784836 
3088.000000	64.792943 
3087.000000	64.803886 
3086.000000	64.817857 
3085.000000	64.834189 
3084.000000	64.851140 
3083.000000	64.866399 
3082.000000	64.877605 
3081.000000	64.882922 
3080.000000	64.881801 
3079.000000	64.875054 
3078.000000	64.864754 
3077.000000	64.853811 
3076.000000	64.845252 
3075.000000	64.841485 
3074.000000	64.843773 
3073.000000	64.851951 
3072.000000	64.864778 
3071.000000	64.880132 
3070.000000	64.895677 
3069.000000	64.909267 
3068.000000	64.919543 
3067.000000	64.925837 
3066.000000	64.928007 
3065.000000	64.926481 
3064.000000	64.921855 
3063.000000	64.914822 
3062.000000	64.906001 
3061.000000	64.896154 
3060.000000	64.885830 
3059.000000	64.875674 
3058.000000	64.865994 
3057.000000	64.856886 
3056.000000	64.847993 
3055.000000	64.838719 
3054.000000	64.828419 
3053.000000	64.816451 
3052.000000	64.802622 
3051.000000	64.787292 
3050.000000	64.771604 
3049.000000	64.756989 
3048.000000	64.745187 
3047.000000	64.737677 
3046.000000	64.735698 
3045.000000	64.739584 
3044.000000	64.749097 
3043.000000	64.763236 
3042.000000	64.780783 
3041.000000	64.800262 
3040.000000	64.820504 
3039.000000	64.840435 
3038.000000	64.859223 
3037.000000	64.876198 
3036.000000	64.890742 
3035.000000	64.902353 
3034.000000	64.910697 
3033.000000	64.915370 
3032.000000	64.916205 
3031.000000	64.913034 
3030.000000	64.906144 
3029.000000	64.895749 
3028.000000	64.882230 
3027.000000	64.865732 
3026.000000	64.846754 
3025.000000	64.825797 
3024.000000	64.803695 
3023.000000	64.781713 
3022.000000	64.761400 
3021.000000	64.744544 
3020.000000	64.732956 
3019.000000	64.727950 
3018.000000	64.730238 
3017.000000	64.739441 
3016.000000	64.754486 
3015.000000	64.773392 
3014.000000	64.793729 
3013.000000	64.812946 
3012.000000	64.828872 
3011.000000	64.839839 
3010.000000	64.845061 
3009.000000	64.844918 
3008.000000	64.840745 
3007.000000	64.834570 
3006.000000	64.828538 
3005.000000	64.825034 
3004.000000	64.825773 
3003.000000	64.831781 
3002.000000	64.842844 
3001.000000	64.857745 
3000.000000	64.874219 
2999.000000	64.889359 
2998.000000	64.900088 
2997.000000	64.903759 
2996.000000	64.898705 
2995.000000	64.884400 
2994.000000	64.861607 
2993.000000	64.832067 
2992.000000	64.798426 
2991.000000	64.763736 
2990.000000	64.731121 
2989.000000	64.703273 
2988.000000	64.682316 
2987.000000	64.669561 
2986.000000	64.665079 
2985.000000	64.667773 
2984.000000	64.675450 
2983.000000	64.685201 
2982.000000	64.693713 
2981.000000	64.698028 
2980.000000	64.695835 
2979.000000	64.685940 
2978.000000	64.668512 
2977.000000	64.644837 
2976.000000	64.617013 
2975.000000	64.587354 
2974.000000	64.557862 
2973.000000	64.530038 
2972.000000	64.504480 
2971.000000	64.481353 
2970.000000	64.460706 
2969.000000	64.442801 
2968.000000	64.428162 
2967.000000	64.417839 
2966.000000	64.412879 
2965.000000	64.414191 
2964.000000	64.421772 
2963.000000	64.434933 
2962.000000	64.452171 
2961.000000	64.471507 
2960.000000	64.490771 
2959.000000	64.508223 
2958.000000	64.522647 
2957.000000	64.533615 
2956.000000	64.541435 
2955.000000	64.546990 
2954.000000	64.551234 
2953.000000	64.555120 
2952.000000	64.559292 
2951.000000	64.564061 
2950.000000	64.569091 
2949.000000	64.573979 
2948.000000	64.578032 
2947.000000	64.580297 
2946.000000	64.579749 
2945.000000	64.575672 
2944.000000	64.567637 
2943.000000	64.555692 
2942.000000	64.540410 
2941.000000	64.523196 
2940.000000	64.505529 
2939.000000	64.488935 
2938.000000	64.474487 
2937.000000	64.462828 
2936.000000	64.454054 
2935.000000	64.447855 
2934.000000	64.443755 
2933.000000	64.441299 
2932.000000	64.440298 
2931.000000	64.440917 
2930.000000	64.443278 
2929.000000	64.447426 
2928.000000	64.453101 
2927.000000	64.459848 
2926.000000	64.466714 
2925.000000	64.472746 
2924.000000	64.477300 
2923.000000	64.480280 
2922.000000	64.482212 
2921.000000	64.484143 
2920.000000	64.486956 
2919.000000	64.491319 
2918.000000	64.497232 
2917.000000	64.504051 
2916.000000	64.510703 
2915.000000	64.515948 
2914.000000	64.518928 
2913.000000	64.519262 
2912.000000	64.517164 
2911.000000	64.513278 
2910.000000	64.508390 
2909.000000	64.503359 
2908.000000	64.498686 
2907.000000	64.494705 
2906.000000	64.491510 
2905.000000	64.489102 
2904.000000	64.487671 
2903.000000	64.487433 
2902.000000	64.488816 
2901.000000	64.492297 
2900.000000	64.498281 
2899.000000	64.506959 
2898.000000	64.518356 
2897.000000	64.532542 
2896.000000	64.549803 
2895.000000	64.570522 
2894.000000	64.595246 
2893.000000	64.624404 
2892.000000	64.657855 
2891.000000	64.694762 
2890.000000	64.733123 
2889.000000	64.770007 
2888.000000	64.801645 
2887.000000	64.824271 
2886.000000	64.834642 
2885.000000	64.831161 
2884.000000	64.813947 
2883.000000	64.785242 
2882.000000	64.748907 
2881.000000	64.709806 
2880.000000	64.672660 
2879.000000	64.641356 
2878.000000	64.617872 
2877.000000	64.602303 
2876.000000	64.592909 
2875.000000	64.586877 
2874.000000	64.580941 
2873.000000	64.572572 
2872.000000	64.560270 
2871.000000	64.544343 
2870.000000	64.526677 
2869.000000	64.510560 
2868.000000	64.499402 
2867.000000	64.496254 
2866.000000	64.502859 
2865.000000	64.519190 
2864.000000	64.543461 
2863.000000	64.572358 
2862.000000	64.602208 
2861.000000	64.629387 
2860.000000	64.651060 
2859.000000	64.665627 
2858.000000	64.672684 
2857.000000	64.672923 
2856.000000	64.667534 
2855.000000	64.658164 
2854.000000	64.646339 
2853.000000	64.633584 
2852.000000	64.621329 
2851.000000	64.610886 
2850.000000	64.603185 
2849.000000	64.598941 
2848.000000	64.598679 
2847.000000	64.602136 
2846.000000	64.608550 
2845.000000	64.616584 
2844.000000	64.624714 
2843.000000	64.631366 
2842.000000	64.635396 
2841.000000	64.636373 
2840.000000	64.634680 
2839.000000	64.631152 
2838.000000	64.627075 
2837.000000	64.623713 
2836.000000	64.622020 
2835.000000	64.622688 
2834.000000	64.625930 
2833.000000	64.631724 
2832.000000	64.639735 
2831.000000	64.649701 
2830.000000	64.661169 
2829.000000	64.673638 
2828.000000	64.686465 
2827.000000	64.699053 
2826.000000	64.710736 
2825.000000	64.720702 
2824.000000	64.728093 
2823.000000	64.732217 
2822.000000	64.732694 
2821.000000	64.729619 
2820.000000	64.723610 
2819.000000	64.716005 
2818.000000	64.708614 
2817.000000	64.703416 
2816.000000	64.702391 
2815.000000	64.706826 
2814.000000	64.717316 
2813.000000	64.733147 
2812.000000	64.752531 
2811.000000	64.772629 
2810.000000	64.790272 
2809.000000	64.802360 
2808.000000	64.806675 
2807.000000	64.802217 
2806.000000	64.789509 
2805.000000	64.770340 
2804.000000	64.747428 
2803.000000	64.723706 
2802.000000	64.701914 
2801.000000	64.683771 
2800.000000	64.670062 
2799.000000	64.660334 
2798.000000	64.653348 
2797.000000	64.647388 
2796.000000	64.640903 
2795.000000	64.632654 
2794.000000	64.622187 
2793.000000	64.609956 
2792.000000	64.597368 
2791.000000	64.586186 
2790.000000	64.578485 
2789.000000	64.576029 
2788.000000	64.579868 
2787.000000	64.590287 
2786.000000	64.606308 
2785.000000	64.626312 
2784.000000	64.647912 
2783.000000	64.668536 
2782.000000	64.685797 
2781.000000	64.697885 
2780.000000	64.704060 
2779.000000	64.704656 
2778.000000	64.701008 
2777.000000	64.695262 
2776.000000	64.689898 
2775.000000	64.687275 
2774.000000	64.689040 
2773.000000	64.695787 
2772.000000	64.706993 
2771.000000	64.721226 
2770.000000	64.736175 
2769.000000	64.749336 
2768.000000	64.758467 
2767.000000	64.762020 
2766.000000	64.759588 
2765.000000	64.751648 
2764.000000	64.739584 
2763.000000	64.725017 
2762.000000	64.709615 
2761.000000	64.694452 
2760.000000	64.680171 
2759.000000	64.666819 
2758.000000	64.654326 
2757.000000	64.642786 
2756.000000	64.632678 
2755.000000	64.624857 
2754.000000	64.620447 
2753.000000	64.620375 
2752.000000	64.625024 
2751.000000	64.634084 
2750.000000	64.646458 
2749.000000	64.660573 
2748.000000	64.674544 
2747.000000	64.686799 
2746.000000	64.696574 
2745.000000	64.703893 
2744.000000	64.709472 
2743.000000	64.714312 
2742.000000	64.719176 
2741.000000	64.724349 
2740.000000	64.729404 
2739.000000	64.733386 
2738.000000	64.735126 
2737.000000	64.733791 
2736.000000	64.729189 
2735.000000	64.721679 
2734.000000	64.712309 
2733.000000	64.702486 
2732.000000	64.693474 
2731.000000	64.686274 
2730.000000	64.681243 
2729.000000	64.678359 
2728.000000	64.677023 
2727.000000	64.676380 
2726.000000	64.675450 
2725.000000	64.673542 
2724.000000	64.670109 
2723.000000	64.664793 
2722.000000	64.657616 
2721.000000	64.648675 
2720.000000	64.638328 
2719.000000	64.626955 
2718.000000	64.615416 
2717.000000	64.604568 
2716.000000	64.595460 
2715.000000	64.589333 
2714.000000	64.587235 
2713.000000	64.589858 
2712.000000	64.597606 
2711.000000	64.610242 
2710.000000	64.626884 
2709.000000	64.646029 
2708.000000	64.665722 
2707.000000	64.683794 
2706.000000	64.698219 
2705.000000	64.707303 
2704.000000	64.710116 
2703.000000	64.706778 
2702.000000	64.698171 
2701.000000	64.686059 
2700.000000	64.672493 
2699.000000	64.659500 
2698.000000	64.648675 
2697.000000	64.641141 
2696.000000	64.637351 
2695.000000	64.637279 
2694.000000	64.640450 
2693.000000	64.646363 
2692.000000	64.654493 
2691.000000	64.664292 
2690.000000	64.675331 
2689.000000	64.687013 
2688.000000	64.698767 
2687.000000	64.709782 
2686.000000	64.719033 
2685.000000	64.725422 
2684.000000	64.727854 
2683.000000	64.725637 
2682.000000	64.718556 
2681.000000	64.706945 
2680.000000	64.691686 
2679.000000	64.674186 
2678.000000	64.656090 
2677.000000	64.639163 
2676.000000	64.624881 
2675.000000	64.614272 
2674.000000	64.607834 
2673.000000	64.605331 
2672.000000	64.606094 
2671.000000	64.609074 
2670.000000	64.613318 
2669.000000	64.617967 
2668.000000	64.622616 
2667.000000	64.627170 
2666.000000	64.631652 
2665.000000	64.635777 
2664.000000	64.638948 
2663.000000	64.640188 
2662.000000	64.638543 
2661.000000	64.633345 
2660.000000	64.624619 
2659.000000	64.613175 
2658.000000	64.600777 
2657.000000	64.589619 
2656.000000	64.581990 
2655.000000	64.579582 
2654.000000	64.583158 
2653.000000	64.592385 
2652.000000	64.605736 
2651.000000	64.620828 
2650.000000	64.635062 
2649.000000	64.646196 
2648.000000	64.652585 
2647.000000	64.653825 
2646.000000	64.650440 
2645.000000	64.644193 
2644.000000	64.637207 
2643.000000	64.631891 
2642.000000	64.630174 
2641.000000	64.633321 
2640.000000	64.641714 
2639.000000	64.654564 
2638.000000	64.670181 
2637.000000	64.686107 
2636.000000	64.699816 
2635.000000	64.709234 
2634.000000	64.713096 
2633.000000	64.711427 
2632.000000	64.705133 
2631.000000	64.696025 
2630.000000	64.686036 
2629.000000	64.676833 
2628.000000	64.669251 
2627.000000	64.663171 
2626.000000	64.657425 
2625.000000	64.650297 
2624.000000	64.640021 
2623.000000	64.625239 
2622.000000	64.605641 
2621.000000	64.581990 
2620.000000	64.556288 
2619.000000	64.531183 
2618.000000	64.509868 
2617.000000	64.495158 
2616.000000	64.489316 
2615.000000	64.493632 
2614.000000	64.508152 
2613.000000	64.531683 
2612.000000	64.561700 
2611.000000	64.594626 
2610.000000	64.626169 
2609.000000	64.651966 
2608.000000	64.668393 
2607.000000	64.672994 
2606.000000	64.665126 
2605.000000	64.645814 
2604.000000	64.617800 
2603.000000	64.584922 
2602.000000	64.551210 
2601.000000	64.520382 
2600.000000	64.495038 
2599.000000	64.476442 
2598.000000	64.464783 
2597.000000	64.459013 
2596.000000	64.457821 
2595.000000	64.459633 
2594.000000	64.463162 
2593.000000	64.467811 
2592.000000	64.473128 
2591.000000	64.479064 
2590.000000	64.485478 
2589.000000	64.492583 
2588.000000	64.500355 
2587.000000	64.509081 
2586.000000	64.519119 
2585.000000	64.530801 
2584.000000	64.544177 
2583.000000	64.558911 
2582.000000	64.574146 
2581.000000	64.588451 
2580.000000	64.600229 
2579.000000	64.607644 
2578.000000	64.609336 
2577.000000	64.604687 
2576.000000	64.594006 
2575.000000	64.578509 
2574.000000	64.560270 
2573.000000	64.541625 
2572.000000	64.524841 
2571.000000	64.511895 
2570.000000	64.504098 
2569.000000	64.501714 
2568.000000	64.504098 
2567.000000	64.510178 
2566.000000	64.518547 
2565.000000	64.527869 
2564.000000	64.537024 
2563.000000	64.545035 
2562.000000	64.551424 
2561.000000	64.555978 
2560.000000	64.558720 
2559.000000	64.559769 
2558.000000	64.559197 
2557.000000	64.557147 
2556.000000	64.553904 
2555.000000	64.549803 
2554.000000	64.545178 
2553.000000	64.540171 
2552.000000	64.534878 
2551.000000	64.529514 
2550.000000	64.524340 
2549.000000	64.519858 
2548.000000	64.516663 
2547.000000	64.515590 
2546.000000	64.517450 
2545.000000	64.522790 
2544.000000	64.531612 
2543.000000	64.543318 
2542.000000	64.556741 
2541.000000	64.570236 
2540.000000	64.582109 
2539.000000	64.590716 
2538.000000	64.594817 
2537.000000	64.593863 
2536.000000	64.587950 
2535.000000	64.577770 
2534.000000	64.564585 
2533.000000	64.550185 
2532.000000	64.536237 
2531.000000	64.524579 
2530.000000	64.516901 
2529.000000	64.514398 
2528.000000	64.517688 
2527.000000	64.526581 
2526.000000	64.540147 
2525.000000	64.556455 
2524.000000	64.573049 
2523.000000	64.587044 
2522.000000	64.595651 
2521.000000	64.596843 
2520.000000	64.589667 
2519.000000	64.574646 
2518.000000	64.553809 
2517.000000	64.530277 
2516.000000	64.507579 
2515.000000	64.488840 
2514.000000	64.476084 
2513.000000	64.469981 
2512.000000	64.469623 
2511.000000	64.472937 
2510.000000	64.477372 
2509.000000	64.480495 
2508.000000	64.480686 
2507.000000	64.477324 
2506.000000	64.470815 
2505.000000	64.462232 
2504.000000	64.453029 
2503.000000	64.444470 
2502.000000	64.437532 
2501.000000	64.432621 
2500.000000	64.429807 
2499.000000	64.429044 
2498.000000	64.430189 
2497.000000	64.433121 
2496.000000	64.437818 
2495.000000	64.444065 
2494.000000	64.451193 
2493.000000	64.458322 
2492.000000	64.464354 
2491.000000	64.468216 
2490.000000	64.469194 
2489.000000	64.467239 
2488.000000	64.462828 
2487.000000	64.457035 
2486.000000	64.451384 
2485.000000	64.447426 
2484.000000	64.446306 
2483.000000	64.448499 
2482.000000	64.453983 
2481.000000	64.462018 
2480.000000	64.471530 
2479.000000	64.481234 
2478.000000	64.489912 
2477.000000	64.496588 
2476.000000	64.500713 
2475.000000	64.502096 
2474.000000	64.500761 
2473.000000	64.496898 
2472.000000	64.490866 
2471.000000	64.483189 
2470.000000	64.474582 
2469.000000	64.465785 
2468.000000	64.457726 
2467.000000	64.451122 
2466.000000	64.446854 
2465.000000	64.445567 
2464.000000	64.447689 
2463.000000	64.453387 
2462.000000	64.462280 
2461.000000	64.473557 
2460.000000	64.486074 
2459.000000	64.498329 
2458.000000	64.508891 
2457.000000	64.516520 
2456.000000	64.520311 
2455.000000	64.519906 
2454.000000	64.515471 
2453.000000	64.507651 
2452.000000	64.497351 
2451.000000	64.485502 
2450.000000	64.473128 
2449.000000	64.461207 
2448.000000	64.450526 
2447.000000	64.441561 
2446.000000	64.434695 
2445.000000	64.430308 
2444.000000	64.428424 
2443.000000	64.428830 
2442.000000	64.430570 
2441.000000	64.432358 
2440.000000	64.432668 
2439.000000	64.429974 
2438.000000	64.423251 
2437.000000	64.412379 
2436.000000	64.398217 
2435.000000	64.382648 
2434.000000	64.367866 
2433.000000	64.355921 
2432.000000	64.348363 
2431.000000	64.345550 
2430.000000	64.346885 
2429.000000	64.350867 
2428.000000	64.355516 
2427.000000	64.358663 
2426.000000	64.358782 
2425.000000	64.354634 
2424.000000	64.345788 
2423.000000	64.332246 
2422.000000	64.314341 
2421.000000	64.292716 
2420.000000	64.268255 
2419.000000	64.242434 
2418.000000	64.217162 
2417.000000	64.195036 
2416.000000	64.179015 
2415.000000	64.171838 
2414.000000	64.175558 
2413.000000	64.190745 
2412.000000	64.216756 
2411.000000	64.251208 
2410.000000	64.290952 
2409.000000	64.332461 
2408.000000	64.372491 
2407.000000	64.408612 
2406.000000	64.439487 
2405.000000	64.464998 
2404.000000	64.485383 
2403.000000	64.501094 
2402.000000	64.512205 
2401.000000	64.518475 
2400.000000	64.519095 
2399.000000	64.513349 
2398.000000	64.500641 
2397.000000	64.481353 
2396.000000	64.456653 
2395.000000	64.428853 
2394.000000	64.400863 
2393.000000	64.375829 
2392.000000	64.356517 
2391.000000	64.345026 
2390.000000	64.342188 
2389.000000	64.347720 
2388.000000	64.360260 
2387.000000	64.377593 
2386.000000	64.397001 
2385.000000	64.415764 
2384.000000	64.431524 
2383.000000	64.442515 
2382.000000	64.447832 
2381.000000	64.447474 
2380.000000	64.442157 
2379.000000	64.433217 
2378.000000	64.422321 
2377.000000	64.411067 
2376.000000	64.400839 
2375.000000	64.392471 
2374.000000	64.386320 
2373.000000	64.382147 
2372.000000	64.379453 
2371.000000	64.377832 
2370.000000	64.376831 
2369.000000	64.376282 
2368.000000	64.376044 
2367.000000	64.376187 
2366.000000	64.376592 
2365.000000	64.376950 
2364.000000	64.376783 
2363.000000	64.375424 
2362.000000	64.372396 
2361.000000	64.367294 
2360.000000	64.360165 
2359.000000	64.351534 
2358.000000	64.342546 
2357.000000	64.334583 
2356.000000	64.329099 
2355.000000	64.327311 
2354.000000	64.329767 
2353.000000	64.336514 
2352.000000	64.346718 
2351.000000	64.359164 
2350.000000	64.372086 
2349.000000	64.384007 
2348.000000	64.393615 
2347.000000	64.400053 
2346.000000	64.403080 
2345.000000	64.403009 
2344.000000	64.400529 
2343.000000	64.396405 
2342.000000	64.391136 
2341.000000	64.385128 
2340.000000	64.378285 
2339.000000	64.370417 
2338.000000	64.361310 
2337.000000	64.350962 
2336.000000	64.339733 
2335.000000	64.328384 
2334.000000	64.317965 
2333.000000	64.309692 
2332.000000	64.304399 
2331.000000	64.302396 
2330.000000	64.303255 
2329.000000	64.306092 
2328.000000	64.309549 
2327.000000	64.312243 
2326.000000	64.312887 
2325.000000	64.311003 
2324.000000	64.306688 
2323.000000	64.300584 
2322.000000	64.293551 
2321.000000	64.286446 
2320.000000	64.279937 
2319.000000	64.274239 
2318.000000	64.269137 
2317.000000	64.264321 
2316.000000	64.259457 
2315.000000	64.254689 
2314.000000	64.250493 
2313.000000	64.247846 
2312.000000	64.247608 
2311.000000	64.250302 
2310.000000	64.255690 
2309.000000	64.262580 
2308.000000	64.269161 
2307.000000	64.273238 
2306.000000	64.272904 
2305.000000	64.267182 
2304.000000	64.256334 
2303.000000	64.241719 
2302.000000	64.225721 
2301.000000	64.210939 
2300.000000	64.199662 
2299.000000	64.193320 
2298.000000	64.192080 
2297.000000	64.195013 
2296.000000	64.200615 
2295.000000	64.207363 
2294.000000	64.213991 
2293.000000	64.220094 
2292.000000	64.225935 
2291.000000	64.232110 
2290.000000	64.239239 
2289.000000	64.247560 
2288.000000	64.256834 
2287.000000	64.266180 
2286.000000	64.274597 
2285.000000	64.281105 
2284.000000	64.285111 
2283.000000	64.286422 
2282.000000	64.285349 
2281.000000	64.282655 
2280.000000	64.279222 
2279.000000	64.276099 
2278.000000	64.274096 
2277.000000	64.273834 
2276.000000	64.275693 
2275.000000	64.279603 
2274.000000	64.285278 
2273.000000	64.292073 
2272.000000	64.299154 
2271.000000	64.305329 
2270.000000	64.309477 
2269.000000	64.310669 
2268.000000	64.308381 
2267.000000	64.302778 
2266.000000	64.294648 
2265.000000	64.285159 
2264.000000	64.275860 
2263.000000	64.268183 
2262.000000	64.262986 
2261.000000	64.260673 
2260.000000	64.261126 
2259.000000	64.263701 
2258.000000	64.267635 
2257.000000	64.271879 
2256.000000	64.275550 
2255.000000	64.277815 
2254.000000	64.278221 
2253.000000	64.276623 
2252.000000	64.273142 
2251.000000	64.268231 
2250.000000	64.262676 
2249.000000	64.257264 
2248.000000	64.252734 
2247.000000	64.249539 
2246.000000	64.247655 
2245.000000	64.246463 
2244.000000	64.244747 
2243.000000	64.241051 
2242.000000	64.233970 
2241.000000	64.222550 
2240.000000	64.206647 
2239.000000	64.187026 
2238.000000	64.165282 
2237.000000	64.143514 
2236.000000	64.123964 
2235.000000	64.108443 
2234.000000	64.098262 
2233.000000	64.094066 
2232.000000	64.096045 
2231.000000	64.103937 
2230.000000	64.117193 
2229.000000	64.135074 
2228.000000	64.156723 
2227.000000	64.180994 
2226.000000	64.206552 
2225.000000	64.231729 
2224.000000	64.254665 
2223.000000	64.273571 
2222.000000	64.287185 
2221.000000	64.294934 
2220.000000	64.297056 
2219.000000	64.294528 
2218.000000	64.288902 
2217.000000	64.281725 
2216.000000	64.274477 
2215.000000	64.267802 
2214.000000	64.261913 
2213.000000	64.256310 
2212.000000	64.250421 
2211.000000	64.243555 
2210.000000	64.235377 
2209.000000	64.225912 
2208.000000	64.215564 
2207.000000	64.205145 
2206.000000	64.195585 
2205.000000	64.187812 
2204.000000	64.182472 
2203.000000	64.179992 
2202.000000	64.180493 
2201.000000	64.183759 
2200.000000	64.189410 
2199.000000	64.196705 
2198.000000	64.204859 
2197.000000	64.212727 
2196.000000	64.219117 
2195.000000	64.223003 
2194.000000	64.223718 
2193.000000	64.220976 
2192.000000	64.215207 
2191.000000	64.207506 
2190.000000	64.199590 
2189.000000	64.193224 
2188.000000	64.190220 
2187.000000	64.191913 
2186.000000	64.198946 
2185.000000	64.211106 
2184.000000	64.227128 
2183.000000	64.245152 
2182.000000	64.262723 
2181.000000	64.277482 
2180.000000	64.287471 
2179.000000	64.291357 
2178.000000	64.288735 
2177.000000	64.280247 
2176.000000	64.267373 
2175.000000	64.251875 
2174.000000	64.235925 
2173.000000	64.221382 
2172.000000	64.209651 
2171.000000	64.201307 
2170.000000	64.196181 
2169.000000	64.193558 
2168.000000	64.192295 
2167.000000	64.191055 
2166.000000	64.188742 
2165.000000	64.184641 
2164.000000	64.178657 
2163.000000	64.171242 
2162.000000	64.163160 
2161.000000	64.155435 
2160.000000	64.148736 
2159.000000	64.143633 
2158.000000	64.140200 
2157.000000	64.138269 
2156.000000	64.137506 
2155.000000	64.137649 
2154.000000	64.138531 
2153.000000	64.140415 
2152.000000	64.143800 
2151.000000	64.149355 
2150.000000	64.157509 
2149.000000	64.168381 
2148.000000	64.181923 
2147.000000	64.197516 
2146.000000	64.214372 
2145.000000	64.231419 
2144.000000	64.247417 
2143.000000	64.261245 
2142.000000	64.271664 
2141.000000	64.277362 
2140.000000	64.277195 
2139.000000	64.270067 
2138.000000	64.255642 
2137.000000	64.234066 
2136.000000	64.206671 
2135.000000	64.175891 
2134.000000	64.145040 
2133.000000	64.117956 
2132.000000	64.098310 
2131.000000	64.088654 
2130.000000	64.090013 
2129.000000	64.101386 
2128.000000	64.120173 
2127.000000	64.142107 
2126.000000	64.162850 
2125.000000	64.178800 
2124.000000	64.188027 
2123.000000	64.190411 
2122.000000	64.187741 
2121.000000	64.182949 
2120.000000	64.179134 
2119.000000	64.178752 
2118.000000	64.182782 
2117.000000	64.190459 
2116.000000	64.199757 
2115.000000	64.207792 
2114.000000	64.211821 
2113.000000	64.209938 
2112.000000	64.201617 
2111.000000	64.187765 
2110.000000	64.170479 
2109.000000	64.152455 
2108.000000	64.136099 
2107.000000	64.123034 
2106.000000	64.113712 
2105.000000	64.107227 
2104.000000	64.101910 
2103.000000	64.095687 
2102.000000	64.086484 
2101.000000	64.073252 
2100.000000	64.055991 
2099.000000	64.036130 
2098.000000	64.016103 
2097.000000	63.998913 
2096.000000	63.987398 
2095.000000	63.983535 
2094.000000	63.987898 
2093.000000	63.999414 
2092.000000	64.015674 
2091.000000	64.033484 
2090.000000	64.049816 
2089.000000	64.062428 
2088.000000	64.070439 
2087.000000	64.074206 
2086.000000	64.075112 
2085.000000	64.075112 
2084.000000	64.075756 
2083.000000	64.078116 
2082.000000	64.082193 
2081.000000	64.087343 
2080.000000	64.092206 
2079.000000	64.095473 
2078.000000	64.096260 
2077.000000	64.094495 
2076.000000	64.090728 
2075.000000	64.085865 
2074.000000	64.080786 
2073.000000	64.076161 
2072.000000	64.071846 
2071.000000	64.067077 
2070.000000	64.060568 
2069.000000	64.051055 
2068.000000	64.037942 
2067.000000	64.021396 
2066.000000	64.002776 
2065.000000	63.984370 
2064.000000	63.968992 
2063.000000	63.959407 
2062.000000	63.957762 
2061.000000	63.964915 
2060.000000	63.980460 
2059.000000	64.002633 
2058.000000	64.028644 
2057.000000	64.055156 
2056.000000	64.078664 
2055.000000	64.096307 
2054.000000	64.105916 
2053.000000	64.106774 
2052.000000	64.099359 
2051.000000	64.085340 
2050.000000	64.067363 
2049.000000	64.048314 
2048.000000	64.031004 
2047.000000	64.017391 
2046.000000	64.008617 
2045.000000	64.004659 
2044.000000	64.004802 
2043.000000	64.007854 
2042.000000	64.012575 
2041.000000	64.018082 
2040.000000	64.023804 
2039.000000	64.029693 
2038.000000	64.035820 
2037.000000	64.042282 
2036.000000	64.048814 
2035.000000	64.054822 
2034.000000	64.059448 
2033.000000	64.061808 
2032.000000	64.061355 
2031.000000	64.058279 
2030.000000	64.053320 
2029.000000	64.047813 
2028.000000	64.043354 
2027.000000	64.041066 
2026.000000	64.041471 
2025.000000	64.044499 
2024.000000	64.049291 
2023.000000	64.054250 
2022.000000	64.057707 
2021.000000	64.058303 
2020.000000	64.055275 
2019.000000	64.048576 
2018.000000	64.039063 
2017.000000	64.028358 
2016.000000	64.018344 
2015.000000	64.010882 
2014.000000	64.007329 
2013.000000	64.008235 
2012.000000	64.013218 
2011.000000	64.021086 
2010.000000	64.030098 
2009.000000	64.038395 
2008.000000	64.044356 
2007.000000	64.046907 
2006.000000	64.045715 
2005.000000	64.041113 
2004.000000	64.033985 
2003.000000	64.025259 
2002.000000	64.015746 
2001.000000	64.005684 
2000.000000	63.994908 
1999.000000	63.982772 
1998.000000	63.968515 
1997.000000	63.951659 
1996.000000	63.932108 
1995.000000	63.910508 
1994.000000	63.887929 
1993.000000	63.866186 
1992.000000	63.846898 
1991.000000	63.831782 
1990.000000	63.822150 
1989.000000	63.818812 
1988.000000	63.821744 
1987.000000	63.830399 
1986.000000	63.843655 
1985.000000	63.859891 
1984.000000	63.877344 
1983.000000	63.894224 
1982.000000	63.909006 
1981.000000	63.920664 
1980.000000	63.928651 
1979.000000	63.933134 
1978.000000	63.934612 
1977.000000	63.933992 
1976.000000	63.932108 
1975.000000	63.929533 
1974.000000	63.926339 
1973.000000	63.922333 
1972.000000	63.916969 
1971.000000	63.909697 
1970.000000	63.900113 
1969.000000	63.888549 
1968.000000	63.875603 
1967.000000	63.862347 
1966.000000	63.849759 
1965.000000	63.838720 
1964.000000	63.829660 
1963.000000	63.822412 
1962.000000	63.816428 
1961.000000	63.810968 
1960.000000	63.805460 
1959.000000	63.799595 
1958.000000	63.793611 
1957.000000	63.788127 
1956.000000	63.784098 
1955.000000	63.782548 
1954.000000	63.784170 
1953.000000	63.789153 
1952.000000	63.797116 
1951.000000	63.807249 
1950.000000	63.818454 
1949.000000	63.829588 
1948.000000	63.839745 
1947.000000	63.848567 
1946.000000	63.856077 
1945.000000	63.862562 
1944.000000	63.868451 
1943.000000	63.874125 
1942.000000	63.879823 
1941.000000	63.885593 
1940.000000	63.891506 
1939.000000	63.897538 
1938.000000	63.903903 
1937.000000	63.910698 
1936.000000	63.917875 
1935.000000	63.925075 
1934.000000	63.931608 
1933.000000	63.936424 
1932.000000	63.938331 
1931.000000	63.936328 
1930.000000	63.929820 
1929.000000	63.918852 
1928.000000	63.904261 
1927.000000	63.887524 
1926.000000	63.870620 
1925.000000	63.855552 
1924.000000	63.844323 
1923.000000	63.838219 
1922.000000	63.837695 
1921.000000	63.842558 
1920.000000	63.851904 
1919.000000	63.864183 
1918.000000	63.877725 
1917.000000	63.890862 
1916.000000	63.902354 
1915.000000	63.911151 
1914.000000	63.917016 
1913.000000	63.920021 
1912.000000	63.920807 
1911.000000	63.920116 
1910.000000	63.918471 
1909.000000	63.916182 
1908.000000	63.913011 
1907.000000	63.908433 
1906.000000	63.901734 
1905.000000	63.892483 
1904.000000	63.880705 
1903.000000	63.866996 
1902.000000	63.852596 
1901.000000	63.838982 
1900.000000	63.827610 
1899.000000	63.819360 
1898.000000	63.814496 
1897.000000	63.812351 
1896.000000	63.811731 
1895.000000	63.811039 
1894.000000	63.808894 
1893.000000	63.804364 
1892.000000	63.797235 
1891.000000	63.788461 
1890.000000	63.779306 
1889.000000	63.771605 
1888.000000	63.766765 
1887.000000	63.765883 
1886.000000	63.769507 
1885.000000	63.777351 
1884.000000	63.788628 
1883.000000	63.802146 
1882.000000	63.816547 
1881.000000	63.830566 
1880.000000	63.843083 
1879.000000	63.853216 
1878.000000	63.860368 
1877.000000	63.864302 
1876.000000	63.864970 
1875.000000	63.862562 
1874.000000	63.857507 
1873.000000	63.850498 
1872.000000	63.842368 
1871.000000	63.834071 
1870.000000	63.826537 
1869.000000	63.820743 
1868.000000	63.817310 
1867.000000	63.816523 
1866.000000	63.818311 
1865.000000	63.822126 
1864.000000	63.827157 
1863.000000	63.832306 
1862.000000	63.836503 
1861.000000	63.838815 
1860.000000	63.838624 
1859.000000	63.835835 
1858.000000	63.830733 
1857.000000	63.823986 
1856.000000	63.816571 
1855.000000	63.809370 
1854.000000	63.803148 
1853.000000	63.798213 
1852.000000	63.794541 
1851.000000	63.791823 
1850.000000	63.789582 
1849.000000	63.787102 
1848.000000	63.783717 
1847.000000	63.779020 
1846.000000	63.772773 
1845.000000	63.765072 
1844.000000	63.756370 
1843.000000	63.747477 
1842.000000	63.739466 
1841.000000	63.733386 
1840.000000	63.729953 
1839.000000	63.729500 
1838.000000	63.731670 
1837.000000	63.735771 
1836.000000	63.740563 
1835.000000	63.744950 
1834.000000	63.747978 
1833.000000	63.749194 
1832.000000	63.748693 
1831.000000	63.747143 
1830.000000	63.745379 
1829.000000	63.744306 
1828.000000	63.744688 
1827.000000	63.746786 
1826.000000	63.750362 
1825.000000	63.754796 
1824.000000	63.759350 
1823.000000	63.763236 
1822.000000	63.765883 
1821.000000	63.766980 
1820.000000	63.766574 
1819.000000	63.764929 
1818.000000	63.762617 
1817.000000	63.760161 
1816.000000	63.757991 
1815.000000	63.756704 
1814.000000	63.756513 
1813.000000	63.757586 
1812.000000	63.759636 
1811.000000	63.762331 
1810.000000	63.765120 
1809.000000	63.767480 
1808.000000	63.768720 
1807.000000	63.768458 
1806.000000	63.766360 
1805.000000	63.762378 
1804.000000	63.756489 
1803.000000	63.748717 
1802.000000	63.739013 
1801.000000	63.727188 
1800.000000	63.712978 
1799.000000	63.696146 
1798.000000	63.676667 
1797.000000	63.655090 
1796.000000	63.632249 
1795.000000	63.609600 
1794.000000	63.588929 
1793.000000	63.572120 
1792.000000	63.560771 
1791.000000	63.555836 
1790.000000	63.557577 
1789.000000	63.565611 
1788.000000	63.578629 
1787.000000	63.595104 
1786.000000	63.613343 
1785.000000	63.631868 
1784.000000	63.649487 
1783.000000	63.665199 
1782.000000	63.678598 
1781.000000	63.689327 
1780.000000	63.697099 
1779.000000	63.701558 
1778.000000	63.702464 
1777.000000	63.699531 
1776.000000	63.692569 
1775.000000	63.681578 
1774.000000	63.667130 
1773.000000	63.649797 
1772.000000	63.630509 
1771.000000	63.610219 
1770.000000	63.590168 
1769.000000	63.571357 
1768.000000	63.554477 
1767.000000	63.539981 
1766.000000	63.528203 
1765.000000	63.519024 
1764.000000	63.512229 
1763.000000	63.507390 
1762.000000	63.503932 
1761.000000	63.501334 
1760.000000	63.499021 
1759.000000	63.496422 
1758.000000	63.492822 
1757.000000	63.487601 
1756.000000	63.480138 
1755.000000	63.469719 
1754.000000	63.455557 
1753.000000	63.437223 
1752.000000	63.414263 
1751.000000	63.386726 
1750.000000	63.354659 
1749.000000	63.318824 
1748.000000	63.279795 
1747.000000	63.238096 
1746.000000	63.194131 
1745.000000	63.148140 
1744.000000	63.100194 
1743.000000	63.050365 
1742.000000	62.999057 
1741.000000	62.947344 
1740.000000	62.896704 
1739.000000	62.849378 
1738.000000	62.807965 
1737.000000	62.775325 
1736.000000	62.753725 
1735.000000	62.744855 
1734.000000	62.749099 
1733.000000	62.765979 
1732.000000	62.793827 
1731.000000	62.830424 
1730.000000	62.873125 
1729.000000	62.919449 
1728.000000	62.966918 
1727.000000	63.013792 
1726.000000	63.058662 
1725.000000	63.100647 
1724.000000	63.138985 
1723.000000	63.173127 
1722.000000	63.202810 
1721.000000	63.227820 
1720.000000	63.247990 
1719.000000	63.263320 
1718.000000	63.274312 
1717.000000	63.281726 
1716.000000	63.286590 
1715.000000	63.290286 
1714.000000	63.294482 
1713.000000	63.300728 
1712.000000	63.310027 
1711.000000	63.323068 
1710.000000	63.339900 
1709.000000	63.359928 
1708.000000	63.382101 
1707.000000	63.405299 
1706.000000	63.428449 
1705.000000	63.450574 
1704.000000	63.471221 
1703.000000	63.490152 
1702.000000	63.507604 
1701.000000	63.524079 
1700.000000	63.540053 
1699.000000	63.555836 
1698.000000	63.571286 
1697.000000	63.586258 
1696.000000	63.600158 
1695.000000	63.612198 
1694.000000	63.621497 
1693.000000	63.627529 
1692.000000	63.629889 
1691.000000	63.628602 
1690.000000	63.623929 
1689.000000	63.616609 
1688.000000	63.607454 
1687.000000	63.597226 
1686.000000	63.586854 
1685.000000	63.577055 
1684.000000	63.568472 
1683.000000	63.561439 
1682.000000	63.556361 
1681.000000	63.553476 
1680.000000	63.552904 
1679.000000	63.554477 
1678.000000	63.558053 
1677.000000	63.563108 
1676.000000	63.568854 
1675.000000	63.574314 
1674.000000	63.578510 
1673.000000	63.580489 
1672.000000	63.579511 
1671.000000	63.575196 
1670.000000	63.567781 
1669.000000	63.558125 
1668.000000	63.547348 
1667.000000	63.537049 
1666.000000	63.528919 
1665.000000	63.524460 
1664.000000	63.524556 
1663.000000	63.529324 
1662.000000	63.538002 
1661.000000	63.548994 
1660.000000	63.560080 
1659.000000	63.568639 
1658.000000	63.572311 
1657.000000	63.569355 
1656.000000	63.558936 
1655.000000	63.541650 
1654.000000	63.519144 
1653.000000	63.494086 
1652.000000	63.469433 
1651.000000	63.447856 
1650.000000	63.431382 
1649.000000	63.420748 
1648.000000	63.415789 
1647.000000	63.415575 
1646.000000	63.418745 
1645.000000	63.423919 
1644.000000	63.429927 
1643.000000	63.435912 
1642.000000	63.441157 
1641.000000	63.444995 
1640.000000	63.446831 
1639.000000	63.446092 
1638.000000	63.442397 
1637.000000	63.435721 
1636.000000	63.426589 
1635.000000	63.416028 
1634.000000	63.405466 
1633.000000	63.396430 
1632.000000	63.390040 
1631.000000	63.386797 
1630.000000	63.386297 
1629.000000	63.387393 
1628.000000	63.388586 
1627.000000	63.388323 
1626.000000	63.385581 
1625.000000	63.379955 
1624.000000	63.371634 
1623.000000	63.361191 
1622.000000	63.349533 
1621.000000	63.337588 
1620.000000	63.326144 
1619.000000	63.315773 
1618.000000	63.307118 
1617.000000	63.300418 
1616.000000	63.295769 
1615.000000	63.292932 
1614.000000	63.291478 
1613.000000	63.290667 
1612.000000	63.289618 
1611.000000	63.287520 
1610.000000	63.283801 
1609.000000	63.278365 
1608.000000	63.271665 
1607.000000	63.264656 
1606.000000	63.258361 
1605.000000	63.253712 
1604.000000	63.251209 
1603.000000	63.250827 
1602.000000	63.252186 
1601.000000	63.254928 
1600.000000	63.258981 
1599.000000	63.264918 
1598.000000	63.273525 
1597.000000	63.285779 
1596.000000	63.302016 
1595.000000	63.321781 
1594.000000	63.343763 
1593.000000	63.365817 
1592.000000	63.385510 
1591.000000	63.400912 
1590.000000	63.410782 
1589.000000	63.415074 
1588.000000	63.414740 
1587.000000	63.411617 
1586.000000	63.407516 
1585.000000	63.403868 
1584.000000	63.401246 
1583.000000	63.399362 
1582.000000	63.397192 
1581.000000	63.393545 
1580.000000	63.387465 
1579.000000	63.378643 
1578.000000	63.367605 
1577.000000	63.355517 
1576.000000	63.343787 
1575.000000	63.334012 
1574.000000	63.327527 
1573.000000	63.325428 
1572.000000	63.328361 
1571.000000	63.336372 
1570.000000	63.349032 
1569.000000	63.365340 
1568.000000	63.383603 
1567.000000	63.401794 
1566.000000	63.417601 
1565.000000	63.428807 
1564.000000	63.433551 
1563.000000	63.430809 
1562.000000	63.420629 
1561.000000	63.404202 
1560.000000	63.383531 
1559.000000	63.361334 
1558.000000	63.340425 
1557.000000	63.323187 
1556.000000	63.311243 
1555.000000	63.305068 
1554.000000	63.304185 
1553.000000	63.307285 
1552.000000	63.312673 
1551.000000	63.318467 
1550.000000	63.323068 
1549.000000	63.325238 
1548.000000	63.324451 
1547.000000	63.320803 
1546.000000	63.315200 
1545.000000	63.308739 
1544.000000	63.302826 
1543.000000	63.298630 
1542.000000	63.296818 
1541.000000	63.297462 
1540.000000	63.299894 
1539.000000	63.302922 
1538.000000	63.304972 
1537.000000	63.304471 
1536.000000	63.300323 
1535.000000	63.292050 
1534.000000	63.280129 
1533.000000	63.265776 
1532.000000	63.250970 
1531.000000	63.238048 
1530.000000	63.229274 
1529.000000	63.226366 
1528.000000	63.230299 
1527.000000	63.240766 
1526.000000	63.256597 
1525.000000	63.275742 
1524.000000	63.295578 
1523.000000	63.313364 
1522.000000	63.326597 
1521.000000	63.333606 
1520.000000	63.333630 
1519.000000	63.327026 
1518.000000	63.315010 
1517.000000	63.299560 
1516.000000	63.283157 
1515.000000	63.268041 
1514.000000	63.256192 
1513.000000	63.248991 
1512.000000	63.247084 
1511.000000	63.250184 
1510.000000	63.257336 
1509.000000	63.267040 
1508.000000	63.277506 
1507.000000	63.286852 
1506.000000	63.293457 
1505.000000	63.296031 
1504.000000	63.293957 
1503.000000	63.287281 
1502.000000	63.276767 
1501.000000	63.263845 
1500.000000	63.250231 
1499.000000	63.238072 
1498.000000	63.229250 
1497.000000	63.225007 
1496.000000	63.225746 
1495.000000	63.230752 
1494.000000	63.238453 
1493.000000	63.246703 
1492.000000	63.253259 
1491.000000	63.256120 
1490.000000	63.254022 
1489.000000	63.246464 
1488.000000	63.233876 
1487.000000	63.217139 
1486.000000	63.197660 
1485.000000	63.176989 
1484.000000	63.156723 
1483.000000	63.138222 
1482.000000	63.122606 
1481.000000	63.110685 
1480.000000	63.102889 
1479.000000	63.099241 
1478.000000	63.099575 
1477.000000	63.103437 
1476.000000	63.110303 
1475.000000	63.119435 
1474.000000	63.130331 
1473.000000	63.142538 
1472.000000	63.155746 
1471.000000	63.169598 
1470.000000	63.183641 
1469.000000	63.197135 
1468.000000	63.209128 
1467.000000	63.218331 
1466.000000	63.223433 
1465.000000	63.223266 
1464.000000	63.217210 
1463.000000	63.205194 
1462.000000	63.188147 
1461.000000	63.167524 
1460.000000	63.145327 
1459.000000	63.123631 
1458.000000	63.104152 
1457.000000	63.087916 
1456.000000	63.075232 
1455.000000	63.065838 
1454.000000	63.058853 
1453.000000	63.053464 
1452.000000	63.049125 
1451.000000	63.045811 
1450.000000	63.043808 
1449.000000	63.043808 
1448.000000	63.046479 
1447.000000	63.052082 
1446.000000	63.060283 
1445.000000	63.070201 
1444.000000	63.080358 
1443.000000	63.089251 
1442.000000	63.095521 
1441.000000	63.098287 
1440.000000	63.097310 
1439.000000	63.093161 
1438.000000	63.086843 
1437.000000	63.079500 
1436.000000	63.072180 
1435.000000	63.065576 
1434.000000	63.059926 
1433.000000	63.055086 
1432.000000	63.050866 
1431.000000	63.046979 
1430.000000	63.043451 
1429.000000	63.040447 
1428.000000	63.038635 
1427.000000	63.038444 
1426.000000	63.040494 
1425.000000	63.045096 
1424.000000	63.052415 
1423.000000	63.062262 
1422.000000	63.074254 
1421.000000	63.087916 
1420.000000	63.102626 
1419.000000	63.117504 
1418.000000	63.131475 
1417.000000	63.143229 
1416.000000	63.151407 
1415.000000	63.154697 
1414.000000	63.152146 
1413.000000	63.143420 
1412.000000	63.128948 
1411.000000	63.109993 
1410.000000	63.088488 
1409.000000	63.066530 
1408.000000	63.046097 
1407.000000	63.028478 
1406.000000	63.014292 
1405.000000	63.003206 
1404.000000	62.994480 
1403.000000	62.987041 
1402.000000	62.980008 
1401.000000	62.973046 
1400.000000	62.966227 
1399.000000	62.960243 
1398.000000	62.955927 
1397.000000	62.954163 
1396.000000	62.955403 
1395.000000	62.959814 
1394.000000	62.967038 
1393.000000	62.976312 
1392.000000	62.986755 
1391.000000	62.997436 
1390.000000	63.007593 
1389.000000	63.016772 
1388.000000	63.024735 
1387.000000	63.031387 
1386.000000	63.036656 
1385.000000	63.040447 
1384.000000	63.042712 
1383.000000	63.043403 
1382.000000	63.042473 
1381.000000	63.039898 
1380.000000	63.035631 
1379.000000	63.029813 
1378.000000	63.022899 
1377.000000	63.015127 
1376.000000	63.006973 
1375.000000	62.998914 
1374.000000	62.991523 
1373.000000	62.985229 
1372.000000	62.980532 
1371.000000	62.977957 
1370.000000	62.978053 
1369.000000	62.981486 
1368.000000	62.988662 
1367.000000	62.999701 
1366.000000	63.014030 
1365.000000	63.030409 
1364.000000	63.046813 
1363.000000	63.060879 
1362.000000	63.070392 
1361.000000	63.073897 
1360.000000	63.070988 
1359.000000	63.062882 
1358.000000	63.052010 
1357.000000	63.041710 
1356.000000	63.035297 
1355.000000	63.035416 
1354.000000	63.043260 
1353.000000	63.058423 
1352.000000	63.078808 
1351.000000	63.101172 
1350.000000	63.122224 
1349.000000	63.139033 
1348.000000	63.149905 
1347.000000	63.154363 
1346.000000	63.153100 
1345.000000	63.147640 
1344.000000	63.139629 
1343.000000	63.130474 
1342.000000	63.121151 
1341.000000	63.112115 
1340.000000	63.103604 
1339.000000	63.095569 
1338.000000	63.088059 
1337.000000	63.081264 
1336.000000	63.075494 
1335.000000	63.070940 
1334.000000	63.067626 
1333.000000	63.065385 
1332.000000	63.063693 
1331.000000	63.062000 
1330.000000	63.059663 
1329.000000	63.056159 
1328.000000	63.050770 
1327.000000	63.042902 
1326.000000	63.032007 
1325.000000	63.017392 
1324.000000	62.998723 
1323.000000	62.976241 
1322.000000	62.951016 
1321.000000	62.924766 
1320.000000	62.899899 
1319.000000	62.878990 
1318.000000	62.864160 
1317.000000	62.856578 
1316.000000	62.856245 
1315.000000	62.861919 
1314.000000	62.871599 
1313.000000	62.882900 
1312.000000	62.893772 
1311.000000	62.903094 
1310.000000	62.910866 
1309.000000	62.918019 
1308.000000	62.925934 
1307.000000	62.935972 
1306.000000	62.948679 
1305.000000	62.963581 
1304.000000	62.979197 
1303.000000	62.993335 
1302.000000	63.003635 
1301.000000	63.008117 
1300.000000	63.005781 
1299.000000	62.996435 
1298.000000	62.981057 
1297.000000	62.961244 
1296.000000	62.938952 
1295.000000	62.916302 
1294.000000	62.895107 
1293.000000	62.876844 
1292.000000	62.862586 
1291.000000	62.853097 
1290.000000	62.848758 
1289.000000	62.849521 
1288.000000	62.854766 
1287.000000	62.863349 
1286.000000	62.873625 
1285.000000	62.883639 
1284.000000	62.891459 
1283.000000	62.895607 
1282.000000	62.895131 
1281.000000	62.890052 
1280.000000	62.881231 
1279.000000	62.870216 
1278.000000	62.858748 
1277.000000	62.848472 
1276.000000	62.840414 
1275.000000	62.834858 
1274.000000	62.831163 
1273.000000	62.828063 
1272.000000	62.823653 
1271.000000	62.816143 
1270.000000	62.804079 
1269.000000	62.786841 
1268.000000	62.764811 
1267.000000	62.739133 
1266.000000	62.711715 
1265.000000	62.684631 
1264.000000	62.659764 
1263.000000	62.638592 
1262.000000	62.621760 
1261.000000	62.609052 
1260.000000	62.599539 
1259.000000	62.591934 
1258.000000	62.584900 
1257.000000	62.577509 
1256.000000	62.569379 
1255.000000	62.560892 
1254.000000	62.553071 
1253.000000	62.547278 
1252.000000	62.544870 
1251.000000	62.547016 
1250.000000	62.554121 
1249.000000	62.566065 
1248.000000	62.581992 
1247.000000	62.600541 
1246.000000	62.619805 
1245.000000	62.637948 
1244.000000	62.653422 
1243.000000	62.665200 
1242.000000	62.672805 
1241.000000	62.676334 
1240.000000	62.676501 
1239.000000	62.674212 
1238.000000	62.670397 
1237.000000	62.665843 
1236.000000	62.660932 
1235.000000	62.655925 
1234.000000	62.650990 
1233.000000	62.646436 
1232.000000	62.642908 
1231.000000	62.641310 
1230.000000	62.642526 
1229.000000	62.647366 
1228.000000	62.656164 
1227.000000	62.668609 
1226.000000	62.683653 
1225.000000	62.699627 
1224.000000	62.714672 
1223.000000	62.727046 
1222.000000	62.735915 
1221.000000	62.741136 
1220.000000	62.743639 
1219.000000	62.745356 
1218.000000	62.748456 
1217.000000	62.754964 
1216.000000	62.765645 
1215.000000	62.780308 
1214.000000	62.797188 
1213.000000	62.813329 
1212.000000	62.825155 
1211.000000	62.829470 
1210.000000	62.824106 
1209.000000	62.808609 
1208.000000	62.784314 
1207.000000	62.754249 
1206.000000	62.722325 
1205.000000	62.692761 
1204.000000	62.669038 
1203.000000	62.653326 
1202.000000	62.646222 
1201.000000	62.646746 
1200.000000	62.652683 
1199.000000	62.661051 
1198.000000	62.668871 
1197.000000	62.673521 
1196.000000	62.673115 
1195.000000	62.666845 
1194.000000	62.654614 
1193.000000	62.637090 
1192.000000	62.615466 
1191.000000	62.591338 
1190.000000	62.566471 
1189.000000	62.542486 
1188.000000	62.520933 
1187.000000	62.502884 
1186.000000	62.489008 
1185.000000	62.479257 
1184.000000	62.472796 
1183.000000	62.468218 
1182.000000	62.463760 
1181.000000	62.457799 
1180.000000	62.449097 
1179.000000	62.437486 
1178.000000	62.423563 
1177.000000	62.408900 
1176.000000	62.395405 
1175.000000	62.385106 
1174.000000	62.379670 
1173.000000	62.379741 
1172.000000	62.384986 
1171.000000	62.394332 
1170.000000	62.406182 
1169.000000	62.418794 
1168.000000	62.430834 
1167.000000	62.441349 
1166.000000	62.450098 
1165.000000	62.457251 
1164.000000	62.463068 
1163.000000	62.467885 
1162.000000	62.471914 
1161.000000	62.475085 
1160.000000	62.477254 
1159.000000	62.478566 
1158.000000	62.479376 
1157.000000	62.480330 
1156.000000	62.482118 
1155.000000	62.485456 
1154.000000	62.490725 
1153.000000	62.497782 
1152.000000	62.506008 
1151.000000	62.514376 
1150.000000	62.521982 
1149.000000	62.528252 
1148.000000	62.533330 
1147.000000	62.537813 
1146.000000	62.542533 
1145.000000	62.548184 
1144.000000	62.554788 
1143.000000	62.561893 
1142.000000	62.568330 
1141.000000	62.572932 
1140.000000	62.574934 
1139.000000	62.574267 
1138.000000	62.571668 
1137.000000	62.568593 
1136.000000	62.566852 
1135.000000	62.568140 
1134.000000	62.573671 
1133.000000	62.583780 
1132.000000	62.597942 
1131.000000	62.614631 
1130.000000	62.631487 
1129.000000	62.645697 
1128.000000	62.654638 
1127.000000	62.656521 
1126.000000	62.650728 
1125.000000	62.637805 
1124.000000	62.619519 
1123.000000	62.598156 
1122.000000	62.576174 
1121.000000	62.555503 
1120.000000	62.537479 
1119.000000	62.523198 
1118.000000	62.513470 
1117.000000	62.508964 
1116.000000	62.510323 
1115.000000	62.517523 
1114.000000	62.529969 
1113.000000	62.546133 
1112.000000	62.564110 
1111.000000	62.581944 
1110.000000	62.598204 
1109.000000	62.612605 
1108.000000	62.625741 
1107.000000	62.638735 
1106.000000	62.652611 
1105.000000	62.667870 
1104.000000	62.683868 
1103.000000	62.699198 
1102.000000	62.711381 
1101.000000	62.718152 
1100.000000	62.717270 
1099.000000	62.707400 
1098.000000	62.688207 
1097.000000	62.660431 
1096.000000	62.625789 
1095.000000	62.586712 
1094.000000	62.546038 
1093.000000	62.506723 
1092.000000	62.471461 
1091.000000	62.442731 
1090.000000	62.422513 
1089.000000	62.412333 
1088.000000	62.413167 
1087.000000	62.425160 
1086.000000	62.447452 
1085.000000	62.478399 
1084.000000	62.515282 
1083.000000	62.554955 
1082.000000	62.593674 
1081.000000	62.627959 
1080.000000	62.654829 
1079.000000	62.672185 
1078.000000	62.678956 
1077.000000	62.675237 
1076.000000	62.661862 
1075.000000	62.640523 
1074.000000	62.613320 
1073.000000	62.582612 
1072.000000	62.550926 
1071.000000	62.520742 
1070.000000	62.494182 
1069.000000	62.472915 
1068.000000	62.458157 
1067.000000	62.450170 
1066.000000	62.448477 
1065.000000	62.451815 
1064.000000	62.458515 
1063.000000	62.466645 
1062.000000	62.474584 
1061.000000	62.480831 
1060.000000	62.484478 
1059.000000	62.485122 
1058.000000	62.483024 
1057.000000	62.478852 
1056.000000	62.473726 
1055.000000	62.468981 
1054.000000	62.465929 
1053.000000	62.466025 
1052.000000	62.470149 
1051.000000	62.478756 
1050.000000	62.491369 
1049.000000	62.507033 
1048.000000	62.523698 
1047.000000	62.538695 
1046.000000	62.548875 
1045.000000	62.551236 
1044.000000	62.543225 
1043.000000	62.523627 
1042.000000	62.492609 
1041.000000	62.451863 
1040.000000	62.404751 
1039.000000	62.355899 
1038.000000	62.310481 
1037.000000	62.273430 
1036.000000	62.248778 
1035.000000	62.238979 
1034.000000	62.244391 
1033.000000	62.263655 
1032.000000	62.293505 
1031.000000	62.329649 
1030.000000	62.367606 
1029.000000	62.403273 
1028.000000	62.433481 
1027.000000	62.456345 
1026.000000	62.471079 
1025.000000	62.477922 
1024.000000	62.477684 
1023.000000	62.471556 
1022.000000	62.460851 
1021.000000	62.446713 
1020.000000	62.430739 
1019.000000	62.414407 
1018.000000	62.399435 
1017.000000	62.387657 
1016.000000	62.380814 
1015.000000	62.380266 
1014.000000	62.386703 
1013.000000	62.399840 
1012.000000	62.418246 
1011.000000	62.439584 
1010.000000	62.460875 
1009.000000	62.478947 
1008.000000	62.491250 
1007.000000	62.495923 
1006.000000	62.492322 
1005.000000	62.481093 
1004.000000	62.464070 
1003.000000	62.443637 
1002.000000	62.422347 
1001.000000	62.402343 
1000.000000	62.385201 
999.000000	 62.371945 
998.000000	 62.362933 
997.000000	 62.357854 
996.000000	 62.356281 
995.000000	 62.358021 
994.000000	 62.363028 
993.000000	 62.371325 
992.000000	 62.382912 
991.000000	 62.397527 
990.000000	 62.414431 
989.000000	 62.432146 
988.000000	 62.448763 
987.000000	 62.461900 
986.000000	 62.469434 
985.000000	 62.469840 
984.000000	 62.462615 
983.000000	 62.448382 
982.000000	 62.429165 
981.000000	 62.408018 
980.000000	 62.388420 
979.000000	 62.373447 
978.000000	 62.365508 
977.000000	 62.365460 
976.000000	 62.372541 
975.000000	 62.384128 
974.000000	 62.396669 
973.000000	 62.405920 
972.000000	 62.408304 
971.000000	 62.401199 
970.000000	 62.383723 
969.000000	 62.356781 
968.000000	 62.322878 
967.000000	 62.285518 
966.000000	 62.248587 
965.000000	 62.215495 
964.000000	 62.188649 
963.000000	 62.169218 
962.000000	 62.157201 
961.000000	 62.151885 
960.000000	 62.152314 
959.000000	 62.157750 
958.000000	 62.167906 
957.000000	 62.183189 
956.000000	 62.204551 
955.000000	 62.232971 
954.000000	 62.268924 
953.000000	 62.312173 
952.000000	 62.361216 
951.000000	 62.413692 
950.000000	 62.466192 
949.000000	 62.514519 
948.000000	 62.554168 
947.000000	 62.581372 
946.000000	 62.593388 
945.000000	 62.589144 
944.000000	 62.569451 
943.000000	 62.537097 
942.000000	 62.496519 
941.000000	 62.453293 
940.000000	 62.412977 
939.000000	 62.380504 
938.000000	 62.358903 
937.000000	 62.349176 
936.000000	 62.349891 
935.000000	 62.357926 
934.000000	 62.368702 
933.000000	 62.377429 
932.000000	 62.380075 
931.000000	 62.374472 
930.000000	 62.360286 
929.000000	 62.339472 
928.000000	 62.315511 
927.000000	 62.292790 
926.000000	 62.275910 
925.000000	 62.268781 
924.000000	 62.273788 
923.000000	 62.291216 
922.000000	 62.319755 
921.000000	 62.356042 
920.000000	 62.395524 
919.000000	 62.432670 
918.000000	 62.462401 
917.000000	 62.480401 
916.000000	 62.483596 
915.000000	 62.470936 
914.000000	 62.443351 
913.000000	 62.403869 
912.000000	 62.357044 
911.000000	 62.308430 
910.000000	 62.263774 
909.000000	 62.228345 
908.000000	 62.206268 
907.000000	 62.199878 
906.000000	 62.209510 
905.000000	 62.233638 
904.000000	 62.269139 
903.000000	 62.311887 
902.000000	 62.357282 
901.000000	 62.400770 
900.000000	 62.438416 
899.000000	 62.467217 
898.000000	 62.485361 
897.000000	 62.492060 
896.000000	 62.487721 
895.000000	 62.473487 
894.000000	 62.451124 
893.000000	 62.423229 
892.000000	 62.392663 
891.000000	 62.362790 
890.000000	 62.336564 
889.000000	 62.316870 
888.000000	 62.305331 
887.000000	 62.302279 
886.000000	 62.306523 
885.000000	 62.315487 
884.000000	 62.325549 
883.000000	 62.332677 
882.000000	 62.333488 
881.000000	 62.325978 
880.000000	 62.309932 
879.000000	 62.287044 
878.000000	 62.260627 
877.000000	 62.234711 
876.000000	 62.213253 
875.000000	 62.199187 
874.000000	 62.193775 
873.000000	 62.196540 
872.000000	 62.205934 
871.000000	 62.219715 
870.000000	 62.235260 
869.000000	 62.250161 
868.000000	 62.262535 
867.000000	 62.271118 
866.000000	 62.274909 
865.000000	 62.273788 
864.000000	 62.268376 
863.000000	 62.260532 
862.000000	 62.252998 
861.000000	 62.249588 
860.000000	 62.254047 
859.000000	 62.269401 
858.000000	 62.297368 
857.000000	 62.337183 
856.000000	 62.385582 
855.000000	 62.436938 
854.000000	 62.484312 
853.000000	 62.520670 
852.000000	 62.540411 
851.000000	 62.540507 
850.000000	 62.521028 
849.000000	 62.484884 
848.000000	 62.437081 
847.000000	 62.383580 
846.000000	 62.330150 
845.000000	 62.281513 
844.000000	 62.240695 
843.000000	 62.209200 
842.000000	 62.187194 
841.000000	 62.174010 
840.000000	 62.168622 
839.000000	 62.169837 
838.000000	 62.177038 
837.000000	 62.189888 
836.000000	 62.208366 
835.000000	 62.232089 
834.000000	 62.260079 
833.000000	 62.290382 
832.000000	 62.320160 
831.000000	 62.345933 
830.000000	 62.364125 
829.000000	 62.372064 
828.000000	 62.368512 
827.000000	 62.354135 
826.000000	 62.331700 
825.000000	 62.305593 
824.000000	 62.280917 
823.000000	 62.262296 
822.000000	 62.252902 
821.000000	 62.253808 
820.000000	 62.263512 
819.000000	 62.278604 
818.000000	 62.294626 
817.000000	 62.307357 
816.000000	 62.313866 
815.000000	 62.313103 
814.000000	 62.305712 
813.000000	 62.293863 
812.000000	 62.280392 
811.000000	 62.268328 
810.000000	 62.260317 
809.000000	 62.258100 
808.000000	 62.262558 
807.000000	 62.273001 
806.000000	 62.287855 
805.000000	 62.304449 
804.000000	 62.319707 
803.000000	 62.330651 
802.000000	 62.335085 
801.000000	 62.331914 
800.000000	 62.321448 
799.000000	 62.305068 
798.000000	 62.284946 
797.000000	 62.263345 
796.000000	 62.242174 
795.000000	 62.222552 
794.000000	 62.204742 
793.000000	 62.188506 
792.000000	 62.173390 
791.000000	 62.159013 
790.000000	 62.145185 
789.000000	 62.132120 
788.000000	 62.119984 
787.000000	 62.108516 
786.000000	 62.096714 
785.000000	 62.082791 
784.000000	 62.064957 
783.000000	 62.042093 
782.000000	 62.014460 
781.000000	 61.983776 
780.000000	 61.953425 
779.000000	 61.927366 
778.000000	 61.909508 
777.000000	 61.902070 
776.000000	 61.905264 
775.000000	 61.917042 
774.000000	 61.933565 
773.000000	 61.950111 
772.000000	 61.962270 
771.000000	 61.967086 
770.000000	 61.963701 
769.000000	 61.953401 
768.000000	 61.939215 
767.000000	 61.925101 
766.000000	 61.914920 
765.000000	 61.911463 
764.000000	 61.916160 
763.000000	 61.928915 
762.000000	 61.948585 
761.000000	 61.973166 
760.000000	 62.000536 
759.000000	 62.028360 
758.000000	 62.054824 
757.000000	 62.077927 
756.000000	 62.095594 
755.000000	 62.105846 
754.000000	 62.106704 
753.000000	 62.096786 
752.000000	 62.075757 
751.000000	 62.044596 
750.000000	 62.005877 
749.000000	 61.963558 
748.000000	 61.922359 
747.000000	 61.886954 
746.000000	 61.861252 
745.000000	 61.847591 
744.000000	 61.846494 
743.000000	 61.856436 
742.000000	 61.874246 
741.000000	 61.896061 
740.000000	 61.918091 
739.000000	 61.936974 
738.000000	 61.950421 
737.000000	 61.957430 
736.000000	 61.958408 
735.000000	 61.954832 
734.000000	 61.948561 
733.000000	 61.941957 
732.000000	 61.936521 
731.000000	 61.933302 
730.000000	 61.931824 
729.000000	 61.930918 
728.000000	 61.928296 
727.000000	 61.921286 
726.000000	 61.907553 
725.000000	 61.885476 
724.000000	 61.855149 
723.000000	 61.818456 
722.000000	 61.778974 
721.000000	 61.741018 
720.000000	 61.708784 
719.000000	 61.685490 
718.000000	 61.671781 
717.000000	 61.665678 
716.000000	 61.663174 
715.000000	 61.659216 
714.000000	 61.649250 
713.000000	 61.630892 
712.000000	 61.604690 
711.000000	 61.574292 
710.000000	 61.545491 
709.000000	 61.524581 
708.000000	 61.515760 
707.000000	 61.520004 
706.000000	 61.534690 
705.000000	 61.554241 
704.000000	 61.571097 
703.000000	 61.578726 
702.000000	 61.573386 
701.000000	 61.555767 
700.000000	 61.530661 
699.000000	 61.506199 
698.000000	 61.491227 
697.000000	 61.493062 
696.000000	 61.515212 
695.000000	 61.556410 
694.000000	 61.610722 
693.000000	 61.669802 
692.000000	 61.725044 
691.000000	 61.770033 
690.000000	 61.801648 
689.000000	 61.821055 
688.000000	 61.832761 
687.000000	 61.841940 
686.000000	 61.851859 
685.000000	 61.862707 
684.000000	 61.870598 
683.000000	 61.868786 
682.000000	 61.849284 
681.000000	 61.805939 
680.000000	 61.736392 
679.000000	 61.643719 
678.000000	 61.536359 
677.000000	 61.425971 
676.000000	 61.325430 
675.000000	 61.246228 
674.000000	 61.195921 
673.000000	 61.176300 
672.000000	 61.184287 
671.000000	 61.212587 
670.000000	 61.252832 
669.000000	 61.296319 
668.000000	 61.338138 
667.000000	 61.376976 
666.000000	 61.415910 
665.000000	 61.460113 
664.000000	 61.515545 
663.000000	 61.585879 
662.000000	 61.671686 
661.000000	 61.769175 
660.000000	 61.871170 
659.000000	 61.967992 
658.000000	 62.050080 
657.000000	 62.109327 
656.000000	 62.140274 
655.000000	 62.140369 
654.000000	 62.110710 
653.000000	 62.054681 
652.000000	 61.977505 
651.000000	 61.884713 
650.000000	 61.782288 
649.000000	 61.675333 
648.000000	 61.569023 
647.000000	 61.467719 
646.000000	 61.376047 
645.000000	 61.297607 
644.000000	 61.233901 
643.000000	 61.185741 
642.000000	 61.152505 
641.000000	 61.133790 
640.000000	 61.129093 
639.000000	 61.138749 
638.000000	 61.162805 
637.000000	 61.201429 
636.000000	 61.253929 
635.000000	 61.318278 
634.000000	 61.390662 
633.000000	 61.467432 
632.000000	 61.545300 
631.000000	 61.622285 
630.000000	 61.696791 
629.000000	 61.768245 
628.000000	 61.834812 
627.000000	 61.892342 
626.000000	 61.933827 
625.000000	 61.950564 
624.000000	 61.934733 
623.000000	 61.881375 
622.000000	 61.792254 
621.000000	 61.677241 
620.000000	 61.553573 
619.000000	 61.444544 
618.000000	 61.372613 
617.000000	 61.354279 
616.000000	 61.394929 
615.000000	 61.487078 
614.000000	 61.611795 
613.000000	 61.743330 
612.000000	 61.855530 
611.000000	 61.928176 
610.000000	 61.951398 
609.000000	 61.927223 
608.000000	 61.867237 
607.000000	 61.788153 
606.000000	 61.706566 
605.000000	 61.633753 
604.000000	 61.572766 
603.000000	 61.518049 
602.000000	 61.458778 
601.000000	 61.383271 
600.000000	 61.283922 
599.000000	 61.161088 
598.000000	 61.023187 
597.000000	 60.886549 
596.000000	 60.770845 
595.000000	 60.695266 
594.000000	 60.672450 
593.000000	 60.705494 
592.000000	 60.787272 
591.000000	 60.900425 
590.000000	 61.021065 
589.000000	 61.123847 
588.000000	 61.186766 
587.000000	 61.196613 
586.000000	 61.151266 
585.000000	 61.059856 
584.000000	 60.939764 
583.000000	 60.811758 
582.000000	 60.694813 
581.000000	 60.601115 
580.000000	 60.534024 
579.000000	 60.488057 
578.000000	 60.452485 
577.000000	 60.415554 
576.000000	 60.370397 
575.000000	 60.317754 
574.000000	 60.268378 
573.000000	 60.240268 
572.000000	 60.255336 
571.000000	 60.330891 
570.000000	 60.475683 
569.000000	 60.685753 
568.000000	 60.944128 
567.000000	 61.224222 
566.000000	 61.493635 
565.000000	 61.722397 
564.000000	 61.886191 
563.000000	 61.971592 
562.000000	 61.976194 
561.000000	 61.907887 
560.000000	 61.782765 
559.000000	 61.621880 
558.000000	 61.447525 
557.000000	 61.280465 
556.000000	 61.137151 
555.000000	 61.029243 
554.000000	 60.962057 
553.000000	 60.935854 
552.000000	 60.945653 
551.000000	 60.983872 
550.000000	 61.040997 
549.000000	 61.108875 
548.000000	 61.181473 
547.000000	 61.256742 
546.000000	 61.335706 
545.000000	 61.421537 
544.000000	 61.517572 
543.000000	 61.623835 
542.000000	 61.737012 
541.000000	 61.846995 
540.000000	 61.939287 
539.000000	 61.995697 
538.000000	 61.999869 
537.000000	 61.940097 
536.000000	 61.814475 
535.000000	 61.631178 
534.000000	 61.408090 
533.000000	 61.169552 
532.000000	 60.942459 
531.000000	 60.750365 
530.000000	 60.609102 
529.000000	 60.524940 
528.000000	 60.494661 
527.000000	 60.507035 
526.000000	 60.546445 
525.000000	 60.594701 
524.000000	 60.635256 
523.000000	 60.655021 
522.000000	 60.647583 
521.000000	 60.613203 
520.000000	 60.559797 
519.000000	 60.499835 
518.000000	 60.448598 
517.000000	 60.421419 
516.000000	 60.429406 
515.000000	 60.477042 
514.000000	 60.560441 
513.000000	 60.668945 
512.000000	 60.786461 
511.000000	 60.895013 
510.000000	 60.978937 
509.000000	 61.028528 
508.000000	 61.041641 
507.000000	 61.023688 
506.000000	 60.984539 
505.000000	 60.934829 
504.000000	 60.883331 
503.000000	 60.835242 
502.000000	 60.792255 
501.000000	 60.753488 
500.000000	 60.718822 
499.000000	 60.690546 
498.000000	 60.671925 
497.000000	 60.666441 
496.000000	 60.675811 
495.000000	 60.698843 
494.000000	 60.730910 
493.000000	 60.764288 
492.000000	 60.789585 
491.000000	 60.797500 
490.000000	 60.781145 
489.000000	 60.737538 
488.000000	 60.667562 
487.000000	 60.577106 
486.000000	 60.475611 
485.000000	 60.375308 
484.000000	 60.288476 
483.000000	 60.226154 
482.000000	 60.195803 
481.000000	 60.200953 
480.000000	 60.240077 
479.000000	 60.308027 
478.000000	 60.396862 
477.000000	 60.497045 
476.000000	 60.598015 
475.000000	 60.691380 
474.000000	 60.771727 
473.000000	 60.836291 
472.000000	 60.884070 
471.000000	 60.915565 
470.000000	 60.931348 
469.000000	 60.931873 
468.000000	 60.916638 
467.000000	 60.885882 
466.000000	 60.839891 
465.000000	 60.780334 
464.000000	 60.709428 
463.000000	 60.629749 
462.000000	 60.544109 
461.000000	 60.454916 
460.000000	 60.365819 
459.000000	 60.280513 
458.000000	 60.204792 
457.000000	 60.146832 
456.000000	 60.115003 
455.000000	 60.116648 
454.000000	 60.153698 
453.000000	 60.222649 
452.000000	 60.309982 
451.000000	 60.393810 
450.000000	 60.446977 
449.000000	 60.442447 
448.000000	 60.361313 
447.000000	 60.198211 
446.000000	 59.964466 
445.000000	 59.686470 
444.000000	 59.398913 
443.000000	 59.136962 
442.000000	 58.928036 
441.000000	 58.786630 
440.000000	 58.710670 
439.000000	 58.685588 
438.000000	 58.690476 
437.000000	 58.706402 
436.000000	 58.720755 
435.000000	 58.733010 
434.000000	 58.750128 
433.000000	 58.787322 
432.000000	 58.860707 
431.000000	 58.982443 
430.000000	 59.153175 
429.000000	 59.361910 
428.000000	 59.588408 
427.000000	 59.805274 
426.000000	 59.984540 
425.000000	 60.103368 
424.000000	 60.151171 
423.000000	 60.127782 
422.000000	 60.040903 
421.000000	 59.909963 
420.000000	 59.763026 
419.000000	 59.629917 
418.000000	 59.536528 
417.000000	 59.508657 
416.000000	 59.568381 
415.000000	 59.725499 
414.000000	 59.975957 
413.000000	 60.311508 
412.000000	 60.713148 
411.000000	 61.150622 
410.000000	 61.580634 
409.000000	 61.949276 
408.000000	 62.200450 
407.000000	 62.287282 
406.000000	 62.181377 
405.000000	 61.885905 
404.000000	 61.429333 
403.000000	 60.866856 
402.000000	 60.259103 
401.000000	 59.671807 
400.000000	 59.142637 
399.000000	 58.681797 
398.000000	 58.260059 
397.000000	 57.823085 
396.000000	 57.307553 
395.000000	 56.667232 
394.000000	 55.880713 
393.000000	 54.959297 
392.000000	 53.940248 
391.000000	 52.875947 
390.000000	 51.786851 
389.000000	 50.658535 
388.000000	 49.439668 
387.000000	 48.077678 
386.000000	 46.545529 
385.000000	 44.880437 
384.000000	 43.223619 
383.000000	 41.783547 
382.000000	 40.768480 
381.000000	 40.332746 
380.000000	 40.528845 
379.000000	 41.274833 
378.000000	 42.359042 
377.000000	 43.487596 
376.000000	 44.330954 
375.000000	 44.630575 
374.000000	 44.257831 
373.000000	 43.259787 
372.000000	 41.815996 
371.000000	 40.240669 
370.000000	 38.889002 

