PE IR       SPECTRUM    SPECTRUM    ASCII       PEDS        1.60        
  -1
BZ6F23~1.ASC
17/04/07
15:28:19.00
17/04/07
15:28:19.00
tln
$BZ1503107-1_t0027$<tbV0>[2.6,-7.8,8.0,0.0,27,1,0]
370.000000
64









2002,4.07    
MIRTGS : RIGHTBACK : INTERNAL 2
MIR : ON : INTERNAL 2
OPTKBR

0.200000
8
8.000000
FILLER
RATIO
SPECTRUM
UNLOCKED 256

DOUBLE
64
COMBINED
1
0
0


1.000000
RATIO


1
0
TRUE
51149
0
LEFT NOT FITTED RIGHT NOT FITTED 0
NONE
NONE
15600
12.000000
4.427000
51148
TRUE
1 0 8 72 0 0 0 0 

15798.010000






#HDR
-1
-1
#GR
CM-1
%T
0.00002384185791015625
0.0
5000.000000
-1.000000
4631
8
81.244802
24.918127
#DATA
5000.000000	64.905118 
4999.000000	64.675927 
4998.000000	64.468455 
4997.000000	64.296364 
4996.000000	64.167451 
4995.000000	64.084005 
4994.000000	64.044022 
4993.000000	64.042329 
4992.000000	64.072585 
4991.000000	64.127564 
4990.000000	64.200043 
4989.000000	64.280819 
4988.000000	64.361906 
4987.000000	64.435696 
4986.000000	64.496684 
4985.000000	64.541077 
4984.000000	64.567947 
4983.000000	64.578819 
4982.000000	64.576792 
4981.000000	64.565777 
4980.000000	64.549922 
4979.000000	64.532756 
4978.000000	64.517331 
4977.000000	64.505577 
4976.000000	64.499068 
4975.000000	64.498209 
4974.000000	64.503312 
4973.000000	64.513540 
4972.000000	64.526700 
4971.000000	64.539504 
4970.000000	64.548540 
4969.000000	64.550638 
4968.000000	64.543080 
4967.000000	64.524960 
4966.000000	64.498138 
4965.000000	64.465785 
4964.000000	64.431715 
4963.000000	64.399194 
4962.000000	64.370203 
4961.000000	64.345312 
4960.000000	64.323878 
4959.000000	64.304900 
4958.000000	64.287781 
4957.000000	64.273118 
4956.000000	64.262700 
4955.000000	64.258575 
4954.000000	64.262413 
4953.000000	64.274621 
4952.000000	64.294171 
4951.000000	64.317893 
4950.000000	64.341878 
4949.000000	64.362859 
4948.000000	64.379525 
4947.000000	64.393639 
4946.000000	64.409041 
4945.000000	64.431118 
4944.000000	64.463806 
4943.000000	64.508962 
4942.000000	64.563584 
4941.000000	64.619970 
4940.000000	64.666724 
4939.000000	64.691758 
4938.000000	64.685249 
4937.000000	64.642691 
4936.000000	64.566802 
4935.000000	64.467597 
4934.000000	64.360857 
4933.000000	64.264893 
4932.000000	64.196109 
4931.000000	64.165377 
4930.000000	64.175009 
4929.000000	64.218258 
4928.000000	64.281201 
4927.000000	64.346528 
4926.000000	64.397239 
4925.000000	64.421153 
4924.000000	64.413166 
4923.000000	64.376664 
4922.000000	64.321160 
4921.000000	64.260792 
4920.000000	64.209342 
4919.000000	64.178442 
4918.000000	64.175415 
4917.000000	64.202141 
4916.000000	64.256405 
4915.000000	64.331555 
4914.000000	64.419579 
4913.000000	64.510703 
4912.000000	64.595818 
4911.000000	64.666199 
4910.000000	64.713597 
4909.000000	64.731717 
4908.000000	64.716529 
4907.000000	64.668273 
4906.000000	64.591503 
4905.000000	64.495825 
4904.000000	64.394974 
4903.000000	64.304518 
4902.000000	64.239144 
4901.000000	64.209866 
4900.000000	64.221882 
4899.000000	64.273476 
4898.000000	64.356327 
4897.000000	64.457273 
4896.000000	64.560842 
4895.000000	64.651894 
4894.000000	64.718675 
4893.000000	64.753437 
4892.000000	64.755010 
4891.000000	64.727425 
4890.000000	64.680314 
4889.000000	64.625978 
4888.000000	64.577937 
4887.000000	64.548039 
4886.000000	64.544582 
4885.000000	64.572143 
4884.000000	64.629769 
4883.000000	64.712691 
4882.000000	64.812040 
4881.000000	64.916825 
4880.000000	65.015578 
4879.000000	65.098571 
4878.000000	65.158200 
4877.000000	65.189981 
4876.000000	65.192890 
4875.000000	65.169239 
4874.000000	65.124273 
4873.000000	65.065407 
4872.000000	65.001130 
4871.000000	64.939785 
4870.000000	64.889240 
4869.000000	64.855003 
4868.000000	64.839410 
4867.000000	64.841461 
4866.000000	64.856815 
4865.000000	64.880156 
4864.000000	64.906406 
4863.000000	64.932727 
4862.000000	64.958596 
4861.000000	64.985775 
4860.000000	65.017223 
4859.000000	65.054917 
4858.000000	65.098714 
4857.000000	65.144586 
4856.000000	65.185213 
4855.000000	65.210962 
4854.000000	65.212678 
4853.000000	65.183806 
4852.000000	65.122795 
4851.000000	65.033864 
4850.000000	64.926695 
4849.000000	64.814877 
4848.000000	64.713191 
4847.000000	64.634728 
4846.000000	64.588403 
4845.000000	64.577984 
4844.000000	64.601731 
4843.000000	64.653444 
4842.000000	64.723992 
4841.000000	64.802837 
4840.000000	64.880156 
4839.000000	64.947271 
4838.000000	64.998841 
4837.000000	65.032315 
4836.000000	65.048623 
4835.000000	65.050983 
4834.000000	65.044116 
4833.000000	65.033125 
4832.000000	65.022349 
4831.000000	65.014910 
4830.000000	65.011835 
4829.000000	65.012812 
4828.000000	65.016245 
4827.000000	65.020322 
4826.000000	65.024018 
4825.000000	65.027594 
4824.000000	65.032768 
4823.000000	65.042185 
4822.000000	65.058660 
4821.000000	65.084290 
4820.000000	65.119576 
4819.000000	65.162825 
4818.000000	65.210294 
4817.000000	65.256500 
4816.000000	65.295624 
4815.000000	65.322136 
4814.000000	65.331411 
4813.000000	65.320682 
4812.000000	65.289235 
4811.000000	65.239191 
4810.000000	65.175557 
4809.000000	65.105581 
4808.000000	65.037822 
4807.000000	64.980697 
4806.000000	64.941716 
4805.000000	64.925193 
4804.000000	64.931988 
4803.000000	64.958429 
4802.000000	64.997196 
4801.000000	65.038967 
4800.000000	65.074062 
4799.000000	65.095019 
4798.000000	65.097975 
4797.000000	65.083599 
4796.000000	65.056610 
4795.000000	65.024065 
4794.000000	64.993524 
4793.000000	64.970874 
4792.000000	64.959049 
4791.000000	64.957880 
4790.000000	64.964509 
4789.000000	64.975070 
4788.000000	64.985489 
4787.000000	64.992308 
4786.000000	64.993500 
4785.000000	64.988040 
4784.000000	64.976644 
4783.000000	64.960312 
4782.000000	64.941167 
4781.000000	64.921593 
4780.000000	64.904522 
4779.000000	64.893126 
4778.000000	64.890575 
4777.000000	64.899635 
4776.000000	64.921832 
4775.000000	64.956903 
4774.000000	65.002441 
4773.000000	65.054059 
4772.000000	65.106081 
4771.000000	65.152573 
4770.000000	65.188360 
4769.000000	65.210223 
4768.000000	65.217041 
4767.000000	65.210056 
4766.000000	65.192317 
4765.000000	65.168309 
4764.000000	65.143370 
4763.000000	65.122938 
4762.000000	65.112161 
4761.000000	65.115261 
4760.000000	65.134906 
4759.000000	65.171647 
4758.000000	65.223765 
4757.000000	65.287184 
4756.000000	65.356445 
4755.000000	65.424895 
4754.000000	65.485906 
4753.000000	65.533208 
4752.000000	65.562033 
4751.000000	65.569591 
4750.000000	65.555548 
4749.000000	65.522217 
4748.000000	65.474128 
4747.000000	65.417671 
4746.000000	65.360188 
4745.000000	65.309095 
4744.000000	65.270900 
4743.000000	65.250420 
4742.000000	65.250062 
4741.000000	65.269851 
4740.000000	65.307283 
4739.000000	65.357518 
4738.000000	65.414190 
4737.000000	65.470290 
4736.000000	65.519142 
4735.000000	65.554809 
4734.000000	65.572619 
4733.000000	65.569400 
4732.000000	65.543985 
4731.000000	65.497255 
4730.000000	65.432620 
4729.000000	65.356326 
4728.000000	65.276455 
4727.000000	65.202522 
4726.000000	65.143179 
4725.000000	65.105271 
4724.000000	65.092086 
4723.000000	65.102291 
4722.000000	65.131163 
4721.000000	65.171837 
4720.000000	65.217018 
4719.000000	65.260457 
4718.000000	65.298581 
4717.000000	65.330457 
4716.000000	65.357589 
4715.000000	65.382266 
4714.000000	65.406084 
4713.000000	65.428709 
4712.000000	65.447854 
4711.000000	65.459609 
4710.000000	65.460133 
4709.000000	65.446710 
4708.000000	65.419316 
4707.000000	65.380573 
4706.000000	65.335130 
4705.000000	65.288472 
4704.000000	65.245389 
4703.000000	65.209150 
4702.000000	65.181159 
4701.000000	65.160846 
4700.000000	65.147066 
4699.000000	65.137743 
4698.000000	65.130591 
4697.000000	65.123581 
4696.000000	65.114879 
4695.000000	65.103483 
4694.000000	65.088820 
4693.000000	65.071439 
4692.000000	65.052461 
4691.000000	65.033984 
4690.000000	65.018558 
4689.000000	65.008521 
4688.000000	65.005660 
4687.000000	65.009856 
4686.000000	65.019154 
4685.000000	65.029859 
4684.000000	65.037536 
4683.000000	65.038204 
4682.000000	65.029597 
4681.000000	65.012145 
4680.000000	64.988970 
4679.000000	64.964723 
4678.000000	64.944791 
4677.000000	64.933538 
4676.000000	64.933633 
4675.000000	64.945745 
4674.000000	64.967870 
4673.000000	64.997243 
4672.000000	65.029382 
4671.000000	65.059685 
4670.000000	65.083217 
4669.000000	65.095353 
4668.000000	65.092515 
4667.000000	65.072631 
4666.000000	65.036129 
4665.000000	64.985752 
4664.000000	64.927721 
4663.000000	64.871048 
4662.000000	64.826178 
4661.000000	64.802908 
4660.000000	64.808273 
4659.000000	64.844751 
4658.000000	64.909172 
4657.000000	64.993214 
4656.000000	65.085506 
4655.000000	65.174341 
4654.000000	65.250158 
4653.000000	65.307450 
4652.000000	65.345358 
4651.000000	65.366649 
4650.000000	65.376377 
4649.000000	65.379238 
4648.000000	65.378165 
4647.000000	65.372753 
4646.000000	65.361046 
4645.000000	65.338993 
4644.000000	65.303468 
4643.000000	65.252327 
4642.000000	65.187215 
4641.000000	65.111517 
4640.000000	65.030503 
4639.000000	64.949178 
4638.000000	64.871406 
4637.000000	64.799094 
4636.000000	64.732313 
4635.000000	64.669728 
4634.000000	64.609861 
4633.000000	64.551830 
4632.000000	64.496397 
4631.000000	64.445447 
4630.000000	64.401912 
4629.000000	64.368748 
4628.000000	64.348697 
4627.000000	64.342784 
4626.000000	64.350724 
4625.000000	64.370846 
4624.000000	64.400911 
4623.000000	64.437556 
4622.000000	64.477610 
4621.000000	64.518141 
4620.000000	64.557337 
4619.000000	64.593696 
4618.000000	64.627122 
4617.000000	64.658522 
4616.000000	64.689826 
4615.000000	64.723825 
4614.000000	64.762234 
4613.000000	64.805507 
4612.000000	64.851427 
4611.000000	64.896106 
4610.000000	64.933228 
4609.000000	64.955520 
4608.000000	64.956617 
4607.000000	64.933180 
4606.000000	64.885210 
4605.000000	64.816451 
4604.000000	64.734268 
4603.000000	64.648103 
4602.000000	64.567279 
4601.000000	64.499092 
4600.000000	64.447999 
4599.000000	64.414787 
4598.000000	64.397048 
4597.000000	64.390087 
4596.000000	64.388608 
4595.000000	64.387822 
4594.000000	64.384126 
4593.000000	64.375877 
4592.000000	64.361977 
4591.000000	64.343333 
4590.000000	64.321351 
4589.000000	64.298915 
4588.000000	64.278674 
4587.000000	64.264440 
4586.000000	64.260363 
4585.000000	64.270257 
4584.000000	64.296460 
4583.000000	64.339113 
4582.000000	64.395904 
4581.000000	64.461612 
4580.000000	64.528775 
4579.000000	64.589357 
4578.000000	64.636254 
4577.000000	64.665412 
4576.000000	64.676570 
4575.000000	64.673233 
4574.000000	64.661455 
4573.000000	64.648938 
4572.000000	64.642405 
4571.000000	64.645838 
4570.000000	64.659118 
4569.000000	64.679265 
4568.000000	64.700436 
4567.000000	64.716339 
4566.000000	64.721155 
4565.000000	64.711737 
4564.000000	64.687323 
4563.000000	64.650058 
4562.000000	64.603424 
4561.000000	64.551115 
4560.000000	64.496231 
4559.000000	64.440774 
4558.000000	64.385867 
4557.000000	64.332056 
4556.000000	64.280605 
4555.000000	64.233922 
4554.000000	64.195704 
4553.000000	64.170169 
4552.000000	64.161944 
4551.000000	64.174723 
4550.000000	64.210176 
4549.000000	64.267253 
4548.000000	64.342498 
4547.000000	64.430308 
4546.000000	64.523625 
4545.000000	64.614677 
4544.000000	64.696431 
4543.000000	64.762544 
4542.000000	64.808416 
4541.000000	64.830780 
4540.000000	64.827942 
4539.000000	64.799714 
4538.000000	64.748048 
4537.000000	64.676570 
4536.000000	64.591503 
4535.000000	64.499831 
4534.000000	64.410066 
4533.000000	64.329171 
4532.000000	64.262294 
4531.000000	64.211392 
4530.000000	64.175081 
4529.000000	64.149618 
4528.000000	64.129853 
4527.000000	64.111447 
4526.000000	64.092063 
4525.000000	64.071869 
4524.000000	64.053344 
4523.000000	64.040088 
4522.000000	64.035439 
4521.000000	64.041519 
4520.000000	64.058303 
4519.000000	64.083456 
4518.000000	64.112854 
4517.000000	64.141821 
4516.000000	64.166402 
4515.000000	64.183902 
4514.000000	64.193582 
4513.000000	64.196801 
4512.000000	64.196133 
4511.000000	64.193964 
4510.000000	64.191722 
4509.000000	64.189338 
4508.000000	64.185190 
4507.000000	64.176940 
4506.000000	64.162635 
4505.000000	64.141702 
4504.000000	64.115762 
4503.000000	64.089274 
4502.000000	64.067244 
4501.000000	64.054131 
4500.000000	64.052295 
4499.000000	64.061379 
4498.000000	64.077901 
4497.000000	64.096188 
4496.000000	64.110016 
4495.000000	64.114356 
4494.000000	64.105772 
4493.000000	64.083647 
4492.000000	64.050531 
4491.000000	64.011526 
4490.000000	63.972282 
4489.000000	63.937926 
4488.000000	63.912582 
4487.000000	63.897871 
4486.000000	63.892865 
4485.000000	63.894343 
4484.000000	63.897013 
4483.000000	63.896179 
4482.000000	63.889050 
4481.000000	63.876008 
4480.000000	63.859844 
4479.000000	63.845944 
4478.000000	63.840746 
4477.000000	63.849616 
4476.000000	63.875079 
4475.000000	63.915729 
4474.000000	63.966369 
4473.000000	64.018774 
4472.000000	64.063882 
4471.000000	64.094209 
4470.000000	64.106082 
4469.000000	64.102578 
4468.000000	64.093565 
4467.000000	64.092993 
4466.000000	64.115810 
4465.000000	64.175486 
4464.000000	64.279437 
4463.000000	64.426898 
4462.000000	64.606261 
4461.000000	64.800310 
4460.000000	64.985275 
4459.000000	65.133047 
4458.000000	65.217781 
4457.000000	65.223002 
4456.000000	65.144824 
4455.000000	64.991235 
4454.000000	64.782977 
4453.000000	64.557456 
4452.000000	64.349603 
4451.000000	64.180541 
4450.000000	64.058279 
4449.000000	63.976144 
4448.000000	63.922524 
4447.000000	63.889765 
4446.000000	63.874363 
4445.000000	63.877487 
4444.000000	63.911914 
4443.000000	63.998436 
4442.000000	64.151167 
4441.000000	64.372777 
4440.000000	64.653944 
4439.000000	64.975881 
4438.000000	65.313529 
4437.000000	65.643930 
4436.000000	65.953922 
4435.000000	66.243124 
4434.000000	66.518998 
4433.000000	66.799855 
4432.000000	67.091321 
4431.000000	67.411494 
4430.000000	67.766571 
4429.000000	68.189120 
4428.000000	68.742346 
4427.000000	69.501137 
4426.000000	70.557713 
4425.000000	71.942090 
4424.000000	73.612809 
4423.000000	75.408673 
4422.000000	77.075028 
4421.000000	78.298354 
4420.000000	78.783845 
4419.000000	78.327679 
4418.000000	76.884078 
4417.000000	74.576568 
4416.000000	71.684718 
4415.000000	68.585491 
4414.000000	65.678405 
4413.000000	63.314294 
4412.000000	61.728692 
4411.000000	61.014866 
4410.000000	61.115980 
4409.000000	61.857032 
4408.000000	62.994146 
4407.000000	64.259576 
4406.000000	65.430212 
4405.000000	66.348743 
4404.000000	66.957259 
4403.000000	67.257905 
4402.000000	67.317676 
4401.000000	67.218160 
4400.000000	67.041325 
4399.000000	66.843128 
4398.000000	66.647863 
4397.000000	66.463541 
4396.000000	66.277384 
4395.000000	66.082835 
4394.000000	65.873003 
4393.000000	65.654301 
4392.000000	65.436744 
4391.000000	65.231347 
4390.000000	65.050935 
4389.000000	64.906311 
4388.000000	64.805269 
4387.000000	64.751052 
4386.000000	64.739942 
4385.000000	64.762163 
4384.000000	64.807391 
4383.000000	64.865922 
4382.000000	64.920735 
4381.000000	64.955711 
4380.000000	64.965391 
4379.000000	64.951896 
4378.000000	64.920973 
4377.000000	64.880681 
4376.000000	64.836668 
4375.000000	64.791655 
4374.000000	64.748668 
4373.000000	64.706921 
4372.000000	64.661383 
4371.000000	64.606618 
4370.000000	64.539837 
4369.000000	64.462089 
4368.000000	64.379572 
4367.000000	64.301633 
4366.000000	64.238095 
4365.000000	64.197039 
4364.000000	64.182615 
4363.000000	64.192414 
4362.000000	64.217901 
4361.000000	64.246773 
4360.000000	64.266276 
4359.000000	64.266037 
4358.000000	64.241170 
4357.000000	64.193820 
4356.000000	64.132976 
4355.000000	64.071035 
4354.000000	64.021301 
4353.000000	63.994264 
4352.000000	63.995432 
4351.000000	64.024257 
4350.000000	64.074802 
4349.000000	64.138245 
4348.000000	64.204907 
4347.000000	64.266920 
4346.000000	64.319491 
4345.000000	64.361262 
4344.000000	64.393377 
4343.000000	64.417362 
4342.000000	64.434194 
4341.000000	64.443445 
4340.000000	64.443087 
4339.000000	64.430403 
4338.000000	64.403247 
4337.000000	64.361906 
4336.000000	64.308643 
4335.000000	64.247870 
4334.000000	64.185500 
4333.000000	64.128041 
4332.000000	64.081072 
4331.000000	64.048552 
4330.000000	64.032554 
4329.000000	64.033603 
4328.000000	64.050865 
4327.000000	64.082837 
4326.000000	64.127206 
4325.000000	64.181280 
4324.000000	64.241385 
4323.000000	64.303445 
4322.000000	64.362597 
4321.000000	64.414191 
4320.000000	64.454007 
4319.000000	64.479255 
4318.000000	64.489030 
4317.000000	64.484453 
4316.000000	64.468359 
4315.000000	64.444637 
4314.000000	64.417457 
4313.000000	64.390945 
4312.000000	64.368963 
4311.000000	64.354658 
4310.000000	64.350366 
4309.000000	64.357757 
4308.000000	64.377760 
4307.000000	64.410138 
4306.000000	64.453244 
4305.000000	64.504170 
4304.000000	64.559006 
4303.000000	64.613151 
4302.000000	64.662265 
4301.000000	64.702963 
4300.000000	64.733409 
4299.000000	64.753794 
4298.000000	64.765715 
4297.000000	64.771652 
4296.000000	64.774036 
4295.000000	64.774727 
4294.000000	64.774751 
4293.000000	64.774703 
4292.000000	64.774632 
4291.000000	64.775180 
4290.000000	64.776515 
4289.000000	64.779114 
4288.000000	64.782309 
4287.000000	64.784693 
4286.000000	64.783525 
4285.000000	64.775252 
4284.000000	64.756131 
4283.000000	64.723467 
4282.000000	64.676332 
4281.000000	64.616131 
4280.000000	64.547157 
4279.000000	64.475727 
4278.000000	64.409017 
4277.000000	64.353585 
4276.000000	64.313864 
4275.000000	64.291453 
4274.000000	64.284896 
4273.000000	64.290618 
4272.000000	64.303374 
4271.000000	64.318513 
4270.000000	64.332485 
4269.000000	64.344549 
4268.000000	64.355540 
4267.000000	64.368462 
4266.000000	64.386725 
4265.000000	64.413523 
4264.000000	64.450383 
4263.000000	64.496564 
4262.000000	64.548826 
4261.000000	64.602184 
4260.000000	64.651322 
4259.000000	64.691615 
4258.000000	64.720606 
4257.000000	64.738297 
4256.000000	64.747166 
4255.000000	64.751005 
4254.000000	64.753961 
4253.000000	64.759206 
4252.000000	64.768171 
4251.000000	64.780306 
4250.000000	64.793252 
4249.000000	64.804363 
4248.000000	64.811277 
4247.000000	64.812922 
4246.000000	64.809465 
4245.000000	64.802670 
4244.000000	64.794969 
4243.000000	64.788651 
4242.000000	64.785575 
4241.000000	64.786362 
4240.000000	64.790987 
4239.000000	64.799237 
4238.000000	64.810729 
4237.000000	64.825654 
4236.000000	64.843893 
4235.000000	64.865016 
4234.000000	64.887547 
4233.000000	64.908766 
4232.000000	64.925050 
4231.000000	64.932560 
4230.000000	64.928269 
4229.000000	64.911031 
4228.000000	64.882373 
4227.000000	64.846634 
4226.000000	64.809989 
4225.000000	64.779090 
4224.000000	64.759230 
4223.000000	64.752864 
4222.000000	64.759063 
4221.000000	64.773511 
4220.000000	64.790034 
4219.000000	64.802050 
4218.000000	64.804291 
4217.000000	64.794564 
4216.000000	64.774298 
4215.000000	64.748525 
4214.000000	64.723753 
4213.000000	64.706921 
4212.000000	64.703965 
4211.000000	64.718270 
4210.000000	64.749979 
4209.000000	64.796161 
4208.000000	64.851784 
4207.000000	64.910411 
4206.000000	64.965772 
4205.000000	65.012621 
4204.000000	65.047621 
4203.000000	65.069723 
4202.000000	65.079927 
4201.000000	65.081429 
4200.000000	65.078401 
4199.000000	65.075850 
4198.000000	65.078043 
4197.000000	65.087842 
4196.000000	65.105605 
4195.000000	65.129375 
4194.000000	65.154671 
4193.000000	65.175294 
4192.000000	65.184211 
4191.000000	65.175557 
4190.000000	65.145468 
4189.000000	65.093231 
4188.000000	65.021181 
4187.000000	64.934754 
4186.000000	64.841222 
4185.000000	64.748263 
4184.000000	64.663004 
4183.000000	64.590716 
4182.000000	64.534759 
4181.000000	64.496302 
4180.000000	64.474940 
4179.000000	64.469051 
4178.000000	64.476609 
4177.000000	64.495277 
4176.000000	64.522814 
4175.000000	64.556670 
4174.000000	64.594411 
4173.000000	64.633679 
4172.000000	64.672446 
4171.000000	64.708948 
4170.000000	64.742279 
4169.000000	64.772248 
4168.000000	64.799237 
4167.000000	64.823722 
4166.000000	64.845919 
4165.000000	64.865446 
4164.000000	64.881372 
4163.000000	64.892697 
4162.000000	64.899396 
4161.000000	64.902186 
4160.000000	64.903497 
4159.000000	64.906096 
4158.000000	64.912748 
4157.000000	64.924979 
4156.000000	64.942646 
4155.000000	64.963722 
4154.000000	64.984655 
4153.000000	65.002059 
4152.000000	65.013599 
4151.000000	65.019249 
4150.000000	65.021467 
4149.000000	65.024781 
4148.000000	65.034770 
4147.000000	65.056109 
4146.000000	65.091180 
4145.000000	65.139079 
4144.000000	65.195345 
4143.000000	65.253114 
4142.000000	65.304231 
4141.000000	65.341520 
4140.000000	65.360093 
4139.000000	65.357923 
4138.000000	65.336251 
4137.000000	65.298771 
4136.000000	65.250897 
4135.000000	65.198945 
4134.000000	65.148854 
4133.000000	65.105748 
4132.000000	65.072846 
4131.000000	65.051865 
4130.000000	65.042304 
4129.000000	65.042161 
4128.000000	65.048050 
4127.000000	65.056061 
4126.000000	65.062689 
4125.000000	65.064835 
4124.000000	65.060949 
4123.000000	65.050864 
4122.000000	65.036296 
4121.000000	65.019941 
4120.000000	65.005707 
4119.000000	64.997768 
4118.000000	65.000057 
4117.000000	65.015292 
4116.000000	65.045046 
4115.000000	65.089178 
4114.000000	65.145730 
4113.000000	65.210723 
4112.000000	65.278792 
4111.000000	65.343475 
4110.000000	65.398192 
4109.000000	65.437030 
4108.000000	65.455937 
4107.000000	65.453314 
4106.000000	65.430617 
4105.000000	65.391755 
4104.000000	65.342235 
4103.000000	65.288257 
4102.000000	65.236020 
4101.000000	65.190291 
4100.000000	65.154027 
4099.000000	65.128445 
4098.000000	65.113544 
4097.000000	65.108084 
4096.000000	65.110397 
4095.000000	65.118360 
4094.000000	65.129637 
4093.000000	65.141224 
4092.000000	65.149784 
4091.000000	65.151762 
4090.000000	65.144014 
4089.000000	65.124845 
4088.000000	65.094614 
4087.000000	65.056347 
4086.000000	65.015506 
4085.000000	64.978909 
4084.000000	64.953470 
4083.000000	64.944124 
4082.000000	64.952778 
4081.000000	64.977812 
4080.000000	65.014147 
4079.000000	65.054273 
4078.000000	65.090203 
4077.000000	65.115213 
4076.000000	65.125465 
4075.000000	65.120458 
4074.000000	65.103006 
4073.000000	65.078210 
4072.000000	65.052247 
4071.000000	65.030622 
4070.000000	65.017008 
4069.000000	65.012240 
4068.000000	65.015053 
4067.000000	65.023016 
4066.000000	65.033531 
4065.000000	65.044784 
4064.000000	65.056395 
4063.000000	65.069198 
4062.000000	65.084362 
4061.000000	65.102910 
4060.000000	65.124440 
4059.000000	65.147256 
4058.000000	65.168690 
4057.000000	65.185856 
4056.000000	65.196776 
4055.000000	65.200519 
4054.000000	65.197730 
4053.000000	65.189981 
4052.000000	65.179371 
4051.000000	65.167665 
4050.000000	65.155577 
4049.000000	65.143299 
4048.000000	65.130209 
4047.000000	65.116238 
4046.000000	65.102505 
4045.000000	65.091538 
4044.000000	65.086984 
4043.000000	65.092468 
4042.000000	65.110588 
4041.000000	65.141558 
4040.000000	65.182781 
4039.000000	65.229058 
4038.000000	65.273737 
4037.000000	65.310168 
4036.000000	65.333366 
4035.000000	65.340971 
4034.000000	65.333843 
4033.000000	65.315318 
4032.000000	65.290594 
4031.000000	65.265393 
4030.000000	65.244460 
4029.000000	65.231060 
4028.000000	65.225815 
4027.000000	65.227246 
4026.000000	65.231990 
4025.000000	65.236234 
4024.000000	65.236330 
4023.000000	65.229797 
4022.000000	65.215873 
4021.000000	65.195536 
4020.000000	65.171289 
4019.000000	65.146398 
4018.000000	65.124297 
4017.000000	65.107679 
4016.000000	65.098142 
4015.000000	65.095663 
4014.000000	65.098953 
4013.000000	65.105795 
4012.000000	65.113711 
4011.000000	65.120387 
4010.000000	65.124297 
4009.000000	65.124869 
4008.000000	65.122318 
4007.000000	65.117311 
4006.000000	65.110445 
4005.000000	65.102267 
4004.000000	65.093231 
4003.000000	65.084004 
4002.000000	65.075325 
4001.000000	65.068316 
4000.000000	65.064215 
3999.000000	65.064167 
3998.000000	65.069127 
3997.000000	65.079402 
3996.000000	65.094375 
3995.000000	65.112423 
3994.000000	65.131282 
3993.000000	65.148258 
3992.000000	65.160655 
3991.000000	65.166568 
3990.000000	65.165138 
3989.000000	65.157103 
3988.000000	65.144681 
3987.000000	65.131425 
3986.000000	65.121436 
3985.000000	65.118598 
3984.000000	65.125727 
3983.000000	65.143775 
3982.000000	65.171599 
3981.000000	65.205883 
3980.000000	65.241599 
3979.000000	65.273046 
3978.000000	65.294861 
3977.000000	65.303349 
3976.000000	65.297222 
3975.000000	65.277791 
3974.000000	65.248894 
3973.000000	65.215682 
3972.000000	65.183973 
3971.000000	65.158843 
3970.000000	65.143752 
3969.000000	65.140533 
3968.000000	65.148711 
3967.000000	65.166234 
3966.000000	65.189647 
3965.000000	65.214872 
3964.000000	65.237760 
3963.000000	65.254473 
3962.000000	65.262317 
3961.000000	65.259742 
3960.000000	65.246796 
3959.000000	65.224790 
3958.000000	65.196490 
3957.000000	65.165519 
3956.000000	65.135884 
3955.000000	65.111160 
3954.000000	65.093541 
3953.000000	65.083765 
3952.000000	65.080881 
3951.000000	65.082669 
3950.000000	65.086555 
3949.000000	65.089941 
3948.000000	65.091276 
3947.000000	65.089797 
3946.000000	65.085911 
3945.000000	65.080547 
3944.000000	65.074443 
3943.000000	65.068197 
3942.000000	65.061640 
3941.000000	65.054464 
3940.000000	65.046477 
3939.000000	65.037703 
3938.000000	65.028929 
3937.000000	65.021276 
3936.000000	65.016245 
3935.000000	65.014886 
3934.000000	65.017390 
3933.000000	65.023112 
3932.000000	65.030503 
3931.000000	65.038013 
3930.000000	65.044641 
3929.000000	65.050601 
3928.000000	65.057229 
3927.000000	65.066576 
3926.000000	65.080404 
3925.000000	65.099573 
3924.000000	65.123295 
3923.000000	65.148806 
3922.000000	65.172052 
3921.000000	65.188574 
3920.000000	65.194964 
3919.000000	65.189909 
3918.000000	65.174508 
3917.000000	65.152359 
3916.000000	65.128254 
3915.000000	65.107059 
3914.000000	65.092396 
3913.000000	65.085577 
3912.000000	65.085673 
3911.000000	65.090179 
3910.000000	65.095901 
3909.000000	65.100145 
3908.000000	65.101432 
3907.000000	65.099954 
3906.000000	65.097260 
3905.000000	65.095496 
3904.000000	65.097188 
3903.000000	65.104126 
3902.000000	65.117287 
3901.000000	65.136384 
3900.000000	65.160083 
3899.000000	65.186071 
3898.000000	65.211629 
3897.000000	65.233922 
3896.000000	65.250396 
3895.000000	65.259051 
3894.000000	65.258932 
3893.000000	65.249943 
3892.000000	65.233182 
3891.000000	65.210723 
3890.000000	65.185284 
3889.000000	65.159463 
3888.000000	65.135550 
3887.000000	65.114617 
3886.000000	65.096640 
3885.000000	65.080451 
3884.000000	65.064287 
3883.000000	65.046453 
3882.000000	65.025997 
3881.000000	65.003204 
3880.000000	64.979505 
3879.000000	64.957189 
3878.000000	64.938998 
3877.000000	64.927363 
3876.000000	64.923787 
3875.000000	64.928436 
3874.000000	64.940118 
3873.000000	64.956378 
3872.000000	64.974117 
3871.000000	64.990115 
3870.000000	65.002012 
3869.000000	65.008473 
3868.000000	65.009593 
3867.000000	65.006303 
3866.000000	65.000271 
3865.000000	64.993309 
3864.000000	64.986944 
3863.000000	64.981889 
3862.000000	64.978194 
3861.000000	64.975571 
3860.000000	64.973354 
3859.000000	64.971232 
3858.000000	64.969110 
3857.000000	64.967513 
3856.000000	64.967298 
3855.000000	64.969277 
3854.000000	64.974093 
3853.000000	64.981675 
3852.000000	64.991521 
3851.000000	65.002822 
3850.000000	65.014743 
3849.000000	65.026783 
3848.000000	65.039134 
3847.000000	65.052366 
3846.000000	65.067291 
3845.000000	65.084266 
3844.000000	65.102958 
3843.000000	65.122008 
3842.000000	65.139341 
3841.000000	65.152406 
3840.000000	65.158987 
3839.000000	65.157580 
3838.000000	65.147638 
3837.000000	65.129828 
3836.000000	65.106105 
3835.000000	65.078830 
3834.000000	65.050387 
3833.000000	65.022397 
3832.000000	64.996170 
3831.000000	64.972066 
3830.000000	64.949917 
3829.000000	64.929270 
3828.000000	64.909958 
3827.000000	64.891982 
3826.000000	64.875555 
3825.000000	64.861083 
3824.000000	64.848852 
3823.000000	64.839053 
3822.000000	64.831542 
3821.000000	64.825820 
3820.000000	64.821100 
3819.000000	64.816498 
3818.000000	64.811325 
3817.000000	64.804911 
3816.000000	64.797091 
3815.000000	64.788770 
3814.000000	64.781999 
3813.000000	64.779424 
3812.000000	64.784240 
3811.000000	64.799308 
3810.000000	64.827060 
3809.000000	64.868211 
3808.000000	64.921951 
3807.000000	64.985394 
3806.000000	65.054345 
3805.000000	65.123963 
3804.000000	65.189599 
3803.000000	65.247178 
3802.000000	65.294170 
3801.000000	65.329885 
3800.000000	65.354943 
3799.000000	65.370726 
3798.000000	65.378832 
3797.000000	65.380740 
3796.000000	65.376949 
3795.000000	65.367102 
3794.000000	65.350294 
3793.000000	65.325570 
3792.000000	65.291905 
3791.000000	65.248942 
3790.000000	65.197205 
3789.000000	65.138721 
3788.000000	65.076804 
3787.000000	65.016222 
3786.000000	64.962124 
3785.000000	64.920020 
3784.000000	64.894509 
3783.000000	64.888882 
3782.000000	64.903950 
3781.000000	64.938235 
3780.000000	64.988303 
3779.000000	65.049099 
3778.000000	65.114593 
3777.000000	65.178871 
3776.000000	65.236520 
3775.000000	65.283775 
3774.000000	65.318059 
3773.000000	65.339016 
3772.000000	65.348100 
3771.000000	65.348148 
3770.000000	65.342760 
3769.000000	65.335774 
3768.000000	65.330696 
3767.000000	65.330004 
3766.000000	65.334773 
3765.000000	65.344381 
3764.000000	65.356492 
3763.000000	65.368032 
3762.000000	65.375447 
3761.000000	65.375399 
3760.000000	65.365695 
3759.000000	65.345644 
3758.000000	65.316390 
3757.000000	65.280270 
3756.000000	65.240669 
3755.000000	65.201330 
3754.000000	65.166115 
3753.000000	65.138101 
3752.000000	65.119791 
3751.000000	65.112543 
3750.000000	65.116262 
3749.000000	65.129780 
3748.000000	65.150237 
3747.000000	65.173768 
3746.000000	65.195608 
3745.000000	65.211129 
3744.000000	65.216469 
3743.000000	65.209054 
3742.000000	65.188503 
3741.000000	65.156793 
3740.000000	65.118074 
3739.000000	65.078139 
3738.000000	65.043568 
3737.000000	65.020322 
3736.000000	65.012788 
3735.000000	65.022754 
3734.000000	65.049147 
3733.000000	65.088057 
3732.000000	65.133357 
3731.000000	65.177869 
3730.000000	65.214586 
3729.000000	65.237951 
3728.000000	65.244746 
3727.000000	65.234994 
3726.000000	65.211415 
3725.000000	65.179204 
3724.000000	65.145039 
3723.000000	65.115547 
3722.000000	65.096163 
3721.000000	65.090250 
3720.000000	65.098786 
3719.000000	65.120530 
3718.000000	65.152740 
3717.000000	65.191745 
3716.000000	65.233731 
3715.000000	65.275263 
3714.000000	65.313529 
3713.000000	65.346097 
3712.000000	65.370965 
3711.000000	65.386295 
3710.000000	65.390610 
3709.000000	65.383148 
3708.000000	65.364217 
3707.000000	65.335440 
3706.000000	65.299701 
3705.000000	65.261411 
3704.000000	65.225577 
3703.000000	65.197062 
3702.000000	65.179538 
3701.000000	65.174937 
3700.000000	65.182971 
3699.000000	65.201401 
3698.000000	65.226268 
3697.000000	65.252804 
3696.000000	65.276384 
3695.000000	65.293025 
3694.000000	65.300440 
3693.000000	65.297961 
3692.000000	65.286636 
3691.000000	65.268635 
3690.000000	65.247273 
3689.000000	65.225911 
3688.000000	65.207672 
3687.000000	65.194725 
3686.000000	65.188145 
3685.000000	65.187954 
3684.000000	65.193176 
3683.000000	65.202593 
3682.000000	65.214419 
3681.000000	65.227222 
3680.000000	65.240263 
3679.000000	65.253520 
3678.000000	65.267324 
3677.000000	65.282416 
3676.000000	65.299272 
3675.000000	65.318155 
3674.000000	65.338468 
3673.000000	65.359234 
3672.000000	65.378952 
3671.000000	65.396308 
3670.000000	65.410184 
3669.000000	65.420103 
3668.000000	65.426421 
3667.000000	65.430116 
3666.000000	65.432620 
3665.000000	65.435194 
3664.000000	65.438938 
3663.000000	65.444302 
3662.000000	65.451240 
3661.000000	65.459251 
3660.000000	65.467500 
3659.000000	65.475177 
3658.000000	65.481400 
3657.000000	65.485024 
3656.000000	65.484690 
3655.000000	65.478944 
3654.000000	65.466475 
3653.000000	65.446543 
3652.000000	65.418910 
3651.000000	65.384697 
3650.000000	65.345597 
3649.000000	65.304040 
3648.000000	65.262174 
3647.000000	65.221595 
3646.000000	65.183186 
3645.000000	65.147042 
3644.000000	65.113210 
3643.000000	65.081596 
3642.000000	65.053105 
3641.000000	65.029931 
3640.000000	65.015029 
3639.000000	65.011477 
3638.000000	65.021419 
3637.000000	65.045189 
3636.000000	65.080595 
3635.000000	65.122795 
3634.000000	65.165638 
3633.000000	65.202689 
3632.000000	65.228915 
3631.000000	65.242004 
3630.000000	65.242552 
3629.000000	65.234136 
3628.000000	65.222048 
3627.000000	65.212059 
3626.000000	65.208792 
3625.000000	65.214681 
3624.000000	65.229892 
3623.000000	65.251946 
3622.000000	65.276956 
3621.000000	65.300178 
3620.000000	65.317821 
3619.000000	65.327310 
3618.000000	65.327429 
3617.000000	65.318608 
3616.000000	65.302419 
3615.000000	65.281128 
3614.000000	65.257000 
3613.000000	65.232181 
3612.000000	65.208554 
3611.000000	65.187573 
3610.000000	65.170359 
3609.000000	65.157604 
3608.000000	65.149784 
3607.000000	65.146899 
3606.000000	65.148901 
3605.000000	65.155100 
3604.000000	65.164422 
3603.000000	65.175724 
3602.000000	65.187954 
3601.000000	65.200114 
3600.000000	65.211534 
3599.000000	65.222191 
3598.000000	65.232849 
3597.000000	65.244603 
3596.000000	65.258526 
3595.000000	65.275454 
3594.000000	65.295433 
3593.000000	65.317893 
3592.000000	65.341162 
3591.000000	65.362954 
3590.000000	65.380334 
3589.000000	65.391039 
3588.000000	65.393042 
3587.000000	65.385484 
3586.000000	65.368390 
3585.000000	65.343165 
3584.000000	65.311598 
3583.000000	65.275859 
3582.000000	65.237760 
3581.000000	65.198850 
3580.000000	65.160059 
3579.000000	65.121889 
3578.000000	65.084648 
3577.000000	65.048766 
3576.000000	65.014791 
3575.000000	64.983582 
3574.000000	64.956021 
3573.000000	64.932942 
3572.000000	64.914679 
3571.000000	64.901494 
3570.000000	64.892745 
3569.000000	64.887833 
3568.000000	64.886116 
3567.000000	64.887666 
3566.000000	64.892888 
3565.000000	64.902997 
3564.000000	64.919590 
3563.000000	64.944219 
3562.000000	64.977645 
3561.000000	65.019011 
3560.000000	65.065860 
3559.000000	65.113782 
3558.000000	65.157103 
3557.000000	65.189838 
3556.000000	65.206837 
3555.000000	65.204882 
3554.000000	65.183854 
3553.000000	65.146541 
3552.000000	65.098071 
3551.000000	65.045523 
3550.000000	64.996266 
3549.000000	64.956617 
3548.000000	64.930438 
3547.000000	64.919090 
3546.000000	64.921140 
3545.000000	64.932775 
3544.000000	64.949250 
3543.000000	64.965629 
3542.000000	64.978528 
3541.000000	64.986157 
3540.000000	64.989113 
3539.000000	64.989328 
3538.000000	64.989757 
3537.000000	64.993000 
3536.000000	65.000820 
3535.000000	65.013217 
3534.000000	65.028810 
3533.000000	65.045523 
3532.000000	65.061306 
3531.000000	65.074706 
3530.000000	65.085649 
3529.000000	65.095424 
3528.000000	65.106201 
3527.000000	65.120148 
3526.000000	65.138769 
3525.000000	65.162038 
3524.000000	65.188288 
3523.000000	65.214371 
3522.000000	65.236520 
3521.000000	65.251183 
3520.000000	65.256094 
3519.000000	65.251064 
3518.000000	65.237641 
3517.000000	65.218806 
3516.000000	65.198469 
3515.000000	65.180158 
3514.000000	65.166568 
3513.000000	65.158390 
3512.000000	65.155029 
3511.000000	65.154147 
3510.000000	65.152859 
3509.000000	65.148282 
3508.000000	65.138196 
3507.000000	65.121698 
3506.000000	65.099143 
3505.000000	65.072131 
3504.000000	65.043115 
3503.000000	65.014958 
3502.000000	64.990377 
3501.000000	64.971470 
3500.000000	64.959454 
3499.000000	64.954352 
3498.000000	64.955139 
3497.000000	64.959883 
3496.000000	64.966344 
3495.000000	64.972519 
3494.000000	64.977240 
3493.000000	64.979958 
3492.000000	64.980864 
3491.000000	64.980792 
3490.000000	64.980769 
3489.000000	64.981293 
3488.000000	64.982461 
3487.000000	64.983630 
3486.000000	64.984178 
3485.000000	64.983463 
3484.000000	64.981627 
3483.000000	64.979529 
3482.000000	64.978885 
3481.000000	64.981794 
3480.000000	64.990186 
3479.000000	65.005111 
3478.000000	65.026426 
3477.000000	65.052700 
3476.000000	65.081787 
3475.000000	65.111255 
3474.000000	65.139269 
3473.000000	65.164804 
3472.000000	65.187239 
3471.000000	65.206098 
3470.000000	65.220570 
3469.000000	65.229177 
3468.000000	65.229940 
3467.000000	65.220665 
3466.000000	65.200018 
3465.000000	65.167999 
3464.000000	65.126609 
3463.000000	65.079474 
3462.000000	65.031957 
3461.000000	64.989447 
3460.000000	64.956474 
3459.000000	64.935493 
3458.000000	64.926552 
3457.000000	64.927411 
3456.000000	64.933896 
3455.000000	64.941453 
3454.000000	64.946126 
3453.000000	64.945626 
3452.000000	64.939403 
3451.000000	64.928889 
3450.000000	64.916467 
3449.000000	64.905047 
3448.000000	64.897036 
3447.000000	64.893746 
3446.000000	64.895033 
3445.000000	64.899563 
3444.000000	64.905357 
3443.000000	64.910030 
3442.000000	64.911818 
3441.000000	64.909887 
3440.000000	64.904785 
3439.000000	64.898252 
3438.000000	64.892888 
3437.000000	64.891648 
3436.000000	64.897322 
3435.000000	64.911961 
3434.000000	64.936423 
3433.000000	64.970183 
3432.000000	65.011548 
3431.000000	65.058016 
3430.000000	65.106678 
3429.000000	65.154433 
3428.000000	65.198421 
3427.000000	65.236568 
3426.000000	65.267062 
3425.000000	65.288519 
3424.000000	65.299654 
3423.000000	65.299630 
3422.000000	65.287828 
3421.000000	65.264344 
3420.000000	65.230202 
3419.000000	65.187621 
3418.000000	65.140008 
3417.000000	65.091657 
3416.000000	65.047216 
3415.000000	65.011167 
3414.000000	64.986920 
3413.000000	64.976263 
3412.000000	64.979076 
3411.000000	64.993476 
3410.000000	65.016222 
3409.000000	65.043568 
3408.000000	65.071630 
3407.000000	65.097427 
3406.000000	65.118741 
3405.000000	65.134930 
3404.000000	65.145874 
3403.000000	65.152406 
3402.000000	65.155720 
3401.000000	65.157318 
3400.000000	65.158557 
3399.000000	65.160441 
3398.000000	65.164208 
3397.000000	65.170621 
3396.000000	65.180015 
3395.000000	65.192270 
3394.000000	65.206933 
3393.000000	65.222907 
3392.000000	65.238690 
3391.000000	65.252685 
3390.000000	65.263438 
3389.000000	65.270233 
3388.000000	65.273046 
3387.000000	65.272617 
3386.000000	65.270376 
3385.000000	65.268135 
3384.000000	65.267658 
3383.000000	65.270185 
3382.000000	65.275955 
3381.000000	65.284490 
3380.000000	65.294313 
3379.000000	65.303444 
3378.000000	65.309500 
3377.000000	65.310406 
3376.000000	65.304565 
3375.000000	65.291285 
3374.000000	65.270853 
3373.000000	65.244460 
3372.000000	65.213656 
3371.000000	65.180373 
3370.000000	65.146350 
3369.000000	65.113115 
3368.000000	65.081810 
3367.000000	65.053248 
3366.000000	65.027999 
3365.000000	65.006613 
3364.000000	64.989662 
3363.000000	64.977908 
3362.000000	64.971852 
3361.000000	64.971828 
3360.000000	64.977931 
3359.000000	64.990067 
3358.000000	65.007543 
3357.000000	65.029263 
3356.000000	65.053725 
3355.000000	65.079450 
3354.000000	65.104699 
3353.000000	65.127968 
3352.000000	65.147686 
3351.000000	65.162539 
3350.000000	65.171575 
3349.000000	65.174436 
3348.000000	65.171551 
3347.000000	65.164017 
3346.000000	65.153765 
3345.000000	65.142989 
3344.000000	65.134167 
3343.000000	65.129256 
3342.000000	65.129637 
3341.000000	65.135622 
3340.000000	65.146541 
3339.000000	65.160727 
3338.000000	65.176033 
3337.000000	65.189933 
3336.000000	65.199923 
3335.000000	65.204024 
3334.000000	65.201187 
3333.000000	65.191578 
3332.000000	65.176606 
3331.000000	65.158772 
3330.000000	65.141391 
3329.000000	65.127897 
3328.000000	65.121078 
3327.000000	65.122699 
3326.000000	65.132737 
3325.000000	65.149855 
3324.000000	65.171051 
3323.000000	65.192484 
3322.000000	65.210103 
3321.000000	65.220570 
3320.000000	65.221595 
3319.000000	65.212440 
3318.000000	65.193891 
3317.000000	65.167903 
3316.000000	65.137338 
3315.000000	65.105319 
3314.000000	65.074729 
3313.000000	65.047788 
3312.000000	65.025830 
3311.000000	65.009403 
3310.000000	64.998292 
3309.000000	64.991807 
3308.000000	64.988946 
3307.000000	64.988732 
3306.000000	64.990186 
3305.000000	64.992737 
3304.000000	64.995837 
3303.000000	64.999246 
3302.000000	65.002703 
3301.000000	65.006065 
3300.000000	65.008997 
3299.000000	65.011239 
3298.000000	65.012145 
3297.000000	65.011358 
3296.000000	65.008664 
3295.000000	65.004229 
3294.000000	64.999008 
3293.000000	64.994454 
3292.000000	64.992403 
3291.000000	64.994716 
3290.000000	65.002799 
3289.000000	65.017127 
3288.000000	65.036869 
3287.000000	65.060114 
3286.000000	65.084123 
3285.000000	65.105938 
3284.000000	65.123224 
3283.000000	65.134477 
3282.000000	65.139293 
3281.000000	65.138506 
3280.000000	65.133810 
3279.000000	65.127229 
3278.000000	65.120434 
3277.000000	65.114450 
3276.000000	65.109467 
3275.000000	65.104913 
3274.000000	65.099906 
3273.000000	65.093755 
3272.000000	65.086436 
3271.000000	65.078806 
3270.000000	65.072536 
3269.000000	65.069627 
3268.000000	65.071702 
3267.000000	65.079283 
3266.000000	65.091514 
3265.000000	65.105891 
3264.000000	65.118932 
3263.000000	65.126824 
3262.000000	65.126705 
3261.000000	65.117263 
3260.000000	65.099358 
3259.000000	65.075969 
3258.000000	65.051627 
3257.000000	65.031242 
3256.000000	65.019011 
3255.000000	65.017485 
3254.000000	65.026903 
3253.000000	65.045237 
3252.000000	65.068960 
3251.000000	65.094065 
3250.000000	65.116930 
3249.000000	65.135192 
3248.000000	65.147972 
3247.000000	65.155982 
3246.000000	65.160727 
3245.000000	65.163946 
3244.000000	65.167069 
3243.000000	65.170359 
3242.000000	65.173363 
3241.000000	65.174627 
3240.000000	65.172743 
3239.000000	65.166568 
3238.000000	65.155911 
3237.000000	65.141582 
3236.000000	65.125322 
3235.000000	65.109586 
3234.000000	65.096807 
3233.000000	65.089249 
3232.000000	65.088319 
3231.000000	65.094304 
3230.000000	65.106320 
3229.000000	65.122413 
3228.000000	65.139985 
3227.000000	65.156102 
3226.000000	65.168023 
3225.000000	65.173983 
3224.000000	65.173196 
3223.000000	65.166306 
3222.000000	65.154933 
3221.000000	65.141105 
3220.000000	65.126752 
3219.000000	65.113353 
3218.000000	65.101528 
3217.000000	65.091180 
3216.000000	65.081715 
3215.000000	65.072345 
3214.000000	65.062737 
3213.000000	65.053153 
3212.000000	65.044450 
3211.000000	65.038108 
3210.000000	65.035510 
3209.000000	65.037631 
3208.000000	65.044808 
3207.000000	65.056419 
3206.000000	65.071010 
3205.000000	65.086722 
3204.000000	65.101480 
3203.000000	65.113544 
3202.000000	65.121245 
3201.000000	65.123605 
3200.000000	65.120005 
3199.000000	65.110492 
3198.000000	65.095901 
3197.000000	65.077853 
3196.000000	65.058779 
3195.000000	65.041637 
3194.000000	65.029597 
3193.000000	65.025091 
3192.000000	65.029454 
3191.000000	65.042352 
3190.000000	65.061402 
3189.000000	65.083026 
3188.000000	65.102720 
3187.000000	65.116620 
3186.000000	65.122103 
3185.000000	65.118765 
3184.000000	65.108561 
3183.000000	65.094995 
3182.000000	65.082502 
3181.000000	65.074944 
3180.000000	65.074515 
3179.000000	65.081191 
3178.000000	65.092921 
3177.000000	65.106058 
3176.000000	65.116643 
3175.000000	65.121507 
3174.000000	65.119338 
3173.000000	65.110921 
3172.000000	65.098834 
3171.000000	65.086698 
3170.000000	65.078115 
3169.000000	65.075659 
3168.000000	65.080332 
3167.000000	65.091538 
3166.000000	65.107417 
3165.000000	65.125727 
3164.000000	65.144157 
3163.000000	65.160727 
3162.000000	65.174126 
3161.000000	65.183711 
3160.000000	65.189027 
3159.000000	65.189671 
3158.000000	65.185236 
3157.000000	65.175318 
3156.000000	65.159893 
3155.000000	65.139269 
3154.000000	65.114283 
3153.000000	65.086388 
3152.000000	65.057158 
3151.000000	65.028452 
3150.000000	65.001988 
3149.000000	64.979100 
3148.000000	64.961075 
3147.000000	64.948987 
3146.000000	64.943790 
3145.000000	64.946126 
3144.000000	64.956212 
3143.000000	64.973592 
3142.000000	64.996576 
3141.000000	65.022754 
3140.000000	65.048956 
3139.000000	65.072345 
3138.000000	65.090584 
3137.000000	65.102767 
3136.000000	65.109729 
3135.000000	65.113878 
3134.000000	65.118741 
3133.000000	65.127682 
3132.000000	65.143013 
3131.000000	65.165090 
3130.000000	65.192341 
3129.000000	65.221190 
3128.000000	65.247344 
3127.000000	65.266370 
3126.000000	65.275454 
3125.000000	65.273451 
3124.000000	65.261435 
3123.000000	65.242123 
3122.000000	65.219140 
3121.000000	65.196251 
3120.000000	65.176415 
3119.000000	65.161514 
3118.000000	65.151906 
3117.000000	65.146827 
3116.000000	65.144419 
3115.000000	65.142416 
3114.000000	65.138769 
3113.000000	65.131568 
3112.000000	65.119719 
3111.000000	65.102791 
3110.000000	65.081477 
3109.000000	65.057563 
3108.000000	65.033864 
3107.000000	65.013694 
3106.000000	65.000462 
3105.000000	64.996743 
3104.000000	65.003919 
3103.000000	65.021347 
3102.000000	65.046525 
3101.000000	65.075254 
3100.000000	65.102529 
3099.000000	65.123391 
3098.000000	65.134000 
3097.000000	65.132284 
3096.000000	65.118527 
3095.000000	65.094995 
3094.000000	65.065813 
3093.000000	65.035939 
3092.000000	65.010428 
3091.000000	64.993357 
3090.000000	64.987397 
3089.000000	64.993381 
3088.000000	65.010333 
3087.000000	65.035939 
3086.000000	65.066742 
3085.000000	65.098905 
3084.000000	65.128588 
3083.000000	65.153002 
3082.000000	65.170240 
3081.000000	65.180039 
3080.000000	65.183067 
3079.000000	65.181326 
3078.000000	65.177226 
3077.000000	65.173244 
3076.000000	65.171527 
3075.000000	65.173292 
3074.000000	65.179109 
3073.000000	65.188384 
3072.000000	65.200138 
3071.000000	65.212917 
3070.000000	65.225219 
3069.000000	65.235662 
3068.000000	65.243101 
3067.000000	65.247011 
3066.000000	65.247344 
3065.000000	65.244412 
3064.000000	65.238809 
3063.000000	65.231418 
3062.000000	65.223336 
3061.000000	65.215516 
3060.000000	65.208768 
3059.000000	65.203475 
3058.000000	65.199351 
3057.000000	65.195631 
3056.000000	65.191054 
3055.000000	65.184378 
3054.000000	65.174508 
3053.000000	65.160918 
3052.000000	65.144062 
3051.000000	65.125393 
3050.000000	65.107202 
3049.000000	65.092229 
3048.000000	65.083003 
3047.000000	65.081405 
3046.000000	65.087914 
3045.000000	65.101528 
3044.000000	65.119409 
3043.000000	65.137600 
3042.000000	65.151429 
3041.000000	65.156555 
3040.000000	65.149617 
3039.000000	65.129160 
3038.000000	65.095925 
3037.000000	65.052795 
3036.000000	65.004372 
3035.000000	64.956307 
3034.000000	64.914226 
3033.000000	64.882922 
3032.000000	64.865446 
3031.000000	64.862537 
3030.000000	64.872884 
3029.000000	64.893460 
3028.000000	64.919853 
3027.000000	64.947772 
3026.000000	64.973115 
3025.000000	64.993095 
3024.000000	65.006232 
3023.000000	65.012717 
3022.000000	65.013813 
3021.000000	65.011525 
3020.000000	65.007901 
3019.000000	65.004634 
3018.000000	65.002751 
3017.000000	65.002465 
3016.000000	65.003275 
3015.000000	65.004253 
3014.000000	65.004467 
3013.000000	65.003275 
3012.000000	65.000557 
3011.000000	64.996862 
3010.000000	64.993238 
3009.000000	64.991378 
3008.000000	64.993047 
3007.000000	64.999842 
3006.000000	65.012502 
3005.000000	65.030598 
3004.000000	65.052318 
3003.000000	65.075016 
3002.000000	65.095257 
3001.000000	65.109658 
3000.000000	65.115880 
2999.000000	65.112829 
2998.000000	65.101146 
2997.000000	65.083122 
2996.000000	65.062046 
2995.000000	65.041542 
2994.000000	65.024614 
2993.000000	65.013217 
2992.000000	65.007805 
2991.000000	65.007400 
2990.000000	65.010237 
2989.000000	65.014123 
2988.000000	65.017247 
2987.000000	65.018582 
2986.000000	65.017747 
2985.000000	65.014791 
2984.000000	65.010023 
2983.000000	65.003538 
2982.000000	64.995145 
2981.000000	64.984321 
2980.000000	64.970660 
2979.000000	64.953899 
2978.000000	64.934325 
2977.000000	64.912676 
2976.000000	64.890050 
2975.000000	64.867830 
2974.000000	64.847135 
2973.000000	64.828944 
2972.000000	64.813446 
2971.000000	64.800763 
2970.000000	64.790749 
2969.000000	64.783501 
2968.000000	64.778995 
2967.000000	64.777708 
2966.000000	64.780116 
2965.000000	64.786744 
2964.000000	64.797544 
2963.000000	64.812207 
2962.000000	64.829730 
2961.000000	64.848899 
2960.000000	64.868378 
2959.000000	64.887022 
2958.000000	64.903998 
2957.000000	64.919042 
2956.000000	64.932274 
2955.000000	64.944076 
2954.000000	64.954757 
2953.000000	64.964532 
2952.000000	64.973211 
2951.000000	64.980244 
2950.000000	64.984655 
2949.000000	64.985704 
2948.000000	64.982843 
2947.000000	64.975929 
2946.000000	64.965248 
2945.000000	64.951705 
2944.000000	64.936423 
2943.000000	64.920353 
2942.000000	64.904236 
2941.000000	64.888525 
2940.000000	64.873147 
2939.000000	64.857697 
2938.000000	64.841818 
2937.000000	64.825344 
2936.000000	64.808797 
2935.000000	64.793395 
2934.000000	64.780998 
2933.000000	64.773726 
2932.000000	64.773488 
2931.000000	64.781427 
2930.000000	64.797520 
2929.000000	64.820337 
2928.000000	64.847517 
2927.000000	64.876127 
2926.000000	64.903044 
2925.000000	64.925599 
2924.000000	64.941906 
2923.000000	64.951324 
2922.000000	64.954304 
2921.000000	64.952182 
2920.000000	64.946985 
2919.000000	64.940881 
2918.000000	64.936232 
2917.000000	64.934372 
2916.000000	64.935994 
2915.000000	64.940428 
2914.000000	64.946436 
2913.000000	64.951992 
2912.000000	64.955163 
2911.000000	64.954447 
2910.000000	64.949417 
2909.000000	64.940738 
2908.000000	64.929914 
2907.000000	64.918994 
2906.000000	64.910054 
2905.000000	64.904475 
2904.000000	64.902591 
2903.000000	64.903545 
2902.000000	64.905691 
2901.000000	64.906811 
2900.000000	64.905095 
2899.000000	64.899277 
2898.000000	64.889454 
2897.000000	64.876914 
2896.000000	64.863944 
2895.000000	64.853405 
2894.000000	64.847922 
2893.000000	64.849543 
2892.000000	64.859271 
2891.000000	64.876723 
2890.000000	64.900398 
2889.000000	64.927864 
2888.000000	64.956164 
2887.000000	64.982366 
2886.000000	65.004014 
2885.000000	65.019273 
2884.000000	65.027403 
2883.000000	65.028500 
2882.000000	65.023660 
2881.000000	65.014791 
2880.000000	65.004205 
2879.000000	64.994287 
2878.000000	64.987039 
2877.000000	64.983868 
2876.000000	64.985275 
2875.000000	64.990997 
2874.000000	65.000152 
2873.000000	65.011525 
2872.000000	65.023994 
2871.000000	65.036702 
2870.000000	65.049219 
2869.000000	65.061569 
2868.000000	65.073943 
2867.000000	65.086412 
2866.000000	65.098881 
2865.000000	65.110778 
2864.000000	65.121316 
2863.000000	65.129303 
2862.000000	65.133595 
2861.000000	65.133142 
2860.000000	65.127468 
2859.000000	65.116572 
2858.000000	65.100908 
2857.000000	65.081334 
2856.000000	65.059018 
2855.000000	65.035390 
2854.000000	65.011954 
2853.000000	64.990305 
2852.000000	64.971709 
2851.000000	64.957237 
2850.000000	64.947366 
2849.000000	64.942049 
2848.000000	64.940500 
2847.000000	64.941310 
2846.000000	64.942884 
2845.000000	64.943408 
2844.000000	64.941644 
2843.000000	64.936947 
2842.000000	64.929723 
2841.000000	64.921140 
2840.000000	64.912915 
2839.000000	64.906907 
2838.000000	64.904832 
2837.000000	64.907598 
2836.000000	64.915585 
2835.000000	64.928269 
2834.000000	64.944839 
2833.000000	64.964127 
2832.000000	64.984917 
2831.000000	65.005946 
2830.000000	65.025973 
2829.000000	65.043830 
2828.000000	65.058231 
2827.000000	65.067696 
2826.000000	65.070867 
2825.000000	65.066933 
2824.000000	65.055847 
2823.000000	65.038442 
2822.000000	65.016627 
2821.000000	64.993119 
2820.000000	64.970803 
2819.000000	64.952206 
2818.000000	64.938926 
2817.000000	64.931273 
2816.000000	64.928507 
2815.000000	64.929008 
2814.000000	64.930653 
2813.000000	64.931607 
2812.000000	64.930510 
2811.000000	64.927172 
2810.000000	64.921879 
2809.000000	64.916110 
2808.000000	64.911699 
2807.000000	64.910936 
2806.000000	64.915776 
2805.000000	64.927935 
2804.000000	64.948129 
2803.000000	64.976286 
2802.000000	65.011239 
2801.000000	65.051054 
2800.000000	65.092992 
2799.000000	65.134000 
2798.000000	65.171003 
2797.000000	65.201377 
2796.000000	65.223240 
2795.000000	65.235567 
2794.000000	65.238356 
2793.000000	65.232372 
2792.000000	65.218710 
2791.000000	65.198826 
2790.000000	65.174126 
2789.000000	65.146183 
2788.000000	65.116357 
2787.000000	65.086317 
2786.000000	65.057802 
2785.000000	65.032267 
2784.000000	65.011191 
2783.000000	64.995479 
2782.000000	64.985752 
2781.000000	64.982128 
2780.000000	64.984464 
2779.000000	64.992165 
2778.000000	65.004658 
2777.000000	65.021038 
2776.000000	65.040564 
2775.000000	65.062260 
2774.000000	65.085196 
2773.000000	65.108394 
2772.000000	65.130710 
2771.000000	65.150976 
2770.000000	65.167903 
2769.000000	65.180349 
2768.000000	65.187144 
2767.000000	65.187335 
2766.000000	65.180516 
2765.000000	65.166783 
2764.000000	65.146875 
2763.000000	65.122437 
2762.000000	65.095639 
2761.000000	65.069413 
2760.000000	65.046787 
2759.000000	65.030550 
2758.000000	65.022444 
2757.000000	65.023040 
2756.000000	65.031528 
2755.000000	65.046000 
2754.000000	65.063738 
2753.000000	65.081930 
2752.000000	65.097951 
2751.000000	65.110206 
2750.000000	65.117788 
2749.000000	65.120649 
2748.000000	65.119123 
2747.000000	65.113854 
2746.000000	65.105414 
2745.000000	65.094184 
2744.000000	65.080499 
2743.000000	65.064764 
2742.000000	65.047788 
2741.000000	65.030741 
2740.000000	65.015006 
2739.000000	65.002083 
2738.000000	64.993309 
2737.000000	64.989471 
2736.000000	64.990615 
2735.000000	64.996314 
2734.000000	65.005588 
2733.000000	65.017342 
2732.000000	65.030455 
2731.000000	65.043687 
2730.000000	65.055942 
2729.000000	65.066123 
2728.000000	65.073227 
2727.000000	65.076255 
2726.000000	65.074706 
2725.000000	65.068411 
2724.000000	65.058016 
2723.000000	65.044903 
2722.000000	65.031147 
2721.000000	65.019035 
2720.000000	65.010738 
2719.000000	65.007734 
2718.000000	65.010452 
2717.000000	65.018224 
2716.000000	65.029335 
2715.000000	65.041446 
2714.000000	65.052318 
2713.000000	65.060210 
2712.000000	65.064191 
2711.000000	65.064287 
2710.000000	65.061378 
2709.000000	65.056991 
2708.000000	65.052628 
2707.000000	65.049695 
2706.000000	65.049147 
2705.000000	65.051126 
2704.000000	65.055346 
2703.000000	65.060782 
2702.000000	65.066385 
2701.000000	65.070748 
2700.000000	65.072822 
2699.000000	65.071845 
2698.000000	65.067386 
2697.000000	65.059804 
2696.000000	65.049958 
2695.000000	65.039372 
2694.000000	65.029788 
2693.000000	65.023040 
2692.000000	65.020632 
2691.000000	65.023326 
2690.000000	65.031075 
2689.000000	65.042829 
2688.000000	65.056824 
2687.000000	65.070867 
2686.000000	65.082764 
2685.000000	65.090918 
2684.000000	65.094566 
2683.000000	65.093851 
2682.000000	65.089583 
2681.000000	65.083074 
2680.000000	65.075659 
2679.000000	65.068316 
2678.000000	65.061545 
2677.000000	65.055179 
2676.000000	65.048694 
2675.000000	65.041446 
2674.000000	65.033006 
2673.000000	65.023374 
2672.000000	65.012955 
2671.000000	65.002655 
2670.000000	64.993691 
2669.000000	64.987087 
2668.000000	64.983749 
2667.000000	64.983868 
2666.000000	64.987206 
2665.000000	64.993119 
2664.000000	65.000629 
2663.000000	65.008521 
2662.000000	65.015554 
2661.000000	65.020680 
2660.000000	65.022969 
2659.000000	65.021753 
2658.000000	65.016841 
2657.000000	65.008449 
2656.000000	64.997172 
2655.000000	64.983987 
2654.000000	64.970159 
2653.000000	64.957046 
2652.000000	64.945888 
2651.000000	64.937806 
2650.000000	64.933586 
2649.000000	64.933753 
2648.000000	64.938449 
2647.000000	64.947628 
2646.000000	64.960837 
2645.000000	64.977455 
2644.000000	64.996576 
2643.000000	65.016913 
2642.000000	65.036797 
2641.000000	65.054392 
2640.000000	65.067958 
2639.000000	65.075969 
2638.000000	65.077590 
2637.000000	65.072751 
2636.000000	65.062212 
2635.000000	65.047383 
2634.000000	65.029811 
2633.000000	65.011215 
2632.000000	64.992928 
2631.000000	64.976072 
2630.000000	64.961385 
2629.000000	64.949393 
2628.000000	64.940524 
2627.000000	64.935040 
2626.000000	64.932870 
2625.000000	64.933824 
2624.000000	64.937210 
2623.000000	64.941763 
2622.000000	64.945960 
2621.000000	64.948248 
2620.000000	64.947342 
2619.000000	64.942669 
2618.000000	64.934492 
2617.000000	64.923810 
2616.000000	64.912199 
2615.000000	64.901185 
2614.000000	64.891934 
2613.000000	64.884805 
2612.000000	64.879488 
2611.000000	64.875006 
2610.000000	64.870381 
2609.000000	64.864921 
2608.000000	64.858698 
2607.000000	64.852571 
2606.000000	64.848136 
2605.000000	64.847183 
2604.000000	64.851427 
2603.000000	64.861869 
2602.000000	64.878630 
2601.000000	64.900827 
2600.000000	64.926767 
2599.000000	64.954304 
2598.000000	64.981412 
2597.000000	65.006399 
2596.000000	65.027904 
2595.000000	65.044927 
2594.000000	65.057158 
2593.000000	65.064334 
2592.000000	65.066337 
2591.000000	65.063261 
2590.000000	65.055561 
2589.000000	65.044140 
2588.000000	65.030455 
2587.000000	65.016293 
2586.000000	65.003871 
2585.000000	64.995241 
2584.000000	64.991831 
2583.000000	64.994049 
2582.000000	65.001201 
2581.000000	65.011548 
2580.000000	65.022683 
2579.000000	65.031862 
2578.000000	65.036630 
2577.000000	65.035390 
2576.000000	65.027761 
2575.000000	65.014457 
2574.000000	64.997267 
2573.000000	64.978623 
2572.000000	64.961218 
2571.000000	64.947581 
2570.000000	64.939546 
2569.000000	64.938354 
2568.000000	64.944386 
2567.000000	64.957118 
2566.000000	64.975595 
2565.000000	64.998650 
2564.000000	65.024828 
2563.000000	65.052604 
2562.000000	65.080404 
2561.000000	65.106868 
2560.000000	65.130424 
2559.000000	65.149664 
2558.000000	65.162944 
2557.000000	65.168786 
2556.000000	65.165877 
2555.000000	65.153574 
2554.000000	65.131950 
2553.000000	65.102052 
2552.000000	65.066075 
2551.000000	65.027070 
2550.000000	64.988756 
2549.000000	64.954900 
2548.000000	64.928793 
2547.000000	64.912676 
2546.000000	64.907622 
2545.000000	64.913177 
2544.000000	64.927721 
2543.000000	64.948558 
2542.000000	64.972519 
2541.000000	64.996337 
2540.000000	65.017127 
2539.000000	65.032720 
2538.000000	65.041828 
2537.000000	65.043973 
2536.000000	65.039348 
2535.000000	65.028834 
2534.000000	65.013718 
2533.000000	64.995574 
2532.000000	64.976119 
2531.000000	64.957022 
2530.000000	64.939713 
2529.000000	64.925503 
2528.000000	64.915251 
2527.000000	64.909505 
2526.000000	64.908289 
2525.000000	64.911174 
2524.000000	64.917445 
2523.000000	64.925861 
2522.000000	64.935016 
2521.000000	64.943552 
2520.000000	64.950394 
2519.000000	64.954853 
2518.000000	64.956641 
2517.000000	64.956212 
2516.000000	64.954018 
2515.000000	64.950704 
2514.000000	64.946508 
2513.000000	64.941143 
2512.000000	64.934039 
2511.000000	64.924407 
2510.000000	64.911556 
2509.000000	64.895343 
2508.000000	64.876508 
2507.000000	64.856672 
2506.000000	64.838480 
2505.000000	64.824819 
2504.000000	64.818477 
2503.000000	64.821434 
2502.000000	64.834523 
2501.000000	64.857125 
2500.000000	64.887452 
2499.000000	64.922809 
2498.000000	64.960074 
2497.000000	64.996290 
2496.000000	65.028882 
2495.000000	65.055775 
2494.000000	65.075731 
2493.000000	65.088057 
2492.000000	65.092754 
2491.000000	65.090155 
2490.000000	65.081214 
2489.000000	65.067028 
2488.000000	65.049004 
2487.000000	65.028476 
2486.000000	65.006613 
2485.000000	64.984440 
2484.000000	64.962601 
2483.000000	64.941525 
2482.000000	64.921402 
2481.000000	64.902734 
2480.000000	64.885997 
2479.000000	64.872074 
2478.000000	64.861822 
2477.000000	64.855980 
2476.000000	64.854764 
2475.000000	64.857769 
2474.000000	64.863801 
2473.000000	64.871263 
2472.000000	64.878296 
2471.000000	64.883446 
2470.000000	64.885735 
2469.000000	64.884996 
2468.000000	64.881682 
2467.000000	64.876675 
2466.000000	64.870929 
2465.000000	64.865326 
2464.000000	64.860248 
2463.000000	64.855861 
2462.000000	64.851737 
2461.000000	64.847517 
2460.000000	64.842796 
2459.000000	64.837527 
2458.000000	64.831900 
2457.000000	64.826011 
2456.000000	64.820265 
2455.000000	64.814996 
2454.000000	64.810538 
2453.000000	64.807081 
2452.000000	64.804792 
2451.000000	64.803862 
2450.000000	64.804601 
2449.000000	64.807248 
2448.000000	64.812016 
2447.000000	64.818859 
2446.000000	64.827418 
2445.000000	64.837288 
2444.000000	64.847850 
2443.000000	64.858484 
2442.000000	64.868807 
2441.000000	64.878678 
2440.000000	64.888286 
2439.000000	64.897990 
2438.000000	64.908123 
2437.000000	64.918923 
2436.000000	64.930272 
2435.000000	64.941954 
2434.000000	64.953708 
2433.000000	64.965724 
2432.000000	64.978289 
2431.000000	64.992213 
2430.000000	65.008544 
2429.000000	65.028095 
2428.000000	65.051341 
2427.000000	65.077495 
2426.000000	65.104722 
2425.000000	65.129971 
2424.000000	65.149831 
2423.000000	65.160989 
2422.000000	65.161132 
2421.000000	65.149450 
2420.000000	65.127348 
2419.000000	65.097999 
2418.000000	65.065860 
2417.000000	65.035939 
2416.000000	65.012669 
2415.000000	64.999270 
2414.000000	64.996933 
2413.000000	65.004849 
2412.000000	65.020203 
2411.000000	65.039014 
2410.000000	65.056705 
2409.000000	65.068793 
2408.000000	65.071749 
2407.000000	65.063285 
2406.000000	65.043163 
2405.000000	65.012550 
2404.000000	64.974331 
2403.000000	64.932632 
2402.000000	64.892148 
2401.000000	64.857625 
2400.000000	64.832901 
2399.000000	64.820456 
2398.000000	64.820861 
2397.000000	64.832758 
2396.000000	64.853191 
2395.000000	64.878296 
2394.000000	64.904022 
2393.000000	64.926743 
2392.000000	64.943981 
2391.000000	64.954566 
2390.000000	64.958429 
2389.000000	64.956426 
2388.000000	64.949703 
2387.000000	64.939332 
2386.000000	64.926075 
2385.000000	64.910602 
2384.000000	64.893221 
2383.000000	64.874362 
2382.000000	64.854693 
2381.000000	64.835286 
2380.000000	64.817571 
2379.000000	64.802980 
2378.000000	64.792537 
2377.000000	64.786934 
2376.000000	64.786148 
2375.000000	64.789915 
2374.000000	64.797377 
2373.000000	64.807748 
2372.000000	64.820170 
2371.000000	64.834117 
2370.000000	64.849281 
2369.000000	64.865446 
2368.000000	64.882349 
2367.000000	64.899420 
2366.000000	64.915966 
2365.000000	64.931058 
2364.000000	64.943695 
2363.000000	64.953017 
2362.000000	64.958477 
2361.000000	64.960026 
2360.000000	64.958000 
2359.000000	64.953184 
2358.000000	64.946413 
2357.000000	64.938545 
2356.000000	64.930152 
2355.000000	64.921593 
2354.000000	64.912962 
2353.000000	64.904189 
2352.000000	64.895033 
2351.000000	64.885711 
2350.000000	64.876532 
2349.000000	64.868211 
2348.000000	64.861798 
2347.000000	64.858412 
2346.000000	64.858889 
2345.000000	64.863562 
2344.000000	64.872026 
2343.000000	64.883160 
2342.000000	64.895343 
2341.000000	64.906644 
2340.000000	64.915466 
2339.000000	64.920568 
2338.000000	64.921784 
2337.000000	64.919900 
2336.000000	64.916324 
2335.000000	64.912676 
2334.000000	64.910364 
2333.000000	64.910006 
2332.000000	64.911341 
2331.000000	64.913177 
2330.000000	64.913749 
2329.000000	64.911293 
2328.000000	64.904642 
2327.000000	64.893746 
2326.000000	64.879703 
2325.000000	64.864587 
2324.000000	64.851117 
2323.000000	64.841914 
2322.000000	64.839029 
2321.000000	64.843320 
2320.000000	64.854407 
2319.000000	64.870524 
2318.000000	64.889264 
2317.000000	64.907526 
2316.000000	64.922475 
2315.000000	64.931702 
2314.000000	64.933705 
2313.000000	64.927792 
2312.000000	64.914226 
2311.000000	64.894175 
2310.000000	64.869356 
2309.000000	64.841985 
2308.000000	64.814496 
2307.000000	64.789199 
2306.000000	64.768123 
2305.000000	64.752793 
2304.000000	64.743995 
2303.000000	64.741873 
2302.000000	64.745855 
2301.000000	64.754819 
2300.000000	64.767479 
2299.000000	64.782333 
2298.000000	64.798116 
2297.000000	64.813709 
2296.000000	64.828252 
2295.000000	64.841151 
2294.000000	64.851951 
2293.000000	64.860296 
2292.000000	64.866018 
2291.000000	64.869022 
2290.000000	64.869189 
2289.000000	64.866852 
2288.000000	64.862298 
2287.000000	64.856171 
2286.000000	64.849042 
2285.000000	64.841580 
2284.000000	64.834547 
2283.000000	64.828634 
2282.000000	64.824509 
2281.000000	64.822578 
2280.000000	64.823079 
2279.000000	64.825844 
2278.000000	64.830422 
2277.000000	64.836049 
2276.000000	64.841794 
2275.000000	64.846754 
2274.000000	64.850187 
2273.000000	64.851856 
2272.000000	64.851856 
2271.000000	64.850711 
2270.000000	64.849281 
2269.000000	64.848375 
2268.000000	64.848756 
2267.000000	64.850616 
2266.000000	64.853811 
2265.000000	64.857792 
2264.000000	64.861607 
2263.000000	64.864206 
2262.000000	64.864683 
2261.000000	64.862370 
2260.000000	64.856886 
2259.000000	64.848208 
2258.000000	64.836764 
2257.000000	64.823365 
2256.000000	64.809203 
2255.000000	64.795708 
2254.000000	64.784359 
2253.000000	64.776659 
2252.000000	64.773702 
2251.000000	64.775848 
2250.000000	64.782834 
2249.000000	64.793419 
2248.000000	64.805936 
2247.000000	64.818334 
2246.000000	64.828753 
2245.000000	64.835929 
2244.000000	64.839673 
2243.000000	64.840698 
2242.000000	64.840483 
2241.000000	64.840960 
2240.000000	64.843940 
2239.000000	64.850687 
2238.000000	64.861392 
2237.000000	64.875364 
2236.000000	64.891052 
2235.000000	64.906597 
2234.000000	64.920139 
2233.000000	64.930295 
2232.000000	64.936470 
2231.000000	64.938902 
2230.000000	64.938378 
2229.000000	64.935946 
2228.000000	64.932680 
2227.000000	64.929318 
2226.000000	64.926195 
2225.000000	64.923334 
2224.000000	64.920592 
2223.000000	64.918017 
2222.000000	64.915776 
2221.000000	64.914131 
2220.000000	64.913630 
2219.000000	64.914584 
2218.000000	64.917254 
2217.000000	64.921379 
2216.000000	64.926314 
2215.000000	64.930963 
2214.000000	64.934229 
2213.000000	64.935207 
2212.000000	64.933276 
2211.000000	64.928340 
2210.000000	64.921045 
2209.000000	64.912700 
2208.000000	64.904689 
2207.000000	64.898514 
2206.000000	64.895415 
2205.000000	64.896035 
2204.000000	64.900255 
2203.000000	64.907312 
2202.000000	64.915847 
2201.000000	64.924335 
2200.000000	64.931344 
2199.000000	64.935874 
2198.000000	64.937901 
2197.000000	64.938068 
2196.000000	64.937639 
2195.000000	64.938068 
2194.000000	64.940476 
2193.000000	64.945530 
2192.000000	64.952921 
2191.000000	64.961671 
2190.000000	64.970064 
2189.000000	64.976286 
2188.000000	64.978671 
2187.000000	64.976167 
2186.000000	64.968419 
2185.000000	64.955663 
2184.000000	64.938735 
2183.000000	64.918851 
2182.000000	64.897418 
2181.000000	64.875674 
2180.000000	64.855003 
2179.000000	64.836716 
2178.000000	64.822077 
2177.000000	64.812207 
2176.000000	64.807772 
2175.000000	64.808797 
2174.000000	64.814472 
2173.000000	64.823222 
2172.000000	64.832901 
2171.000000	64.841294 
2170.000000	64.846491 
2169.000000	64.847588 
2168.000000	64.844775 
2167.000000	64.839553 
2166.000000	64.834117 
2165.000000	64.830851 
2164.000000	64.831638 
2163.000000	64.837098 
2162.000000	64.846706 
2161.000000	64.858531 
2160.000000	64.869976 
2159.000000	64.878082 
2158.000000	64.880633 
2157.000000	64.876198 
2156.000000	64.864563 
2155.000000	64.846515 
2154.000000	64.823722 
2153.000000	64.798331 
2152.000000	64.772677 
2151.000000	64.748883 
2150.000000	64.728999 
2149.000000	64.714503 
2148.000000	64.706254 
2147.000000	64.704489 
2146.000000	64.708566 
2145.000000	64.717006 
2144.000000	64.727592 
2143.000000	64.737629 
2142.000000	64.744639 
2141.000000	64.746904 
2140.000000	64.744114 
2139.000000	64.737153 
2138.000000	64.728331 
2137.000000	64.720487 
2136.000000	64.716458 
2135.000000	64.718198 
2134.000000	64.726471 
2133.000000	64.740443 
2132.000000	64.758324 
2131.000000	64.777588 
2130.000000	64.795875 
2129.000000	64.811253 
2128.000000	64.822864 
2127.000000	64.830708 
2126.000000	64.835619 
2125.000000	64.838600 
2124.000000	64.840769 
2123.000000	64.842724 
2122.000000	64.844679 
2121.000000	64.846301 
2120.000000	64.847183 
2119.000000	64.846968 
2118.000000	64.845538 
2117.000000	64.843034 
2116.000000	64.839911 
2115.000000	64.836716 
2114.000000	64.833974 
2113.000000	64.831995 
2112.000000	64.830899 
2111.000000	64.830636 
2110.000000	64.830875 
2109.000000	64.831209 
2108.000000	64.831328 
2107.000000	64.830946 
2106.000000	64.829945 
2105.000000	64.828372 
2104.000000	64.826250 
2103.000000	64.823698 
2102.000000	64.820957 
2101.000000	64.818191 
2100.000000	64.815521 
2099.000000	64.812970 
2098.000000	64.810562 
2097.000000	64.808130 
2096.000000	64.805316 
2095.000000	64.801549 
2094.000000	64.796471 
2093.000000	64.789795 
2092.000000	64.781332 
2091.000000	64.771246 
2090.000000	64.760112 
2089.000000	64.748764 
2088.000000	64.738464 
2087.000000	64.730739 
2086.000000	64.727210 
2085.000000	64.729380 
2084.000000	64.738059 
2083.000000	64.753031 
2082.000000	64.772772 
2081.000000	64.794945 
2080.000000	64.816331 
2079.000000	64.833736 
2078.000000	64.844584 
2077.000000	64.847493 
2076.000000	64.842367 
2075.000000	64.830422 
2074.000000	64.813637 
2073.000000	64.794397 
2072.000000	64.774870 
2071.000000	64.756774 
2070.000000	64.741277 
2069.000000	64.728808 
2068.000000	64.719462 
2067.000000	64.713215 
2066.000000	64.710021 
2065.000000	64.709901 
2064.000000	64.712738 
2063.000000	64.718508 
2062.000000	64.726781 
2061.000000	64.736890 
2060.000000	64.747881 
2059.000000	64.758872 
2058.000000	64.769029 
2057.000000	64.777922 
2056.000000	64.785337 
2055.000000	64.791440 
2054.000000	64.796686 
2053.000000	64.801645 
2052.000000	64.807033 
2051.000000	64.813399 
2050.000000	64.821267 
2049.000000	64.830708 
2048.000000	64.841771 
2047.000000	64.853787 
2046.000000	64.865922 
2045.000000	64.876770 
2044.000000	64.884829 
2043.000000	64.888668 
2042.000000	64.887404 
2041.000000	64.880776 
2040.000000	64.869308 
2039.000000	64.854550 
2038.000000	64.838695 
2037.000000	64.823961 
2036.000000	64.812207 
2035.000000	64.804530 
2034.000000	64.801073 
2033.000000	64.801096 
2032.000000	64.803385 
2031.000000	64.806532 
2030.000000	64.809393 
2029.000000	64.811491 
2028.000000	64.813089 
2027.000000	64.814686 
2026.000000	64.817142 
2025.000000	64.820909 
2024.000000	64.826345 
2023.000000	64.833092 
2022.000000	64.840579 
2021.000000	64.848017 
2020.000000	64.854860 
2019.000000	64.860892 
2018.000000	64.866137 
2017.000000	64.871072 
2016.000000	64.875960 
2015.000000	64.880847 
2014.000000	64.885544 
2013.000000	64.889526 
2012.000000	64.892125 
2011.000000	64.892888 
2010.000000	64.891743 
2009.000000	64.888954 
2008.000000	64.885258 
2007.000000	64.881467 
2006.000000	64.878058 
2005.000000	64.875078 
2004.000000	64.872050 
2003.000000	64.867997 
2002.000000	64.861702 
2001.000000	64.852285 
2000.000000	64.839553 
1999.000000	64.824151 
1998.000000	64.807581 
1997.000000	64.791917 
1996.000000	64.779067 
1995.000000	64.770579 
1994.000000	64.766788 
1993.000000	64.766955 
1992.000000	64.769268 
1991.000000	64.771533 
1990.000000	64.771604 
1989.000000	64.768052 
1988.000000	64.760541 
1987.000000	64.750003 
1986.000000	64.738154 
1985.000000	64.727234 
1984.000000	64.719223 
1983.000000	64.715600 
1982.000000	64.716935 
1981.000000	64.722800 
1980.000000	64.732146 
1979.000000	64.743423 
1978.000000	64.755105 
1977.000000	64.765930 
1976.000000	64.775061 
1975.000000	64.782023 
1974.000000	64.786767 
1973.000000	64.789509 
1972.000000	64.790534 
1971.000000	64.790081 
1970.000000	64.788365 
1969.000000	64.785623 
1968.000000	64.781951 
1967.000000	64.777541 
1966.000000	64.772534 
1965.000000	64.767169 
1964.000000	64.761829 
1963.000000	64.756989 
1962.000000	64.753341 
1961.000000	64.751577 
1960.000000	64.752483 
1959.000000	64.756608 
1958.000000	64.764308 
1957.000000	64.775228 
1956.000000	64.788460 
1955.000000	64.802312 
1954.000000	64.814758 
1953.000000	64.823651 
1952.000000	64.827370 
1951.000000	64.825153 
1950.000000	64.817237 
1949.000000	64.805078 
1948.000000	64.790797 
1947.000000	64.776754 
1946.000000	64.765071 
1945.000000	64.756965 
1944.000000	64.752650 
1943.000000	64.751410 
1942.000000	64.751815 
1941.000000	64.752268 
1940.000000	64.751267 
1939.000000	64.747834 
1938.000000	64.741611 
1937.000000	64.732861 
1936.000000	64.722132 
1935.000000	64.710092 
1934.000000	64.697384 
1933.000000	64.684724 
1932.000000	64.672780 
1931.000000	64.662528 
1930.000000	64.654994 
1929.000000	64.651131 
1928.000000	64.651656 
1927.000000	64.656496 
1926.000000	64.665007 
1925.000000	64.675688 
1924.000000	64.686679 
1923.000000	64.695978 
1922.000000	64.702033 
1921.000000	64.704060 
1920.000000	64.702463 
1919.000000	64.698576 
1918.000000	64.694404 
1917.000000	64.691972 
1916.000000	64.692878 
1915.000000	64.697980 
1914.000000	64.706850 
1913.000000	64.718151 
1912.000000	64.729785 
1911.000000	64.739632 
1910.000000	64.745736 
1909.000000	64.746904 
1908.000000	64.742779 
1907.000000	64.733910 
1906.000000	64.721345 
1905.000000	64.706277 
1904.000000	64.689850 
1903.000000	64.672946 
1902.000000	64.655995 
1901.000000	64.639067 
1900.000000	64.622282 
1899.000000	64.605927 
1898.000000	64.590549 
1897.000000	64.577245 
1896.000000	64.567136 
1895.000000	64.561438 
1894.000000	64.561200 
1893.000000	64.567112 
1892.000000	64.578914 
1891.000000	64.595437 
1890.000000	64.614677 
1889.000000	64.634132 
1888.000000	64.651012 
1887.000000	64.662885 
1886.000000	64.667987 
1885.000000	64.665889 
1884.000000	64.657402 
1883.000000	64.644598 
1882.000000	64.630198 
1881.000000	64.617085 
1880.000000	64.607906 
1879.000000	64.604401 
1878.000000	64.607191 
1877.000000	64.615893 
1876.000000	64.629292 
1875.000000	64.645600 
1874.000000	64.662766 
1873.000000	64.678978 
1872.000000	64.692759 
1871.000000	64.702963 
1870.000000	64.708614 
1869.000000	64.709043 
1868.000000	64.703845 
1867.000000	64.692878 
1866.000000	64.676523 
1865.000000	64.655756 
1864.000000	64.632296 
1863.000000	64.608669 
1862.000000	64.587759 
1861.000000	64.572358 
1860.000000	64.564847 
1859.000000	64.566540 
1858.000000	64.577341 
1857.000000	64.595723 
1856.000000	64.618849 
1855.000000	64.643192 
1854.000000	64.665246 
1853.000000	64.682102 
1852.000000	64.692330 
1851.000000	64.696145 
1850.000000	64.695239 
1849.000000	64.692306 
1848.000000	64.690423 
1847.000000	64.692020 
1846.000000	64.698529 
1845.000000	64.709925 
1844.000000	64.724946 
1843.000000	64.741301 
1842.000000	64.756512 
1841.000000	64.767932 
1840.000000	64.773774 
1839.000000	64.773082 
1838.000000	64.765667 
1837.000000	64.752292 
1836.000000	64.734363 
1835.000000	64.713907 
1834.000000	64.693045 
1833.000000	64.674091 
1832.000000	64.659023 
1831.000000	64.649343 
1830.000000	64.645910 
1829.000000	64.648747 
1828.000000	64.656925 
1827.000000	64.668893 
1826.000000	64.682459 
1825.000000	64.695549 
1824.000000	64.706611 
1823.000000	64.714765 
1822.000000	64.719915 
1821.000000	64.722871 
1820.000000	64.724826 
1819.000000	64.727067 
1818.000000	64.730334 
1817.000000	64.734697 
1816.000000	64.739513 
1815.000000	64.743518 
1814.000000	64.745283 
1813.000000	64.743566 
1812.000000	64.737725 
1811.000000	64.727926 
1810.000000	64.715290 
1809.000000	64.701390 
1808.000000	64.688158 
1807.000000	64.677405 
1806.000000	64.670348 
1805.000000	64.667344 
1804.000000	64.667677 
1803.000000	64.670109 
1802.000000	64.672493 
1801.000000	64.672613 
1800.000000	64.668345 
1799.000000	64.658117 
1798.000000	64.641332 
1797.000000	64.618396 
1796.000000	64.590787 
1795.000000	64.560770 
1794.000000	64.530968 
1793.000000	64.504194 
1792.000000	64.482665 
1791.000000	64.467716 
1790.000000	64.459681 
1789.000000	64.457917 
1788.000000	64.461088 
1787.000000	64.467525 
1786.000000	64.475631 
1785.000000	64.484453 
1784.000000	64.493632 
1783.000000	64.503431 
1782.000000	64.514493 
1781.000000	64.527416 
1780.000000	64.542341 
1779.000000	64.558792 
1778.000000	64.575576 
1777.000000	64.590930 
1776.000000	64.603018 
1775.000000	64.610052 
1774.000000	64.610910 
1773.000000	64.605212 
1772.000000	64.593529 
1771.000000	64.577221 
1770.000000	64.558267 
1769.000000	64.538860 
1768.000000	64.520907 
1767.000000	64.506053 
1766.000000	64.495134 
1765.000000	64.488434 
1764.000000	64.485621 
1763.000000	64.485812 
1762.000000	64.487957 
1761.000000	64.491152 
1760.000000	64.494585 
1759.000000	64.497494 
1758.000000	64.499425 
1757.000000	64.499878 
1756.000000	64.498543 
1755.000000	64.495205 
1754.000000	64.489507 
1753.000000	64.481353 
1752.000000	64.470696 
1751.000000	64.457702 
1750.000000	64.442610 
1749.000000	64.426064 
1748.000000	64.408493 
1747.000000	64.390301 
1746.000000	64.371514 
1745.000000	64.352035 
1744.000000	64.331364 
1743.000000	64.308667 
1742.000000	64.283180 
1741.000000	64.254498 
1740.000000	64.222693 
1739.000000	64.188647 
1738.000000	64.154100 
1737.000000	64.121508 
1736.000000	64.093399 
1735.000000	64.072060 
1734.000000	64.059138 
1733.000000	64.055347 
1732.000000	64.059925 
1731.000000	64.071154 
1730.000000	64.086389 
1729.000000	64.102888 
1728.000000	64.117908 
1727.000000	64.129710 
1726.000000	64.137434 
1725.000000	64.141678 
1724.000000	64.143896 
1723.000000	64.146518 
1722.000000	64.152121 
1721.000000	64.162993 
1720.000000	64.180588 
1719.000000	64.205098 
1718.000000	64.235591 
1717.000000	64.270019 
1716.000000	64.305448 
1715.000000	64.338803 
1714.000000	64.367461 
1713.000000	64.389801 
1712.000000	64.405584 
1711.000000	64.416193 
1710.000000	64.424014 
1709.000000	64.432311 
1708.000000	64.444136 
1707.000000	64.462065 
1706.000000	64.487266 
1705.000000	64.519333 
1704.000000	64.556074 
1703.000000	64.594316 
1702.000000	64.630198 
1701.000000	64.660000 
1700.000000	64.680767 
1699.000000	64.690852 
1698.000000	64.690208 
1697.000000	64.680290 
1696.000000	64.663720 
1695.000000	64.643716 
1694.000000	64.623475 
1693.000000	64.605855 
1692.000000	64.592599 
1691.000000	64.584326 
1690.000000	64.580535 
1689.000000	64.579916 
1688.000000	64.580535 
1687.000000	64.580416 
1686.000000	64.578056 
1685.000000	64.572978 
1684.000000	64.565324 
1683.000000	64.556002 
1682.000000	64.546370 
1681.000000	64.538097 
1680.000000	64.532423 
1679.000000	64.529967 
1678.000000	64.530825 
1677.000000	64.534759 
1676.000000	64.541077 
1675.000000	64.549112 
1674.000000	64.558315 
1673.000000	64.568233 
1672.000000	64.578461 
1671.000000	64.588642 
1670.000000	64.598202 
1669.000000	64.606213 
1668.000000	64.611554 
1667.000000	64.613032 
1666.000000	64.609575 
1665.000000	64.600491 
1664.000000	64.585876 
1663.000000	64.566397 
1662.000000	64.543294 
1661.000000	64.518070 
1660.000000	64.492416 
1659.000000	64.467787 
1658.000000	64.445281 
1657.000000	64.425611 
1656.000000	64.408993 
1655.000000	64.395380 
1654.000000	64.384484 
1653.000000	64.375901 
1652.000000	64.369201 
1651.000000	64.363861 
1650.000000	64.359712 
1649.000000	64.356446 
1648.000000	64.354324 
1647.000000	64.353561 
1646.000000	64.354944 
1645.000000	64.359307 
1644.000000	64.367461 
1643.000000	64.380002 
1642.000000	64.397001 
1641.000000	64.417791 
1640.000000	64.441037 
1639.000000	64.464664 
1638.000000	64.486336 
1637.000000	64.503908 
1636.000000	64.515757 
1635.000000	64.520978 
1634.000000	64.519572 
1633.000000	64.512491 
1632.000000	64.500999 
1631.000000	64.486598 
1630.000000	64.470529 
1629.000000	64.453744 
1628.000000	64.436459 
1627.000000	64.418649 
1626.000000	64.400267 
1625.000000	64.381408 
1624.000000	64.362525 
1623.000000	64.344358 
1622.000000	64.327883 
1621.000000	64.314341 
1620.000000	64.304733 
1619.000000	64.299845 
1618.000000	64.299964 
1617.000000	64.305019 
1616.000000	64.314675 
1615.000000	64.328575 
1614.000000	64.346194 
1613.000000	64.367055 
1612.000000	64.390659 
1611.000000	64.416265 
1610.000000	64.442729 
1609.000000	64.468431 
1608.000000	64.491367 
1607.000000	64.509201 
1606.000000	64.519929 
1605.000000	64.522099 
1604.000000	64.515352 
1603.000000	64.500713 
1602.000000	64.480447 
1601.000000	64.457702 
1600.000000	64.435791 
1599.000000	64.417767 
1598.000000	64.405798 
1597.000000	64.400553 
1596.000000	64.401245 
1595.000000	64.406108 
1594.000000	64.412713 
1593.000000	64.418530 
1592.000000	64.421701 
1591.000000	64.421129 
1590.000000	64.417243 
1589.000000	64.411282 
1588.000000	64.405345 
1587.000000	64.401578 
1586.000000	64.401888 
1585.000000	64.407444 
1584.000000	64.418315 
1583.000000	64.433526 
1582.000000	64.451217 
1581.000000	64.469170 
1580.000000	64.484977 
1579.000000	64.496469 
1578.000000	64.502239 
1577.000000	64.501881 
1576.000000	64.495801 
1575.000000	64.485168 
1574.000000	64.471650 
1573.000000	64.457321 
1572.000000	64.444208 
1571.000000	64.434146 
1570.000000	64.428544 
1569.000000	64.428281 
1568.000000	64.433884 
1567.000000	64.444923 
1566.000000	64.460253 
1565.000000	64.477992 
1564.000000	64.495849 
1563.000000	64.511418 
1562.000000	64.522409 
1561.000000	64.527273 
1560.000000	64.525413 
1559.000000	64.517307 
1558.000000	64.504408 
1557.000000	64.488792 
1556.000000	64.472699 
1555.000000	64.457988 
1554.000000	64.445853 
1553.000000	64.436507 
1552.000000	64.429306 
1551.000000	64.423012 
1550.000000	64.416265 
1549.000000	64.407968 
1548.000000	64.397788 
1547.000000	64.385890 
1546.000000	64.373350 
1545.000000	64.361453 
1544.000000	64.351987 
1543.000000	64.346361 
1542.000000	64.345860 
1541.000000	64.351129 
1540.000000	64.362573 
1539.000000	64.379858 
1538.000000	64.402246 
1537.000000	64.428663 
1536.000000	64.457440 
1535.000000	64.486861 
1534.000000	64.514875 
1533.000000	64.539289 
1532.000000	64.558100 
1531.000000	64.569616 
1530.000000	64.572763 
1529.000000	64.567327 
1528.000000	64.554190 
1527.000000	64.535236 
1526.000000	64.513206 
1525.000000	64.491391 
1524.000000	64.472913 
1523.000000	64.460492 
1522.000000	64.455842 
1521.000000	64.459466 
1520.000000	64.470553 
1519.000000	64.487385 
1518.000000	64.507532 
1517.000000	64.528417 
1516.000000	64.547634 
1515.000000	64.563179 
1514.000000	64.573860 
1513.000000	64.579057 
1512.000000	64.578819 
1511.000000	64.573669 
1510.000000	64.564371 
1509.000000	64.551830 
1508.000000	64.537024 
1507.000000	64.520859 
1506.000000	64.504146 
1505.000000	64.487648 
1504.000000	64.472055 
1503.000000	64.457869 
1502.000000	64.445304 
1501.000000	64.434385 
1500.000000	64.425110 
1499.000000	64.417243 
1498.000000	64.410495 
1497.000000	64.404630 
1496.000000	64.399623 
1495.000000	64.395403 
1494.000000	64.392280 
1493.000000	64.390587 
1492.000000	64.390730 
1491.000000	64.393067 
1490.000000	64.397811 
1489.000000	64.404821 
1488.000000	64.413785 
1487.000000	64.423966 
1486.000000	64.434504 
1485.000000	64.444661 
1484.000000	64.453744 
1483.000000	64.461374 
1482.000000	64.467191 
1481.000000	64.471054 
1480.000000	64.472651 
1479.000000	64.471626 
1478.000000	64.467453 
1477.000000	64.459466 
1476.000000	64.447069 
1475.000000	64.430141 
1474.000000	64.409089 
1473.000000	64.384818 
1472.000000	64.358949 
1471.000000	64.333415 
1470.000000	64.310169 
1469.000000	64.290785 
1468.000000	64.276075 
1467.000000	64.266180 
1466.000000	64.260149 
1465.000000	64.256644 
1464.000000	64.254021 
1463.000000	64.251112 
1462.000000	64.247274 
1461.000000	64.242720 
1460.000000	64.238309 
1459.000000	64.235329 
1458.000000	64.234995 
1457.000000	64.237952 
1456.000000	64.244151 
1455.000000	64.252543 
1454.000000	64.261341 
1453.000000	64.268612 
1452.000000	64.272522 
1451.000000	64.272284 
1450.000000	64.268136 
1449.000000	64.261484 
1448.000000	64.254474 
1447.000000	64.249372 
1446.000000	64.248108 
1445.000000	64.251685 
1444.000000	64.260005 
1443.000000	64.272117 
1442.000000	64.286637 
1441.000000	64.302277 
1440.000000	64.318180 
1439.000000	64.333891 
1438.000000	64.349246 
1437.000000	64.364433 
1436.000000	64.379572 
1435.000000	64.394736 
1434.000000	64.409637 
1433.000000	64.423942 
1432.000000	64.437222 
1431.000000	64.449310 
1430.000000	64.459800 
1429.000000	64.468812 
1428.000000	64.476084 
1427.000000	64.481496 
1426.000000	64.484500 
1425.000000	64.484643 
1424.000000	64.481163 
1423.000000	64.473628 
1422.000000	64.461827 
1421.000000	64.446043 
1420.000000	64.426875 
1419.000000	64.405369 
1418.000000	64.382791 
1417.000000	64.360618 
1416.000000	64.340662 
1415.000000	64.324903 
1414.000000	64.315342 
1413.000000	64.313411 
1412.000000	64.319705 
1411.000000	64.333391 
1410.000000	64.352107 
1409.000000	64.372181 
1408.000000	64.389157 
1407.000000	64.398980 
1406.000000	64.398407 
1405.000000	64.386343 
1404.000000	64.363837 
1403.000000	64.334106 
1402.000000	64.301919 
1401.000000	64.272165 
1400.000000	64.248871 
1399.000000	64.234256 
1398.000000	64.228296 
1397.000000	64.229059 
1396.000000	64.233589 
1395.000000	64.238786 
1394.000000	64.242196 
1393.000000	64.242529 
1392.000000	64.239859 
1391.000000	64.235115 
1390.000000	64.229488 
1389.000000	64.224219 
1388.000000	64.220070 
1387.000000	64.217543 
1386.000000	64.216589 
1385.000000	64.216995 
1384.000000	64.218497 
1383.000000	64.220929 
1382.000000	64.224410 
1381.000000	64.229249 
1380.000000	64.235830 
1379.000000	64.244341 
1378.000000	64.254856 
1377.000000	64.267039 
1376.000000	64.280152 
1375.000000	64.293241 
1374.000000	64.304995 
1373.000000	64.314055 
1372.000000	64.318966 
1371.000000	64.318704 
1370.000000	64.312529 
1369.000000	64.300131 
1368.000000	64.281988 
1367.000000	64.259338 
1366.000000	64.234066 
1365.000000	64.208507 
1364.000000	64.185190 
1363.000000	64.166522 
1362.000000	64.154601 
1361.000000	64.150810 
1360.000000	64.155602 
1359.000000	64.168357 
1358.000000	64.187455 
1357.000000	64.210534 
1356.000000	64.234471 
1355.000000	64.256262 
1354.000000	64.273238 
1353.000000	64.283776 
1352.000000	64.287304 
1351.000000	64.284825 
1350.000000	64.278340 
1349.000000	64.270782 
1348.000000	64.265322 
1347.000000	64.264774 
1346.000000	64.270997 
1345.000000	64.284467 
1344.000000	64.304256 
1343.000000	64.328098 
1342.000000	64.353013 
1341.000000	64.375615 
1340.000000	64.393043 
1339.000000	64.403057 
1338.000000	64.404582 
1337.000000	64.397811 
1336.000000	64.383888 
1335.000000	64.364743 
1334.000000	64.342355 
1333.000000	64.318823 
1332.000000	64.295816 
1331.000000	64.274406 
1330.000000	64.255046 
1329.000000	64.237880 
1328.000000	64.222788 
1327.000000	64.209914 
1326.000000	64.199566 
1325.000000	64.192318 
1324.000000	64.189124 
1323.000000	64.190840 
1322.000000	64.198136 
1321.000000	64.210867 
1320.000000	64.227747 
1319.000000	64.246487 
1318.000000	64.263844 
1317.000000	64.276170 
1316.000000	64.280295 
1315.000000	64.274311 
1314.000000	64.257979 
1313.000000	64.233183 
1312.000000	64.203357 
1311.000000	64.172863 
1310.000000	64.146113 
1309.000000	64.126443 
1308.000000	64.115762 
1307.000000	64.113950 
1306.000000	64.119338 
1305.000000	64.129066 
1304.000000	64.139914 
1303.000000	64.149141 
1302.000000	64.154744 
1301.000000	64.156126 
1300.000000	64.153766 
1299.000000	64.149284 
1298.000000	64.144396 
1297.000000	64.141225 
1296.000000	64.141297 
1295.000000	64.145493 
1294.000000	64.154195 
1293.000000	64.167094 
1292.000000	64.183235 
1291.000000	64.201116 
1290.000000	64.219093 
1289.000000	64.235258 
1288.000000	64.247965 
1287.000000	64.255857 
1286.000000	64.258074 
1285.000000	64.254474 
1284.000000	64.245557 
1283.000000	64.232444 
1282.000000	64.216804 
1281.000000	64.200282 
1280.000000	64.184260 
1279.000000	64.169645 
1278.000000	64.156699 
1277.000000	64.144897 
1276.000000	64.133191 
1275.000000	64.120292 
1274.000000	64.105463 
1273.000000	64.088582 
1272.000000	64.070773 
1271.000000	64.053893 
1270.000000	64.040541 
1269.000000	64.033365 
1268.000000	64.034318 
1267.000000	64.044094 
1266.000000	64.061546 
1265.000000	64.083862 
1264.000000	64.107060 
1263.000000	64.126729 
1262.000000	64.139366 
1261.000000	64.142966 
1260.000000	64.137840 
1259.000000	64.126133 
1258.000000	64.111566 
1257.000000	64.098238 
1256.000000	64.089512 
1255.000000	64.087343 
1254.000000	64.091849 
1253.000000	64.101552 
1252.000000	64.114069 
1251.000000	64.126729 
1250.000000	64.137339 
1249.000000	64.144539 
1248.000000	64.147996 
1247.000000	64.148283 
1246.000000	64.146065 
1245.000000	64.142274 
1244.000000	64.137363 
1243.000000	64.131641 
1242.000000	64.125251 
1241.000000	64.118456 
1240.000000	64.111924 
1239.000000	64.106607 
1238.000000	64.103651 
1237.000000	64.104175 
1236.000000	64.108610 
1235.000000	64.116692 
1234.000000	64.127254 
1233.000000	64.138317 
1232.000000	64.147496 
1231.000000	64.152407 
1230.000000	64.151287 
1229.000000	64.143228 
1228.000000	64.128351 
1227.000000	64.107942 
1226.000000	64.083957 
1225.000000	64.058995 
1224.000000	64.035773 
1223.000000	64.016532 
1222.000000	64.002990 
1221.000000	63.995933 
1220.000000	63.995289 
1219.000000	64.000248 
1218.000000	64.009284 
1217.000000	64.020371 
1216.000000	64.031386 
1215.000000	64.040279 
1214.000000	64.045786 
1213.000000	64.047193 
1212.000000	64.044737 
1211.000000	64.039373 
1210.000000	64.032697 
1209.000000	64.026570 
1208.000000	64.022660 
1207.000000	64.022111 
1206.000000	64.025115 
1205.000000	64.031195 
1204.000000	64.039206 
1203.000000	64.047718 
1202.000000	64.055562 
1201.000000	64.062047 
1200.000000	64.067053 
1199.000000	64.071035 
1198.000000	64.074635 
1197.000000	64.078521 
1196.000000	64.082884 
1195.000000	64.087295 
1194.000000	64.090800 
1193.000000	64.092278 
1192.000000	64.090561 
1191.000000	64.084935 
1190.000000	64.075493 
1189.000000	64.063286 
1188.000000	64.050340 
1187.000000	64.038825 
1186.000000	64.031028 
1185.000000	64.028286 
1184.000000	64.031124 
1183.000000	64.038634 
1182.000000	64.048743 
1181.000000	64.058566 
1180.000000	64.065217 
1179.000000	64.066410 
1178.000000	64.060926 
1177.000000	64.048981 
1176.000000	64.032053 
1175.000000	64.012670 
1174.000000	63.993763 
1173.000000	63.978147 
1172.000000	63.967943 
1171.000000	63.964104 
1170.000000	63.966631 
1169.000000	63.974571 
1168.000000	63.986468 
1167.000000	64.000511 
1166.000000	64.014983 
1165.000000	64.028263 
1164.000000	64.038991 
1163.000000	64.046096 
1162.000000	64.048457 
1161.000000	64.045286 
1160.000000	64.035916 
1159.000000	64.020013 
1158.000000	63.997650 
1157.000000	63.969755 
1156.000000	63.937878 
1155.000000	63.904380 
1154.000000	63.872051 
1153.000000	63.843774 
1152.000000	63.822340 
1151.000000	63.809800 
1150.000000	63.807511 
1149.000000	63.815784 
1148.000000	63.833832 
1147.000000	63.859915 
1146.000000	63.891386 
1145.000000	63.924956 
1144.000000	63.957262 
1143.000000	63.985300 
1142.000000	64.006972 
1141.000000	64.021611 
1140.000000	64.029955 
1139.000000	64.033603 
1138.000000	64.034628 
1137.000000	64.034628 
1136.000000	64.034557 
1135.000000	64.034104 
1134.000000	64.032220 
1133.000000	64.027094 
1132.000000	64.017391 
1131.000000	64.002108 
1130.000000	63.981246 
1129.000000	63.955760 
1128.000000	63.927435 
1127.000000	63.898944 
1126.000000	63.873291 
1125.000000	63.853454 
1124.000000	63.842082 
1123.000000	63.840675 
1122.000000	63.849425 
1121.000000	63.867044 
1120.000000	63.891100 
1119.000000	63.918471 
1118.000000	63.945913 
1117.000000	63.970375 
1116.000000	63.989663 
1115.000000	64.002323 
1114.000000	64.007925 
1113.000000	64.006590 
1112.000000	63.999605 
1111.000000	63.989043 
1110.000000	63.977813 
1109.000000	63.969326 
1108.000000	63.966560 
1107.000000	63.971734 
1106.000000	63.985371 
1105.000000	64.006114 
1104.000000	64.030885 
1103.000000	64.055585 
1102.000000	64.075994 
1101.000000	64.088773 
1100.000000	64.092350 
1099.000000	64.087152 
1098.000000	64.075684 
1097.000000	64.061808 
1096.000000	64.049887 
1095.000000	64.043688 
1094.000000	64.045619 
1093.000000	64.056062 
1092.000000	64.073586 
1091.000000	64.095044 
1090.000000	64.116621 
1089.000000	64.134454 
1088.000000	64.145684 
1087.000000	64.148902 
1086.000000	64.144206 
1085.000000	64.133071 
1084.000000	64.117670 
1083.000000	64.100337 
1082.000000	64.083123 
1081.000000	64.067220 
1080.000000	64.053153 
1079.000000	64.040684 
1078.000000	64.029359 
1077.000000	64.018869 
1076.000000	64.009284 
1075.000000	64.001250 
1074.000000	63.995623 
1073.000000	63.993501 
1072.000000	63.995718 
1071.000000	64.002394 
1070.000000	64.012646 
1069.000000	64.024639 
1068.000000	64.035892 
1067.000000	64.043712 
1066.000000	64.045786 
1065.000000	64.040565 
1064.000000	64.027833 
1063.000000	64.008736 
1062.000000	63.985824 
1061.000000	63.962316 
1060.000000	63.941740 
1059.000000	63.927197 
1058.000000	63.920831 
1057.000000	63.923478 
1056.000000	63.934731 
1055.000000	63.952970 
1054.000000	63.975691 
1053.000000	64.000058 
1052.000000	64.023184 
1051.000000	64.042568 
1050.000000	64.056348 
1049.000000	64.063334 
1048.000000	64.063072 
1047.000000	64.055728 
1046.000000	64.042234 
1045.000000	64.024019 
1044.000000	64.003014 
1043.000000	63.981556 
1042.000000	63.962221 
1041.000000	63.947629 
1040.000000	63.939905 
1039.000000	63.940262 
1038.000000	63.948941 
1037.000000	63.965201 
1036.000000	63.987040 
1035.000000	64.012026 
1034.000000	64.037609 
1033.000000	64.061880 
1032.000000	64.083766 
1031.000000	64.103174 
1030.000000	64.120507 
1029.000000	64.136314 
1028.000000	64.151000 
1027.000000	64.164352 
1026.000000	64.175462 
1025.000000	64.182806 
1024.000000	64.185166 
1023.000000	64.181661 
1022.000000	64.172554 
1021.000000	64.158844 
1020.000000	64.142489 
1019.000000	64.125466 
1018.000000	64.109516 
1017.000000	64.095282 
1016.000000	64.082217 
1015.000000	64.068579 
1014.000000	64.051961 
1013.000000	64.030122 
1012.000000	64.001941 
1011.000000	63.967704 
1010.000000	63.929462 
1009.000000	63.890624 
1008.000000	63.855671 
1007.000000	63.829207 
1006.000000	63.815188 
1005.000000	63.815975 
1004.000000	63.832092 
1003.000000	63.862204 
1002.000000	63.903546 
1001.000000	63.952064 
1000.000000	64.003300 
999.000000	 64.052963 
998.000000	 64.097213 
997.000000	 64.132881 
996.000000	 64.157676 
995.000000	 64.169931 
994.000000	 64.168858 
993.000000	 64.154648 
992.000000	 64.128589 
991.000000	 64.093208 
990.000000	 64.052295 
989.000000	 64.010930 
988.000000	 63.974666 
987.000000	 63.948965 
986.000000	 63.938021 
985.000000	 63.944172 
984.000000	 63.966822 
983.000000	 64.002442 
982.000000	 64.045119 
981.000000	 64.087915 
980.000000	 64.124011 
979.000000	 64.148330 
978.000000	 64.158511 
977.000000	 64.155459 
976.000000	 64.142560 
975.000000	 64.124727 
974.000000	 64.107012 
973.000000	 64.093422 
972.000000	 64.086127 
971.000000	 64.085197 
970.000000	 64.089035 
969.000000	 64.095306 
968.000000	 64.102244 
967.000000	 64.108920 
966.000000	 64.115524 
965.000000	 64.123153 
964.000000	 64.133048 
963.000000	 64.145994 
962.000000	 64.161467 
961.000000	 64.178156 
960.000000	 64.193892 
959.000000	 64.206790 
958.000000	 64.215922 
957.000000	 64.221739 
956.000000	 64.225935 
955.000000	 64.231252 
954.000000	 64.240264 
953.000000	 64.254498 
952.000000	 64.273452 
951.000000	 64.294743 
950.000000	 64.313864 
949.000000	 64.325881 
948.000000	 64.325785 
947.000000	 64.310431 
946.000000	 64.278817 
945.000000	 64.232468 
944.000000	 64.175438 
943.000000	 64.113211 
942.000000	 64.052200 
941.000000	 63.998413 
940.000000	 63.956737 
939.000000	 63.930273 
938.000000	 63.920068 
937.000000	 63.925290 
936.000000	 63.943338 
935.000000	 63.970184 
934.000000	 64.001297 
933.000000	 64.032268 
932.000000	 64.059376 
931.000000	 64.079880 
930.000000	 64.092636 
929.000000	 64.097905 
928.000000	 64.097166 
927.000000	 64.092516 
926.000000	 64.086174 
925.000000	 64.079952 
924.000000	 64.075064 
923.000000	 64.072036 
922.000000	 64.071178 
921.000000	 64.072299 
920.000000	 64.075708 
919.000000	 64.081501 
918.000000	 64.089822 
917.000000	 64.100217 
916.000000	 64.111781 
915.000000	 64.122796 
914.000000	 64.130949 
913.000000	 64.133954 
912.000000	 64.130139 
911.000000	 64.118814 
910.000000	 64.100265 
909.000000	 64.075970 
908.000000	 64.048647 
907.000000	 64.021134 
906.000000	 63.996100 
905.000000	 63.975381 
904.000000	 63.959980 
903.000000	 63.950133 
902.000000	 63.945674 
901.000000	 63.946318 
900.000000	 63.951563 
899.000000	 63.961148 
898.000000	 63.974714 
897.000000	 63.991427 
896.000000	 64.009976 
895.000000	 64.028453 
894.000000	 64.044690 
893.000000	 64.056539 
892.000000	 64.062643 
891.000000	 64.062500 
890.000000	 64.057278 
889.000000	 64.049005 
888.000000	 64.041018 
887.000000	 64.037156 
886.000000	 64.040875 
885.000000	 64.054465 
884.000000	 64.078330 
883.000000	 64.110922 
882.000000	 64.148640 
881.000000	 64.186477 
880.000000	 64.218974 
879.000000	 64.241266 
878.000000	 64.250087 
877.000000	 64.244246 
876.000000	 64.224815 
875.000000	 64.194941 
874.000000	 64.159297 
873.000000	 64.123106 
872.000000	 64.091181 
871.000000	 64.067053 
870.000000	 64.053058 
869.000000	 64.049744 
868.000000	 64.055943 
867.000000	 64.069032 
866.000000	 64.085650 
865.000000	 64.102005 
864.000000	 64.114356 
863.000000	 64.119720 
862.000000	 64.115667 
861.000000	 64.101147 
860.000000	 64.076328 
859.000000	 64.042735 
858.000000	 64.002919 
857.000000	 63.959908 
856.000000	 63.917016 
855.000000	 63.876867 
854.000000	 63.841199 
853.000000	 63.810849 
852.000000	 63.785839 
851.000000	 63.765454 
850.000000	 63.748812 
849.000000	 63.735675 
848.000000	 63.727045 
847.000000	 63.724756 
846.000000	 63.731503 
845.000000	 63.750195 
844.000000	 63.783383 
843.000000	 63.832020 
842.000000	 63.894844 
841.000000	 63.967776 
840.000000	 64.044213 
839.000000	 64.116239 
838.000000	 64.175748 
837.000000	 64.216089 
836.000000	 64.233303 
835.000000	 64.227151 
834.000000	 64.200901 
833.000000	 64.160871 
832.000000	 64.114761 
831.000000	 64.070582 
830.000000	 64.034080 
829.000000	 64.007949 
828.000000	 63.991379 
827.000000	 63.981413 
826.000000	 63.973522 
825.000000	 63.963246 
824.000000	 63.947606 
823.000000	 63.926196 
822.000000	 63.900208 
821.000000	 63.872361 
820.000000	 63.845539 
819.000000	 63.822436 
818.000000	 63.805150 
817.000000	 63.794946 
816.000000	 63.792467 
815.000000	 63.797426 
814.000000	 63.808774 
813.000000	 63.824701 
812.000000	 63.842082 
811.000000	 63.857722 
810.000000	 63.868832 
809.000000	 63.873982 
808.000000	 63.872885 
807.000000	 63.867592 
806.000000	 63.862085 
805.000000	 63.861393 
804.000000	 63.870334 
803.000000	 63.892388 
802.000000	 63.928675 
801.000000	 63.977718 
800.000000	 64.035463 
799.000000	 64.096474 
798.000000	 64.155101 
797.000000	 64.206838 
796.000000	 64.249396 
795.000000	 64.282369 
794.000000	 64.306712 
793.000000	 64.324307 
792.000000	 64.336967 
791.000000	 64.346122 
790.000000	 64.351844 
789.000000	 64.353895 
788.000000	 64.351010 
787.000000	 64.341616 
786.000000	 64.323949 
785.000000	 64.296698 
784.000000	 64.259362 
783.000000	 64.212918 
782.000000	 64.159536 
781.000000	 64.102816 
780.000000	 64.046788 
779.000000	 63.995528 
778.000000	 63.952136 
777.000000	 63.918066 
776.000000	 63.893222 
775.000000	 63.875937 
774.000000	 63.863825 
773.000000	 63.854408 
772.000000	 63.846707 
771.000000	 63.841581 
770.000000	 63.841676 
769.000000	 63.850569 
768.000000	 63.871550 
767.000000	 63.906168 
766.000000	 63.953161 
765.000000	 64.008140 
764.000000	 64.064478 
763.000000	 64.114212 
762.000000	 64.150047 
761.000000	 64.166617 
760.000000	 64.161443 
759.000000	 64.135527 
758.000000	 64.092516 
757.000000	 64.038753 
756.000000	 63.981986 
755.000000	 63.930082 
754.000000	 63.890123 
753.000000	 63.866758 
752.000000	 63.862276 
751.000000	 63.875484 
750.000000	 63.902354 
749.000000	 63.936400 
748.000000	 63.969779 
747.000000	 63.994979 
746.000000	 64.006233 
745.000000	 64.001321 
744.000000	 63.982105 
743.000000	 63.954448 
742.000000	 63.926935 
741.000000	 63.908839 
740.000000	 63.907670 
739.000000	 63.927745 
738.000000	 63.968729 
737.000000	 64.025712 
736.000000	 64.089798 
735.000000	 64.150905 
734.000000	 64.198851 
733.000000	 64.225792 
732.000000	 64.226746 
731.000000	 64.200377 
730.000000	 64.148354 
729.000000	 64.074993 
728.000000	 63.986158 
727.000000	 63.888502 
726.000000	 63.788557 
725.000000	 63.692235 
724.000000	 63.604116 
723.000000	 63.528633 
722.000000	 63.468027 
721.000000	 63.422155 
720.000000	 63.389205 
719.000000	 63.365817 
718.000000	 63.348698 
717.000000	 63.335442 
716.000000	 63.325643 
715.000000	 63.320779 
714.000000	 63.325071 
713.000000	 63.344216 
712.000000	 63.382959 
711.000000	 63.443446 
710.000000	 63.524556 
709.000000	 63.621020 
708.000000	 63.723540 
707.000000	 63.820290 
706.000000	 63.899230 
705.000000	 63.950753 
704.000000	 63.969278 
703.000000	 63.955497 
702.000000	 63.915467 
701.000000	 63.861274 
700.000000	 63.808178 
699.000000	 63.772630 
698.000000	 63.769173 
697.000000	 63.807606 
696.000000	 63.892459 
695.000000	 64.019584 
694.000000	 64.177417 
693.000000	 64.347362 
692.000000	 64.507985 
691.000000	 64.637422 
690.000000	 64.717483 
689.000000	 64.736342 
688.000000	 64.690256 
687.000000	 64.583492 
686.000000	 64.426970 
685.000000	 64.235639 
684.000000	 64.026141 
683.000000	 63.814759 
682.000000	 63.615727 
681.000000	 63.440155 
680.000000	 63.296103 
679.000000	 63.188505 
678.000000	 63.120579 
677.000000	 63.092374 
676.000000	 63.103485 
675.000000	 63.151025 
674.000000	 63.231945 
673.000000	 63.340473 
672.000000	 63.470292 
671.000000	 63.612914 
670.000000	 63.759112 
669.000000	 63.899278 
668.000000	 64.023423 
667.000000	 64.121842 
666.000000	 64.186167 
665.000000	 64.211082 
664.000000	 64.193892 
663.000000	 64.135408 
662.000000	 64.040112 
661.000000	 63.915967 
660.000000	 63.772892 
659.000000	 63.621616 
658.000000	 63.472270 
657.000000	 63.333797 
656.000000	 63.212394 
655.000000	 63.112616 
654.000000	 63.036847 
653.000000	 62.987542 
652.000000	 62.965846 
651.000000	 62.974071 
650.000000	 63.013076 
649.000000	 63.084316 
648.000000	 63.186454 
647.000000	 63.316822 
646.000000	 63.468718 
645.000000	 63.633656 
644.000000	 63.801121 
643.000000	 63.961029 
642.000000	 64.104127 
641.000000	 64.224696 
640.000000	 64.321303 
639.000000	 64.396452 
638.000000	 64.455389 
637.000000	 64.504861 
636.000000	 64.551424 
635.000000	 64.599919 
634.000000	 64.652776 
633.000000	 64.709734 
632.000000	 64.767861 
631.000000	 64.823842 
630.000000	 64.873814 
629.000000	 64.913964 
628.000000	 64.940023 
627.000000	 64.948797 
626.000000	 64.936900 
625.000000	 64.901733 
624.000000	 64.841365 
623.000000	 64.756035 
622.000000	 64.648556 
621.000000	 64.525341 
620.000000	 64.395236 
619.000000	 64.268875 
618.000000	 64.156413 
617.000000	 64.066362 
616.000000	 64.003276 
615.000000	 63.966298 
614.000000	 63.950896 
613.000000	 63.949990 
612.000000	 63.956642 
611.000000	 63.964772 
610.000000	 63.972783 
609.000000	 63.983225 
608.000000	 64.001965 
607.000000	 64.035391 
606.000000	 64.088630 
605.000000	 64.162850 
604.000000	 64.253902 
603.000000	 64.352321 
602.000000	 64.445853 
601.000000	 64.521050 
600.000000	 64.566946 
599.000000	 64.576172 
598.000000	 64.546942 
597.000000	 64.482283 
596.000000	 64.389419 
595.000000	 64.277839 
594.000000	 64.157843 
593.000000	 64.038610 
592.000000	 63.928604 
591.000000	 63.833761 
590.000000	 63.757562 
589.000000	 63.701438 
588.000000	 63.665533 
587.000000	 63.649272 
586.000000	 63.650894 
585.000000	 63.669085 
584.000000	 63.702106 
583.000000	 63.748073 
582.000000	 63.803887 
581.000000	 63.865733 
580.000000	 63.928556 
579.000000	 63.986206 
578.000000	 64.031958 
577.000000	 64.059042 
576.000000	 64.061975 
575.000000	 64.038109 
574.000000	 63.988471 
573.000000	 63.917422 
572.000000	 63.832688 
571.000000	 63.744616 
570.000000	 63.664388 
569.000000	 63.601899 
568.000000	 63.564419 
567.000000	 63.555693 
566.000000	 63.575553 
565.000000	 63.620138 
564.000000	 63.682746 
563.000000	 63.754320 
562.000000	 63.826370 
561.000000	 63.891005 
560.000000	 63.944411 
559.000000	 63.986253 
558.000000	 64.020633 
557.000000	 64.054417 
556.000000	 64.095306 
555.000000	 64.149045 
554.000000	 64.217591 
553.000000	 64.297604 
552.000000	 64.380860 
551.000000	 64.455413 
550.000000	 64.507961 
549.000000	 64.526462 
548.000000	 64.502501 
547.000000	 64.433407 
546.000000	 64.323258 
545.000000	 64.182949 
544.000000	 64.027905 
543.000000	 63.876056 
542.000000	 63.745570 
541.000000	 63.650560 
540.000000	 63.598990 
539.000000	 63.590312 
538.000000	 63.617253 
537.000000	 63.666200 
536.000000	 63.720035 
535.000000	 63.762688 
534.000000	 63.781046 
533.000000	 63.769698 
532.000000	 63.731145 
531.000000	 63.674831 
530.000000	 63.613533 
529.000000	 63.559889 
528.000000	 63.522744 
527.000000	 63.504147 
526.000000	 63.499188 
525.000000	 63.499188 
524.000000	 63.495206 
523.000000	 63.481497 
522.000000	 63.458299 
521.000000	 63.432002 
520.000000	 63.414168 
519.000000	 63.417410 
518.000000	 63.452816 
517.000000	 63.525915 
516.000000	 63.635492 
515.000000	 63.774323 
514.000000	 63.929533 
513.000000	 64.085388 
512.000000	 64.225745 
511.000000	 64.338564 
510.000000	 64.415454 
509.000000	 64.452695 
508.000000	 64.450478 
507.000000	 64.412951 
506.000000	 64.346313 
505.000000	 64.258742 
504.000000	 64.158105 
503.000000	 64.052081 
502.000000	 63.946127 
501.000000	 63.844227 
500.000000	 63.747739 
499.000000	 63.656616 
498.000000	 63.570547 
497.000000	 63.490319 
496.000000	 63.418674 
495.000000	 63.360786 
494.000000	 63.322401 
493.000000	 63.309812 
492.000000	 63.326883 
491.000000	 63.375759 
490.000000	 63.454532 
489.000000	 63.558936 
488.000000	 63.682246 
487.000000	 63.816905 
486.000000	 63.955879 
485.000000	 64.092159 
484.000000	 64.219594 
483.000000	 64.330887 
482.000000	 64.419102 
481.000000	 64.475846 
480.000000	 64.492821 
479.000000	 64.463758 
478.000000	 64.387869 
477.000000	 64.269089 
476.000000	 64.116835 
475.000000	 63.944959 
474.000000	 63.770699 
473.000000	 63.609766 
472.000000	 63.474512 
471.000000	 63.373613 
470.000000	 63.312339 
469.000000	 63.292551 
468.000000	 63.313937 
467.000000	 63.375568 
466.000000	 63.475441 
465.000000	 63.609766 
464.000000	 63.771557 
463.000000	 63.947820 
462.000000	 64.121866 
461.000000	 64.275312 
460.000000	 64.390897 
459.000000	 64.455151 
458.000000	 64.461445 
457.000000	 64.415192 
456.000000	 64.327239 
455.000000	 64.214539 
454.000000	 64.089727 
453.000000	 63.960576 
452.000000	 63.823533 
451.000000	 63.668680 
450.000000	 63.478994 
449.000000	 63.238310 
448.000000	 62.935423 
447.000000	 62.570190 
446.000000	 62.155270 
445.000000	 61.715841 
444.000000	 61.283159 
443.000000	 60.889363 
442.000000	 60.560369 
441.000000	 60.313987 
440.000000	 60.154795 
439.000000	 60.081076 
438.000000	 60.084486 
437.000000	 60.161232 
436.000000	 60.310578 
435.000000	 60.540151 
434.000000	 60.860872 
433.000000	 61.280393 
432.000000	 61.792802 
431.000000	 62.372279 
430.000000	 62.976551 
429.000000	 63.543748 
428.000000	 63.999986 
427.000000	 64.276766 
426.000000	 64.331722 
425.000000	 64.153504 
424.000000	 63.765048 
423.000000	 63.226342 
422.000000	 62.625360 
421.000000	 62.058949 
420.000000	 61.613726 
419.000000	 61.352729 
418.000000	 61.305999 
417.000000	 61.458683 
416.000000	 61.759138 
415.000000	 62.137198 
414.000000	 62.523698 
413.000000	 62.862873 
412.000000	 63.128948 
411.000000	 63.317966 
410.000000	 63.454747 
409.000000	 63.582396 
408.000000	 63.756227 
407.000000	 64.008021 
406.000000	 64.361667 
405.000000	 64.834189 
404.000000	 65.439295 
403.000000	 66.164803 
402.000000	 67.004942 
401.000000	 67.987060 
400.000000	 69.126200 
399.000000	 70.402693 
398.000000	 71.763825 
397.000000	 73.127722 
396.000000	 74.386548 
395.000000	 75.420999 
394.000000	 76.152300 
393.000000	 76.562333 
392.000000	 76.725172 
391.000000	 76.789331 
390.000000	 76.939392 
389.000000	 77.334332 
388.000000	 78.042125 
387.000000	 78.998970 
386.000000	 80.031061 
385.000000	 80.871796 
384.000000	 81.244802 
383.000000	 80.902767 
382.000000	 79.735398 
381.000000	 77.732300 
380.000000	 75.025200 
379.000000	 71.769690 
378.000000	 68.147516 
377.000000	 64.238190 
376.000000	 60.056877 
375.000000	 55.506372 
374.000000	 50.399041 
373.000000	 44.621753 
372.000000	 38.209342 
371.000000	 31.465411 
370.000000	 24.918127 

