PE IR       SPECTRUM    SPECTRUM    ASCII       PEDS        1.60        
  -1
BZ6EA5~1.ASC
17/04/07
21:09:06.00
17/04/07
21:09:06.00
tln
$BZ1503107-1_t0096$<tbV0>[-5.2,7.8,8.0,0.0,27,1,0]
370.000000
64









2002,4.07    
MIRTGS : RIGHTBACK : INTERNAL 2
MIR : ON : INTERNAL 2
OPTKBR

0.200000
8
8.000000
FILLER
RATIO
SPECTRUM
UNLOCKED 256

DOUBLE
64
COMBINED
1
0
0


1.000000
RATIO


1
0
TRUE
51149
0
LEFT NOT FITTED RIGHT NOT FITTED 0
NONE
NONE
15600
12.000000
4.427000
51148
TRUE
1 0 8 72 0 0 0 0 

15798.010000






#HDR
-1
-1
#GR
CM-1
%T
0.00002384185791015625
0.0
5000.000000
-1.000000
4631
8
80.341768
42.761945
#DATA
5000.000000	64.455676 
4999.000000	64.587640 
4998.000000	64.728474 
4997.000000	64.863586 
4996.000000	64.977121 
4995.000000	65.055513 
4994.000000	65.089011 
4993.000000	65.074658 
4992.000000	65.014815 
4991.000000	64.916419 
4990.000000	64.789676 
4989.000000	64.647126 
4988.000000	64.500880 
4987.000000	64.361405 
4986.000000	64.237737 
4985.000000	64.137578 
4984.000000	64.064335 
4983.000000	64.017176 
4982.000000	63.990473 
4981.000000	63.975453 
4980.000000	63.960409 
4979.000000	63.935232 
4978.000000	63.892364 
4977.000000	63.831925 
4976.000000	63.763141 
4975.000000	63.704037 
4974.000000	63.675856 
4973.000000	63.698363 
4972.000000	63.784551 
4971.000000	63.935375 
4970.000000	64.136219 
4969.000000	64.361357 
4968.000000	64.578747 
4967.000000	64.759421 
4966.000000	64.883232 
4965.000000	64.946103 
4964.000000	64.959526 
4963.000000	64.949178 
4962.000000	64.947032 
4961.000000	64.983916 
4960.000000	65.080451 
4959.000000	65.244317 
4958.000000	65.468692 
4957.000000	65.734291 
4956.000000	66.013956 
4955.000000	66.280674 
4954.000000	66.511845 
4953.000000	66.690587 
4952.000000	66.805529 
4951.000000	66.850256 
4950.000000	66.820406 
4949.000000	66.713929 
4948.000000	66.530084 
4947.000000	66.272449 
4946.000000	65.949630 
4945.000000	65.578627 
4944.000000	65.184211 
4943.000000	64.797520 
4942.000000	64.452958 
4941.000000	64.182519 
4940.000000	64.012098 
4939.000000	63.954710 
4938.000000	64.011144 
4937.000000	64.167690 
4936.000000	64.401316 
4935.000000	64.679789 
4934.000000	64.973521 
4933.000000	65.258860 
4932.000000	65.521478 
4931.000000	65.754604 
4930.000000	65.959072 
4929.000000	66.138458 
4928.000000	66.295170 
4927.000000	66.426539 
4926.000000	66.525840 
4925.000000	66.581487 
4924.000000	66.581845 
4923.000000	66.517138 
4922.000000	66.384077 
4921.000000	66.187953 
4920.000000	65.942788 
4919.000000	65.671777 
4918.000000	65.404224 
4917.000000	65.172147 
4916.000000	65.006089 
4915.000000	64.928221 
4914.000000	64.948606 
4913.000000	65.061092 
4912.000000	65.246343 
4911.000000	65.470862 
4910.000000	65.692853 
4909.000000	65.869808 
4908.000000	65.966200 
4907.000000	65.960645 
4906.000000	65.849018 
4905.000000	65.645813 
4904.000000	65.379667 
4903.000000	65.088415 
4902.000000	64.810729 
4901.000000	64.578437 
4900.000000	64.410710 
4899.000000	64.314031 
4898.000000	64.282393 
4897.000000	64.300966 
4896.000000	64.350175 
4895.000000	64.409852 
4894.000000	64.464116 
4893.000000	64.500427 
4892.000000	64.514660 
4891.000000	64.507389 
4890.000000	64.486217 
4889.000000	64.461541 
4888.000000	64.445471 
4887.000000	64.447689 
4886.000000	64.474058 
4885.000000	64.526224 
4884.000000	64.600133 
4883.000000	64.687347 
4882.000000	64.776492 
4881.000000	64.856123 
4880.000000	64.917039 
4879.000000	64.954495 
4878.000000	64.968323 
4877.000000	64.962434 
4876.000000	64.943718 
4875.000000	64.920043 
4874.000000	64.898371 
4873.000000	64.883255 
4872.000000	64.875340 
4871.000000	64.871931 
4870.000000	64.869475 
4869.000000	64.864921 
4868.000000	64.855670 
4867.000000	64.841651 
4866.000000	64.825153 
4865.000000	64.810824 
4864.000000	64.803624 
4863.000000	64.808011 
4862.000000	64.826083 
4861.000000	64.856934 
4860.000000	64.897489 
4859.000000	64.941310 
4858.000000	64.980697 
4857.000000	65.006732 
4856.000000	65.011334 
4855.000000	64.988613 
4854.000000	64.935946 
4853.000000	64.855694 
4852.000000	64.754867 
4851.000000	64.645028 
4850.000000	64.540195 
4849.000000	64.454507 
4848.000000	64.399623 
4847.000000	64.382243 
4846.000000	64.403128 
4845.000000	64.457178 
4844.000000	64.535212 
4843.000000	64.626049 
4842.000000	64.719533 
4841.000000	64.808678 
4840.000000	64.890384 
4839.000000	64.965009 
4838.000000	65.034031 
4837.000000	65.097665 
4836.000000	65.153026 
4835.000000	65.194201 
4834.000000	65.213084 
4833.000000	65.202474 
4832.000000	65.158104 
4831.000000	65.082359 
4830.000000	64.983463 
4829.000000	64.874505 
4828.000000	64.771223 
4827.000000	64.688086 
4826.000000	64.636707 
4825.000000	64.623475 
4824.000000	64.649200 
4823.000000	64.709377 
4822.000000	64.795374 
4821.000000	64.896464 
4820.000000	65.000844 
4819.000000	65.097498 
4818.000000	65.176534 
4817.000000	65.230894 
4816.000000	65.256214 
4815.000000	65.252065 
4814.000000	65.221858 
4813.000000	65.172696 
4812.000000	65.114974 
4811.000000	65.060043 
4810.000000	65.018868 
4809.000000	64.999341 
4808.000000	65.005135 
4807.000000	65.034985 
4806.000000	65.083909 
4805.000000	65.143966 
4804.000000	65.206503 
4803.000000	65.263247 
4802.000000	65.307593 
4801.000000	65.335083 
4800.000000	65.343236 
4799.000000	65.331935 
4798.000000	65.302705 
4797.000000	65.258526 
4796.000000	65.203118 
4795.000000	65.140318 
4794.000000	65.073513 
4793.000000	65.005636 
4792.000000	64.939498 
4791.000000	64.878010 
4790.000000	64.824604 
4789.000000	64.782595 
4788.000000	64.755344 
4787.000000	64.745545 
4786.000000	64.755082 
4785.000000	64.783501 
4784.000000	64.828515 
4783.000000	64.885568 
4782.000000	64.949059 
4781.000000	65.012836 
4780.000000	65.071225 
4779.000000	65.119671 
4778.000000	65.155005 
4777.000000	65.176296 
4776.000000	65.183472 
4775.000000	65.177154 
4774.000000	65.157914 
4773.000000	65.126323 
4772.000000	65.083193 
4771.000000	65.030384 
4770.000000	64.970660 
4769.000000	64.908099 
4768.000000	64.847421 
4767.000000	64.793443 
4766.000000	64.749836 
4765.000000	64.718818 
4764.000000	64.700818 
4763.000000	64.695000 
4762.000000	64.699339 
4761.000000	64.711785 
4760.000000	64.730262 
4759.000000	64.753866 
4758.000000	64.781975 
4757.000000	64.815115 
4756.000000	64.853787 
4755.000000	64.898729 
4754.000000	64.949941 
4753.000000	65.006256 
4752.000000	65.065598 
4751.000000	65.124392 
4750.000000	65.178489 
4749.000000	65.223145 
4748.000000	65.254187 
4747.000000	65.268230 
4746.000000	65.264010 
4745.000000	65.241599 
4744.000000	65.202975 
4743.000000	65.151262 
4742.000000	65.090751 
4741.000000	65.025353 
4740.000000	64.958310 
4739.000000	64.891910 
4738.000000	64.827656 
4737.000000	64.766359 
4736.000000	64.708876 
4735.000000	64.656472 
4734.000000	64.611315 
4733.000000	64.576053 
4732.000000	64.553499 
4731.000000	64.545369 
4730.000000	64.552092 
4729.000000	64.571857 
4728.000000	64.601373 
4727.000000	64.634990 
4726.000000	64.667606 
4725.000000	64.694762 
4724.000000	64.714574 
4723.000000	64.727520 
4722.000000	64.737129 
4721.000000	64.748406 
4720.000000	64.766812 
4719.000000	64.796590 
4718.000000	64.839005 
4717.000000	64.892148 
4716.000000	64.950847 
4715.000000	65.008091 
4714.000000	65.056252 
4713.000000	65.088987 
4712.000000	65.102910 
4711.000000	65.098142 
4710.000000	65.077447 
4709.000000	65.045213 
4708.000000	65.006899 
4707.000000	64.967370 
4706.000000	64.929890 
4705.000000	64.895558 
4704.000000	64.864611 
4703.000000	64.835929 
4702.000000	64.807844 
4701.000000	64.779090 
4700.000000	64.749026 
4699.000000	64.718604 
4698.000000	64.689946 
4697.000000	64.666748 
4696.000000	64.652395 
4695.000000	64.650201 
4694.000000	64.662194 
4693.000000	64.688539 
4692.000000	64.726877 
4691.000000	64.773344 
4690.000000	64.822959 
4689.000000	64.871144 
4688.000000	64.914202 
4687.000000	64.950871 
4686.000000	64.982390 
4685.000000	65.012001 
4684.000000	65.043902 
4683.000000	65.082073 
4682.000000	65.128993 
4681.000000	65.184855 
4680.000000	65.247416 
4679.000000	65.312695 
4678.000000	65.375447 
4677.000000	65.431380 
4676.000000	65.476465 
4675.000000	65.508341 
4674.000000	65.525126 
4673.000000	65.526247 
4672.000000	65.511345 
4671.000000	65.480828 
4670.000000	65.435695 
4669.000000	65.378260 
4668.000000	65.311837 
4667.000000	65.241217 
4666.000000	65.171718 
4665.000000	65.108871 
4664.000000	65.057325 
4663.000000	65.019917 
4662.000000	64.997243 
4661.000000	64.987397 
4660.000000	64.987039 
4659.000000	64.992475 
4658.000000	65.000343 
4657.000000	65.008664 
4656.000000	65.017652 
4655.000000	65.029406 
4654.000000	65.046882 
4653.000000	65.072584 
4652.000000	65.107488 
4651.000000	65.149879 
4650.000000	65.195512 
4649.000000	65.237951 
4648.000000	65.270566 
4647.000000	65.287446 
4646.000000	65.284824 
4645.000000	65.262055 
4644.000000	65.222167 
4643.000000	65.170979 
4642.000000	65.115833 
4641.000000	65.064334 
4640.000000	65.023088 
4639.000000	64.996290 
4638.000000	64.985918 
4637.000000	64.990592 
4636.000000	65.006446 
4635.000000	65.027880 
4634.000000	65.049099 
4633.000000	65.064740 
4632.000000	65.071201 
4631.000000	65.067386 
4630.000000	65.055155 
4629.000000	65.038943 
4628.000000	65.024638 
4627.000000	65.018653 
4626.000000	65.025734 
4625.000000	65.048003 
4624.000000	65.083289 
4623.000000	65.125918 
4622.000000	65.166878 
4621.000000	65.196180 
4620.000000	65.204882 
4619.000000	65.187144 
4618.000000	65.142011 
4617.000000	65.073680 
4616.000000	64.991092 
4615.000000	64.905953 
4614.000000	64.830660 
4613.000000	64.775657 
4612.000000	64.747428 
4611.000000	64.747714 
4610.000000	64.773249 
4609.000000	64.817142 
4608.000000	64.870166 
4607.000000	64.922904 
4606.000000	64.967823 
4605.000000	65.000224 
4604.000000	65.018463 
4603.000000	65.023612 
4602.000000	65.018963 
4601.000000	65.008687 
4600.000000	64.997053 
4599.000000	64.987039 
4598.000000	64.980006 
4597.000000	64.975452 
4596.000000	64.971899 
4595.000000	64.967560 
4594.000000	64.960885 
4593.000000	64.951443 
4592.000000	64.940190 
4591.000000	64.929366 
4590.000000	64.921975 
4589.000000	64.920759 
4588.000000	64.927339 
4587.000000	64.941358 
4586.000000	64.960312 
4585.000000	64.979290 
4584.000000	64.992761 
4583.000000	64.994263 
4582.000000	64.978122 
4581.000000	64.940571 
4580.000000	64.880967 
4579.000000	64.801812 
4578.000000	64.709186 
4577.000000	64.611363 
4576.000000	64.517879 
4575.000000	64.438652 
4574.000000	64.382410 
4573.000000	64.355254 
4572.000000	64.359569 
4571.000000	64.393758 
4570.000000	64.452552 
4569.000000	64.527273 
4568.000000	64.607954 
4567.000000	64.683938 
4566.000000	64.746546 
4565.000000	64.789271 
4564.000000	64.809823 
4563.000000	64.808797 
4562.000000	64.790534 
4561.000000	64.761757 
4560.000000	64.730548 
4559.000000	64.705181 
4558.000000	64.692234 
4557.000000	64.696335 
4556.000000	64.718103 
4555.000000	64.754462 
4554.000000	64.798569 
4553.000000	64.841318 
4552.000000	64.873051 
4551.000000	64.885616 
4550.000000	64.874148 
4549.000000	64.838385 
4548.000000	64.782547 
4547.000000	64.714717 
4546.000000	64.645004 
4545.000000	64.583683 
4544.000000	64.538645 
4543.000000	64.514398 
4542.000000	64.511418 
4541.000000	64.526987 
4540.000000	64.556360 
4539.000000	64.594340 
4538.000000	64.636397 
4537.000000	64.679598 
4536.000000	64.722609 
4535.000000	64.765167 
4534.000000	64.806509 
4533.000000	64.845323 
4532.000000	64.879465 
4531.000000	64.905810 
4530.000000	64.921021 
4529.000000	64.922451 
4528.000000	64.909219 
4527.000000	64.882421 
4526.000000	64.845347 
4525.000000	64.802837 
4524.000000	64.760375 
4523.000000	64.722704 
4522.000000	64.692902 
4521.000000	64.672780 
4520.000000	64.662480 
4519.000000	64.660644 
4518.000000	64.664554 
4517.000000	64.670324 
4516.000000	64.673995 
4515.000000	64.672160 
4514.000000	64.662909 
4513.000000	64.645910 
4512.000000	64.622592 
4511.000000	64.596700 
4510.000000	64.572167 
4509.000000	64.552044 
4508.000000	64.537191 
4507.000000	64.525961 
4506.000000	64.514589 
4505.000000	64.498162 
4504.000000	64.472293 
4503.000000	64.434385 
4502.000000	64.384746 
4501.000000	64.327025 
4500.000000	64.266228 
4499.000000	64.207530 
4498.000000	64.152956 
4497.000000	64.100861 
4496.000000	64.045667 
4495.000000	63.980388 
4494.000000	63.900113 
4493.000000	63.805294 
4492.000000	63.703536 
4491.000000	63.609027 
4490.000000	63.538575 
4489.000000	63.508582 
4488.000000	63.527584 
4487.000000	63.596749 
4486.000000	63.709902 
4485.000000	63.854742 
4484.000000	64.016962 
4483.000000	64.180970 
4482.000000	64.331078 
4481.000000	64.454507 
4480.000000	64.541983 
4479.000000	64.589595 
4478.000000	64.598894 
4477.000000	64.576029 
4476.000000	64.531683 
4475.000000	64.475917 
4474.000000	64.415240 
4473.000000	64.356040 
4472.000000	64.306807 
4471.000000	64.269661 
4470.000000	64.240193 
4469.000000	64.219737 
4468.000000	64.214444 
4467.000000	64.229297 
4466.000000	64.264631 
4465.000000	64.314651 
4464.000000	64.365625 
4463.000000	64.394116 
4462.000000	64.375638 
4461.000000	64.285659 
4460.000000	64.115095 
4459.000000	63.879275 
4458.000000	63.616800 
4457.000000	63.378953 
4456.000000	63.219666 
4455.000000	63.188743 
4454.000000	63.308238 
4453.000000	63.564038 
4452.000000	63.907647 
4451.000000	64.255833 
4450.000000	64.535403 
4449.000000	64.683365 
4448.000000	64.721441 
4447.000000	64.753246 
4446.000000	64.958715 
4445.000000	65.547156 
4444.000000	66.678404 
4443.000000	68.405342 
4442.000000	70.633029 
4441.000000	73.126292 
4440.000000	75.586414 
4439.000000	77.705025 
4438.000000	79.264068 
4437.000000	80.148434 
4436.000000	80.341768 
4435.000000	79.903984 
4434.000000	78.920006 
4433.000000	77.491259 
4432.000000	75.736594 
4431.000000	73.775172 
4430.000000	71.775197 
4429.000000	69.888520 
4428.000000	68.260383 
4427.000000	66.981625 
4426.000000	66.073417 
4425.000000	65.498518 
4424.000000	65.173482 
4423.000000	65.002512 
4422.000000	64.900207 
4421.000000	64.811396 
4420.000000	64.711570 
4419.000000	64.603471 
4418.000000	64.494681 
4417.000000	64.402794 
4416.000000	64.339852 
4415.000000	64.309310 
4414.000000	64.302778 
4413.000000	64.308261 
4412.000000	64.314198 
4411.000000	64.312243 
4410.000000	64.300036 
4409.000000	64.286828 
4408.000000	64.287137 
4407.000000	64.307332 
4406.000000	64.347743 
4405.000000	64.402365 
4404.000000	64.460539 
4403.000000	64.512443 
4402.000000	64.549779 
4401.000000	64.565062 
4400.000000	64.556765 
4399.000000	64.533638 
4398.000000	64.507269 
4397.000000	64.483785 
4396.000000	64.469528 
4395.000000	64.472198 
4394.000000	64.494180 
4393.000000	64.531278 
4392.000000	64.576435 
4391.000000	64.622163 
4390.000000	64.660692 
4389.000000	64.685940 
4388.000000	64.694619 
4387.000000	64.686751 
4386.000000	64.665150 
4385.000000	64.634776 
4384.000000	64.601922 
4383.000000	64.572763 
4382.000000	64.552164 
4381.000000	64.542698 
4380.000000	64.544224 
4379.000000	64.554476 
4378.000000	64.570260 
4377.000000	64.588618 
4376.000000	64.607334 
4375.000000	64.626097 
4374.000000	64.645600 
4373.000000	64.667797 
4372.000000	64.694118 
4371.000000	64.725589 
4370.000000	64.761614 
4369.000000	64.800429 
4368.000000	64.839172 
4367.000000	64.874696 
4366.000000	64.904427 
4365.000000	64.926743 
4364.000000	64.941453 
4363.000000	64.949011 
4362.000000	64.950013 
4361.000000	64.944744 
4360.000000	64.932894 
4359.000000	64.913725 
4358.000000	64.886283 
4357.000000	64.850306 
4356.000000	64.806222 
4355.000000	64.755558 
4354.000000	64.700937 
4353.000000	64.645385 
4352.000000	64.592313 
4351.000000	64.545130 
4350.000000	64.507198 
4349.000000	64.480805 
4348.000000	64.468169 
4347.000000	64.470791 
4346.000000	64.489698 
4345.000000	64.524078 
4344.000000	64.571857 
4343.000000	64.629316 
4342.000000	64.691448 
4341.000000	64.752197 
4340.000000	64.805936 
4339.000000	64.848256 
4338.000000	64.877200 
4337.000000	64.893221 
4336.000000	64.898991 
4335.000000	64.898586 
4334.000000	64.896273 
4333.000000	64.895343 
4332.000000	64.897418 
4331.000000	64.902114 
4330.000000	64.907956 
4329.000000	64.912390 
4328.000000	64.912414 
4327.000000	64.904737 
4326.000000	64.887404 
4325.000000	64.859080 
4324.000000	64.819264 
4323.000000	64.768171 
4322.000000	64.707040 
4321.000000	64.638137 
4320.000000	64.564418 
4319.000000	64.489889 
4318.000000	64.419507 
4317.000000	64.358496 
4316.000000	64.311599 
4315.000000	64.282298 
4314.000000	64.271879 
4313.000000	64.279341 
4312.000000	64.301514 
4311.000000	64.333319 
4310.000000	64.368343 
4309.000000	64.400792 
4308.000000	64.426565 
4307.000000	64.443778 
4306.000000	64.453053 
4305.000000	64.458012 
4304.000000	64.464092 
4303.000000	64.477205 
4302.000000	64.502286 
4301.000000	64.542031 
4300.000000	64.596009 
4299.000000	64.660787 
4298.000000	64.730763 
4297.000000	64.799332 
4296.000000	64.860391 
4295.000000	64.910125 
4294.000000	64.947056 
4293.000000	64.972639 
4292.000000	64.989757 
4291.000000	65.002679 
4290.000000	65.014386 
4289.000000	65.025806 
4288.000000	65.035200 
4287.000000	65.039801 
4286.000000	65.035104 
4285.000000	65.017056 
4284.000000	64.983177 
4283.000000	64.934206 
4282.000000	64.873504 
4281.000000	64.806747 
4280.000000	64.740681 
4279.000000	64.681673 
4278.000000	64.634561 
4277.000000	64.601850 
4276.000000	64.583158 
4275.000000	64.575982 
4274.000000	64.576816 
4273.000000	64.582371 
4272.000000	64.589643 
4271.000000	64.596939 
4270.000000	64.603614 
4269.000000	64.610338 
4268.000000	64.617347 
4267.000000	64.625597 
4266.000000	64.636039 
4265.000000	64.650321 
4264.000000	64.669847 
4263.000000	64.696788 
4262.000000	64.733409 
4261.000000	64.781641 
4260.000000	64.842367 
4259.000000	64.914989 
4258.000000	64.996838 
4257.000000	65.083432 
4256.000000	65.169095 
4255.000000	65.247797 
4254.000000	65.314245 
4253.000000	65.364646 
4252.000000	65.397119 
4251.000000	65.411448 
4250.000000	65.408420 
4249.000000	65.389943 
4248.000000	65.357756 
4247.000000	65.313673 
4246.000000	65.258884 
4245.000000	65.195488 
4244.000000	65.125560 
4243.000000	65.051937 
4242.000000	64.977788 
4241.000000	64.906764 
4240.000000	64.842605 
4239.000000	64.788413 
4238.000000	64.746689 
4237.000000	64.718532 
4236.000000	64.703774 
4235.000000	64.700889 
4234.000000	64.707279 
4233.000000	64.719104 
4232.000000	64.732527 
4231.000000	64.743971 
4230.000000	64.750480 
4229.000000	64.749932 
4228.000000	64.741492 
4227.000000	64.725589 
4226.000000	64.703512 
4225.000000	64.676976 
4224.000000	64.647936 
4223.000000	64.618325 
4222.000000	64.589643 
4221.000000	64.563298 
4220.000000	64.540719 
4219.000000	64.523935 
4218.000000	64.515209 
4217.000000	64.517283 
4216.000000	64.532232 
4215.000000	64.561533 
4214.000000	64.605093 
4213.000000	64.660811 
4212.000000	64.724564 
4211.000000	64.790415 
4210.000000	64.851927 
4209.000000	64.902400 
4208.000000	64.936113 
4207.000000	64.949250 
4206.000000	64.940834 
4205.000000	64.912652 
4204.000000	64.868855 
4203.000000	64.815616 
4202.000000	64.759993 
4201.000000	64.708709 
4200.000000	64.667320 
4199.000000	64.639377 
4198.000000	64.626264 
4197.000000	64.627146 
4196.000000	64.639687 
4195.000000	64.660334 
4194.000000	64.685630 
4193.000000	64.712238 
4192.000000	64.737606 
4191.000000	64.760065 
4190.000000	64.778685 
4189.000000	64.792752 
4188.000000	64.801836 
4187.000000	64.805531 
4186.000000	64.803838 
4185.000000	64.797210 
4184.000000	64.786720 
4183.000000	64.774298 
4182.000000	64.762425 
4181.000000	64.753603 
4180.000000	64.749836 
4179.000000	64.751935 
4178.000000	64.759874 
4177.000000	64.772868 
4176.000000	64.789605 
4175.000000	64.808154 
4174.000000	64.826965 
4173.000000	64.844918 
4172.000000	64.861464 
4171.000000	64.876532 
4170.000000	64.890408 
4169.000000	64.903736 
4168.000000	64.917039 
4167.000000	64.931011 
4166.000000	64.945864 
4165.000000	64.961791 
4164.000000	64.978671 
4163.000000	64.996409 
4162.000000	65.014863 
4161.000000	65.034079 
4160.000000	65.054297 
4159.000000	65.075755 
4158.000000	65.099072 
4157.000000	65.124130 
4156.000000	65.150499 
4155.000000	65.176200 
4154.000000	65.198612 
4153.000000	65.213751 
4152.000000	65.217399 
4151.000000	65.205883 
4150.000000	65.177249 
4149.000000	65.131926 
4148.000000	65.073180 
4147.000000	65.006518 
4146.000000	64.938998 
4145.000000	64.877700 
4144.000000	64.828681 
4143.000000	64.795827 
4142.000000	64.780402 
4141.000000	64.781069 
4140.000000	64.794778 
4139.000000	64.817762 
4138.000000	64.846420 
4137.000000	64.877843 
4136.000000	64.910030 
4135.000000	64.941740 
4134.000000	64.971852 
4133.000000	64.998722 
4132.000000	65.020084 
4131.000000	65.032863 
4130.000000	65.033555 
4129.000000	65.019822 
4128.000000	64.990234 
4127.000000	64.945459 
4126.000000	64.888191 
4125.000000	64.822983 
4124.000000	64.755535 
4123.000000	64.691901 
4122.000000	64.637732 
4121.000000	64.597272 
4120.000000	64.573287 
4119.000000	64.566802 
4118.000000	64.577436 
4117.000000	64.603543 
4116.000000	64.642286 
4115.000000	64.690089 
4114.000000	64.742588 
4113.000000	64.795279 
4112.000000	64.843034 
4111.000000	64.881324 
4110.000000	64.906454 
4109.000000	64.917016 
4108.000000	64.913845 
4107.000000	64.900422 
4106.000000	64.882302 
4105.000000	64.865899 
4104.000000	64.857649 
4103.000000	64.861607 
4102.000000	64.879250 
4101.000000	64.908289 
4100.000000	64.943981 
4099.000000	64.979743 
4098.000000	65.008974 
4097.000000	65.026831 
4096.000000	65.031433 
4095.000000	65.024280 
4094.000000	65.009617 
4093.000000	64.993095 
4092.000000	64.980196 
4091.000000	64.974999 
4090.000000	64.979219 
4089.000000	64.992332 
4088.000000	65.012216 
4087.000000	65.036058 
4086.000000	65.061473 
4085.000000	65.087127 
4084.000000	65.112924 
4083.000000	65.139293 
4082.000000	65.166664 
4081.000000	65.194821 
4080.000000	65.222215 
4079.000000	65.246176 
4078.000000	65.262866 
4077.000000	65.268826 
4076.000000	65.260815 
4075.000000	65.237784 
4074.000000	65.200042 
4073.000000	65.150094 
4072.000000	65.091800 
4071.000000	65.030026 
4070.000000	64.970040 
4069.000000	64.916801 
4068.000000	64.874196 
4067.000000	64.844799 
4066.000000	64.829087 
4065.000000	64.825725 
4064.000000	64.831185 
4063.000000	64.840769 
4062.000000	64.849472 
4061.000000	64.853191 
4060.000000	64.849567 
4059.000000	64.838457 
4058.000000	64.822101 
4057.000000	64.804458 
4056.000000	64.789891 
4055.000000	64.782333 
4054.000000	64.784431 
4053.000000	64.796805 
4052.000000	64.817762 
4051.000000	64.844131 
4050.000000	64.872264 
4049.000000	64.898991 
4048.000000	64.922213 
4047.000000	64.941334 
4046.000000	64.957237 
4045.000000	64.971733 
4044.000000	64.986491 
4043.000000	65.003108 
4042.000000	65.022206 
4041.000000	65.043449 
4040.000000	65.065884 
4039.000000	65.087938 
4038.000000	65.107727 
4037.000000	65.123820 
4036.000000	65.135383 
4035.000000	65.142488 
4034.000000	65.145587 
4033.000000	65.145969 
4032.000000	65.144777 
4031.000000	65.142369 
4030.000000	65.137767 
4029.000000	65.129160 
4028.000000	65.113806 
4027.000000	65.088868 
4026.000000	65.052318 
4025.000000	65.003800 
4024.000000	64.945173 
4023.000000	64.880275 
4022.000000	64.814734 
4021.000000	64.754509 
4020.000000	64.705038 
4019.000000	64.670228 
4018.000000	64.651226 
4017.000000	64.646482 
4016.000000	64.652109 
4015.000000	64.663028 
4014.000000	64.674019 
4013.000000	64.680838 
4012.000000	64.681196 
4011.000000	64.675211 
4010.000000	64.665079 
4009.000000	64.654588 
4008.000000	64.648723 
4007.000000	64.652442 
4006.000000	64.669752 
4005.000000	64.702582 
4004.000000	64.750337 
4003.000000	64.809679 
4002.000000	64.875483 
4001.000000	64.941120 
4000.000000	65.000033 
3999.000000	65.046477 
3998.000000	65.077042 
3997.000000	65.090489 
3996.000000	65.087676 
3995.000000	65.071058 
3994.000000	65.044260 
3993.000000	65.011024 
3992.000000	64.974617 
3991.000000	64.937829 
3990.000000	64.903545 
3989.000000	64.874172 
3988.000000	64.852070 
3987.000000	64.839124 
3986.000000	64.836716 
3985.000000	64.844441 
3984.000000	64.860033 
3983.000000	64.879298 
3982.000000	64.896869 
3981.000000	64.907908 
3980.000000	64.909648 
3979.000000	64.901924 
3978.000000	64.887762 
3977.000000	64.873075 
3976.000000	64.864993 
3975.000000	64.869642 
3974.000000	64.890193 
3973.000000	64.926075 
3972.000000	64.972639 
3971.000000	65.022277 
3970.000000	65.066576 
3969.000000	65.098953 
3968.000000	65.115976 
3967.000000	65.118312 
3966.000000	65.110421 
3965.000000	65.098929 
3964.000000	65.090966 
3963.000000	65.091872 
3962.000000	65.104317 
3961.000000	65.127944 
3960.000000	65.159964 
3959.000000	65.196418 
3958.000000	65.232563 
3957.000000	65.263962 
3956.000000	65.286779 
3955.000000	65.297770 
3954.000000	65.293836 
3953.000000	65.272283 
3952.000000	65.230941 
3951.000000	65.169429 
3950.000000	65.090012 
3949.000000	64.997816 
3948.000000	64.900970 
3947.000000	64.809203 
3946.000000	64.732384 
3945.000000	64.678215 
3944.000000	64.650321 
3943.000000	64.647936 
3942.000000	64.665627 
3941.000000	64.695525 
3940.000000	64.728403 
3939.000000	64.756846 
3938.000000	64.775943 
3937.000000	64.784884 
3936.000000	64.785599 
3935.000000	64.782714 
3934.000000	64.780902 
3933.000000	64.784288 
3932.000000	64.794874 
3931.000000	64.812517 
3930.000000	64.835190 
3929.000000	64.860153 
3928.000000	64.884471 
3927.000000	64.905595 
3926.000000	64.921689 
3925.000000	64.931344 
3924.000000	64.933633 
3923.000000	64.927935 
3922.000000	64.914107 
3921.000000	64.892625 
3920.000000	64.864802 
3919.000000	64.832448 
3918.000000	64.798212 
3917.000000	64.765357 
3916.000000	64.737915 
3915.000000	64.719629 
3914.000000	64.713954 
3913.000000	64.723372 
3912.000000	64.748692 
3911.000000	64.788603 
3910.000000	64.839577 
3909.000000	64.896249 
3908.000000	64.952659 
3907.000000	65.003132 
3906.000000	65.043258 
3905.000000	65.070652 
3904.000000	65.085172 
3903.000000	65.088510 
3902.000000	65.083932 
3901.000000	65.074849 
3900.000000	65.064120 
3899.000000	65.053272 
3898.000000	65.042519 
3897.000000	65.030956 
3896.000000	65.017676 
3895.000000	65.002036 
3894.000000	64.984512 
3893.000000	64.966559 
3892.000000	64.949774 
3891.000000	64.935731 
3890.000000	64.925336 
3889.000000	64.918851 
3888.000000	64.915728 
3887.000000	64.914965 
3886.000000	64.915633 
3885.000000	64.916825 
3884.000000	64.917564 
3883.000000	64.916920 
3882.000000	64.913868 
3881.000000	64.908075 
3880.000000	64.899849 
3879.000000	64.890480 
3878.000000	64.881992 
3877.000000	64.876914 
3876.000000	64.877748 
3875.000000	64.885926 
3874.000000	64.901304 
3873.000000	64.921760 
3872.000000	64.943790 
3871.000000	64.963126 
3870.000000	64.976072 
3869.000000	64.980411 
3868.000000	64.976310 
3867.000000	64.966654 
3866.000000	64.956045 
3865.000000	64.949536 
3864.000000	64.951181 
3863.000000	64.963006 
3862.000000	64.984202 
3861.000000	65.011835 
3860.000000	65.041160 
3859.000000	65.067529 
3858.000000	65.086531 
3857.000000	65.095400 
3856.000000	65.092778 
3855.000000	65.079045 
3854.000000	65.055727 
3853.000000	65.024995 
3852.000000	64.989352 
3851.000000	64.951372 
3850.000000	64.913654 
3849.000000	64.878678 
3848.000000	64.848780 
3847.000000	64.826035 
3846.000000	64.812302 
3845.000000	64.808845 
3844.000000	64.815974 
3843.000000	64.833116 
3842.000000	64.858579 
3841.000000	64.889574 
3840.000000	64.922809 
3839.000000	64.954638 
3838.000000	64.981627 
3837.000000	65.000772 
3836.000000	65.010023 
3835.000000	65.008425 
3834.000000	64.996123 
3833.000000	64.974689 
3832.000000	64.946842 
3831.000000	64.916467 
3830.000000	64.888072 
3829.000000	64.866018 
3828.000000	64.854121 
3827.000000	64.854168 
3826.000000	64.866042 
3825.000000	64.887046 
3824.000000	64.912533 
3823.000000	64.936590 
3822.000000	64.953517 
3821.000000	64.959216 
3820.000000	64.952182 
3819.000000	64.933800 
3818.000000	64.908289 
3817.000000	64.881801 
3816.000000	64.860749 
3815.000000	64.850187 
3814.000000	64.852523 
3813.000000	64.867138 
3812.000000	64.890670 
3811.000000	64.918351 
3810.000000	64.944791 
3809.000000	64.965677 
3808.000000	64.978432 
3807.000000	64.982438 
3806.000000	64.978837 
3805.000000	64.969611 
3804.000000	64.957284 
3803.000000	64.944148 
3802.000000	64.931988 
3801.000000	64.922213 
3800.000000	64.915490 
3799.000000	64.911985 
3798.000000	64.911508 
3797.000000	64.913606 
3796.000000	64.917659 
3795.000000	64.923167 
3794.000000	64.929699 
3793.000000	64.937090 
3792.000000	64.945697 
3791.000000	64.956164 
3790.000000	64.969468 
3789.000000	64.986181 
3788.000000	65.006232 
3787.000000	65.028524 
3786.000000	65.051054 
3785.000000	65.070819 
3784.000000	65.084767 
3783.000000	65.090417 
3782.000000	65.086650 
3781.000000	65.073919 
3780.000000	65.054535 
3779.000000	65.031766 
3778.000000	65.009403 
3777.000000	64.990854 
3776.000000	64.978718 
3775.000000	64.973974 
3774.000000	64.976048 
3773.000000	64.982891 
3772.000000	64.991569 
3771.000000	64.998888 
3770.000000	65.002131 
3769.000000	64.999604 
3768.000000	64.990973 
3767.000000	64.977383 
3766.000000	64.961099 
3765.000000	64.945292 
3764.000000	64.933419 
3763.000000	64.928436 
3762.000000	64.932227 
3761.000000	64.945387 
3760.000000	64.966845 
3759.000000	64.994096 
3758.000000	65.023446 
3757.000000	65.050935 
3756.000000	65.072512 
3755.000000	65.085339 
3754.000000	65.087699 
3753.000000	65.079283 
3752.000000	65.061330 
3751.000000	65.036106 
3750.000000	65.006804 
3749.000000	64.976716 
3748.000000	64.949154 
3747.000000	64.927029 
3746.000000	64.912581 
3745.000000	64.907002 
3744.000000	64.910531 
3743.000000	64.922499 
3742.000000	64.941215 
3741.000000	64.964199 
3740.000000	64.988374 
3739.000000	65.010476 
3738.000000	65.027451 
3737.000000	65.037012 
3736.000000	65.037846 
3735.000000	65.030002 
3734.000000	65.014910 
3733.000000	64.995193 
3732.000000	64.974212 
3731.000000	64.955759 
3730.000000	64.943289 
3729.000000	64.939665 
3728.000000	64.946413 
3727.000000	64.963507 
3726.000000	64.989686 
3725.000000	65.022540 
3724.000000	65.058541 
3723.000000	65.094256 
3722.000000	65.126514 
3721.000000	65.153431 
3720.000000	65.174007 
3719.000000	65.188574 
3718.000000	65.198206 
3717.000000	65.204644 
3716.000000	65.209579 
3715.000000	65.214347 
3714.000000	65.219378 
3713.000000	65.224456 
3712.000000	65.228772 
3711.000000	65.231394 
3710.000000	65.231370 
3709.000000	65.228104 
3708.000000	65.221405 
3707.000000	65.211534 
3706.000000	65.198969 
3705.000000	65.184450 
3704.000000	65.168666 
3703.000000	65.152645 
3702.000000	65.137243 
3701.000000	65.123510 
3700.000000	65.112185 
3699.000000	65.103626 
3698.000000	65.097832 
3697.000000	65.093946 
3696.000000	65.091037 
3695.000000	65.088057 
3694.000000	65.084528 
3693.000000	65.080428 
3692.000000	65.076851 
3691.000000	65.075731 
3690.000000	65.079236 
3689.000000	65.089035 
3688.000000	65.105462 
3687.000000	65.127348 
3686.000000	65.151786 
3685.000000	65.174913 
3684.000000	65.192890 
3683.000000	65.202999 
3682.000000	65.204572 
3681.000000	65.199160 
3680.000000	65.190052 
3679.000000	65.181231 
3678.000000	65.176367 
3677.000000	65.177583 
3676.000000	65.185022 
3675.000000	65.196657 
3674.000000	65.209317 
3673.000000	65.219044 
3672.000000	65.222573 
3671.000000	65.217781 
3670.000000	65.204334 
3669.000000	65.183329 
3668.000000	65.156579 
3667.000000	65.126371 
3666.000000	65.094780 
3665.000000	65.063667 
3664.000000	65.034675 
3663.000000	65.009450 
3662.000000	64.989805 
3661.000000	64.977335 
3660.000000	64.973449 
3659.000000	64.978408 
3658.000000	64.991545 
3657.000000	65.011096 
3656.000000	65.034580 
3655.000000	65.059018 
3654.000000	65.081405 
3653.000000	65.098905 
3652.000000	65.109539 
3651.000000	65.111827 
3650.000000	65.105414 
3649.000000	65.090894 
3648.000000	65.069937 
3647.000000	65.045022 
3646.000000	65.019464 
3645.000000	64.996695 
3644.000000	64.980101 
3643.000000	64.972424 
3642.000000	64.975237 
3641.000000	64.988803 
3640.000000	65.011692 
3639.000000	65.041041 
3638.000000	65.073060 
3637.000000	65.103697 
3636.000000	65.129137 
3635.000000	65.146636 
3634.000000	65.154385 
3633.000000	65.151643 
3632.000000	65.138936 
3631.000000	65.117835 
3630.000000	65.090560 
3629.000000	65.059876 
3628.000000	65.028905 
3627.000000	65.000605 
3626.000000	64.977431 
3625.000000	64.960932 
3624.000000	64.951586 
3623.000000	64.948916 
3622.000000	64.951729 
3621.000000	64.958524 
3620.000000	64.967608 
3619.000000	64.977455 
3618.000000	64.986753 
3617.000000	64.994502 
3616.000000	64.999628 
3615.000000	65.001296 
3614.000000	64.998507 
3613.000000	64.990758 
3612.000000	64.977812 
3611.000000	64.960479 
3610.000000	64.940571 
3609.000000	64.920926 
3608.000000	64.904737 
3607.000000	64.895176 
3606.000000	64.894533 
3605.000000	64.903616 
3604.000000	64.921569 
3603.000000	64.946007 
3602.000000	64.973735 
3601.000000	65.001535 
3600.000000	65.026712 
3599.000000	65.047502 
3598.000000	65.063166 
3597.000000	65.074110 
3596.000000	65.081405 
3595.000000	65.086150 
3594.000000	65.089082 
3593.000000	65.090751 
3592.000000	65.090966 
3591.000000	65.089297 
3590.000000	65.084815 
3589.000000	65.076994 
3588.000000	65.065050 
3587.000000	65.048551 
3586.000000	65.027236 
3585.000000	65.001201 
3584.000000	64.971113 
3583.000000	64.938282 
3582.000000	64.904546 
3581.000000	64.872193 
3580.000000	64.843678 
3579.000000	64.821219 
3578.000000	64.806461 
3577.000000	64.800238 
3576.000000	64.802551 
3575.000000	64.812898 
3574.000000	64.830183 
3573.000000	64.853143 
3572.000000	64.880466 
3571.000000	64.910697 
3570.000000	64.942049 
3569.000000	64.972519 
3568.000000	64.999818 
3567.000000	65.021729 
3566.000000	65.036177 
3565.000000	65.042042 
3564.000000	65.039372 
3563.000000	65.029573 
3562.000000	65.015506 
3561.000000	65.000367 
3560.000000	64.987373 
3559.000000	64.978528 
3558.000000	64.974641 
3557.000000	64.974737 
3556.000000	64.976739 
3555.000000	64.978051 
3554.000000	64.976549 
3553.000000	64.971017 
3552.000000	64.961576 
3551.000000	64.949536 
3550.000000	64.937090 
3549.000000	64.926648 
3548.000000	64.920234 
3547.000000	64.918923 
3546.000000	64.922738 
3545.000000	64.930868 
3544.000000	64.941740 
3543.000000	64.953637 
3542.000000	64.964866 
3541.000000	64.974141 
3540.000000	64.980649 
3539.000000	64.983749 
3538.000000	64.983320 
3537.000000	64.979362 
3536.000000	64.972305 
3535.000000	64.962935 
3534.000000	64.952373 
3533.000000	64.942097 
3532.000000	64.933633 
3531.000000	64.928531 
3530.000000	64.927721 
3529.000000	64.931368 
3528.000000	64.938640 
3527.000000	64.947986 
3526.000000	64.957094 
3525.000000	64.963507 
3524.000000	64.964914 
3523.000000	64.959788 
3522.000000	64.947485 
3521.000000	64.928579 
3520.000000	64.904689 
3519.000000	64.878082 
3518.000000	64.851474 
3517.000000	64.827322 
3516.000000	64.807844 
3515.000000	64.794635 
3514.000000	64.788651 
3513.000000	64.790153 
3512.000000	64.798712 
3511.000000	64.813661 
3510.000000	64.833760 
3509.000000	64.857912 
3508.000000	64.884734 
3507.000000	64.912939 
3506.000000	64.941549 
3505.000000	64.969611 
3504.000000	64.996361 
3503.000000	65.020871 
3502.000000	65.041947 
3501.000000	65.058279 
3500.000000	65.068554 
3499.000000	65.071725 
3498.000000	65.067672 
3497.000000	65.057086 
3496.000000	65.041804 
3495.000000	65.024662 
3494.000000	65.008926 
3493.000000	64.997720 
3492.000000	64.993166 
3491.000000	64.995980 
3490.000000	65.005469 
3489.000000	65.019559 
3488.000000	65.035557 
3487.000000	65.050816 
3486.000000	65.063571 
3485.000000	65.073132 
3484.000000	65.080046 
3483.000000	65.085768 
3482.000000	65.092039 
3481.000000	65.100097 
3480.000000	65.110301 
3479.000000	65.122032 
3478.000000	65.133690 
3477.000000	65.143322 
3476.000000	65.148854 
3475.000000	65.148782 
3474.000000	65.142416 
3473.000000	65.130043 
3472.000000	65.112662 
3471.000000	65.091824 
3470.000000	65.069103 
3469.000000	65.045905 
3468.000000	65.023350 
3467.000000	65.002179 
3466.000000	64.982795 
3465.000000	64.965486 
3464.000000	64.950203 
3463.000000	64.936685 
3462.000000	64.924478 
3461.000000	64.913129 
3460.000000	64.901876 
3459.000000	64.890146 
3458.000000	64.877438 
3457.000000	64.863681 
3456.000000	64.848971 
3455.000000	64.834094 
3454.000000	64.819931 
3453.000000	64.807629 
3452.000000	64.798641 
3451.000000	64.794421 
3450.000000	64.795899 
3449.000000	64.803671 
3448.000000	64.817667 
3447.000000	64.837050 
3446.000000	64.860439 
3445.000000	64.885950 
3444.000000	64.911603 
3443.000000	64.935708 
3442.000000	64.957118 
3441.000000	64.975285 
3440.000000	64.990162 
3439.000000	65.002393 
3438.000000	65.012693 
3437.000000	65.021443 
3436.000000	65.028405 
3435.000000	65.032863 
3434.000000	65.033745 
3433.000000	65.029883 
3432.000000	65.020442 
3431.000000	65.005517 
3430.000000	64.986109 
3429.000000	64.964175 
3428.000000	64.942026 
3427.000000	64.922165 
3426.000000	64.906430 
3425.000000	64.895915 
3424.000000	64.890718 
3423.000000	64.890098 
3422.000000	64.892697 
3421.000000	64.897203 
3420.000000	64.902567 
3419.000000	64.908361 
3418.000000	64.914751 
3417.000000	64.922380 
3416.000000	64.931821 
3415.000000	64.943289 
3414.000000	64.956521 
3413.000000	64.970660 
3412.000000	64.984321 
3411.000000	64.995932 
3410.000000	65.004205 
3409.000000	65.008330 
3408.000000	65.008282 
3407.000000	65.004515 
3406.000000	64.998149 
3405.000000	64.990139 
3404.000000	64.981579 
3403.000000	64.972829 
3402.000000	64.963793 
3401.000000	64.953994 
3400.000000	64.942646 
3399.000000	64.929389 
3398.000000	64.914393 
3397.000000	64.898610 
3396.000000	64.883613 
3395.000000	64.871287 
3394.000000	64.863109 
3393.000000	64.859914 
3392.000000	64.861488 
3391.000000	64.866733 
3390.000000	64.873695 
3389.000000	64.880204 
3388.000000	64.884352 
3387.000000	64.885091 
3386.000000	64.882588 
3385.000000	64.877986 
3384.000000	64.873266 
3383.000000	64.870500 
3382.000000	64.871525 
3381.000000	64.877390 
3380.000000	64.887833 
3379.000000	64.901638 
3378.000000	64.916467 
3377.000000	64.929676 
3376.000000	64.938712 
3375.000000	64.941310 
3374.000000	64.936256 
3373.000000	64.923405 
3372.000000	64.903926 
3371.000000	64.879965 
3370.000000	64.854431 
3369.000000	64.830446 
3368.000000	64.810681 
3367.000000	64.796733 
3366.000000	64.788746 
3365.000000	64.785623 
3364.000000	64.785265 
3363.000000	64.785099 
3362.000000	64.782857 
3361.000000	64.777183 
3360.000000	64.768004 
3359.000000	64.756679 
3358.000000	64.745306 
3357.000000	64.736580 
3356.000000	64.732813 
3355.000000	64.735555 
3354.000000	64.745116 
3353.000000	64.760565 
3352.000000	64.780116 
3351.000000	64.801669 
3350.000000	64.823198 
3349.000000	64.843344 
3348.000000	64.861416 
3347.000000	64.877510 
3346.000000	64.892077 
3345.000000	64.905786 
3344.000000	64.919233 
3343.000000	64.932632 
3342.000000	64.945864 
3341.000000	64.958262 
3340.000000	64.968895 
3339.000000	64.976668 
3338.000000	64.980792 
3337.000000	64.980435 
3336.000000	64.974999 
3335.000000	64.964246 
3334.000000	64.948463 
3333.000000	64.928150 
3332.000000	64.904093 
3331.000000	64.877367 
3330.000000	64.849448 
3329.000000	64.821839 
3328.000000	64.796304 
3327.000000	64.774513 
3326.000000	64.757752 
3325.000000	64.747262 
3324.000000	64.743566 
3323.000000	64.746856 
3322.000000	64.756274 
3321.000000	64.770436 
3320.000000	64.787268 
3319.000000	64.804053 
3318.000000	64.818048 
3317.000000	64.826941 
3316.000000	64.829134 
3315.000000	64.823865 
3314.000000	64.811801 
3313.000000	64.794898 
3312.000000	64.776039 
3311.000000	64.758515 
3310.000000	64.745664 
3309.000000	64.740133 
3308.000000	64.743614 
3307.000000	64.756417 
3306.000000	64.777636 
3305.000000	64.805245 
3304.000000	64.836645 
3303.000000	64.869093 
3302.000000	64.899992 
3301.000000	64.927554 
3300.000000	64.950871 
3299.000000	64.969992 
3298.000000	64.985656 
3297.000000	64.999151 
3296.000000	65.011954 
3295.000000	65.024924 
3294.000000	65.038275 
3293.000000	65.050816 
3292.000000	65.060710 
3291.000000	65.065479 
3290.000000	65.062832 
3289.000000	65.051126 
3288.000000	65.030193 
3287.000000	65.001416 
3286.000000	64.967823 
3285.000000	64.933586 
3284.000000	64.903187 
3283.000000	64.880704 
3282.000000	64.868998 
3281.000000	64.869141 
3280.000000	64.880204 
3279.000000	64.899635 
3278.000000	64.923739 
3277.000000	64.948320 
3276.000000	64.969754 
3275.000000	64.985299 
3274.000000	64.993715 
3273.000000	64.994931 
3272.000000	64.990186 
3271.000000	64.981722 
3270.000000	64.971947 
3269.000000	64.963078 
3268.000000	64.956331 
3267.000000	64.952373 
3266.000000	64.950680 
3265.000000	64.950108 
3264.000000	64.949250 
3263.000000	64.947152 
3262.000000	64.943695 
3261.000000	64.939379 
3260.000000	64.935517 
3259.000000	64.933538 
3258.000000	64.934682 
3257.000000	64.939284 
3256.000000	64.946722 
3255.000000	64.955520 
3254.000000	64.963698 
3253.000000	64.969372 
3252.000000	64.971399 
3251.000000	64.969611 
3250.000000	64.965128 
3249.000000	64.959931 
3248.000000	64.956212 
3247.000000	64.955735 
3246.000000	64.959096 
3245.000000	64.965510 
3244.000000	64.973115 
3243.000000	64.979052 
3242.000000	64.980530 
3241.000000	64.975118 
3240.000000	64.961671 
3239.000000	64.940261 
3238.000000	64.912343 
3237.000000	64.880418 
3236.000000	64.847278 
3235.000000	64.815640 
3234.000000	64.787697 
3233.000000	64.764618 
3232.000000	64.746665 
3231.000000	64.733076 
3230.000000	64.722728 
3229.000000	64.714312 
3228.000000	64.706802 
3227.000000	64.699697 
3226.000000	64.693093 
3225.000000	64.687228 
3224.000000	64.682579 
3223.000000	64.679455 
3222.000000	64.677882 
3221.000000	64.677476 
3220.000000	64.677691 
3219.000000	64.677786 
3218.000000	64.677143 
3217.000000	64.675498 
3216.000000	64.673137 
3215.000000	64.670562 
3214.000000	64.668822 
3213.000000	64.668893 
3212.000000	64.671778 
3211.000000	64.678025 
3210.000000	64.687824 
3209.000000	64.700746 
3208.000000	64.715909 
3207.000000	64.732074 
3206.000000	64.747786 
3205.000000	64.761400 
3204.000000	64.771771 
3203.000000	64.778256 
3202.000000	64.781165 
3201.000000	64.781665 
3200.000000	64.781832 
3199.000000	64.784097 
3198.000000	64.790821 
3197.000000	64.803457 
3196.000000	64.822316 
3195.000000	64.845991 
3194.000000	64.872074 
3193.000000	64.897131 
3192.000000	64.917755 
3191.000000	64.931201 
3190.000000	64.935898 
3189.000000	64.931917 
3188.000000	64.920783 
3187.000000	64.905071 
3186.000000	64.887762 
3185.000000	64.871788 
3184.000000	64.859271 
3183.000000	64.851355 
3182.000000	64.848256 
3181.000000	64.849281 
3180.000000	64.853549 
3179.000000	64.859771 
3178.000000	64.866781 
3177.000000	64.873671 
3176.000000	64.879679 
3175.000000	64.884352 
3174.000000	64.887475 
3173.000000	64.888930 
3172.000000	64.888739 
3171.000000	64.886927 
3170.000000	64.883494 
3169.000000	64.878487 
3168.000000	64.872050 
3167.000000	64.864492 
3166.000000	64.856410 
3165.000000	64.848637 
3164.000000	64.842033 
3163.000000	64.837431 
3162.000000	64.835190 
3161.000000	64.835238 
3160.000000	64.836835 
3159.000000	64.839053 
3158.000000	64.840793 
3157.000000	64.841055 
3156.000000	64.839386 
3155.000000	64.835715 
3154.000000	64.830803 
3153.000000	64.825820 
3152.000000	64.822316 
3151.000000	64.821767 
3150.000000	64.825344 
3149.000000	64.833617 
3148.000000	64.846420 
3147.000000	64.862728 
3146.000000	64.880800 
3145.000000	64.898633 
3144.000000	64.914035 
3143.000000	64.925146 
3142.000000	64.930653 
3141.000000	64.930009 
3140.000000	64.923477 
3139.000000	64.911794 
3138.000000	64.896273 
3137.000000	64.877986 
3136.000000	64.857983 
3135.000000	64.836716 
3134.000000	64.814376 
3133.000000	64.790964 
3132.000000	64.766621 
3131.000000	64.741945 
3130.000000	64.718222 
3129.000000	64.697217 
3128.000000	64.680957 
3127.000000	64.671349 
3126.000000	64.669656 
3125.000000	64.676284 
3124.000000	64.690518 
3123.000000	64.710736 
3122.000000	64.734625 
3121.000000	64.759492 
3120.000000	64.782905 
3119.000000	64.802980 
3118.000000	64.818429 
3117.000000	64.829039 
3116.000000	64.835095 
3115.000000	64.837217 
3114.000000	64.835977 
3113.000000	64.831829 
3112.000000	64.824914 
3111.000000	64.815044 
3110.000000	64.802217 
3109.000000	64.786744 
3108.000000	64.769673 
3107.000000	64.752697 
3106.000000	64.737868 
3105.000000	64.727330 
3104.000000	64.722704 
3103.000000	64.724588 
3102.000000	64.732646 
3101.000000	64.745187 
3100.000000	64.760065 
3099.000000	64.774727 
3098.000000	64.787340 
3097.000000	64.796924 
3096.000000	64.803624 
3095.000000	64.808678 
3094.000000	64.813780 
3093.000000	64.820456 
3092.000000	64.829397 
3091.000000	64.840221 
3090.000000	64.851403 
3089.000000	64.860510 
3088.000000	64.864945 
3087.000000	64.862418 
3086.000000	64.851593 
3085.000000	64.832639 
3084.000000	64.806866 
3083.000000	64.776921 
3082.000000	64.746117 
3081.000000	64.717864 
3080.000000	64.695167 
3079.000000	64.680051 
3078.000000	64.673376 
3077.000000	64.674615 
3076.000000	64.682269 
3075.000000	64.694094 
3074.000000	64.707541 
3073.000000	64.720416 
3072.000000	64.731025 
3071.000000	64.738702 
3070.000000	64.743685 
3069.000000	64.747214 
3068.000000	64.750838 
3067.000000	64.756512 
3066.000000	64.765739 
3065.000000	64.779353 
3064.000000	64.797282 
3063.000000	64.818525 
3062.000000	64.841413 
3061.000000	64.863729 
3060.000000	64.883232 
3059.000000	64.897918 
3058.000000	64.906382 
3057.000000	64.908099 
3056.000000	64.903640 
3055.000000	64.894485 
3054.000000	64.882826 
3053.000000	64.871358 
3052.000000	64.862489 
3051.000000	64.858102 
3050.000000	64.859080 
3049.000000	64.865303 
3048.000000	64.875626 
3047.000000	64.888310 
3046.000000	64.901423 
3045.000000	64.913296 
3044.000000	64.922761 
3043.000000	64.929461 
3042.000000	64.933443 
3041.000000	64.935064 
3040.000000	64.934539 
3039.000000	64.931869 
3038.000000	64.926719 
3037.000000	64.918780 
3036.000000	64.908027 
3035.000000	64.895129 
3034.000000	64.881587 
3033.000000	64.869594 
3032.000000	64.861559 
3031.000000	64.859318 
3030.000000	64.863729 
3029.000000	64.874196 
3028.000000	64.888668 
3027.000000	64.904165 
3026.000000	64.917230 
3025.000000	64.925050 
3024.000000	64.926075 
3023.000000	64.920449 
3022.000000	64.909601 
3021.000000	64.895939 
3020.000000	64.882087 
3019.000000	64.870071 
3018.000000	64.860796 
3017.000000	64.854049 
3016.000000	64.848732 
3015.000000	64.843654 
3014.000000	64.837765 
3013.000000	64.830732 
3012.000000	64.823055 
3011.000000	64.815926 
3010.000000	64.810681 
3009.000000	64.808607 
3008.000000	64.810490 
3007.000000	64.816427 
3006.000000	64.825773 
3005.000000	64.837598 
3004.000000	64.850616 
3003.000000	64.863824 
3002.000000	64.876127 
3001.000000	64.886784 
3000.000000	64.894914 
2999.000000	64.899635 
2998.000000	64.899945 
2997.000000	64.894819 
2996.000000	64.883208 
2995.000000	64.864611 
2994.000000	64.838933 
2993.000000	64.806866 
2992.000000	64.770007 
2991.000000	64.730596 
2990.000000	64.691686 
2989.000000	64.656496 
2988.000000	64.628362 
2987.000000	64.610028 
2986.000000	64.603161 
2985.000000	64.607834 
2984.000000	64.622449 
2983.000000	64.643883 
2982.000000	64.667940 
2981.000000	64.690113 
2980.000000	64.706158 
2979.000000	64.713048 
2978.000000	64.709353 
2977.000000	64.695453 
2976.000000	64.673352 
2975.000000	64.646363 
2974.000000	64.618134 
2973.000000	64.592075 
2972.000000	64.571022 
2971.000000	64.556574 
2970.000000	64.549398 
2969.000000	64.549207 
2968.000000	64.554929 
2967.000000	64.565062 
2966.000000	64.577698 
2965.000000	64.591193 
2964.000000	64.603853 
2963.000000	64.614653 
2962.000000	64.623022 
2961.000000	64.629173 
2960.000000	64.633870 
2959.000000	64.638018 
2958.000000	64.642190 
2957.000000	64.646553 
2956.000000	64.650917 
2955.000000	64.654588 
2954.000000	64.656782 
2953.000000	64.657258 
2952.000000	64.656352 
2951.000000	64.655399 
2950.000000	64.656305 
2949.000000	64.661192 
2948.000000	64.671492 
2947.000000	64.687490 
2946.000000	64.707708 
2945.000000	64.729189 
2944.000000	64.747905 
2943.000000	64.759898 
2942.000000	64.761948 
2941.000000	64.752936 
2940.000000	64.733648 
2939.000000	64.706707 
2938.000000	64.675927 
2937.000000	64.645528 
2936.000000	64.619159 
2935.000000	64.599514 
2934.000000	64.587950 
2933.000000	64.584398 
2932.000000	64.587807 
2931.000000	64.596581 
2930.000000	64.608716 
2929.000000	64.622354 
2928.000000	64.636039 
2927.000000	64.648938 
2926.000000	64.660406 
2925.000000	64.670228 
2924.000000	64.678430 
2923.000000	64.685058 
2922.000000	64.690303 
2921.000000	64.694404 
2920.000000	64.697647 
2919.000000	64.700293 
2918.000000	64.702773 
2917.000000	64.705395 
2916.000000	64.708590 
2915.000000	64.712715 
2914.000000	64.717817 
2913.000000	64.723801 
2912.000000	64.730358 
2911.000000	64.737033 
2910.000000	64.743041 
2909.000000	64.747548 
2908.000000	64.749598 
2907.000000	64.748263 
2906.000000	64.742922 
2905.000000	64.733290 
2904.000000	64.719367 
2903.000000	64.701509 
2902.000000	64.680695 
2901.000000	64.658069 
2900.000000	64.635038 
2899.000000	64.613103 
2898.000000	64.593696 
2897.000000	64.578223 
2896.000000	64.567804 
2895.000000	64.563179 
2894.000000	64.564251 
2893.000000	64.570283 
2892.000000	64.579749 
2891.000000	64.590215 
2890.000000	64.599013 
2889.000000	64.603567 
2888.000000	64.602041 
2887.000000	64.593625 
2886.000000	64.578962 
2885.000000	64.559912 
2884.000000	64.539456 
2883.000000	64.520907 
2882.000000	64.507317 
2881.000000	64.500927 
2880.000000	64.502644 
2879.000000	64.512014 
2878.000000	64.527583 
2877.000000	64.547085 
2876.000000	64.568233 
2875.000000	64.589071 
2874.000000	64.608192 
2873.000000	64.624905 
2872.000000	64.639091 
2871.000000	64.650940 
2870.000000	64.660501 
2869.000000	64.667677 
2868.000000	64.672136 
2867.000000	64.673328 
2866.000000	64.671063 
2865.000000	64.665484 
2864.000000	64.657497 
2863.000000	64.648485 
2862.000000	64.640307 
2861.000000	64.634704 
2860.000000	64.633083 
2859.000000	64.635944 
2858.000000	64.642763 
2857.000000	64.652156 
2856.000000	64.662051 
2855.000000	64.670300 
2854.000000	64.675116 
2853.000000	64.675545 
2852.000000	64.671826 
2851.000000	64.665269 
2850.000000	64.657902 
2849.000000	64.652037 
2848.000000	64.649629 
2847.000000	64.651870 
2846.000000	64.658808 
2845.000000	64.669251 
2844.000000	64.681005 
2843.000000	64.691400 
2842.000000	64.697790 
2841.000000	64.698028 
2840.000000	64.691209 
2839.000000	64.677667 
2838.000000	64.659118 
2837.000000	64.638209 
2836.000000	64.618134 
2835.000000	64.601945 
2834.000000	64.592266 
2833.000000	64.590668 
2832.000000	64.597678 
2831.000000	64.612722 
2830.000000	64.634299 
2829.000000	64.660382 
2828.000000	64.688420 
2827.000000	64.715957 
2826.000000	64.740610 
2825.000000	64.760327 
2824.000000	64.773607 
2823.000000	64.779615 
2822.000000	64.778375 
2821.000000	64.770746 
2820.000000	64.758419 
2819.000000	64.743471 
2818.000000	64.728355 
2817.000000	64.715337 
2816.000000	64.705967 
2815.000000	64.700841 
2814.000000	64.699673 
2813.000000	64.701461 
2812.000000	64.704918 
2811.000000	64.708828 
2810.000000	64.712524 
2809.000000	64.715838 
2808.000000	64.719200 
2807.000000	64.723324 
2806.000000	64.728784 
2805.000000	64.735794 
2804.000000	64.743804 
2803.000000	64.751744 
2802.000000	64.758253 
2801.000000	64.762043 
2800.000000	64.762258 
2799.000000	64.758634 
2798.000000	64.751744 
2797.000000	64.742827 
2796.000000	64.733409 
2795.000000	64.724969 
2794.000000	64.718675 
2793.000000	64.715218 
2792.000000	64.714765 
2791.000000	64.717006 
2790.000000	64.721536 
2789.000000	64.727663 
2788.000000	64.734745 
2787.000000	64.742255 
2786.000000	64.749526 
2785.000000	64.756083 
2784.000000	64.761567 
2783.000000	64.765691 
2782.000000	64.768314 
2781.000000	64.769554 
2780.000000	64.769554 
2779.000000	64.768767 
2778.000000	64.767670 
2777.000000	64.766550 
2776.000000	64.765596 
2775.000000	64.764833 
2774.000000	64.764165 
2773.000000	64.763307 
2772.000000	64.762043 
2771.000000	64.760422 
2770.000000	64.758682 
2769.000000	64.757347 
2768.000000	64.757156 
2767.000000	64.758777 
2766.000000	64.762592 
2765.000000	64.768552 
2764.000000	64.776134 
2763.000000	64.784097 
2762.000000	64.790749 
2761.000000	64.794182 
2760.000000	64.792728 
2759.000000	64.785408 
2758.000000	64.772152 
2757.000000	64.754033 
2756.000000	64.733028 
2755.000000	64.711833 
2754.000000	64.693260 
2753.000000	64.679718 
2752.000000	64.672780 
2751.000000	64.672756 
2750.000000	64.678812 
2749.000000	64.688968 
2748.000000	64.700794 
2747.000000	64.711809 
2746.000000	64.719963 
2745.000000	64.724087 
2744.000000	64.723849 
2743.000000	64.719772 
2742.000000	64.713096 
2741.000000	64.705228 
2740.000000	64.697599 
2739.000000	64.691519 
2738.000000	64.687991 
2737.000000	64.687848 
2736.000000	64.691424 
2735.000000	64.698624 
2734.000000	64.708900 
2733.000000	64.721369 
2732.000000	64.734530 
2731.000000	64.746880 
2730.000000	64.756727 
2729.000000	64.762854 
2728.000000	64.764451 
2727.000000	64.761281 
2726.000000	64.753746 
2725.000000	64.742851 
2724.000000	64.729785 
2723.000000	64.715838 
2722.000000	64.702081 
2721.000000	64.689326 
2720.000000	64.677929 
2719.000000	64.668083 
2718.000000	64.659619 
2717.000000	64.652299 
2716.000000	64.645814 
2715.000000	64.640069 
2714.000000	64.634776 
2713.000000	64.629817 
2712.000000	64.625310 
2711.000000	64.621591 
2710.000000	64.619326 
2709.000000	64.619207 
2708.000000	64.621782 
2707.000000	64.627313 
2706.000000	64.635562 
2705.000000	64.645814 
2704.000000	64.656758 
2703.000000	64.667034 
2702.000000	64.675402 
2701.000000	64.680743 
2700.000000	64.682722 
2699.000000	64.681291 
2698.000000	64.677071 
2697.000000	64.670896 
2696.000000	64.663457 
2695.000000	64.655041 
2694.000000	64.645767 
2693.000000	64.635276 
2692.000000	64.623045 
2691.000000	64.608597 
2690.000000	64.592027 
2689.000000	64.573812 
2688.000000	64.554905 
2687.000000	64.536666 
2686.000000	64.520740 
2685.000000	64.508724 
2684.000000	64.501857 
2683.000000	64.500832 
2682.000000	64.505696 
2681.000000	64.515566 
2680.000000	64.528799 
2679.000000	64.543366 
2678.000000	64.557361 
2677.000000	64.569425 
2676.000000	64.578962 
2675.000000	64.586329 
2674.000000	64.592599 
2673.000000	64.599227 
2672.000000	64.607334 
2671.000000	64.617323 
2670.000000	64.628863 
2669.000000	64.640855 
2668.000000	64.651918 
2667.000000	64.660716 
2666.000000	64.666557 
2665.000000	64.669775 
2664.000000	64.671683 
2663.000000	64.674139 
2662.000000	64.678907 
2661.000000	64.687228 
2660.000000	64.699316 
2659.000000	64.714360 
2658.000000	64.730811 
2657.000000	64.746904 
2656.000000	64.761304 
2655.000000	64.773440 
2654.000000	64.783358 
2653.000000	64.791488 
2652.000000	64.798593 
2651.000000	64.805126 
2650.000000	64.811277 
2649.000000	64.816594 
2648.000000	64.820408 
2647.000000	64.821696 
2646.000000	64.819574 
2645.000000	64.813256 
2644.000000	64.802169 
2643.000000	64.786076 
2642.000000	64.765000 
2641.000000	64.739441 
2640.000000	64.710211 
2639.000000	64.678788 
2638.000000	64.647197 
2637.000000	64.617896 
2636.000000	64.593386 
2635.000000	64.575695 
2634.000000	64.565968 
2633.000000	64.564085 
2632.000000	64.568662 
2631.000000	64.577507 
2630.000000	64.588260 
2629.000000	64.598894 
2628.000000	64.608192 
2627.000000	64.615702 
2626.000000	64.621853 
2625.000000	64.627218 
2624.000000	64.632391 
2623.000000	64.637660 
2622.000000	64.643001 
2621.000000	64.648032 
2620.000000	64.652299 
2619.000000	64.655566 
2618.000000	64.657759 
2617.000000	64.659500 
2616.000000	64.661407 
2615.000000	64.663934 
2614.000000	64.667224 
2613.000000	64.670968 
2612.000000	64.674186 
2611.000000	64.675498 
2610.000000	64.673471 
2609.000000	64.667248 
2608.000000	64.656543 
2607.000000	64.641952 
2606.000000	64.624977 
2605.000000	64.607834 
2604.000000	64.592838 
2603.000000	64.582037 
2602.000000	64.576888 
2601.000000	64.577627 
2600.000000	64.583563 
2599.000000	64.592814 
2598.000000	64.602828 
2597.000000	64.610862 
2596.000000	64.614605 
2595.000000	64.612793 
2594.000000	64.605283 
2593.000000	64.593434 
2592.000000	64.579987 
2591.000000	64.568471 
2590.000000	64.562487 
2589.000000	64.564967 
2588.000000	64.577388 
2587.000000	64.599370 
2586.000000	64.628696 
2585.000000	64.661622 
2584.000000	64.693856 
2583.000000	64.721155 
2582.000000	64.740467 
2581.000000	64.750361 
2580.000000	64.751100 
2579.000000	64.744400 
2578.000000	64.732885 
2577.000000	64.719319 
2576.000000	64.705944 
2575.000000	64.694190 
2574.000000	64.684462 
2573.000000	64.676427 
2572.000000	64.669227 
2571.000000	64.662194 
2570.000000	64.654874 
2569.000000	64.647459 
2568.000000	64.640378 
2567.000000	64.634037 
2566.000000	64.628791 
2565.000000	64.624714 
2564.000000	64.621639 
2563.000000	64.618992 
2562.000000	64.616250 
2561.000000	64.612841 
2560.000000	64.608526 
2559.000000	64.603376 
2558.000000	64.597988 
2557.000000	64.593243 
2556.000000	64.590144 
2555.000000	64.589452 
2554.000000	64.591670 
2553.000000	64.596819 
2552.000000	64.604377 
2551.000000	64.613318 
2550.000000	64.622616 
2549.000000	64.631295 
2548.000000	64.638781 
2547.000000	64.644885 
2546.000000	64.649701 
2545.000000	64.653539 
2544.000000	64.656734 
2543.000000	64.659500 
2542.000000	64.661645 
2541.000000	64.662718 
2540.000000	64.662337 
2539.000000	64.660215 
2538.000000	64.656662 
2537.000000	64.652466 
2536.000000	64.648795 
2535.000000	64.646983 
2534.000000	64.648032 
2533.000000	64.652371 
2532.000000	64.659762 
2531.000000	64.669013 
2530.000000	64.678406 
2529.000000	64.686083 
2528.000000	64.690661 
2527.000000	64.691233 
2526.000000	64.687705 
2525.000000	64.680719 
2524.000000	64.671444 
2523.000000	64.661359 
2522.000000	64.652037 
2521.000000	64.644861 
2520.000000	64.640951 
2519.000000	64.641118 
2518.000000	64.645552 
2517.000000	64.654231 
2516.000000	64.666366 
2515.000000	64.680910 
2514.000000	64.695954 
2513.000000	64.709234 
2512.000000	64.718079 
2511.000000	64.720058 
2510.000000	64.713549 
2509.000000	64.697670 
2508.000000	64.673352 
2507.000000	64.643049 
2506.000000	64.610671 
2505.000000	64.580893 
2504.000000	64.558362 
2503.000000	64.546823 
2502.000000	64.548134 
2501.000000	64.562058 
2500.000000	64.585852 
2499.000000	64.614963 
2498.000000	64.643859 
2497.000000	64.667367 
2496.000000	64.681744 
2495.000000	64.685583 
2494.000000	64.680051 
2493.000000	64.668440 
2492.000000	64.655041 
2491.000000	64.643836 
2490.000000	64.637637 
2489.000000	64.637136 
2488.000000	64.640951 
2487.000000	64.645767 
2486.000000	64.647865 
2485.000000	64.643788 
2484.000000	64.631533 
2483.000000	64.610958 
2482.000000	64.583706 
2481.000000	64.553165 
2480.000000	64.523339 
2479.000000	64.498162 
2478.000000	64.480519 
2477.000000	64.471793 
2476.000000	64.471888 
2475.000000	64.479303 
2474.000000	64.491772 
2473.000000	64.506816 
2472.000000	64.522266 
2471.000000	64.536547 
2470.000000	64.548778 
2469.000000	64.558887 
2468.000000	64.567375 
2467.000000	64.574909 
2466.000000	64.582085 
2465.000000	64.589309 
2464.000000	64.596748 
2463.000000	64.604377 
2462.000000	64.611768 
2461.000000	64.618492 
2460.000000	64.624118 
2459.000000	64.628362 
2458.000000	64.631056 
2457.000000	64.632225 
2456.000000	64.631676 
2455.000000	64.629578 
2454.000000	64.625859 
2453.000000	64.620757 
2452.000000	64.614319 
2451.000000	64.606738 
2450.000000	64.598131 
2449.000000	64.588499 
2448.000000	64.577674 
2447.000000	64.565420 
2446.000000	64.551568 
2445.000000	64.536142 
2444.000000	64.519453 
2443.000000	64.502048 
2442.000000	64.485049 
2441.000000	64.469981 
2440.000000	64.458370 
2439.000000	64.451503 
2438.000000	64.450383 
2437.000000	64.455461 
2436.000000	64.466428 
2435.000000	64.482450 
2434.000000	64.502143 
2433.000000	64.523839 
2432.000000	64.546036 
2431.000000	64.567160 
2430.000000	64.586114 
2429.000000	64.602041 
2428.000000	64.614391 
2427.000000	64.622950 
2426.000000	64.627742 
2425.000000	64.628815 
2424.000000	64.626693 
2423.000000	64.621710 
2422.000000	64.614200 
2421.000000	64.604210 
2420.000000	64.591956 
2419.000000	64.577269 
2418.000000	64.560079 
2417.000000	64.540243 
2416.000000	64.518117 
2415.000000	64.494204 
2414.000000	64.469432 
2413.000000	64.445066 
2412.000000	64.422726 
2411.000000	64.404058 
2410.000000	64.390397 
2409.000000	64.382553 
2408.000000	64.380860 
2407.000000	64.384531 
2406.000000	64.392375 
2405.000000	64.402484 
2404.000000	64.413094 
2403.000000	64.422631 
2402.000000	64.430475 
2401.000000	64.436626 
2400.000000	64.441847 
2399.000000	64.447259 
2398.000000	64.453887 
2397.000000	64.462327 
2396.000000	64.472341 
2395.000000	64.482998 
2394.000000	64.492750 
2393.000000	64.499878 
2392.000000	64.503073 
2391.000000	64.501714 
2390.000000	64.496159 
2389.000000	64.487862 
2388.000000	64.478850 
2387.000000	64.471220 
2386.000000	64.466762 
2385.000000	64.466428 
2384.000000	64.470195 
2383.000000	64.477133 
2382.000000	64.485645 
2381.000000	64.493823 
2380.000000	64.500117 
2379.000000	64.503693 
2378.000000	64.504361 
2377.000000	64.503026 
2376.000000	64.500999 
2375.000000	64.500093 
2374.000000	64.501690 
2373.000000	64.506649 
2372.000000	64.514994 
2371.000000	64.526104 
2370.000000	64.538455 
2369.000000	64.550471 
2368.000000	64.560866 
2367.000000	64.568996 
2366.000000	64.574956 
2365.000000	64.579606 
2364.000000	64.584088 
2363.000000	64.589476 
2362.000000	64.596319 
2361.000000	64.604163 
2360.000000	64.611554 
2359.000000	64.616465 
2358.000000	64.616703 
2357.000000	64.610576 
2356.000000	64.597511 
2355.000000	64.578390 
2354.000000	64.555311 
2353.000000	64.531445 
2352.000000	64.509820 
2351.000000	64.493083 
2350.000000	64.482402 
2349.000000	64.477729 
2348.000000	64.477324 
2347.000000	64.478564 
2346.000000	64.478468 
2345.000000	64.474368 
2344.000000	64.464712 
2343.000000	64.449191 
2342.000000	64.429044 
2341.000000	64.406704 
2340.000000	64.385366 
2339.000000	64.368200 
2338.000000	64.358019 
2337.000000	64.356851 
2336.000000	64.365506 
2335.000000	64.383530 
2334.000000	64.409327 
2333.000000	64.440512 
2332.000000	64.474105 
2331.000000	64.506936 
2330.000000	64.535856 
2329.000000	64.558291 
2328.000000	64.572453 
2327.000000	64.577531 
2326.000000	64.573740 
2325.000000	64.562416 
2324.000000	64.545869 
2323.000000	64.526844 
2322.000000	64.508247 
2321.000000	64.492583 
2320.000000	64.481830 
2319.000000	64.476728 
2318.000000	64.477181 
2317.000000	64.481878 
2316.000000	64.488863 
2315.000000	64.495825 
2314.000000	64.500451 
2313.000000	64.500832 
2312.000000	64.495658 
2311.000000	64.484596 
2310.000000	64.468193 
2309.000000	64.447832 
2308.000000	64.425706 
2307.000000	64.404344 
2306.000000	64.386343 
2305.000000	64.373993 
2304.000000	64.368987 
2303.000000	64.371919 
2302.000000	64.382433 
2301.000000	64.398980 
2300.000000	64.419198 
2299.000000	64.440369 
2298.000000	64.459729 
2297.000000	64.474821 
2296.000000	64.483976 
2295.000000	64.486360 
2294.000000	64.481973 
2293.000000	64.471697 
2292.000000	64.456844 
2291.000000	64.438962 
2290.000000	64.419603 
2289.000000	64.400339 
2288.000000	64.382481 
2287.000000	64.367127 
2286.000000	64.355039 
2285.000000	64.346599 
2284.000000	64.341878 
2283.000000	64.340782 
2282.000000	64.342975 
2281.000000	64.348053 
2280.000000	64.355731 
2279.000000	64.365839 
2278.000000	64.378428 
2277.000000	64.393496 
2276.000000	64.410710 
2275.000000	64.429426 
2274.000000	64.448475 
2273.000000	64.466285 
2272.000000	64.481210 
2271.000000	64.491772 
2270.000000	64.497184 
2269.000000	64.497351 
2268.000000	64.493346 
2267.000000	64.486742 
2266.000000	64.479446 
2265.000000	64.473056 
2264.000000	64.468526 
2263.000000	64.465737 
2262.000000	64.463686 
2261.000000	64.460635 
2260.000000	64.454722 
2259.000000	64.444470 
2258.000000	64.429593 
2257.000000	64.410853 
2256.000000	64.390134 
2255.000000	64.370036 
2254.000000	64.353227 
2253.000000	64.341807 
2252.000000	64.336872 
2251.000000	64.338350 
2250.000000	64.345002 
2249.000000	64.354848 
2248.000000	64.365744 
2247.000000	64.375710 
2246.000000	64.383411 
2245.000000	64.388370 
2244.000000	64.390802 
2243.000000	64.391231 
2242.000000	64.390468 
2241.000000	64.389085 
2240.000000	64.387464 
2239.000000	64.385652 
2238.000000	64.383625 
2237.000000	64.381527 
2236.000000	64.379811 
2235.000000	64.379215 
2234.000000	64.380574 
2233.000000	64.384675 
2232.000000	64.391946 
2231.000000	64.402198 
2230.000000	64.414668 
2229.000000	64.427852 
2228.000000	64.439988 
2227.000000	64.449405 
2226.000000	64.454698 
2225.000000	64.455008 
2224.000000	64.450311 
2223.000000	64.441227 
2222.000000	64.428925 
2221.000000	64.414882 
2220.000000	64.400744 
2219.000000	64.387965 
2218.000000	64.377689 
2217.000000	64.370369 
2216.000000	64.366006 
2215.000000	64.363908 
2214.000000	64.362859 
2213.000000	64.361333 
2212.000000	64.357495 
2211.000000	64.349985 
2210.000000	64.338040 
2209.000000	64.321804 
2208.000000	64.302325 
2207.000000	64.281821 
2206.000000	64.262938 
2205.000000	64.248561 
2204.000000	64.240932 
2203.000000	64.241433 
2202.000000	64.250111 
2201.000000	64.265775 
2200.000000	64.286231 
2199.000000	64.308762 
2198.000000	64.330530 
2197.000000	64.349269 
2196.000000	64.363479 
2195.000000	64.372682 
2194.000000	64.377307 
2193.000000	64.378190 
2192.000000	64.376425 
2191.000000	64.372944 
2190.000000	64.368224 
2189.000000	64.362573 
2188.000000	64.355754 
2187.000000	64.347577 
2186.000000	64.337682 
2185.000000	64.326262 
2184.000000	64.313554 
2183.000000	64.300084 
2182.000000	64.286303 
2181.000000	64.272594 
2180.000000	64.259099 
2179.000000	64.245963 
2178.000000	64.233255 
2177.000000	64.221191 
2176.000000	64.210224 
2175.000000	64.201092 
2174.000000	64.194774 
2173.000000	64.192390 
2172.000000	64.194679 
2171.000000	64.201951 
2170.000000	64.213752 
2169.000000	64.228963 
2168.000000	64.246082 
2167.000000	64.263296 
2166.000000	64.278674 
2165.000000	64.290928 
2164.000000	64.299249 
2163.000000	64.303708 
2162.000000	64.304924 
2161.000000	64.304041 
2160.000000	64.302587 
2159.000000	64.301800 
2158.000000	64.302659 
2157.000000	64.305353 
2156.000000	64.309549 
2155.000000	64.314126 
2154.000000	64.317703 
2153.000000	64.318990 
2152.000000	64.317226 
2151.000000	64.312481 
2150.000000	64.305830 
2149.000000	64.299106 
2148.000000	64.294528 
2147.000000	64.294123 
2146.000000	64.299273 
2145.000000	64.310216 
2144.000000	64.325928 
2143.000000	64.344191 
2142.000000	64.362120 
2141.000000	64.376759 
2140.000000	64.385533 
2139.000000	64.386963 
2138.000000	64.380598 
2137.000000	64.367294 
2136.000000	64.348578 
2135.000000	64.326548 
2134.000000	64.303350 
2133.000000	64.280962 
2132.000000	64.260840 
2131.000000	64.244103 
2130.000000	64.231300 
2129.000000	64.222550 
2128.000000	64.217567 
2127.000000	64.215898 
2126.000000	64.216995 
2125.000000	64.220333 
2124.000000	64.225506 
2123.000000	64.232134 
2122.000000	64.240002 
2121.000000	64.248871 
2120.000000	64.258408 
2119.000000	64.268040 
2118.000000	64.277172 
2117.000000	64.285182 
2116.000000	64.291572 
2115.000000	64.296102 
2114.000000	64.299106 
2113.000000	64.301323 
2112.000000	64.303922 
2111.000000	64.307975 
2110.000000	64.314508 
2109.000000	64.323949 
2108.000000	64.335989 
2107.000000	64.349651 
2106.000000	64.363312 
2105.000000	64.375138 
2104.000000	64.383530 
2103.000000	64.387297 
2102.000000	64.386081 
2101.000000	64.380121 
2100.000000	64.370560 
2099.000000	64.358615 
2098.000000	64.345479 
2097.000000	64.331984 
2096.000000	64.318633 
2095.000000	64.305567 
2094.000000	64.292836 
2093.000000	64.280533 
2092.000000	64.269065 
2091.000000	64.258956 
2090.000000	64.250707 
2089.000000	64.244580 
2088.000000	64.240646 
2087.000000	64.238762 
2086.000000	64.238476 
2085.000000	64.239335 
2084.000000	64.240956 
2083.000000	64.243006 
2082.000000	64.245295 
2081.000000	64.247560 
2080.000000	64.249420 
2079.000000	64.250278 
2078.000000	64.249396 
2077.000000	64.246010 
2076.000000	64.239621 
2075.000000	64.229989 
2074.000000	64.217710 
2073.000000	64.203882 
2072.000000	64.190244 
2071.000000	64.178919 
2070.000000	64.172005 
2069.000000	64.171123 
2068.000000	64.176917 
2067.000000	64.188909 
2066.000000	64.205455 
2065.000000	64.224076 
2064.000000	64.241957 
2063.000000	64.256310 
2062.000000	64.265179 
2061.000000	64.267778 
2060.000000	64.264559 
2059.000000	64.257001 
2058.000000	64.247322 
2057.000000	64.237809 
2056.000000	64.230394 
2055.000000	64.226126 
2054.000000	64.225101 
2053.000000	64.226317 
2052.000000	64.228010 
2051.000000	64.228129 
2050.000000	64.224791 
2049.000000	64.216852 
2048.000000	64.204096 
2047.000000	64.187502 
2046.000000	64.168953 
2045.000000	64.150929 
2044.000000	64.136171 
2043.000000	64.127111 
2042.000000	64.125299 
2041.000000	64.131283 
2040.000000	64.144515 
2039.000000	64.163541 
2038.000000	64.186096 
2037.000000	64.209675 
2036.000000	64.231705 
2035.000000	64.250087 
2034.000000	64.263153 
2033.000000	64.269924 
2032.000000	64.270234 
2031.000000	64.264512 
2030.000000	64.253640 
2029.000000	64.238977 
2028.000000	64.222073 
2027.000000	64.204883 
2026.000000	64.189195 
2025.000000	64.176630 
2024.000000	64.168334 
2023.000000	64.164829 
2022.000000	64.165997 
2021.000000	64.170813 
2020.000000	64.177632 
2019.000000	64.184403 
2018.000000	64.189219 
2017.000000	64.190578 
2016.000000	64.188003 
2015.000000	64.181876 
2014.000000	64.173507 
2013.000000	64.164710 
2012.000000	64.157485 
2011.000000	64.153337 
2010.000000	64.153146 
2009.000000	64.156818 
2008.000000	64.163398 
2007.000000	64.171409 
2006.000000	64.179182 
2005.000000	64.185309 
2004.000000	64.188957 
2003.000000	64.190030 
2002.000000	64.189338 
2001.000000	64.188313 
2000.000000	64.188647 
1999.000000	64.191794 
1998.000000	64.198589 
1997.000000	64.209198 
1996.000000	64.222884 
1995.000000	64.238166 
1994.000000	64.253067 
1993.000000	64.265489 
1992.000000	64.273595 
1991.000000	64.276361 
1990.000000	64.273524 
1989.000000	64.265704 
1988.000000	64.254164 
1987.000000	64.240789 
1986.000000	64.227390 
1985.000000	64.215636 
1984.000000	64.206671 
1983.000000	64.201092 
1982.000000	64.198923 
1981.000000	64.199709 
1980.000000	64.202570 
1979.000000	64.206361 
1978.000000	64.209818 
1977.000000	64.211726 
1976.000000	64.211106 
1975.000000	64.207363 
1974.000000	64.200472 
1973.000000	64.190959 
1972.000000	64.179968 
1971.000000	64.168882 
1970.000000	64.159274 
1969.000000	64.152574 
1968.000000	64.149570 
1967.000000	64.150571 
1966.000000	64.155101 
1965.000000	64.162063 
1964.000000	64.170098 
1963.000000	64.177727 
1962.000000	64.183664 
1961.000000	64.186954 
1960.000000	64.187026 
1959.000000	64.183855 
1958.000000	64.177727 
1957.000000	64.169120 
1956.000000	64.158558 
1955.000000	64.146542 
1954.000000	64.133667 
1953.000000	64.120411 
1952.000000	64.107275 
1951.000000	64.094591 
1950.000000	64.082765 
1949.000000	64.072060 
1948.000000	64.062905 
1947.000000	64.055657 
1946.000000	64.050579 
1945.000000	64.048242 
1944.000000	64.048862 
1943.000000	64.052700 
1942.000000	64.059782 
1941.000000	64.069557 
1940.000000	64.081001 
1939.000000	64.092588 
1938.000000	64.102458 
1937.000000	64.108920 
1936.000000	64.110589 
1935.000000	64.106869 
1934.000000	64.098119 
1933.000000	64.085435 
1932.000000	64.070487 
1931.000000	64.055037 
1930.000000	64.040803 
1929.000000	64.029145 
1928.000000	64.021015 
1927.000000	64.017009 
1926.000000	64.017105 
1925.000000	64.020776 
1924.000000	64.027094 
1923.000000	64.034748 
1922.000000	64.042258 
1921.000000	64.048385 
1920.000000	64.052152 
1919.000000	64.053320 
1918.000000	64.052104 
1917.000000	64.049124 
1916.000000	64.045286 
1915.000000	64.041352 
1914.000000	64.037990 
1913.000000	64.035892 
1912.000000	64.035415 
1911.000000	64.036941 
1910.000000	64.040565 
1909.000000	64.046263 
1908.000000	64.053964 
1907.000000	64.063167 
1906.000000	64.073491 
1905.000000	64.084362 
1904.000000	64.095282 
1903.000000	64.105772 
1902.000000	64.115262 
1901.000000	64.123296 
1900.000000	64.129519 
1899.000000	64.133620 
1898.000000	64.135622 
1897.000000	64.135670 
1896.000000	64.134311 
1895.000000	64.132261 
1894.000000	64.130234 
1893.000000	64.128684 
1892.000000	64.127850 
1891.000000	64.127445 
1890.000000	64.126873 
1889.000000	64.125251 
1888.000000	64.121842 
1887.000000	64.116120 
1886.000000	64.108109 
1885.000000	64.098477 
1884.000000	64.088416 
1883.000000	64.079356 
1882.000000	64.072728 
1881.000000	64.069414 
1880.000000	64.069628 
1879.000000	64.072990 
1878.000000	64.078378 
1877.000000	64.084553 
1876.000000	64.090251 
1875.000000	64.094710 
1874.000000	64.097714 
1873.000000	64.099669 
1872.000000	64.101171 
1871.000000	64.102888 
1870.000000	64.105057 
1869.000000	64.107418 
1868.000000	64.109158 
1867.000000	64.109086 
1866.000000	64.106154 
1865.000000	64.099764 
1864.000000	64.090156 
1863.000000	64.078593 
1862.000000	64.066910 
1861.000000	64.057254 
1860.000000	64.051461 
1859.000000	64.050531 
1858.000000	64.054346 
1857.000000	64.061498 
1856.000000	64.069890 
1855.000000	64.077091 
1854.000000	64.081120 
1853.000000	64.080786 
1852.000000	64.076066 
1851.000000	64.067697 
1850.000000	64.057087 
1849.000000	64.045786 
1848.000000	64.035201 
1847.000000	64.026308 
1846.000000	64.019703 
1845.000000	64.015579 
1844.000000	64.014196 
1843.000000	64.015889 
1842.000000	64.021182 
1841.000000	64.030528 
1840.000000	64.043974 
1839.000000	64.060997 
1838.000000	64.080333 
1837.000000	64.099955 
1836.000000	64.117670 
1835.000000	64.131236 
1834.000000	64.139294 
1833.000000	64.141249 
1832.000000	64.137554 
1831.000000	64.129662 
1830.000000	64.119482 
1829.000000	64.109063 
1828.000000	64.100074 
1827.000000	64.093399 
1826.000000	64.089322 
1825.000000	64.087128 
1824.000000	64.085578 
1823.000000	64.083194 
1822.000000	64.078545 
1821.000000	64.070701 
1820.000000	64.059400 
1819.000000	64.045143 
1818.000000	64.029026 
1817.000000	64.012694 
1816.000000	63.997912 
1815.000000	63.986349 
1814.000000	63.979148 
1813.000000	63.976812 
1812.000000	63.978815 
1811.000000	63.983917 
1810.000000	63.990330 
1809.000000	63.996315 
1808.000000	64.000320 
1807.000000	64.001369 
1806.000000	63.999319 
1805.000000	63.994550 
1804.000000	63.988280 
1803.000000	63.981723 
1802.000000	63.976216 
1801.000000	63.972949 
1800.000000	63.972592 
1799.000000	63.975405 
1798.000000	63.981032 
1797.000000	63.988614 
1796.000000	63.996934 
1795.000000	64.004635 
1794.000000	64.010310 
1793.000000	64.012670 
1792.000000	64.010977 
1791.000000	64.004945 
1790.000000	63.994932 
1789.000000	63.981723 
1788.000000	63.966631 
1787.000000	63.950920 
1786.000000	63.935875 
1785.000000	63.922405 
1784.000000	63.910984 
1783.000000	63.901853 
1782.000000	63.895082 
1781.000000	63.890743 
1780.000000	63.889050 
1779.000000	63.890314 
1778.000000	63.894724 
1777.000000	63.902306 
1776.000000	63.912534 
1775.000000	63.924479 
1774.000000	63.936829 
1773.000000	63.948106 
1772.000000	63.956761 
1771.000000	63.961696 
1770.000000	63.962531 
1769.000000	63.959455 
1768.000000	63.953256 
1767.000000	63.945150 
1766.000000	63.936543 
1765.000000	63.928627 
1764.000000	63.921928 
1763.000000	63.916301 
1762.000000	63.910889 
1761.000000	63.904428 
1760.000000	63.895535 
1759.000000	63.882994 
1758.000000	63.866376 
1757.000000	63.846230 
1756.000000	63.824033 
1755.000000	63.801860 
1754.000000	63.781952 
1753.000000	63.766431 
1752.000000	63.756418 
1751.000000	63.751912 
1750.000000	63.751411 
1749.000000	63.752555 
1748.000000	63.752269 
1747.000000	63.747572 
1746.000000	63.736033 
1745.000000	63.716506 
1744.000000	63.689064 
1743.000000	63.654994 
1742.000000	63.616561 
1741.000000	63.576531 
1740.000000	63.537621 
1739.000000	63.502311 
1738.000000	63.472557 
1737.000000	63.449740 
1736.000000	63.434553 
1735.000000	63.427519 
1734.000000	63.428735 
1733.000000	63.438224 
1732.000000	63.455700 
1731.000000	63.480830 
1730.000000	63.512587 
1729.000000	63.549757 
1728.000000	63.590240 
1727.000000	63.631629 
1726.000000	63.671278 
1725.000000	63.706398 
1724.000000	63.734531 
1723.000000	63.754010 
1722.000000	63.764238 
1721.000000	63.765931 
1720.000000	63.760852 
1719.000000	63.751626 
1718.000000	63.741421 
1717.000000	63.732957 
1716.000000	63.728380 
1715.000000	63.728690 
1714.000000	63.733696 
1713.000000	63.742208 
1712.000000	63.752222 
1711.000000	63.761734 
1710.000000	63.769054 
1709.000000	63.772988 
1708.000000	63.772988 
1707.000000	63.769197 
1706.000000	63.762426 
1705.000000	63.753771 
1704.000000	63.744616 
1703.000000	63.736200 
1702.000000	63.729834 
1701.000000	63.726615 
1700.000000	63.727331 
1699.000000	63.732361 
1698.000000	63.741350 
1697.000000	63.753533 
1696.000000	63.767361 
1695.000000	63.780903 
1694.000000	63.791966 
1693.000000	63.798666 
1692.000000	63.799738 
1691.000000	63.794708 
1690.000000	63.784313 
1689.000000	63.769912 
1688.000000	63.753581 
1687.000000	63.737416 
1686.000000	63.723158 
1685.000000	63.711810 
1684.000000	63.703608 
1683.000000	63.698005 
1682.000000	63.694119 
1681.000000	63.690948 
1680.000000	63.687825 
1679.000000	63.684630 
1678.000000	63.681602 
1677.000000	63.679575 
1676.000000	63.679170 
1675.000000	63.680982 
1674.000000	63.685226 
1673.000000	63.691830 
1672.000000	63.700199 
1671.000000	63.709759 
1670.000000	63.720130 
1669.000000	63.731145 
1668.000000	63.742947 
1667.000000	63.755893 
1666.000000	63.770484 
1665.000000	63.786959 
1664.000000	63.805127 
1663.000000	63.824248 
1662.000000	63.843226 
1661.000000	63.860607 
1660.000000	63.875079 
1659.000000	63.885641 
1658.000000	63.891839 
1657.000000	63.893938 
1656.000000	63.892722 
1655.000000	63.889265 
1654.000000	63.884425 
1653.000000	63.879013 
1652.000000	63.873314 
1651.000000	63.867378 
1650.000000	63.860654 
1649.000000	63.852810 
1648.000000	63.843297 
1647.000000	63.831925 
1646.000000	63.818526 
1645.000000	63.803148 
1644.000000	63.785696 
1643.000000	63.766121 
1642.000000	63.744521 
1641.000000	63.721013 
1640.000000	63.696241 
1639.000000	63.671302 
1638.000000	63.647794 
1637.000000	63.627719 
1636.000000	63.613009 
1635.000000	63.605237 
1634.000000	63.605022 
1633.000000	63.611984 
1632.000000	63.624858 
1631.000000	63.641643 
1630.000000	63.660287 
1629.000000	63.678836 
1628.000000	63.696289 
1627.000000	63.712334 
1626.000000	63.727402 
1625.000000	63.742208 
1624.000000	63.757252 
1623.000000	63.772392 
1622.000000	63.786768 
1621.000000	63.798785 
1620.000000	63.806557 
1619.000000	63.808393 
1618.000000	63.803458 
1617.000000	63.792061 
1616.000000	63.775920 
1615.000000	63.757753 
1614.000000	63.740730 
1613.000000	63.727998 
1612.000000	63.721728 
1611.000000	63.722753 
1610.000000	63.730406 
1609.000000	63.742613 
1608.000000	63.756632 
1607.000000	63.769435 
1606.000000	63.778686 
1605.000000	63.782930 
1604.000000	63.782000 
1603.000000	63.776850 
1602.000000	63.769531 
1601.000000	63.762450 
1600.000000	63.757944 
1599.000000	63.757896 
1598.000000	63.763165 
1597.000000	63.773727 
1596.000000	63.788557 
1595.000000	63.805699 
1594.000000	63.822650 
1593.000000	63.836860 
1592.000000	63.846135 
1591.000000	63.848853 
1590.000000	63.844180 
1589.000000	63.832354 
1588.000000	63.814353 
1587.000000	63.791894 
1586.000000	63.766717 
1585.000000	63.740396 
1584.000000	63.714075 
1583.000000	63.688445 
1582.000000	63.663911 
1581.000000	63.640785 
1580.000000	63.619709 
1579.000000	63.601803 
1578.000000	63.588619 
1577.000000	63.581991 
1576.000000	63.583326 
1575.000000	63.593220 
1574.000000	63.611197 
1573.000000	63.635444 
1572.000000	63.662886 
1571.000000	63.689565 
1570.000000	63.711285 
1569.000000	63.724470 
1568.000000	63.726758 
1567.000000	63.717722 
1566.000000	63.698697 
1565.000000	63.672804 
1564.000000	63.644337 
1563.000000	63.618040 
1562.000000	63.597989 
1561.000000	63.587164 
1560.000000	63.586878 
1559.000000	63.596415 
1558.000000	63.613581 
1557.000000	63.635063 
1556.000000	63.657331 
1555.000000	63.677096 
1554.000000	63.691949 
1553.000000	63.700652 
1552.000000	63.703083 
1551.000000	63.700008 
1550.000000	63.692712 
1549.000000	63.682723 
1548.000000	63.671326 
1547.000000	63.659691 
1546.000000	63.648629 
1545.000000	63.638925 
1544.000000	63.631081 
1543.000000	63.625407 
1542.000000	63.621878 
1541.000000	63.620090 
1540.000000	63.619518 
1539.000000	63.619494 
1538.000000	63.619518 
1537.000000	63.619184 
1536.000000	63.618588 
1535.000000	63.618206 
1534.000000	63.618850 
1533.000000	63.621520 
1532.000000	63.626909 
1531.000000	63.635253 
1530.000000	63.646149 
1529.000000	63.658475 
1528.000000	63.670444 
1527.000000	63.679957 
1526.000000	63.684940 
1525.000000	63.683867 
1524.000000	63.676166 
1523.000000	63.662552 
1522.000000	63.644957 
1521.000000	63.626146 
1520.000000	63.609170 
1519.000000	63.596940 
1518.000000	63.591408 
1517.000000	63.593363 
1516.000000	63.602018 
1515.000000	63.615345 
1514.000000	63.630580 
1513.000000	63.644695 
1512.000000	63.655114 
1511.000000	63.660287 
1510.000000	63.659596 
1509.000000	63.653683 
1508.000000	63.643741 
1507.000000	63.631367 
1506.000000	63.618230 
1505.000000	63.605809 
1504.000000	63.595223 
1503.000000	63.587284 
1502.000000	63.582539 
1501.000000	63.581275 
1500.000000	63.583302 
1499.000000	63.587975 
1498.000000	63.594412 
1497.000000	63.601398 
1496.000000	63.607931 
1495.000000	63.613033 
1494.000000	63.616204 
1493.000000	63.617372 
1492.000000	63.616871 
1491.000000	63.615274 
1490.000000	63.612866 
1489.000000	63.609600 
1488.000000	63.605093 
1487.000000	63.598561 
1486.000000	63.589286 
1485.000000	63.577055 
1484.000000	63.562560 
1483.000000	63.547229 
1482.000000	63.533258 
1481.000000	63.523149 
1480.000000	63.519072 
1479.000000	63.522243 
1478.000000	63.532900 
1477.000000	63.550186 
1476.000000	63.572311 
1475.000000	63.597011 
1474.000000	63.621854 
1473.000000	63.644599 
1472.000000	63.663363 
1471.000000	63.676643 
1470.000000	63.683414 
1469.000000	63.682961 
1468.000000	63.674950 
1467.000000	63.659596 
1466.000000	63.637757 
1465.000000	63.610816 
1464.000000	63.580870 
1463.000000	63.550376 
1462.000000	63.521718 
1461.000000	63.496923 
1460.000000	63.477349 
1459.000000	63.463664 
1458.000000	63.455772 
1457.000000	63.453340 
1456.000000	63.455820 
1455.000000	63.462591 
1454.000000	63.472819 
1453.000000	63.485622 
1452.000000	63.499808 
1451.000000	63.513875 
1450.000000	63.525772 
1449.000000	63.533496 
1448.000000	63.535189 
1447.000000	63.529753 
1446.000000	63.516950 
1445.000000	63.497734 
1444.000000	63.474273 
1443.000000	63.449597 
1442.000000	63.427162 
1441.000000	63.410282 
1440.000000	63.401341 
1439.000000	63.401675 
1438.000000	63.410973 
1437.000000	63.427734 
1436.000000	63.449311 
1435.000000	63.472414 
1434.000000	63.493752 
1433.000000	63.510441 
1432.000000	63.520836 
1431.000000	63.524341 
1430.000000	63.521838 
1429.000000	63.515162 
1428.000000	63.506960 
1427.000000	63.500046 
1426.000000	63.496732 
1425.000000	63.498497 
1424.000000	63.505339 
1423.000000	63.516092 
1422.000000	63.528442 
1421.000000	63.539576 
1420.000000	63.546895 
1419.000000	63.548803 
1418.000000	63.544988 
1417.000000	63.536620 
1416.000000	63.525962 
1415.000000	63.516044 
1414.000000	63.509631 
1413.000000	63.508915 
1412.000000	63.514900 
1411.000000	63.527274 
1410.000000	63.544750 
1409.000000	63.565087 
1408.000000	63.585448 
1407.000000	63.602638 
1406.000000	63.613867 
1405.000000	63.616633 
1404.000000	63.608932 
1403.000000	63.589859 
1402.000000	63.559293 
1401.000000	63.518524 
1400.000000	63.470005 
1399.000000	63.417387 
1398.000000	63.365173 
1397.000000	63.317894 
1396.000000	63.279485 
1395.000000	63.252639 
1394.000000	63.238406 
1393.000000	63.236331 
1392.000000	63.244509 
1391.000000	63.260030 
1390.000000	63.279676 
1389.000000	63.300275 
1388.000000	63.319301 
1387.000000	63.334941 
1386.000000	63.346266 
1385.000000	63.353300 
1384.000000	63.356637 
1383.000000	63.357424 
1382.000000	63.356852 
1381.000000	63.355946 
1380.000000	63.355040 
1379.000000	63.354134 
1378.000000	63.352847 
1377.000000	63.350653 
1376.000000	63.347411 
1375.000000	63.343167 
1374.000000	63.338756 
1373.000000	63.335490 
1372.000000	63.334918 
1371.000000	63.338398 
1370.000000	63.346529 
1369.000000	63.358902 
1368.000000	63.374233 
1367.000000	63.390421 
1366.000000	63.405132 
1365.000000	63.416218 
1364.000000	63.422513 
1363.000000	63.424038 
1362.000000	63.421559 
1361.000000	63.416504 
1360.000000	63.410329 
1359.000000	63.404345 
1358.000000	63.399529 
1357.000000	63.396406 
1356.000000	63.395261 
1355.000000	63.395905 
1354.000000	63.398337 
1353.000000	63.402247 
1352.000000	63.407278 
1351.000000	63.412666 
1350.000000	63.417577 
1349.000000	63.420820 
1348.000000	63.421273 
1347.000000	63.417744 
1346.000000	63.409495 
1345.000000	63.396143 
1344.000000	63.378071 
1343.000000	63.356351 
1342.000000	63.332581 
1341.000000	63.308835 
1340.000000	63.287258 
1339.000000	63.269948 
1338.000000	63.258719 
1337.000000	63.254690 
1336.000000	63.257908 
1335.000000	63.267445 
1334.000000	63.281464 
1333.000000	63.297247 
1332.000000	63.311815 
1331.000000	63.322639 
1330.000000	63.328337 
1329.000000	63.328814 
1328.000000	63.325309 
1327.000000	63.320016 
1326.000000	63.315463 
1325.000000	63.313865 
1324.000000	63.316559 
1323.000000	63.323736 
1322.000000	63.334441 
1321.000000	63.347053 
1320.000000	63.359928 
1319.000000	63.371920 
1318.000000	63.382577 
1317.000000	63.392257 
1316.000000	63.401603 
1315.000000	63.411402 
1314.000000	63.421607 
1313.000000	63.431406 
1312.000000	63.439059 
1311.000000	63.442301 
1310.000000	63.438987 
1309.000000	63.427758 
1308.000000	63.408470 
1307.000000	63.382363 
1306.000000	63.352036 
1305.000000	63.320755 
1304.000000	63.292098 
1303.000000	63.269257 
1302.000000	63.254404 
1301.000000	63.248300 
1300.000000	63.250613 
1299.000000	63.259744 
1298.000000	63.273334 
1297.000000	63.288331 
1296.000000	63.301753 
1295.000000	63.310742 
1294.000000	63.312959 
1293.000000	63.306975 
1292.000000	63.292121 
1291.000000	63.269090 
1290.000000	63.239622 
1289.000000	63.206529 
1288.000000	63.173246 
1287.000000	63.143467 
1286.000000	63.120412 
1285.000000	63.106322 
1284.000000	63.102006 
1283.000000	63.106822 
1282.000000	63.118696 
1281.000000	63.134551 
1280.000000	63.151144 
1279.000000	63.165402 
1278.000000	63.175106 
1277.000000	63.179302 
1276.000000	63.178205 
1275.000000	63.172936 
1274.000000	63.165068 
1273.000000	63.156056 
1272.000000	63.147115 
1271.000000	63.138914 
1270.000000	63.131785 
1269.000000	63.125920 
1268.000000	63.121485 
1267.000000	63.118910 
1266.000000	63.118886 
1265.000000	63.122081 
1264.000000	63.128662 
1263.000000	63.138341 
1262.000000	63.150072 
1261.000000	63.162255 
1260.000000	63.173031 
1259.000000	63.180780 
1258.000000	63.184618 
1257.000000	63.184475 
1256.000000	63.181304 
1255.000000	63.176751 
1254.000000	63.172507 
1253.000000	63.169789 
1252.000000	63.168907 
1251.000000	63.169264 
1250.000000	63.169646 
1249.000000	63.168430 
1248.000000	63.164258 
1247.000000	63.156509 
1246.000000	63.145494 
1245.000000	63.132357 
1244.000000	63.118672 
1243.000000	63.106274 
1242.000000	63.096642 
1241.000000	63.090753 
1240.000000	63.088941 
1239.000000	63.091039 
1238.000000	63.096284 
1237.000000	63.103771 
1236.000000	63.112592 
1235.000000	63.121819 
1234.000000	63.130831 
1233.000000	63.139295 
1232.000000	63.146901 
1231.000000	63.153672 
1230.000000	63.159656 
1229.000000	63.165163 
1228.000000	63.170361 
1227.000000	63.175272 
1226.000000	63.179564 
1225.000000	63.182663 
1224.000000	63.183736 
1223.000000	63.182020 
1222.000000	63.176941 
1221.000000	63.168621 
1220.000000	63.157939 
1219.000000	63.146543 
1218.000000	63.136744 
1217.000000	63.130950 
1216.000000	63.130998 
1215.000000	63.137841 
1214.000000	63.151049 
1213.000000	63.168740 
1212.000000	63.187718 
1211.000000	63.204193 
1210.000000	63.214421 
1209.000000	63.215494 
1208.000000	63.206100 
1207.000000	63.186573 
1206.000000	63.159036 
1205.000000	63.126921 
1204.000000	63.094472 
1203.000000	63.065981 
1202.000000	63.045072 
1201.000000	63.034152 
1200.000000	63.033986 
1199.000000	63.043808 
1198.000000	63.061451 
1197.000000	63.083791 
1196.000000	63.107323 
1195.000000	63.128876 
1194.000000	63.145852 
1193.000000	63.156604 
1192.000000	63.160228 
1191.000000	63.156771 
1190.000000	63.147020 
1189.000000	63.132023 
1188.000000	63.113236 
1187.000000	63.092088 
1186.000000	63.070344 
1185.000000	63.049578 
1184.000000	63.031411 
1183.000000	63.017106 
1182.000000	63.007473 
1181.000000	63.002800 
1180.000000	63.002753 
1179.000000	63.006520 
1178.000000	63.012766 
1177.000000	63.019919 
1176.000000	63.026475 
1175.000000	63.031220 
1174.000000	63.033556 
1173.000000	63.033390 
1172.000000	63.031005 
1171.000000	63.027119 
1170.000000	63.022589 
1169.000000	63.018059 
1168.000000	63.014054 
1167.000000	63.011026 
1166.000000	63.009309 
1165.000000	63.009500 
1164.000000	63.012313 
1163.000000	63.018465 
1162.000000	63.028407 
1161.000000	63.042092 
1160.000000	63.058567 
1159.000000	63.075900 
1158.000000	63.091468 
1157.000000	63.102316 
1156.000000	63.105940 
1155.000000	63.101029 
1154.000000	63.087797 
1153.000000	63.068199 
1152.000000	63.045549 
1151.000000	63.023972 
1150.000000	63.007378 
1149.000000	62.998533 
1148.000000	62.998676 
1147.000000	63.007092 
1146.000000	63.021612 
1145.000000	63.039040 
1144.000000	63.056159 
1143.000000	63.070225 
1142.000000	63.079547 
1141.000000	63.083624 
1140.000000	63.082909 
1139.000000	63.078188 
1138.000000	63.070273 
1137.000000	63.059496 
1136.000000	63.045930 
1135.000000	63.029527 
1134.000000	63.010668 
1133.000000	62.990188 
1132.000000	62.969946 
1131.000000	62.951970 
1130.000000	62.937974 
1129.000000	62.928962 
1128.000000	62.924623 
1127.000000	62.923979 
1126.000000	62.925386 
1125.000000	62.927460 
1124.000000	62.929248 
1123.000000	62.930536 
1122.000000	62.931704 
1121.000000	62.933278 
1120.000000	62.935566 
1119.000000	62.938857 
1118.000000	62.943053 
1117.000000	62.948012 
1116.000000	62.953472 
1115.000000	62.959170 
1114.000000	62.964987 
1113.000000	62.970662 
1112.000000	62.976145 
1111.000000	62.981677 
1110.000000	62.987756 
1109.000000	62.995052 
1108.000000	63.004279 
1107.000000	63.015842 
1106.000000	63.029599 
1105.000000	63.045167 
1104.000000	63.061618 
1103.000000	63.077831 
1102.000000	63.092494 
1101.000000	63.104367 
1100.000000	63.112258 
1099.000000	63.115024 
1098.000000	63.111615 
1097.000000	63.101267 
1096.000000	63.083815 
1095.000000	63.059759 
1094.000000	63.030385 
1093.000000	62.997841 
1092.000000	62.964582 
1091.000000	62.933063 
1090.000000	62.905406 
1089.000000	62.882924 
1088.000000	62.865900 
1087.000000	62.854146 
1086.000000	62.846827 
1085.000000	62.843441 
1084.000000	62.843799 
1083.000000	62.848544 
1082.000000	62.858748 
1081.000000	62.875533 
1080.000000	62.899231 
1079.000000	62.928915 
1078.000000	62.962317 
1077.000000	62.995696 
1076.000000	63.024759 
1075.000000	63.045167 
1074.000000	63.053989 
1073.000000	63.049983 
1072.000000	63.034057 
1071.000000	63.008832 
1070.000000	62.978363 
1069.000000	62.946915 
1068.000000	62.918400 
1067.000000	62.895488 
1066.000000	62.879371 
1065.000000	62.869858 
1064.000000	62.865805 
1063.000000	62.865471 
1062.000000	62.867283 
1061.000000	62.870001 
1060.000000	62.873196 
1059.000000	62.876725 
1058.000000	62.881040 
1057.000000	62.886667 
1056.000000	62.894153 
1055.000000	62.903642 
1054.000000	62.914848 
1053.000000	62.927174 
1052.000000	62.939763 
1051.000000	62.951731 
1050.000000	62.962436 
1049.000000	62.971901 
1048.000000	62.980628 
1047.000000	62.989568 
1046.000000	62.999582 
1045.000000	63.011431 
1044.000000	63.024783 
1043.000000	63.038444 
1042.000000	63.050222 
1041.000000	63.057374 
1040.000000	63.057398 
1039.000000	63.048768 
1038.000000	63.031458 
1037.000000	63.007140 
1036.000000	62.979102 
1035.000000	62.951421 
1034.000000	62.927985 
1033.000000	62.911319 
1032.000000	62.902235 
1031.000000	62.899327 
1030.000000	62.899589 
1029.000000	62.899303 
1028.000000	62.894988 
1027.000000	62.884449 
1026.000000	62.867236 
1025.000000	62.844824 
1024.000000	62.819743 
1023.000000	62.795090 
1022.000000	62.773251 
1021.000000	62.755823 
1020.000000	62.742853 
1019.000000	62.733721 
1018.000000	62.727403 
1017.000000	62.723398 
1016.000000	62.722063 
1015.000000	62.724518 
1014.000000	62.732148 
1013.000000	62.745785 
1012.000000	62.765336 
1011.000000	62.789463 
1010.000000	62.815618 
1009.000000	62.840533 
1008.000000	62.861108 
1007.000000	62.875103 
1006.000000	62.881612 
1005.000000	62.881469 
1004.000000	62.876343 
1003.000000	62.868428 
1002.000000	62.859416 
1001.000000	62.850356 
1000.000000	62.841558 
999.000000	 62.832403 
998.000000	 62.822294 
997.000000	 62.811088 
996.000000	 62.799835 
995.000000	 62.790465 
994.000000	 62.785840 
993.000000	 62.788629 
992.000000	 62.801051 
991.000000	 62.823748 
990.000000	 62.855648 
989.000000	 62.894010 
988.000000	 62.934637 
987.000000	 62.972879 
986.000000	 63.004302 
985.000000	 63.025712 
984.000000	 63.035345 
983.000000	 63.033366 
982.000000	 63.021397 
981.000000	 63.002109 
980.000000	 62.978911 
979.000000	 62.955236 
978.000000	 62.934064 
977.000000	 62.917637 
976.000000	 62.907385 
975.000000	 62.903857 
974.000000	 62.906861 
973.000000	 62.915515 
972.000000	 62.928557 
971.000000	 62.944436 
970.000000	 62.961673 
969.000000	 62.978816 
968.000000	 62.994360 
967.000000	 63.007164 
966.000000	 63.016247 
965.000000	 63.021230 
964.000000	 63.022208 
963.000000	 63.019967 
962.000000	 63.015794 
961.000000	 63.011050 
960.000000	 63.006901 
959.000000	 63.004136 
958.000000	 63.002943 
957.000000	 63.002943 
956.000000	 63.003134 
955.000000	 63.002204 
954.000000	 62.998700 
953.000000	 62.991261 
952.000000	 62.979054 
951.000000	 62.961554 
950.000000	 62.939286 
949.000000	 62.913560 
948.000000	 62.886786 
947.000000	 62.861967 
946.000000	 62.842345 
945.000000	 62.830805 
944.000000	 62.829399 
943.000000	 62.838602 
942.000000	 62.857222 
941.000000	 62.882447 
940.000000	 62.910413 
939.000000	 62.936949 
938.000000	 62.958812 
937.000000	 62.974166 
936.000000	 62.983345 
935.000000	 62.988281 
934.000000	 62.992215 
933.000000	 62.998461 
932.000000	 63.009500 
931.000000	 63.026189 
930.000000	 63.047909 
929.000000	 63.072371 
928.000000	 63.096618 
927.000000	 63.117361 
926.000000	 63.131880 
925.000000	 63.138127 
924.000000	 63.134932 
923.000000	 63.121843 
922.000000	 63.099122 
921.000000	 63.067579 
920.000000	 63.028669 
919.000000	 62.984561 
918.000000	 62.938141 
917.000000	 62.892937 
916.000000	 62.853050 
915.000000	 62.822484 
914.000000	 62.804365 
913.000000	 62.800359 
912.000000	 62.810158 
911.000000	 62.831497 
910.000000	 62.860512 
909.000000	 62.892436 
908.000000	 62.922358 
907.000000	 62.946152 
906.000000	 62.961006 
905.000000	 62.965393 
904.000000	 62.959074 
903.000000	 62.942695 
902.000000	 62.917423 
901.000000	 62.884449 
900.000000	 62.845134 
899.000000	 62.800979 
898.000000	 62.754082 
897.000000	 62.707304 
896.000000	 62.664437 
895.000000	 62.629580 
894.000000	 62.606859 
893.000000	 62.599253 
892.000000	 62.608098 
891.000000	 62.632203 
890.000000	 62.668156 
889.000000	 62.710309 
888.000000	 62.752389 
887.000000	 62.787985 
886.000000	 62.812638 
885.000000	 62.824201 
884.000000	 62.823605 
883.000000	 62.814450 
882.000000	 62.801885 
881.000000	 62.791490 
880.000000	 62.787151 
879.000000	 62.790250 
878.000000	 62.799215 
877.000000	 62.810039 
876.000000	 62.817692 
875.000000	 62.817764 
874.000000	 62.808060 
873.000000	 62.789654 
872.000000	 62.766575 
871.000000	 62.744951 
870.000000	 62.731528 
869.000000	 62.731599 
868.000000	 62.747550 
867.000000	 62.777948 
866.000000	 62.818193 
865.000000	 62.861132 
864.000000	 62.898921 
863.000000	 62.924456 
862.000000	 62.933158 
861.000000	 62.923431 
860.000000	 62.896895 
859.000000	 62.857651 
858.000000	 62.810993 
857.000000	 62.762665 
856.000000	 62.717747 
855.000000	 62.680244 
854.000000	 62.652850 
853.000000	 62.637090 
852.000000	 62.633633 
851.000000	 62.642359 
850.000000	 62.662577 
849.000000	 62.692594 
848.000000	 62.729763 
847.000000	 62.770485 
846.000000	 62.810611 
845.000000	 62.846183 
844.000000	 62.874031 
843.000000	 62.892341 
842.000000	 62.900924 
841.000000	 62.901043 
840.000000	 62.894988 
839.000000	 62.885427 
838.000000	 62.874794 
837.000000	 62.865138 
836.000000	 62.857675 
835.000000	 62.852835 
834.000000	 62.850427 
833.000000	 62.850165 
832.000000	 62.851929 
831.000000	 62.855339 
830.000000	 62.860798 
829.000000	 62.869143 
828.000000	 62.881875 
827.000000	 62.900376 
826.000000	 62.925958 
825.000000	 62.958979 
824.000000	 62.998771 
823.000000	 63.043332 
822.000000	 63.089346 
821.000000	 63.132500 
820.000000	 63.168358 
819.000000	 63.193082 
818.000000	 63.204550 
817.000000	 63.202452 
816.000000	 63.188838 
815.000000	 63.167023 
814.000000	 63.141584 
813.000000	 63.115906 
812.000000	 63.092398 
811.000000	 63.070845 
810.000000	 63.049268 
809.000000	 63.023948 
808.000000	 62.990927 
807.000000	 62.947320 
806.000000	 62.892556 
805.000000	 62.829136 
804.000000	 62.762093 
803.000000	 62.698292 
802.000000	 62.644743 
801.000000	 62.607192 
800.000000	 62.588620 
799.000000	 62.589144 
798.000000	 62.606287 
797.000000	 62.635755 
796.000000	 62.672376 
795.000000	 62.711620 
794.000000	 62.750148 
793.000000	 62.786006 
792.000000	 62.818336 
791.000000	 62.846946 
790.000000	 62.871503 
789.000000	 62.891149 
788.000000	 62.904167 
787.000000	 62.908554 
786.000000	 62.902259 
785.000000	 62.884044 
784.000000	 62.853908 
783.000000	 62.813401 
782.000000	 62.765645 
781.000000	 62.714886 
780.000000	 62.666177 
779.000000	 62.624144 
778.000000	 62.592625 
777.000000	 62.574005 
776.000000	 62.568640 
775.000000	 62.574648 
774.000000	 62.588548 
773.000000	 62.605786 
772.000000	 62.621760 
771.000000	 62.632489 
770.000000	 62.635803 
769.000000	 62.631797 
768.000000	 62.622499 
767.000000	 62.611365 
766.000000	 62.602519 
765.000000	 62.599420 
764.000000	 62.604212 
763.000000	 62.616586 
762.000000	 62.634205 
761.000000	 62.652921 
760.000000	 62.667965 
759.000000	 62.674975 
758.000000	 62.671160 
757.000000	 62.655711 
756.000000	 62.630128 
755.000000	 62.597775 
754.000000	 62.562942 
753.000000	 62.530231 
752.000000	 62.503504 
751.000000	 62.485265 
750.000000	 62.476849 
749.000000	 62.477850 
748.000000	 62.486672 
747.000000	 62.500905 
746.000000	 62.518095 
745.000000	 62.536144 
744.000000	 62.553644 
743.000000	 62.569928 
742.000000	 62.584972 
741.000000	 62.599301 
740.000000	 62.613749 
739.000000	 62.628960 
738.000000	 62.645292 
737.000000	 62.662744 
736.000000	 62.680935 
735.000000	 62.699151 
734.000000	 62.716245 
733.000000	 62.730979 
732.000000	 62.741899 
731.000000	 62.747788 
730.000000	 62.747716 
729.000000	 62.741112 
728.000000	 62.727952 
727.000000	 62.709331 
726.000000	 62.686991 
725.000000	 62.663507 
724.000000	 62.641596 
723.000000	 62.623977 
722.000000	 62.612247 
721.000000	 62.606501 
720.000000	 62.605357 
719.000000	 62.606048 
718.000000	 62.605404 
717.000000	 62.600541 
716.000000	 62.589764 
715.000000	 62.572813 
714.000000	 62.550997 
713.000000	 62.526798 
712.000000	 62.502527 
711.000000	 62.479734 
710.000000	 62.459087 
709.000000	 62.440299 
708.000000	 62.422347 
707.000000	 62.404537 
706.000000	 62.387013 
705.000000	 62.371611 
704.000000	 62.361335 
703.000000	 62.359881 
702.000000	 62.370395 
701.000000	 62.394475 
700.000000	 62.431216 
699.000000	 62.477159 
698.000000	 62.526249 
697.000000	 62.571549 
696.000000	 62.606644 
695.000000	 62.627100 
694.000000	 62.631464 
693.000000	 62.621283 
692.000000	 62.600827 
691.000000	 62.574911 
690.000000	 62.547659 
689.000000	 62.521076 
688.000000	 62.494683 
687.000000	 62.466120 
686.000000	 62.432265 
685.000000	 62.390637 
684.000000	 62.340855 
683.000000	 62.284445 
682.000000	 62.225556 
681.000000	 62.169313 
680.000000	 62.121677 
679.000000	 62.087869 
678.000000	 62.072014 
677.000000	 62.076067 
676.000000	 62.099862 
675.000000	 62.140846 
674.000000	 62.194705 
673.000000	 62.255620 
672.000000	 62.317705 
671.000000	 62.375378 
670.000000	 62.424397 
669.000000	 62.462115 
668.000000	 62.487339 
667.000000	 62.500357 
666.000000	 62.502026 
665.000000	 62.493348 
664.000000	 62.475180 
663.000000	 62.448143 
662.000000	 62.412953 
661.000000	 62.370753 
660.000000	 62.323594 
659.000000	 62.274599 
658.000000	 62.228107 
657.000000	 62.188959 
656.000000	 62.161087 
655.000000	 62.146997 
654.000000	 62.146759 
653.000000	 62.158489 
652.000000	 62.178158 
651.000000	 62.201118 
650.000000	 62.223100 
649.000000	 62.241291 
648.000000	 62.254619 
647.000000	 62.263679 
646.000000	 62.270116 
645.000000	 62.275767 
644.000000	 62.282037 
643.000000	 62.288975 
642.000000	 62.295269 
641.000000	 62.298440 
640.000000	 62.295794 
639.000000	 62.285208 
638.000000	 62.265753 
637.000000	 62.238574 
636.000000	 62.206768 
635.000000	 62.174630 
634.000000	 62.146592 
633.000000	 62.126564 
632.000000	 62.117290 
631.000000	 62.119674 
630.000000	 62.132883 
629.000000	 62.154698 
628.000000	 62.182068 
627.000000	 62.212133 
626.000000	 62.242436 
625.000000	 62.271022 
624.000000	 62.296223 
623.000000	 62.316489 
622.000000	 62.330222 
621.000000	 62.335419 
620.000000	 62.330436 
619.000000	 62.314367 
618.000000	 62.287926 
617.000000	 62.253665 
616.000000	 62.216210 
615.000000	 62.181878 
614.000000	 62.156510 
613.000000	 62.144374 
612.000000	 62.146067 
611.000000	 62.158989 
610.000000	 62.175989 
609.000000	 62.187314 
608.000000	 62.182807 
607.000000	 62.154912 
606.000000	 62.101006 
605.000000	 62.024807 
604.000000	 61.936402 
603.000000	 61.850070 
602.000000	 61.780381 
601.000000	 61.739015 
600.000000	 61.731505 
599.000000	 61.756324 
598.000000	 61.806011 
597.000000	 61.869335 
596.000000	 61.933565 
595.000000	 61.988401 
594.000000	 62.027692 
593.000000	 62.051272 
592.000000	 62.062239 
591.000000	 62.068247 
590.000000	 62.077975 
589.000000	 62.100267 
588.000000	 62.141561 
587.000000	 62.204504 
586.000000	 62.287521 
585.000000	 62.384939 
584.000000	 62.488198 
583.000000	 62.587881 
582.000000	 62.675738 
581.000000	 62.746310 
580.000000	 62.797641 
579.000000	 62.832236 
578.000000	 62.855434 
577.000000	 62.874150 
576.000000	 62.893915 
575.000000	 62.918376 
574.000000	 62.946367 
573.000000	 62.972950 
572.000000	 62.988734 
571.000000	 62.982201 
570.000000	 62.942385 
569.000000	 62.862014 
568.000000	 62.740564 
567.000000	 62.584519 
566.000000	 62.407898 
565.000000	 62.230801 
564.000000	 62.074422 
563.000000	 61.956214 
562.000000	 61.886453 
561.000000	 61.866474 
560.000000	 61.888265 
559.000000	 61.936783 
558.000000	 61.993145 
557.000000	 62.038397 
556.000000	 62.057542 
555.000000	 62.042331 
554.000000	 61.990356 
553.000000	 61.904048 
552.000000	 61.790657 
551.000000	 61.660027 
550.000000	 61.521887 
549.000000	 61.384582 
548.000000	 61.253929 
547.000000	 61.133837 
546.000000	 61.026024 
545.000000	 60.933184 
544.000000	 60.857772 
543.000000	 60.806655 
542.000000	 60.786962 
541.000000	 60.810470 
540.000000	 60.888576 
539.000000	 61.032414 
538.000000	 61.247062 
537.000000	 61.530065 
536.000000	 61.870336 
535.000000	 62.245368 
534.000000	 62.624859 
533.000000	 62.970590 
532.000000	 63.243341 
531.000000	 63.407588 
530.000000	 63.439536 
529.000000	 63.330602 
528.000000	 63.090467 
527.000000	 62.746763 
526.000000	 62.341570 
525.000000	 61.923789 
524.000000	 61.541438 
523.000000	 61.234974 
522.000000	 61.031293 
521.000000	 60.941720 
520.000000	 60.961198 
519.000000	 61.072731 
518.000000	 61.249661 
517.000000	 61.459922 
516.000000	 61.670398 
515.000000	 61.848402 
514.000000	 61.967468 
513.000000	 62.008881 
512.000000	 61.964821 
511.000000	 61.836791 
510.000000	 61.636877 
509.000000	 61.385464 
508.000000	 61.108398 
507.000000	 60.834026 
506.000000	 60.588431 
505.000000	 60.392999 
504.000000	 60.260868 
503.000000	 60.196375 
502.000000	 60.195302 
501.000000	 60.247135 
500.000000	 60.337138 
499.000000	 60.449361 
498.000000	 60.570788 
497.000000	 60.692811 
496.000000	 60.812449 
495.000000	 60.930156 
494.000000	 61.046886 
493.000000	 61.159729 
492.000000	 61.264014 
491.000000	 61.348700 
490.000000	 61.397266 
489.000000	 61.390256 
488.000000	 61.310958 
487.000000	 61.150884 
486.000000	 60.914373 
485.000000	 60.620951 
484.000000	 60.301566 
483.000000	 59.996843 
482.000000	 59.749603 
481.000000	 59.596991 
480.000000	 59.561729 
479.000000	 59.649276 
478.000000	 59.846711 
477.000000	 60.125184 
476.000000	 60.446357 
475.000000	 60.767531 
474.000000	 61.048817 
473.000000	 61.260652 
472.000000	 61.387944 
471.000000	 61.432051 
470.000000	 61.408734 
469.000000	 61.345720 
468.000000	 61.275267 
467.000000	 61.229252 
466.000000	 61.230063 
465.000000	 61.289191 
464.000000	 61.400985 
463.000000	 61.547970 
462.000000	 61.700201 
461.000000	 61.824560 
460.000000	 61.888670 
459.000000	 61.869859 
458.000000	 61.757445 
457.000000	 61.554980 
456.000000	 61.279201 
455.000000	 60.954189 
454.000000	 60.610318 
453.000000	 60.279273 
452.000000	 59.989905 
451.000000	 59.762787 
450.000000	 59.612894 
449.000000	 59.550118 
448.000000	 59.576272 
447.000000	 59.685039 
446.000000	 59.862112 
445.000000	 60.086250 
444.000000	 60.333800 
443.000000	 60.581636 
442.000000	 60.807466 
441.000000	 60.992550 
440.000000	 61.127233 
439.000000	 61.208891 
438.000000	 61.239719 
437.000000	 61.223578 
436.000000	 61.166810 
435.000000	 61.073994 
434.000000	 60.948014 
433.000000	 60.792279 
432.000000	 60.608911 
431.000000	 60.409069 
430.000000	 60.212421 
429.000000	 60.052776 
428.000000	 59.967923 
427.000000	 60.001468 
426.000000	 60.191226 
425.000000	 60.560822 
424.000000	 61.110877 
423.000000	 61.812067 
422.000000	 62.605643 
421.000000	 63.411521 
420.000000	 64.143109 
419.000000	 64.713549 
418.000000	 65.049409 
417.000000	 65.114355 
416.000000	 64.912247 
415.000000	 64.476609 
414.000000	 63.860297 
413.000000	 63.125753 
412.000000	 62.332487 
411.000000	 61.529469 
410.000000	 60.756826 
409.000000	 60.042524 
408.000000	 59.418749 
407.000000	 58.925867 
406.000000	 58.619093 
405.000000	 58.553600 
404.000000	 58.779883 
403.000000	 59.327435 
402.000000	 60.187149 
401.000000	 61.291193 
400.000000	 62.526655 
399.000000	 63.760733 
398.000000	 64.840650 
397.000000	 65.624952 
396.000000	 65.990257 
395.000000	 65.862321 
394.000000	 65.191292 
393.000000	 63.963770 
392.000000	 62.186908 
391.000000	 59.901165 
390.000000	 57.180571 
389.000000	 54.150104 
388.000000	 51.007652 
387.000000	 48.017191 
386.000000	 45.469927 
385.000000	 43.646526 
384.000000	 42.761945 
383.000000	 42.927479 
382.000000	 44.095730 
381.000000	 46.094274 
380.000000	 48.618745 
379.000000	 51.345968 
378.000000	 53.953504 
377.000000	 56.249284 
376.000000	 58.144021 
375.000000	 59.724426 
374.000000	 61.220669 
373.000000	 62.896370 
372.000000	 64.963722 
371.000000	 67.462706 
370.000000	 70.242977 

