PE IR       SPECTRUM    SPECTRUM    ASCII       PEDS        1.60        
  -1
BZ6EA3~1.ASC
17/04/07
17:50:29.00
17/04/07
17:50:29.00
tln
$BZ1503107-1_t0056$<tbV0>[13.0,0.0,8.0,0.0,27,1,0]
370.000000
64









2002,4.07    
MIRTGS : RIGHTBACK : INTERNAL 2
MIR : ON : INTERNAL 2
OPTKBR

0.200000
8
8.000000
FILLER
RATIO
SPECTRUM
UNLOCKED 256

DOUBLE
64
COMBINED
1
0
0


1.000000
RATIO


1
0
TRUE
51149
0
LEFT NOT FITTED RIGHT NOT FITTED 0
NONE
NONE
15600
12.000000
4.427000
51148
TRUE
1 0 8 72 0 0 0 0 

15798.010000






#HDR
-1
-1
#GR
CM-1
%T
0.00002384185791015625
0.0
5000.000000
-1.000000
4631
8
74.066996
47.312307
#DATA
5000.000000	65.602993 
4999.000000	65.799546 
4998.000000	65.999889 
4997.000000	66.216611 
4996.000000	66.453814 
4995.000000	66.707801 
4994.000000	66.959118 
4993.000000	67.180824 
4992.000000	67.336034 
4991.000000	67.389369 
4990.000000	67.312550 
4989.000000	67.095828 
4988.000000	66.748619 
4987.000000	66.300773 
4986.000000	65.797114 
4985.000000	65.290307 
4984.000000	64.829111 
4983.000000	64.449954 
4982.000000	64.170241 
4981.000000	63.987970 
4980.000000	63.884997 
4979.000000	63.835406 
4978.000000	63.812637 
4977.000000	63.798475 
4976.000000	63.783693 
4975.000000	63.772177 
4974.000000	63.771510 
4973.000000	63.794302 
4972.000000	63.849735 
4971.000000	63.943409 
4970.000000	64.071130 
4969.000000	64.223575 
4968.000000	64.388632 
4967.000000	64.554905 
4966.000000	64.713287 
4965.000000	64.860224 
4964.000000	64.998054 
4963.000000	65.132117 
4962.000000	65.268135 
4961.000000	65.407609 
4960.000000	65.546441 
4959.000000	65.673685 
4958.000000	65.774679 
4957.000000	65.833044 
4956.000000	65.835905 
4955.000000	65.779590 
4954.000000	65.672612 
4953.000000	65.533518 
4952.000000	65.388011 
4951.000000	65.266394 
4950.000000	65.195226 
4949.000000	65.191507 
4948.000000	65.256834 
4947.000000	65.379071 
4946.000000	65.532374 
4945.000000	65.683770 
4944.000000	65.799355 
4943.000000	65.852236 
4942.000000	65.827941 
4941.000000	65.726304 
4940.000000	65.562033 
4939.000000	65.359210 
4938.000000	65.147638 
4937.000000	64.956378 
4936.000000	64.807796 
4935.000000	64.714121 
4934.000000	64.676856 
4933.000000	64.689230 
4932.000000	64.738512 
4931.000000	64.810013 
4930.000000	64.891958 
4929.000000	64.977622 
4928.000000	65.064477 
4927.000000	65.152764 
4926.000000	65.242791 
4925.000000	65.333342 
4924.000000	65.419507 
4923.000000	65.494394 
4922.000000	65.551805 
4921.000000	65.588784 
4920.000000	65.608787 
4919.000000	65.619969 
4918.000000	65.634369 
4917.000000	65.662765 
4916.000000	65.712618 
4915.000000	65.783572 
4914.000000	65.867495 
4913.000000	65.949535 
4912.000000	66.012310 
4911.000000	66.040539 
4910.000000	66.026520 
4909.000000	65.971374 
4908.000000	65.886139 
4907.000000	65.787053 
4906.000000	65.691280 
4905.000000	65.612459 
4904.000000	65.557432 
4903.000000	65.525889 
4902.000000	65.511345 
4901.000000	65.504503 
4900.000000	65.496325 
4899.000000	65.480232 
4898.000000	65.453743 
4897.000000	65.416502 
4896.000000	65.370678 
4895.000000	65.319657 
4894.000000	65.267920 
4893.000000	65.219378 
4892.000000	65.177488 
4891.000000	65.145587 
4890.000000	65.126252 
4889.000000	65.121221 
4888.000000	65.130925 
4887.000000	65.154170 
4886.000000	65.188241 
4885.000000	65.228533 
4884.000000	65.269660 
4883.000000	65.306186 
4882.000000	65.333271 
4881.000000	65.347766 
4880.000000	65.348100 
4879.000000	65.334391 
4878.000000	65.307664 
4877.000000	65.269374 
4876.000000	65.221381 
4875.000000	65.165519 
4874.000000	65.104174 
4873.000000	65.040373 
4872.000000	64.976692 
4871.000000	64.915609 
4870.000000	64.859008 
4869.000000	64.808797 
4868.000000	64.766311 
4867.000000	64.733004 
4866.000000	64.710092 
4865.000000	64.698934 
4864.000000	64.700055 
4863.000000	64.713668 
4862.000000	64.738583 
4861.000000	64.773106 
4860.000000	64.814090 
4859.000000	64.857864 
4858.000000	64.900660 
4857.000000	64.939022 
4856.000000	64.970254 
4855.000000	64.992403 
4854.000000	65.004444 
4853.000000	65.005779 
4852.000000	64.996170 
4851.000000	64.975595 
4850.000000	64.944386 
4849.000000	64.903855 
4848.000000	64.856696 
4847.000000	64.807224 
4846.000000	64.760971 
4845.000000	64.723443 
4844.000000	64.699316 
4843.000000	64.691042 
4842.000000	64.698600 
4841.000000	64.719104 
4840.000000	64.747858 
4839.000000	64.779424 
4838.000000	64.809179 
4837.000000	64.833950 
4836.000000	64.853000 
4835.000000	64.867711 
4834.000000	64.880800 
4833.000000	64.895248 
4832.000000	64.912915 
4831.000000	64.934062 
4830.000000	64.956545 
4829.000000	64.976716 
4828.000000	64.989972 
4827.000000	64.992523 
4826.000000	64.982008 
4825.000000	64.958620 
4824.000000	64.924979 
4823.000000	64.885902 
4822.000000	64.847540 
4821.000000	64.815902 
4820.000000	64.795565 
4819.000000	64.788675 
4818.000000	64.794397 
4817.000000	64.809250 
4816.000000	64.827823 
4815.000000	64.844179 
4814.000000	64.853048 
4813.000000	64.851164 
4812.000000	64.837932 
4811.000000	64.815473 
4810.000000	64.787578 
4809.000000	64.759063 
4808.000000	64.733934 
4807.000000	64.715147 
4806.000000	64.703631 
4805.000000	64.699292 
4804.000000	64.700841 
4803.000000	64.707779 
4802.000000	64.720392 
4801.000000	64.740228 
4800.000000	64.769649 
4799.000000	64.810347 
4798.000000	64.862322 
4797.000000	64.922356 
4796.000000	64.984130 
4795.000000	65.038752 
4794.000000	65.076780 
4793.000000	65.090203 
4792.000000	65.074753 
4791.000000	65.031266 
4790.000000	64.965867 
4789.000000	64.889168 
4788.000000	64.813828 
4787.000000	64.751768 
4786.000000	64.711713 
4785.000000	64.697170 
4784.000000	64.706420 
4783.000000	64.733695 
4782.000000	64.770984 
4781.000000	64.810013 
4780.000000	64.844822 
4779.000000	64.872527 
4778.000000	64.893770 
4777.000000	64.911341 
4776.000000	64.929127 
4775.000000	64.949917 
4774.000000	64.974451 
4773.000000	65.001106 
4772.000000	65.025901 
4771.000000	65.043735 
4770.000000	65.049505 
4769.000000	65.040111 
4768.000000	65.014767 
4767.000000	64.975547 
4766.000000	64.926934 
4765.000000	64.874815 
4764.000000	64.825844 
4763.000000	64.785742 
4762.000000	64.758491 
4761.000000	64.745020 
4760.000000	64.743447 
4759.000000	64.748740 
4758.000000	64.754176 
4757.000000	64.752459 
4756.000000	64.736914 
4755.000000	64.703917 
4754.000000	64.652943 
4753.000000	64.588189 
4752.000000	64.516806 
4751.000000	64.448881 
4750.000000	64.394521 
4749.000000	64.362859 
4748.000000	64.359879 
4747.000000	64.387917 
4746.000000	64.444541 
4745.000000	64.523720 
4744.000000	64.616870 
4743.000000	64.714121 
4742.000000	64.806032 
4741.000000	64.884138 
4740.000000	64.941906 
4739.000000	64.975142 
4738.000000	64.981937 
4737.000000	64.963054 
4736.000000	64.921498 
4735.000000	64.862704 
4734.000000	64.793395 
4733.000000	64.721179 
4732.000000	64.652872 
4731.000000	64.594626 
4730.000000	64.550042 
4729.000000	64.520454 
4728.000000	64.504551 
4727.000000	64.499163 
4726.000000	64.500331 
4725.000000	64.503788 
4724.000000	64.506554 
4723.000000	64.506936 
4722.000000	64.505076 
4721.000000	64.501500 
4720.000000	64.497780 
4719.000000	64.495325 
4718.000000	64.495468 
4717.000000	64.498901 
4716.000000	64.505982 
4715.000000	64.516663 
4714.000000	64.530372 
4713.000000	64.546036 
4712.000000	64.562129 
4711.000000	64.576768 
4710.000000	64.588022 
4709.000000	64.594078 
4708.000000	64.593958 
4707.000000	64.587640 
4706.000000	64.576101 
4705.000000	64.561343 
4704.000000	64.545726 
4703.000000	64.532065 
4702.000000	64.522385 
4701.000000	64.518642 
4700.000000	64.522004 
4699.000000	64.534163 
4698.000000	64.556932 
4697.000000	64.592266 
4696.000000	64.641737 
4695.000000	64.705395 
4694.000000	64.780759 
4693.000000	64.862418 
4692.000000	64.942121 
4691.000000	65.010857 
4690.000000	65.060472 
4689.000000	65.086555 
4688.000000	65.089702 
4687.000000	65.076065 
4686.000000	65.055942 
4685.000000	65.041708 
4684.000000	65.044403 
4683.000000	65.070700 
4682.000000	65.120816 
4681.000000	65.188479 
4680.000000	65.262365 
4679.000000	65.329337 
4678.000000	65.377330 
4677.000000	65.398859 
4676.000000	65.391826 
4675.000000	65.359544 
4674.000000	65.308904 
4673.000000	65.248131 
4672.000000	65.184330 
4671.000000	65.122342 
4670.000000	65.063977 
4669.000000	65.009045 
4668.000000	64.956617 
4667.000000	64.906644 
4666.000000	64.861059 
4665.000000	64.823341 
4664.000000	64.798855 
4663.000000	64.793348 
4662.000000	64.811301 
4661.000000	64.853835 
4660.000000	64.918923 
4659.000000	65.000820 
4658.000000	65.091180 
4657.000000	65.180182 
4656.000000	65.258431 
4655.000000	65.318441 
4654.000000	65.355730 
4653.000000	65.369343 
4652.000000	65.361690 
4651.000000	65.337681 
4650.000000	65.304231 
4649.000000	65.268325 
4648.000000	65.236759 
4647.000000	65.214085 
4646.000000	65.203022 
4645.000000	65.202975 
4644.000000	65.211534 
4643.000000	65.223979 
4642.000000	65.235042 
4641.000000	65.239310 
4640.000000	65.232372 
4639.000000	65.211915 
4638.000000	65.178155 
4637.000000	65.134286 
4636.000000	65.085482 
4635.000000	65.038466 
4634.000000	65.000033 
4633.000000	64.975666 
4632.000000	64.968490 
4631.000000	64.978790 
4630.000000	65.004229 
4629.000000	65.040516 
4628.000000	65.082406 
4627.000000	65.124535 
4626.000000	65.162444 
4625.000000	65.193033 
4624.000000	65.214610 
4623.000000	65.226149 
4622.000000	65.227437 
4621.000000	65.218734 
4620.000000	65.200710 
4619.000000	65.174913 
4618.000000	65.143394 
4617.000000	65.109252 
4616.000000	65.075755 
4615.000000	65.046644 
4614.000000	65.024876 
4613.000000	65.012145 
4612.000000	65.008568 
4611.000000	65.012621 
4610.000000	65.022158 
4609.000000	65.035080 
4608.000000	65.050220 
4607.000000	65.067601 
4606.000000	65.088129 
4605.000000	65.112853 
4604.000000	65.142107 
4603.000000	65.174961 
4602.000000	65.209078 
4601.000000	65.241122 
4600.000000	65.267395 
4599.000000	65.284633 
4598.000000	65.291094 
4597.000000	65.286850 
4596.000000	65.273952 
4595.000000	65.255808 
4594.000000	65.236783 
4593.000000	65.220975 
4592.000000	65.211439 
4591.000000	65.209531 
4590.000000	65.214872 
4589.000000	65.225481 
4588.000000	65.238404 
4587.000000	65.250515 
4586.000000	65.259122 
4585.000000	65.263152 
4584.000000	65.262889 
4583.000000	65.260767 
4582.000000	65.260314 
4581.000000	65.265393 
4580.000000	65.279030 
4579.000000	65.301370 
4578.000000	65.329217 
4577.000000	65.356159 
4576.000000	65.374112 
4575.000000	65.375256 
4574.000000	65.354561 
4573.000000	65.311598 
4572.000000	65.250754 
4571.000000	65.180730 
4570.000000	65.112280 
4569.000000	65.055274 
4568.000000	65.016627 
4567.000000	64.998912 
4566.000000	64.999961 
4565.000000	65.013670 
4564.000000	65.032267 
4563.000000	65.048217 
4562.000000	65.056514 
4561.000000	65.055060 
4560.000000	65.045738 
4559.000000	65.032720 
4558.000000	65.022015 
4557.000000	65.018486 
4556.000000	65.026044 
4555.000000	65.046381 
4554.000000	65.079402 
4553.000000	65.123248 
4552.000000	65.174937 
4551.000000	65.230989 
4550.000000	65.287566 
4549.000000	65.340876 
4548.000000	65.387082 
4547.000000	65.422534 
4546.000000	65.443944 
4545.000000	65.448760 
4544.000000	65.435528 
4543.000000	65.403938 
4542.000000	65.356135 
4541.000000	65.295577 
4540.000000	65.227293 
4539.000000	65.156698 
4538.000000	65.089726 
4537.000000	65.031123 
4536.000000	64.983630 
4535.000000	64.947843 
4534.000000	64.922690 
4533.000000	64.905619 
4532.000000	64.893007 
4531.000000	64.881944 
4530.000000	64.870190 
4529.000000	64.857888 
4528.000000	64.847016 
4527.000000	64.840793 
4526.000000	64.842271 
4525.000000	64.853906 
4524.000000	64.876389 
4523.000000	64.907884 
4522.000000	64.944362 
4521.000000	64.981007 
4520.000000	65.013599 
4519.000000	65.039300 
4518.000000	65.057778 
4517.000000	65.071320 
4516.000000	65.084528 
4515.000000	65.102362 
4514.000000	65.129280 
4513.000000	65.167045 
4512.000000	65.215373 
4511.000000	65.271282 
4510.000000	65.331482 
4509.000000	65.393495 
4508.000000	65.456509 
4507.000000	65.522599 
4506.000000	65.593576 
4505.000000	65.670013 
4504.000000	65.748572 
4503.000000	65.822005 
4502.000000	65.879654 
4501.000000	65.910291 
4500.000000	65.904140 
4499.000000	65.856242 
4498.000000	65.767240 
4497.000000	65.644192 
4496.000000	65.498518 
4495.000000	65.344333 
4494.000000	65.197134 
4493.000000	65.071320 
4492.000000	64.977908 
4491.000000	64.923095 
4490.000000	64.907789 
4489.000000	64.928245 
4488.000000	64.975738 
4487.000000	65.039777 
4486.000000	65.109729 
4485.000000	65.177392 
4484.000000	65.236139 
4483.000000	65.283060 
4482.000000	65.319752 
4481.000000	65.348935 
4480.000000	65.369486 
4479.000000	65.379786 
4478.000000	65.380835 
4477.000000	65.371370 
4476.000000	65.348744 
4475.000000	65.309381 
4474.000000	65.248966 
4473.000000	65.167856 
4472.000000	65.074443 
4471.000000	64.973473 
4470.000000	64.864540 
4469.000000	64.747929 
4468.000000	64.625287 
4467.000000	64.496874 
4466.000000	64.363789 
4465.000000	64.231324 
4464.000000	64.108228 
4463.000000	64.002919 
4462.000000	63.923311 
4461.000000	63.871502 
4460.000000	63.843131 
4459.000000	63.844156 
4458.000000	63.866543 
4457.000000	63.897347 
4456.000000	63.896322 
4455.000000	63.803482 
4454.000000	63.544654 
4453.000000	63.035964 
4452.000000	62.234497 
4451.000000	61.147737 
4450.000000	59.873199 
4449.000000	58.579325 
4448.000000	57.500672 
4447.000000	56.883478 
4446.000000	56.939291 
4445.000000	57.787680 
4444.000000	59.424614 
4443.000000	61.711335 
4442.000000	64.401769 
4441.000000	67.185950 
4440.000000	69.753837 
4439.000000	71.843004 
4438.000000	73.289012 
4437.000000	74.025058 
4436.000000	74.066996 
4435.000000	73.481535 
4434.000000	72.363734 
4433.000000	70.808768 
4432.000000	68.917798 
4431.000000	66.786289 
4430.000000	64.546155 
4429.000000	62.334966 
4428.000000	60.310149 
4427.000000	58.615803 
4426.000000	57.364463 
4425.000000	56.620550 
4424.000000	56.380176 
4423.000000	56.586050 
4422.000000	57.125353 
4421.000000	57.872653 
4420.000000	58.702898 
4419.000000	59.524631 
4418.000000	60.281324 
4417.000000	60.961294 
4416.000000	61.580848 
4415.000000	62.170267 
4414.000000	62.752723 
4413.000000	63.337492 
4412.000000	63.911795 
4411.000000	64.446783 
4410.000000	64.903163 
4409.000000	65.256452 
4408.000000	65.495491 
4407.000000	65.626907 
4406.000000	65.669631 
4405.000000	65.654015 
4404.000000	65.609717 
4403.000000	65.563559 
4402.000000	65.530300 
4401.000000	65.512061 
4400.000000	65.501260 
4399.000000	65.497660 
4398.000000	65.497565 
4397.000000	65.494894 
4396.000000	65.485191 
4395.000000	65.468931 
4394.000000	65.446305 
4393.000000	65.415120 
4392.000000	65.375065 
4391.000000	65.327787 
4390.000000	65.276408 
4389.000000	65.225839 
4388.000000	65.177726 
4387.000000	65.130472 
4386.000000	65.084338 
4385.000000	65.041589 
4384.000000	65.003800 
4383.000000	64.972901 
4382.000000	64.952683 
4381.000000	64.947724 
4380.000000	64.958906 
4379.000000	64.985322 
4378.000000	65.025281 
4377.000000	65.076065 
4376.000000	65.132617 
4375.000000	65.190052 
4374.000000	65.244102 
4373.000000	65.292406 
4372.000000	65.333914 
4371.000000	65.370106 
4370.000000	65.404033 
4369.000000	65.440130 
4368.000000	65.483045 
4367.000000	65.536141 
4366.000000	65.600585 
4365.000000	65.674686 
4364.000000	65.754389 
4363.000000	65.833091 
4362.000000	65.903067 
4361.000000	65.956950 
4360.000000	65.989017 
4359.000000	65.995454 
4358.000000	65.974831 
4357.000000	65.928602 
4356.000000	65.860366 
4355.000000	65.775966 
4354.000000	65.681862 
4353.000000	65.585541 
4352.000000	65.493655 
4351.000000	65.411877 
4350.000000	65.343379 
4349.000000	65.289545 
4348.000000	65.249013 
4347.000000	65.218782 
4346.000000	65.194940 
4345.000000	65.172958 
4344.000000	65.150022 
4343.000000	65.125060 
4342.000000	65.099835 
4341.000000	65.077447 
4340.000000	65.062665 
4339.000000	65.060329 
4338.000000	65.074110 
4337.000000	65.105032 
4336.000000	65.151309 
4335.000000	65.208315 
4334.000000	65.269327 
4333.000000	65.326666 
4332.000000	65.372943 
4331.000000	65.402483 
4330.000000	65.411972 
4329.000000	65.401291 
4328.000000	65.372920 
4327.000000	65.331983 
4326.000000	65.284919 
4325.000000	65.238833 
4324.000000	65.200495 
4323.000000	65.175342 
4322.000000	65.167379 
4321.000000	65.177869 
4320.000000	65.205764 
4319.000000	65.247464 
4318.000000	65.297698 
4317.000000	65.350222 
4316.000000	65.398859 
4315.000000	65.438747 
4314.000000	65.466737 
4313.000000	65.481805 
4312.000000	65.484857 
4311.000000	65.478587 
4310.000000	65.466761 
4309.000000	65.453767 
4308.000000	65.443730 
4307.000000	65.440297 
4306.000000	65.445947 
4305.000000	65.461611 
4304.000000	65.486168 
4303.000000	65.516686 
4302.000000	65.548419 
4301.000000	65.575909 
4300.000000	65.593528 
4299.000000	65.596723 
4298.000000	65.582299 
4297.000000	65.549707 
4296.000000	65.500259 
4295.000000	65.437602 
4294.000000	65.366053 
4293.000000	65.290307 
4292.000000	65.214443 
4291.000000	65.141439 
4290.000000	65.073847 
4289.000000	65.013718 
4288.000000	64.963436 
4287.000000	64.925575 
4286.000000	64.903187 
4285.000000	64.899206 
4284.000000	64.915442 
4283.000000	64.951395 
4282.000000	65.004515 
4281.000000	65.069913 
4280.000000	65.140867 
4279.000000	65.209579 
4278.000000	65.268874 
4277.000000	65.313315 
4276.000000	65.340018 
4275.000000	65.348863 
4274.000000	65.342330 
4273.000000	65.324234 
4272.000000	65.299463 
4271.000000	65.271854 
4270.000000	65.244078 
4269.000000	65.216684 
4268.000000	65.189266 
4267.000000	65.160179 
4266.000000	65.127706 
4265.000000	65.090823 
4264.000000	65.050172 
4263.000000	65.007901 
4262.000000	64.966940 
4261.000000	64.930868 
4260.000000	64.902853 
4259.000000	64.884686 
4258.000000	64.875769 
4257.000000	64.873456 
4256.000000	64.873766 
4255.000000	64.872264 
4254.000000	64.865040 
4253.000000	64.849686 
4252.000000	64.826035 
4251.000000	64.795899 
4250.000000	64.762949 
4249.000000	64.730954 
4248.000000	64.703321 
4247.000000	64.682769 
4246.000000	64.670825 
4245.000000	64.667654 
4244.000000	64.672684 
4243.000000	64.684963 
4242.000000	64.703893 
4241.000000	64.728975 
4240.000000	64.760112 
4239.000000	64.796996 
4238.000000	64.839243 
4237.000000	64.885640 
4236.000000	64.934730 
4235.000000	64.984369 
4234.000000	65.032625 
4233.000000	65.077781 
4232.000000	65.118861 
4231.000000	65.155577 
4230.000000	65.188241 
4229.000000	65.217566 
4228.000000	65.243792 
4227.000000	65.266442 
4226.000000	65.284204 
4225.000000	65.294933 
4224.000000	65.296053 
4223.000000	65.285062 
4222.000000	65.260457 
4221.000000	65.222406 
4220.000000	65.173077 
4219.000000	65.116357 
4218.000000	65.057897 
4217.000000	65.003919 
4216.000000	64.960026 
4215.000000	64.930367 
4214.000000	64.916729 
4213.000000	64.918661 
4212.000000	64.933371 
4211.000000	64.956474 
4210.000000	64.982724 
4209.000000	65.007138 
4208.000000	65.025949 
4207.000000	65.036869 
4206.000000	65.038943 
4205.000000	65.032911 
4204.000000	65.020632 
4203.000000	65.004515 
4202.000000	64.986872 
4201.000000	64.969825 
4200.000000	64.955210 
4199.000000	64.944291 
4198.000000	64.937710 
4197.000000	64.935994 
4196.000000	64.939522 
4195.000000	64.948296 
4194.000000	64.962148 
4193.000000	64.980769 
4192.000000	65.003299 
4191.000000	65.028762 
4190.000000	65.055394 
4189.000000	65.080809 
4188.000000	65.102028 
4187.000000	65.116500 
4186.000000	65.121889 
4185.000000	65.116667 
4184.000000	65.100288 
4183.000000	65.074038 
4182.000000	65.040349 
4181.000000	65.002632 
4180.000000	64.964509 
4179.000000	64.929342 
4178.000000	64.899301 
4177.000000	64.875340 
4176.000000	64.856767 
4175.000000	64.841842 
4174.000000	64.828014 
4173.000000	64.812612 
4172.000000	64.793515 
4171.000000	64.769721 
4170.000000	64.741063 
4169.000000	64.708614 
4168.000000	64.674091 
4167.000000	64.640188 
4166.000000	64.610266 
4165.000000	64.588236 
4164.000000	64.577913 
4163.000000	64.582610 
4162.000000	64.604544 
4161.000000	64.644312 
4160.000000	64.700007 
4159.000000	64.767479 
4158.000000	64.840459 
4157.000000	64.911651 
4156.000000	64.973568 
4155.000000	65.019941 
4154.000000	65.046739 
4153.000000	65.052938 
4152.000000	65.040683 
4151.000000	65.014624 
4150.000000	64.981007 
4149.000000	64.946699 
4148.000000	64.918088 
4147.000000	64.900016 
4146.000000	64.895248 
4145.000000	64.904570 
4144.000000	64.926886 
4143.000000	64.959049 
4142.000000	64.996600 
4141.000000	65.034317 
4140.000000	65.067219 
4139.000000	65.091037 
4138.000000	65.103197 
4137.000000	65.102958 
4136.000000	65.091586 
4135.000000	65.072178 
4134.000000	65.048933 
4133.000000	65.026402 
4132.000000	65.008568 
4131.000000	64.998579 
4130.000000	64.997768 
4129.000000	65.006160 
4128.000000	65.022253 
4127.000000	65.043807 
4126.000000	65.068149 
4125.000000	65.092372 
4124.000000	65.114140 
4123.000000	65.131878 
4122.000000	65.144848 
4121.000000	65.153074 
4120.000000	65.157794 
4119.000000	65.161061 
4118.000000	65.165615 
4117.000000	65.174126 
4116.000000	65.188646 
4115.000000	65.209889 
4114.000000	65.236520 
4113.000000	65.265297 
4112.000000	65.291476 
4111.000000	65.309834 
4110.000000	65.315556 
4109.000000	65.305900 
4108.000000	65.281128 
4107.000000	65.244913 
4106.000000	65.203547 
4105.000000	65.164685 
4104.000000	65.135598 
4103.000000	65.121674 
4102.000000	65.125203 
4101.000000	65.144872 
4100.000000	65.176320 
4099.000000	65.213274 
4098.000000	65.249371 
4097.000000	65.279054 
4096.000000	65.298843 
4095.000000	65.307307 
4094.000000	65.304899 
4093.000000	65.293312 
4092.000000	65.274763 
4091.000000	65.251278 
4090.000000	65.224170 
4089.000000	65.193986 
4088.000000	65.160679 
4087.000000	65.124273 
4086.000000	65.084981 
4085.000000	65.043663 
4084.000000	65.001940 
4083.000000	64.961767 
4082.000000	64.925551 
4081.000000	64.895462 
4080.000000	64.873671 
4079.000000	64.861512 
4078.000000	64.860177 
4077.000000	64.869976 
4076.000000	64.890980 
4075.000000	64.922261 
4074.000000	64.962196 
4073.000000	65.008115 
4072.000000	65.056562 
4071.000000	65.103602 
4070.000000	65.144872 
4069.000000	65.176296 
4068.000000	65.194845 
4067.000000	65.199303 
4066.000000	65.190529 
4065.000000	65.171623 
4064.000000	65.147137 
4063.000000	65.122318 
4062.000000	65.101528 
4061.000000	65.087342 
4060.000000	65.080189 
4059.000000	65.078616 
4058.000000	65.080261 
4057.000000	65.082669 
4056.000000	65.084552 
4055.000000	65.086150 
4054.000000	65.088772 
4053.000000	65.094375 
4052.000000	65.104317 
4051.000000	65.118718 
4050.000000	65.135955 
4049.000000	65.153217 
4048.000000	65.166997 
4047.000000	65.174722 
4046.000000	65.175557 
4045.000000	65.170764 
4044.000000	65.163660 
4043.000000	65.158653 
4042.000000	65.159988 
4041.000000	65.170454 
4040.000000	65.190339 
4039.000000	65.217947 
4038.000000	65.249919 
4037.000000	65.282320 
4036.000000	65.311551 
4035.000000	65.334582 
4034.000000	65.349531 
4033.000000	65.355300 
4032.000000	65.351533 
4031.000000	65.338563 
4030.000000	65.317130 
4029.000000	65.288901 
4028.000000	65.256094 
4027.000000	65.221643 
4026.000000	65.188789 
4025.000000	65.160894 
4024.000000	65.140604 
4023.000000	65.129256 
4022.000000	65.126800 
4021.000000	65.131402 
4020.000000	65.140271 
4019.000000	65.150046 
4018.000000	65.157866 
4017.000000	65.161681 
4016.000000	65.161037 
4015.000000	65.156793 
4014.000000	65.150928 
4013.000000	65.145707 
4012.000000	65.143394 
4011.000000	65.145564 
4010.000000	65.152788 
4009.000000	65.164327 
4008.000000	65.178179 
4007.000000	65.191435 
4006.000000	65.200734 
4005.000000	65.203142 
4004.000000	65.196919 
4003.000000	65.182280 
4002.000000	65.161347 
4001.000000	65.138173 
4000.000000	65.117859 
3999.000000	65.105652 
3998.000000	65.105772 
3997.000000	65.120410 
3996.000000	65.149211 
3995.000000	65.188980 
3994.000000	65.234613 
3993.000000	65.279817 
3992.000000	65.318441 
3991.000000	65.345597 
3990.000000	65.358543 
3989.000000	65.356850 
3988.000000	65.342402 
3987.000000	65.318584 
3986.000000	65.289330 
3985.000000	65.258741 
3984.000000	65.230298 
3983.000000	65.206456 
3982.000000	65.188479 
3981.000000	65.176796 
3980.000000	65.171241 
3979.000000	65.171098 
3978.000000	65.175700 
3977.000000	65.184020 
3976.000000	65.195059 
3975.000000	65.207958 
3974.000000	65.221858 
3973.000000	65.235972 
3972.000000	65.249419 
3971.000000	65.261530 
3970.000000	65.271401 
3969.000000	65.277886 
3968.000000	65.279746 
3967.000000	65.276074 
3966.000000	65.266227 
3965.000000	65.250563 
3964.000000	65.230059 
3963.000000	65.206837 
3962.000000	65.182948 
3961.000000	65.160489 
3960.000000	65.140104 
3959.000000	65.120959 
3958.000000	65.100526 
3957.000000	65.075492 
3956.000000	65.042400 
3955.000000	64.999318 
3954.000000	64.947032 
3953.000000	64.889812 
3952.000000	64.835119 
3951.000000	64.792513 
3950.000000	64.771127 
3949.000000	64.777851 
3948.000000	64.815044 
3947.000000	64.880013 
3946.000000	64.965629 
3945.000000	65.061664 
3944.000000	65.156722 
3943.000000	65.240764 
3942.000000	65.306735 
3941.000000	65.351748 
3940.000000	65.376877 
3939.000000	65.386438 
3938.000000	65.386343 
3937.000000	65.382170 
3936.000000	65.378451 
3935.000000	65.376329 
3934.000000	65.374183 
3933.000000	65.368032 
3932.000000	65.353560 
3931.000000	65.327167 
3930.000000	65.287685 
3929.000000	65.237402 
3928.000000	65.182018 
3927.000000	65.129852 
3926.000000	65.089869 
3925.000000	65.069675 
3924.000000	65.073251 
3923.000000	65.099716 
3922.000000	65.143084 
3921.000000	65.193462 
3920.000000	65.239548 
3919.000000	65.271329 
3918.000000	65.282726 
3917.000000	65.272521 
3916.000000	65.245103 
3915.000000	65.208315 
3914.000000	65.172266 
3913.000000	65.145277 
3912.000000	65.133666 
3911.000000	65.140295 
3910.000000	65.164613 
3909.000000	65.203738 
3908.000000	65.253448 
3907.000000	65.309667 
3906.000000	65.368580 
3905.000000	65.427088 
3904.000000	65.482330 
3903.000000	65.531396 
3902.000000	65.571117 
3901.000000	65.598177 
3900.000000	65.610098 
3899.000000	65.605950 
3898.000000	65.587329 
3897.000000	65.558028 
3896.000000	65.523409 
3895.000000	65.488862 
3894.000000	65.459227 
3893.000000	65.436959 
3892.000000	65.421938 
3891.000000	65.411472 
3890.000000	65.401625 
3889.000000	65.388655 
3888.000000	65.370464 
3887.000000	65.347647 
3886.000000	65.322971 
3885.000000	65.301084 
3884.000000	65.286970 
3883.000000	65.284204 
3882.000000	65.293812 
3881.000000	65.313100 
3880.000000	65.336203 
3879.000000	65.354967 
3878.000000	65.361189 
3877.000000	65.348434 
3876.000000	65.313982 
3875.000000	65.259218 
3874.000000	65.189671 
3873.000000	65.114521 
3872.000000	65.044784 
3871.000000	64.990973 
3870.000000	64.961028 
3869.000000	64.958834 
3868.000000	64.983558 
3867.000000	65.029978 
3866.000000	65.089511 
3865.000000	65.151858 
3864.000000	65.207123 
3863.000000	65.247344 
3862.000000	65.268349 
3861.000000	65.269064 
3860.000000	65.252900 
3859.000000	65.225625 
3858.000000	65.195012 
3857.000000	65.168833 
3856.000000	65.153384 
3855.000000	65.153026 
3854.000000	65.168118 
3853.000000	65.195775 
3852.000000	65.229749 
3851.000000	65.262341 
3850.000000	65.285158 
3849.000000	65.291261 
3848.000000	65.276408 
3847.000000	65.240216 
3846.000000	65.186405 
3845.000000	65.122342 
3844.000000	65.057468 
3843.000000	65.001344 
3842.000000	64.961934 
3841.000000	64.944076 
3840.000000	64.948606 
3839.000000	64.972567 
3838.000000	65.010166 
3837.000000	65.054345 
3836.000000	65.097904 
3835.000000	65.135550 
3834.000000	65.164017 
3833.000000	65.182852 
3832.000000	65.193009 
3831.000000	65.197086 
3830.000000	65.197968 
3829.000000	65.198349 
3828.000000	65.200090 
3827.000000	65.204048 
3826.000000	65.210485 
3825.000000	65.218806 
3824.000000	65.228176 
3823.000000	65.237355 
3822.000000	65.244960 
3821.000000	65.249466 
3820.000000	65.249466 
3819.000000	65.243911 
3818.000000	65.232181 
3817.000000	65.214681 
3816.000000	65.192270 
3815.000000	65.166139 
3814.000000	65.137553 
3813.000000	65.107631 
3812.000000	65.077495 
3811.000000	65.047836 
3810.000000	65.019702 
3809.000000	64.994454 
3808.000000	64.973783 
3807.000000	64.959836 
3806.000000	64.954328 
3805.000000	64.958167 
3804.000000	64.970588 
3803.000000	64.989280 
3802.000000	65.009975 
3801.000000	65.027022 
3800.000000	65.034651 
3799.000000	65.028262 
3798.000000	65.005564 
3797.000000	64.967274 
3796.000000	64.917325 
3795.000000	64.862155 
3794.000000	64.809799 
3793.000000	64.768242 
3792.000000	64.744138 
3791.000000	64.741492 
3790.000000	64.761257 
3789.000000	64.801025 
3788.000000	64.855599 
3787.000000	64.918231 
3786.000000	64.981555 
3785.000000	65.039181 
3784.000000	65.086245 
3783.000000	65.120506 
3782.000000	65.142107 
3781.000000	65.153098 
3780.000000	65.156364 
3779.000000	65.154647 
3778.000000	65.150380 
3777.000000	65.144276 
3776.000000	65.136003 
3775.000000	65.124058 
3774.000000	65.107202 
3773.000000	65.084862 
3772.000000	65.058183 
3771.000000	65.029811 
3770.000000	65.003800 
3769.000000	64.984750 
3768.000000	64.976644 
3767.000000	64.981770 
3766.000000	64.999818 
3765.000000	65.027976 
3764.000000	65.061330 
3763.000000	65.093946 
3762.000000	65.120363 
3761.000000	65.136432 
3760.000000	65.140438 
3759.000000	65.132999 
3758.000000	65.117359 
3757.000000	65.098166 
3756.000000	65.080666 
3755.000000	65.069293 
3754.000000	65.066719 
3753.000000	65.073847 
3752.000000	65.089392 
3751.000000	65.110754 
3750.000000	65.134429 
3749.000000	65.157198 
3748.000000	65.176486 
3747.000000	65.190982 
3746.000000	65.200257 
3745.000000	65.204310 
3744.000000	65.203595 
3743.000000	65.198564 
3742.000000	65.189623 
3741.000000	65.177011 
3740.000000	65.161514 
3739.000000	65.144395 
3738.000000	65.127444 
3737.000000	65.112662 
3736.000000	65.102124 
3735.000000	65.097236 
3734.000000	65.098309 
3733.000000	65.104413 
3732.000000	65.113377 
3731.000000	65.122580 
3730.000000	65.129590 
3729.000000	65.132784 
3728.000000	65.131807 
3727.000000	65.127658 
3726.000000	65.122032 
3725.000000	65.117263 
3724.000000	65.115094 
3723.000000	65.116906 
3722.000000	65.123343 
3721.000000	65.134286 
3720.000000	65.149211 
3719.000000	65.167260 
3718.000000	65.187692 
3717.000000	65.209627 
3716.000000	65.231990 
3715.000000	65.253591 
3714.000000	65.273070 
3713.000000	65.289068 
3712.000000	65.300345 
3711.000000	65.306234 
3710.000000	65.306973 
3709.000000	65.303730 
3708.000000	65.298271 
3707.000000	65.292739 
3706.000000	65.289044 
3705.000000	65.288639 
3704.000000	65.291929 
3703.000000	65.298652 
3702.000000	65.307664 
3701.000000	65.317654 
3700.000000	65.326976 
3699.000000	65.333914 
3698.000000	65.337014 
3697.000000	65.334987 
3696.000000	65.327191 
3695.000000	65.313601 
3694.000000	65.295362 
3693.000000	65.274310 
3692.000000	65.252995 
3691.000000	65.234065 
3690.000000	65.219759 
3689.000000	65.211439 
3688.000000	65.208745 
3687.000000	65.209984 
3686.000000	65.211772 
3685.000000	65.210390 
3684.000000	65.202379 
3683.000000	65.185809 
3682.000000	65.160536 
3681.000000	65.128564 
3680.000000	65.093708 
3679.000000	65.060997 
3678.000000	65.035128 
3677.000000	65.019726 
3676.000000	65.016627 
3675.000000	65.025591 
3674.000000	65.044474 
3673.000000	65.069818 
3672.000000	65.097594 
3671.000000	65.124177 
3670.000000	65.146803 
3669.000000	65.164375 
3668.000000	65.177035 
3667.000000	65.186405 
3666.000000	65.194606 
3665.000000	65.204071 
3664.000000	65.216851 
3663.000000	65.233969 
3662.000000	65.255379 
3661.000000	65.279555 
3660.000000	65.303921 
3659.000000	65.325284 
3658.000000	65.340209 
3657.000000	65.345740 
3656.000000	65.339970 
3655.000000	65.322446 
3654.000000	65.294313 
3653.000000	65.258169 
3652.000000	65.217518 
3651.000000	65.176558 
3650.000000	65.139436 
3649.000000	65.109777 
3648.000000	65.090322 
3647.000000	65.082693 
3646.000000	65.087294 
3645.000000	65.103459 
3644.000000	65.129423 
3643.000000	65.162372 
3642.000000	65.198659 
3641.000000	65.234351 
3640.000000	65.265321 
3639.000000	65.287685 
3638.000000	65.298485 
3637.000000	65.296125 
3636.000000	65.280747 
3635.000000	65.254282 
3634.000000	65.219974 
3633.000000	65.182209 
3632.000000	65.145516 
3631.000000	65.114092 
3630.000000	65.090990 
3629.000000	65.077996 
3628.000000	65.075302 
3627.000000	65.081810 
3626.000000	65.095567 
3625.000000	65.114068 
3624.000000	65.134644 
3623.000000	65.154790 
3622.000000	65.172100 
3621.000000	65.184521 
3620.000000	65.190505 
3619.000000	65.188813 
3618.000000	65.178585 
3617.000000	65.159773 
3616.000000	65.133428 
3615.000000	65.101861 
3614.000000	65.068364 
3613.000000	65.036940 
3612.000000	65.011787 
3611.000000	64.996409 
3610.000000	64.993286 
3609.000000	65.002727 
3608.000000	65.022945 
3607.000000	65.050315 
3606.000000	65.080165 
3605.000000	65.107464 
3604.000000	65.127944 
3603.000000	65.138936 
3602.000000	65.139770 
3601.000000	65.131688 
3600.000000	65.117430 
3599.000000	65.100145 
3598.000000	65.082669 
3597.000000	65.067028 
3596.000000	65.054416 
3595.000000	65.045213 
3594.000000	65.039610 
3593.000000	65.038180 
3592.000000	65.041661 
3591.000000	65.051174 
3590.000000	65.067577 
3589.000000	65.090823 
3588.000000	65.119695 
3587.000000	65.151357 
3586.000000	65.181684 
3585.000000	65.206003 
3584.000000	65.219759 
3583.000000	65.219616 
3582.000000	65.204071 
3581.000000	65.174102 
3580.000000	65.133023 
3579.000000	65.085840 
3578.000000	65.038347 
3577.000000	64.996027 
3576.000000	64.963293 
3575.000000	64.942574 
3574.000000	64.934158 
3573.000000	64.936518 
3572.000000	64.946675 
3571.000000	64.961409 
3570.000000	64.977455 
3569.000000	64.992547 
3568.000000	65.005469 
3567.000000	65.016150 
3566.000000	65.025258 
3565.000000	65.033984 
3564.000000	65.043163 
3563.000000	65.053129 
3562.000000	65.063595 
3561.000000	65.073704 
3560.000000	65.082597 
3559.000000	65.089344 
3558.000000	65.093493 
3557.000000	65.094804 
3556.000000	65.093421 
3555.000000	65.089416 
3554.000000	65.082836 
3553.000000	65.073800 
3552.000000	65.062594 
3551.000000	65.049934 
3550.000000	65.036964 
3549.000000	65.025138 
3548.000000	65.016102 
3547.000000	65.011620 
3546.000000	65.013003 
3545.000000	65.020489 
3544.000000	65.033411 
3543.000000	65.050244 
3542.000000	65.068793 
3541.000000	65.086674 
3540.000000	65.101647 
3539.000000	65.112233 
3538.000000	65.117502 
3537.000000	65.117287 
3536.000000	65.111947 
3535.000000	65.102100 
3534.000000	65.088605 
3533.000000	65.072488 
3532.000000	65.054750 
3531.000000	65.036559 
3530.000000	65.018820 
3529.000000	65.001964 
3528.000000	64.986038 
3527.000000	64.970803 
3526.000000	64.956021 
3525.000000	64.941740 
3524.000000	64.928460 
3523.000000	64.917349 
3522.000000	64.909839 
3521.000000	64.907717 
3520.000000	64.912199 
3519.000000	64.924001 
3518.000000	64.943051 
3517.000000	64.968490 
3516.000000	64.998888 
3515.000000	65.032362 
3514.000000	65.066909 
3513.000000	65.100479 
3512.000000	65.131378 
3511.000000	65.158104 
3510.000000	65.179586 
3509.000000	65.195155 
3508.000000	65.204405 
3507.000000	65.207672 
3506.000000	65.205955 
3505.000000	65.200853 
3504.000000	65.194487 
3503.000000	65.188789 
3502.000000	65.185356 
3501.000000	65.184831 
3500.000000	65.186977 
3499.000000	65.190672 
3498.000000	65.194201 
3497.000000	65.195846 
3496.000000	65.194439 
3495.000000	65.189409 
3494.000000	65.181207 
3493.000000	65.170884 
3492.000000	65.160036 
3491.000000	65.150475 
3490.000000	65.143513 
3489.000000	65.140008 
3488.000000	65.140008 
3487.000000	65.143156 
3486.000000	65.148067 
3485.000000	65.153193 
3484.000000	65.156674 
3483.000000	65.156602 
3482.000000	65.151453 
3481.000000	65.139865 
3480.000000	65.121412 
3479.000000	65.096545 
3478.000000	65.066933 
3477.000000	65.035080 
3476.000000	65.004158 
3475.000000	64.977383 
3474.000000	64.957690 
3473.000000	64.947009 
3472.000000	64.946174 
3471.000000	64.954805 
3470.000000	64.971375 
3469.000000	64.993524 
3468.000000	65.018606 
3467.000000	65.044069 
3466.000000	65.067625 
3465.000000	65.087676 
3464.000000	65.103411 
3463.000000	65.114998 
3462.000000	65.123105 
3461.000000	65.128898 
3460.000000	65.133786 
3459.000000	65.139055 
3458.000000	65.145778 
3457.000000	65.154504 
3456.000000	65.165281 
3455.000000	65.177559 
3454.000000	65.190696 
3453.000000	65.203857 
3452.000000	65.216374 
3451.000000	65.227913 
3450.000000	65.238356 
3449.000000	65.247631 
3448.000000	65.255570 
3447.000000	65.261602 
3446.000000	65.264821 
3445.000000	65.264129 
3444.000000	65.258407 
3443.000000	65.246987 
3442.000000	65.229845 
3441.000000	65.207743 
3440.000000	65.181970 
3439.000000	65.154170 
3438.000000	65.125989 
3437.000000	65.098690 
3436.000000	65.073084 
3435.000000	65.049076 
3434.000000	65.026593 
3433.000000	65.005636 
3432.000000	64.986944 
3431.000000	64.971470 
3430.000000	64.961099 
3429.000000	64.957642 
3428.000000	64.962768 
3427.000000	64.976882 
3426.000000	64.999175 
3425.000000	65.027332 
3424.000000	65.057849 
3423.000000	65.086555 
3422.000000	65.109324 
3421.000000	65.122914 
3420.000000	65.125608 
3419.000000	65.117621 
3418.000000	65.101194 
3417.000000	65.079998 
3416.000000	65.058779 
3415.000000	65.042066 
3414.000000	65.033435 
3413.000000	65.034413 
3412.000000	65.044641 
3411.000000	65.061521 
3410.000000	65.080904 
3409.000000	65.097904 
3408.000000	65.108156 
3407.000000	65.108799 
3406.000000	65.098786 
3405.000000	65.079450 
3404.000000	65.054082 
3403.000000	65.026926 
3402.000000	65.002226 
3401.000000	64.983201 
3400.000000	64.971399 
3399.000000	64.966702 
3398.000000	64.967608 
3397.000000	64.971780 
3396.000000	64.976882 
3395.000000	64.981245 
3394.000000	64.984321 
3393.000000	64.986658 
3392.000000	64.989352 
3391.000000	64.994025 
3390.000000	65.002012 
3389.000000	65.013957 
3388.000000	65.029597 
3387.000000	65.047788 
3386.000000	65.066719 
3385.000000	65.084338 
3384.000000	65.098786 
3383.000000	65.108799 
3382.000000	65.114116 
3381.000000	65.115475 
3380.000000	65.114378 
3379.000000	65.113306 
3378.000000	65.114450 
3377.000000	65.119910 
3376.000000	65.130209 
3375.000000	65.144538 
3374.000000	65.160322 
3373.000000	65.174007 
3372.000000	65.181422 
3371.000000	65.178751 
3370.000000	65.163850 
3369.000000	65.136861 
3368.000000	65.100216 
3367.000000	65.058469 
3366.000000	65.017008 
3365.000000	64.981293 
3364.000000	64.955210 
3363.000000	64.940309 
3362.000000	64.935517 
3361.000000	64.937615 
3360.000000	64.941930 
3359.000000	64.943599 
3358.000000	64.938879 
3357.000000	64.926004 
3356.000000	64.905476 
3355.000000	64.879918 
3354.000000	64.852833 
3353.000000	64.828228 
3352.000000	64.809489 
3351.000000	64.798831 
3350.000000	64.796924 
3349.000000	64.803266 
3348.000000	64.816594 
3347.000000	64.835214 
3346.000000	64.857530 
3345.000000	64.881873 
3344.000000	64.906597 
3343.000000	64.929962 
3342.000000	64.950037 
3341.000000	64.965295 
3340.000000	64.974427 
3339.000000	64.977431 
3338.000000	64.975643 
3337.000000	64.971876 
3336.000000	64.969921 
3335.000000	64.973974 
3334.000000	64.987611 
3333.000000	65.012574 
3332.000000	65.047979 
3331.000000	65.090632 
3330.000000	65.135192 
3329.000000	65.175628 
3328.000000	65.206217 
3327.000000	65.223026 
3326.000000	65.224409 
3325.000000	65.211367 
3324.000000	65.186977 
3323.000000	65.155720 
3322.000000	65.122222 
3321.000000	65.090680 
3320.000000	65.063977 
3319.000000	65.043997 
3318.000000	65.031290 
3317.000000	65.025591 
3316.000000	65.026211 
3315.000000	65.032339 
3314.000000	65.043330 
3313.000000	65.058636 
3312.000000	65.077733 
3311.000000	65.099620 
3310.000000	65.123248 
3309.000000	65.146994 
3308.000000	65.169048 
3307.000000	65.187382 
3306.000000	65.200233 
3305.000000	65.206170 
3304.000000	65.204453 
3303.000000	65.195035 
3302.000000	65.178847 
3301.000000	65.157365 
3300.000000	65.132641 
3299.000000	65.106749 
3298.000000	65.081667 
3297.000000	65.059041 
3296.000000	65.039992 
3295.000000	65.025043 
3294.000000	65.014672 
3293.000000	65.009307 
3292.000000	65.009355 
3291.000000	65.015244 
3290.000000	65.026831 
3289.000000	65.043497 
3288.000000	65.063858 
3287.000000	65.086102 
3286.000000	65.107822 
3285.000000	65.126585 
3284.000000	65.140461 
3283.000000	65.148282 
3282.000000	65.149807 
3281.000000	65.145826 
3280.000000	65.137672 
3279.000000	65.127110 
3278.000000	65.115785 
3277.000000	65.104770 
3276.000000	65.094518 
3275.000000	65.084743 
3274.000000	65.074753 
3273.000000	65.063762 
3272.000000	65.051364 
3271.000000	65.037631 
3270.000000	65.023565 
3269.000000	65.010643 
3268.000000	65.000963 
3267.000000	64.996385 
3266.000000	64.998507 
3265.000000	65.008020 
3264.000000	65.024685 
3263.000000	65.047383 
3262.000000	65.074086 
3261.000000	65.102434 
3260.000000	65.129733 
3259.000000	65.153646 
3258.000000	65.172147 
3257.000000	65.183782 
3256.000000	65.187549 
3255.000000	65.183043 
3254.000000	65.170383 
3253.000000	65.150403 
3252.000000	65.124654 
3251.000000	65.095424 
3250.000000	65.065670 
3249.000000	65.038561 
3248.000000	65.017056 
3247.000000	65.003371 
3246.000000	64.998555 
3245.000000	65.002179 
3244.000000	65.012478 
3243.000000	65.026569 
3242.000000	65.041232 
3241.000000	65.053439 
3240.000000	65.060758 
3239.000000	65.061998 
3238.000000	65.057039 
3237.000000	65.047097 
3236.000000	65.033936 
3235.000000	65.019941 
3234.000000	65.007281 
3233.000000	64.997673 
3232.000000	64.992213 
3231.000000	64.991283 
3230.000000	64.994645 
3229.000000	65.001654 
3228.000000	65.011501 
3227.000000	65.023207 
3226.000000	65.035796 
3225.000000	65.048265 
3224.000000	65.059781 
3223.000000	65.069389 
3222.000000	65.076518 
3221.000000	65.080690 
3220.000000	65.082049 
3219.000000	65.081167 
3218.000000	65.079045 
3217.000000	65.077161 
3216.000000	65.076899 
3215.000000	65.079569 
3214.000000	65.085744 
3213.000000	65.095496 
3212.000000	65.107941 
3211.000000	65.121746 
3210.000000	65.135192 
3209.000000	65.146613 
3208.000000	65.154790 
3207.000000	65.159106 
3206.000000	65.159678 
3205.000000	65.157365 
3204.000000	65.153384 
3203.000000	65.149259 
3202.000000	65.146207 
3201.000000	65.145063 
3200.000000	65.146136 
3199.000000	65.149140 
3198.000000	65.153288 
3197.000000	65.157413 
3196.000000	65.160274 
3195.000000	65.160655 
3194.000000	65.157365 
3193.000000	65.149784 
3192.000000	65.137481 
3191.000000	65.120792 
3190.000000	65.100598 
3189.000000	65.078330 
3188.000000	65.055894 
3187.000000	65.035367 
3186.000000	65.018749 
3185.000000	65.007495 
3184.000000	65.002179 
3183.000000	65.002536 
3182.000000	65.007376 
3181.000000	65.014863 
3180.000000	65.022754 
3179.000000	65.029025 
3178.000000	65.032196 
3177.000000	65.031576 
3176.000000	65.027308 
3175.000000	65.020632 
3174.000000	65.013337 
3173.000000	65.007638 
3172.000000	65.005540 
3171.000000	65.008640 
3170.000000	65.017676 
3169.000000	65.032577 
3168.000000	65.052509 
3167.000000	65.076160 
3166.000000	65.101861 
3165.000000	65.128040 
3164.000000	65.153098 
3163.000000	65.175557 
3162.000000	65.194034 
3161.000000	65.207457 
3160.000000	65.215229 
3159.000000	65.216994 
3158.000000	65.212869 
3157.000000	65.203976 
3156.000000	65.191626 
3155.000000	65.177488 
3154.000000	65.162873 
3153.000000	65.148758 
3152.000000	65.135383 
3151.000000	65.122365 
3150.000000	65.108799 
3149.000000	65.093612 
3148.000000	65.076208 
3147.000000	65.056848 
3146.000000	65.036630 
3145.000000	65.017294 
3144.000000	65.000820 
3143.000000	64.989042 
3142.000000	64.982938 
3141.000000	64.982652 
3140.000000	64.987468 
3139.000000	64.996337 
3138.000000	65.008163 
3137.000000	65.022301 
3136.000000	65.038657 
3135.000000	65.057682 
3134.000000	65.080070 
3133.000000	65.106034 
3132.000000	65.135073 
3131.000000	65.165543 
3130.000000	65.195155 
3129.000000	65.220761 
3128.000000	65.239119 
3127.000000	65.247416 
3126.000000	65.244150 
3125.000000	65.229082 
3124.000000	65.203595 
3123.000000	65.170073 
3122.000000	65.131711 
3121.000000	65.091943 
3120.000000	65.054082 
3119.000000	65.020561 
3118.000000	64.993047 
3117.000000	64.972186 
3116.000000	64.957952 
3115.000000	64.949512 
3114.000000	64.945721 
3113.000000	64.945006 
3112.000000	64.946174 
3111.000000	64.948201 
3110.000000	64.950752 
3109.000000	64.953970 
3108.000000	64.958930 
3107.000000	64.967012 
3106.000000	64.979887 
3105.000000	64.999032 
3104.000000	65.025091 
3103.000000	65.057754 
3102.000000	65.095305 
3101.000000	65.134739 
3100.000000	65.171861 
3099.000000	65.202331 
3098.000000	65.221762 
3097.000000	65.226793 
3096.000000	65.215611 
3095.000000	65.188360 
3094.000000	65.146636 
3093.000000	65.093636 
3092.000000	65.033602 
3091.000000	64.971351 
3090.000000	64.911723 
3089.000000	64.859080 
3088.000000	64.817142 
3087.000000	64.788770 
3086.000000	64.775490 
3085.000000	64.777684 
3084.000000	64.794254 
3083.000000	64.823007 
3082.000000	64.860820 
3081.000000	64.904141 
3080.000000	64.949035 
3079.000000	64.991998 
3078.000000	65.030169 
3077.000000	65.061783 
3076.000000	65.085792 
3075.000000	65.102195 
3074.000000	65.111613 
3073.000000	65.115189 
3072.000000	65.114283 
3071.000000	65.110325 
3070.000000	65.104985 
3069.000000	65.099525 
3068.000000	65.095305 
3067.000000	65.093135 
3066.000000	65.093469 
3065.000000	65.096187 
3064.000000	65.100502 
3063.000000	65.105295 
3062.000000	65.109324 
3061.000000	65.111637 
3060.000000	65.111756 
3059.000000	65.109705 
3058.000000	65.105819 
3057.000000	65.100884 
3056.000000	65.095520 
3055.000000	65.090012 
3054.000000	65.084075 
3053.000000	65.076994 
3052.000000	65.067958 
3051.000000	65.056276 
3050.000000	65.041851 
3049.000000	65.025329 
3048.000000	65.008020 
3047.000000	64.991688 
3046.000000	64.978075 
3045.000000	64.968299 
3044.000000	64.962530 
3043.000000	64.960026 
3042.000000	64.959168 
3041.000000	64.958119 
3040.000000	64.955258 
3039.000000	64.949536 
3038.000000	64.940953 
3037.000000	64.930582 
3036.000000	64.920067 
3035.000000	64.911246 
3034.000000	64.905357 
3033.000000	64.903068 
3032.000000	64.904093 
3031.000000	64.907598 
3030.000000	64.912366 
3029.000000	64.917349 
3028.000000	64.922213 
3027.000000	64.927482 
3026.000000	64.934110 
3025.000000	64.943218 
3024.000000	64.955520 
3023.000000	64.970946 
3022.000000	64.988327 
3021.000000	65.005898 
3020.000000	65.021467 
3019.000000	65.033507 
3018.000000	65.041208 
3017.000000	65.045094 
3016.000000	65.046715 
3015.000000	65.048432 
3014.000000	65.052676 
3013.000000	65.061569 
3012.000000	65.075969 
3011.000000	65.095615 
3010.000000	65.119147 
3009.000000	65.144205 
3008.000000	65.167951 
3007.000000	65.187597 
3006.000000	65.200829 
3005.000000	65.206193 
3004.000000	65.203166 
3003.000000	65.192198 
3002.000000	65.174508 
3001.000000	65.152239 
3000.000000	65.127778 
2999.000000	65.103626 
2998.000000	65.081763 
2997.000000	65.063691 
2996.000000	65.049839 
2995.000000	65.039634 
2994.000000	65.031909 
2993.000000	65.025281 
2992.000000	65.018725 
2991.000000	65.011572 
2990.000000	65.004134 
2989.000000	64.997386 
2988.000000	64.992833 
2987.000000	64.991855 
2986.000000	64.995718 
2985.000000	65.004968 
2984.000000	65.019321 
2983.000000	65.037536 
2982.000000	65.057635 
2981.000000	65.076947 
2980.000000	65.092658 
2979.000000	65.102076 
2978.000000	65.103101 
2977.000000	65.094327 
2976.000000	65.075421 
2975.000000	65.047192 
2974.000000	65.011382 
2973.000000	64.970612 
2972.000000	64.928007 
2971.000000	64.886593 
2970.000000	64.848923 
2969.000000	64.816689 
2968.000000	64.790749 
2967.000000	64.771151 
2966.000000	64.757418 
2965.000000	64.748764 
2964.000000	64.744424 
2963.000000	64.744091 
2962.000000	64.747548 
2961.000000	64.754748 
2960.000000	64.765357 
2959.000000	64.778852 
2958.000000	64.794230 
2957.000000	64.810252 
2956.000000	64.825582 
2955.000000	64.839124 
2954.000000	64.850163 
2953.000000	64.858698 
2952.000000	64.865326 
2951.000000	64.871072 
2950.000000	64.877200 
2949.000000	64.884710 
2948.000000	64.894032 
2947.000000	64.905023 
2946.000000	64.916849 
2945.000000	64.928340 
2944.000000	64.938068 
2943.000000	64.944863 
2942.000000	64.947700 
2941.000000	64.946293 
2940.000000	64.940881 
2939.000000	64.931988 
2938.000000	64.920592 
2937.000000	64.907956 
2936.000000	64.895462 
2935.000000	64.884567 
2934.000000	64.876556 
2933.000000	64.872574 
2932.000000	64.873456 
2931.000000	64.879679 
2930.000000	64.891004 
2929.000000	64.906406 
2928.000000	64.924287 
2927.000000	64.942860 
2926.000000	64.960098 
2925.000000	64.974069 
2924.000000	64.983725 
2923.000000	64.988708 
2922.000000	64.989399 
2921.000000	64.986777 
2920.000000	64.982008 
2919.000000	64.976215 
2918.000000	64.970135 
2917.000000	64.964175 
2916.000000	64.958524 
2915.000000	64.953255 
2914.000000	64.948701 
2913.000000	64.945459 
2912.000000	64.944434 
2911.000000	64.946246 
2910.000000	64.951109 
2909.000000	64.958333 
2908.000000	64.966297 
2907.000000	64.972400 
2906.000000	64.973711 
2905.000000	64.967608 
2904.000000	64.952325 
2903.000000	64.927673 
2902.000000	64.895319 
2901.000000	64.858460 
2900.000000	64.821267 
2899.000000	64.788007 
2898.000000	64.762401 
2897.000000	64.746642 
2896.000000	64.741349 
2895.000000	64.745259 
2894.000000	64.756059 
2893.000000	64.770841 
2892.000000	64.787006 
2891.000000	64.802455 
2890.000000	64.815998 
2889.000000	64.827036 
2888.000000	64.835715 
2887.000000	64.842104 
2886.000000	64.846396 
2885.000000	64.848399 
2884.000000	64.848017 
2883.000000	64.845323 
2882.000000	64.840745 
2881.000000	64.835071 
2880.000000	64.829611 
2879.000000	64.825892 
2878.000000	64.825391 
2877.000000	64.829015 
2876.000000	64.837050 
2875.000000	64.849042 
2874.000000	64.863824 
2873.000000	64.879846 
2872.000000	64.895391 
2871.000000	64.909005 
2870.000000	64.919447 
2869.000000	64.925885 
2868.000000	64.928078 
2867.000000	64.926004 
2866.000000	64.919900 
2865.000000	64.910173 
2864.000000	64.897346 
2863.000000	64.882254 
2862.000000	64.865756 
2861.000000	64.849066 
2860.000000	64.833498 
2859.000000	64.820718 
2858.000000	64.812350 
2857.000000	64.810061 
2856.000000	64.815092 
2855.000000	64.828014 
2854.000000	64.848685 
2853.000000	64.875912 
2852.000000	64.907550 
2851.000000	64.940714 
2850.000000	64.972233 
2849.000000	64.999127 
2848.000000	65.018916 
2847.000000	65.030217 
2846.000000	65.032839 
2845.000000	65.027928 
2844.000000	65.017461 
2843.000000	65.003991 
2842.000000	64.990067 
2841.000000	64.977812 
2840.000000	64.968562 
2839.000000	64.962863 
2838.000000	64.960384 
2837.000000	64.960455 
2836.000000	64.962244 
2835.000000	64.964985 
2834.000000	64.968204 
2833.000000	64.971709 
2832.000000	64.975476 
2831.000000	64.979553 
2830.000000	64.983892 
2829.000000	64.988088 
2828.000000	64.991497 
2827.000000	64.993238 
2826.000000	64.992499 
2825.000000	64.988541 
2824.000000	64.981174 
2823.000000	64.970707 
2822.000000	64.958000 
2821.000000	64.944171 
2820.000000	64.930629 
2819.000000	64.918947 
2818.000000	64.910268 
2817.000000	64.905571 
2816.000000	64.905548 
2815.000000	64.910912 
2814.000000	64.921927 
2813.000000	64.938616 
2812.000000	64.960479 
2811.000000	64.986419 
2810.000000	65.014600 
2809.000000	65.042614 
2808.000000	65.067672 
2807.000000	65.087032 
2806.000000	65.098667 
2805.000000	65.101289 
2804.000000	65.095114 
2803.000000	65.081334 
2802.000000	65.062355 
2801.000000	65.040874 
2800.000000	65.019631 
2799.000000	65.000653 
2798.000000	64.985084 
2797.000000	64.973092 
2796.000000	64.964199 
2795.000000	64.957499 
2794.000000	64.951968 
2793.000000	64.946866 
2792.000000	64.941740 
2791.000000	64.936399 
2790.000000	64.930844 
2789.000000	64.925408 
2788.000000	64.920377 
2787.000000	64.916086 
2786.000000	64.912772 
2785.000000	64.910602 
2784.000000	64.909815 
2783.000000	64.910531 
2782.000000	64.913034 
2781.000000	64.917612 
2780.000000	64.924669 
2779.000000	64.934563 
2778.000000	64.947247 
2777.000000	64.962387 
2776.000000	64.978885 
2775.000000	64.995121 
2774.000000	65.009164 
2773.000000	65.018892 
2772.000000	65.022659 
2771.000000	65.019536 
2770.000000	65.009713 
2769.000000	64.994359 
2768.000000	64.975547 
2767.000000	64.955782 
2766.000000	64.937162 
2765.000000	64.920997 
2764.000000	64.907503 
2763.000000	64.896059 
2762.000000	64.885473 
2761.000000	64.874744 
2760.000000	64.863348 
2759.000000	64.852023 
2758.000000	64.842391 
2757.000000	64.836764 
2756.000000	64.837408 
2755.000000	64.846134 
2754.000000	64.863514 
2753.000000	64.888834 
2752.000000	64.920067 
2751.000000	64.954042 
2750.000000	64.987182 
2749.000000	65.015983 
2748.000000	65.037631 
2747.000000	65.050339 
2746.000000	65.053796 
2745.000000	65.048742 
2744.000000	65.036821 
2743.000000	65.020298 
2742.000000	65.001559 
2741.000000	64.982748 
2740.000000	64.965510 
2739.000000	64.950776 
2738.000000	64.938783 
2737.000000	64.929294 
2736.000000	64.921736 
2735.000000	64.915585 
2734.000000	64.910435 
2733.000000	64.906072 
2732.000000	64.902567 
2731.000000	64.900040 
2730.000000	64.898633 
2729.000000	64.898180 
2728.000000	64.898490 
2727.000000	64.899325 
2726.000000	64.900541 
2725.000000	64.902186 
2724.000000	64.904403 
2723.000000	64.907312 
2722.000000	64.910840 
2721.000000	64.914655 
2720.000000	64.918065 
2719.000000	64.920401 
2718.000000	64.920973 
2717.000000	64.919304 
2716.000000	64.915585 
2715.000000	64.910721 
2714.000000	64.906191 
2713.000000	64.903616 
2712.000000	64.904499 
2711.000000	64.909553 
2710.000000	64.918637 
2709.000000	64.930510 
2708.000000	64.943170 
2707.000000	64.954161 
2706.000000	64.961266 
2705.000000	64.963054 
2704.000000	64.959096 
2703.000000	64.950299 
2702.000000	64.938545 
2701.000000	64.926385 
2700.000000	64.916515 
2699.000000	64.911127 
2698.000000	64.911651 
2697.000000	64.918375 
2696.000000	64.930391 
2695.000000	64.945888 
2694.000000	64.962458 
2693.000000	64.977645 
2692.000000	64.989399 
2691.000000	64.996337 
2690.000000	64.997911 
2689.000000	64.994454 
2688.000000	64.987182 
2687.000000	64.977598 
2686.000000	64.967298 
2685.000000	64.957666 
2684.000000	64.949560 
2683.000000	64.943313 
2682.000000	64.938735 
2681.000000	64.935231 
2680.000000	64.931964 
2679.000000	64.928197 
2678.000000	64.923524 
2677.000000	64.917683 
2676.000000	64.910936 
2675.000000	64.903736 
2674.000000	64.896869 
2673.000000	64.891290 
2672.000000	64.888072 
2671.000000	64.888072 
2670.000000	64.891743 
2669.000000	64.899325 
2668.000000	64.910292 
2667.000000	64.923763 
2666.000000	64.938259 
2665.000000	64.951968 
2664.000000	64.963150 
2663.000000	64.970350 
2662.000000	64.972805 
2661.000000	64.970588 
2660.000000	64.964723 
2659.000000	64.956855 
2658.000000	64.948773 
2657.000000	64.942240 
2656.000000	64.938449 
2655.000000	64.937734 
2654.000000	64.939737 
2653.000000	64.943552 
2652.000000	64.948058 
2651.000000	64.952158 
2650.000000	64.955019 
2649.000000	64.956045 
2648.000000	64.955115 
2647.000000	64.952158 
2646.000000	64.947128 
2645.000000	64.940023 
2644.000000	64.930772 
2643.000000	64.919614 
2642.000000	64.906883 
2641.000000	64.893388 
2640.000000	64.880228 
2639.000000	64.868855 
2638.000000	64.860534 
2637.000000	64.856195 
2636.000000	64.856100 
2635.000000	64.859700 
2634.000000	64.865756 
2633.000000	64.872431 
2632.000000	64.877629 
2631.000000	64.879369 
2630.000000	64.876222 
2629.000000	64.867305 
2628.000000	64.852881 
2627.000000	64.834070 
2626.000000	64.813017 
2625.000000	64.792418 
2624.000000	64.775276 
2623.000000	64.764046 
2622.000000	64.760565 
2621.000000	64.765477 
2620.000000	64.778041 
2619.000000	64.796447 
2618.000000	64.818143 
2617.000000	64.840149 
2616.000000	64.859724 
2615.000000	64.874887 
2614.000000	64.884829 
2613.000000	64.889740 
2612.000000	64.891004 
2611.000000	64.890646 
2610.000000	64.890933 
2609.000000	64.893794 
2608.000000	64.900135 
2607.000000	64.909815 
2606.000000	64.921498 
2605.000000	64.933156 
2604.000000	64.942550 
2603.000000	64.947628 
2602.000000	64.947247 
2601.000000	64.941430 
2600.000000	64.931488 
2599.000000	64.919519 
2598.000000	64.908075 
2597.000000	64.899468 
2596.000000	64.895462 
2595.000000	64.896535 
2594.000000	64.902353 
2593.000000	64.911341 
2592.000000	64.921450 
2591.000000	64.930391 
2590.000000	64.936137 
2589.000000	64.937210 
2588.000000	64.933156 
2587.000000	64.924430 
2586.000000	64.912152 
2585.000000	64.897942 
2584.000000	64.883661 
2583.000000	64.871001 
2582.000000	64.861297 
2581.000000	64.855289 
2580.000000	64.853215 
2579.000000	64.854741 
2578.000000	64.859127 
2577.000000	64.865136 
2576.000000	64.871358 
2575.000000	64.876270 
2574.000000	64.878582 
2573.000000	64.877486 
2572.000000	64.872765 
2571.000000	64.864873 
2570.000000	64.854764 
2569.000000	64.843702 
2568.000000	64.832901 
2567.000000	64.823389 
2566.000000	64.815521 
2565.000000	64.809274 
2564.000000	64.804077 
2563.000000	64.799237 
2562.000000	64.794373 
2561.000000	64.789390 
2560.000000	64.784955 
2559.000000	64.781928 
2558.000000	64.781618 
2557.000000	64.785146 
2556.000000	64.793419 
2555.000000	64.806461 
2554.000000	64.823603 
2553.000000	64.843606 
2552.000000	64.864754 
2551.000000	64.885187 
2550.000000	64.903259 
2549.000000	64.917683 
2548.000000	64.927625 
2547.000000	64.932942 
2546.000000	64.933848 
2545.000000	64.930987 
2544.000000	64.925289 
2543.000000	64.917850 
2542.000000	64.909982 
2541.000000	64.902782 
2540.000000	64.897251 
2539.000000	64.893960 
2538.000000	64.893150 
2537.000000	64.894366 
2536.000000	64.896821 
2535.000000	64.899492 
2534.000000	64.901280 
2533.000000	64.901423 
2532.000000	64.899587 
2531.000000	64.896178 
2530.000000	64.891791 
2529.000000	64.887309 
2528.000000	64.883613 
2527.000000	64.881300 
2526.000000	64.880466 
2525.000000	64.880824 
2524.000000	64.881777 
2523.000000	64.882826 
2522.000000	64.883780 
2521.000000	64.884972 
2520.000000	64.887046 
2519.000000	64.891028 
2518.000000	64.897704 
2517.000000	64.907431 
2516.000000	64.919757 
2515.000000	64.933538 
2514.000000	64.946842 
2513.000000	64.957690 
2512.000000	64.964079 
2511.000000	64.964604 
2510.000000	64.958786 
2509.000000	64.947247 
2508.000000	64.931750 
2507.000000	64.914870 
2506.000000	64.899516 
2505.000000	64.888262 
2504.000000	64.883017 
2503.000000	64.884471 
2502.000000	64.892101 
2501.000000	64.904117 
2500.000000	64.918065 
2499.000000	64.931321 
2498.000000	64.941716 
2497.000000	64.947891 
2496.000000	64.949631 
2495.000000	64.947676 
2494.000000	64.943480 
2493.000000	64.938807 
2492.000000	64.935135 
2491.000000	64.933443 
2490.000000	64.934086 
2489.000000	64.936733 
2488.000000	64.940857 
2487.000000	64.945673 
2486.000000	64.950752 
2485.000000	64.955663 
2484.000000	64.960026 
2483.000000	64.963483 
2482.000000	64.965391 
2481.000000	64.964914 
2480.000000	64.961075 
2479.000000	64.953064 
2478.000000	64.940547 
2477.000000	64.923572 
2476.000000	64.902925 
2475.000000	64.879965 
2474.000000	64.856410 
2473.000000	64.834070 
2472.000000	64.814567 
2471.000000	64.799189 
2470.000000	64.788579 
2469.000000	64.783143 
2468.000000	64.782619 
2467.000000	64.786505 
2466.000000	64.794039 
2465.000000	64.804148 
2464.000000	64.815664 
2463.000000	64.827179 
2462.000000	64.837551 
2461.000000	64.845800 
2460.000000	64.851260 
2459.000000	64.853858 
2458.000000	64.853858 
2457.000000	64.852070 
2456.000000	64.849352 
2455.000000	64.846515 
2454.000000	64.844131 
2453.000000	64.842510 
2452.000000	64.841628 
2451.000000	64.841222 
2450.000000	64.841032 
2449.000000	64.840841 
2448.000000	64.840674 
2447.000000	64.840817 
2446.000000	64.841747 
2445.000000	64.843988 
2444.000000	64.848113 
2443.000000	64.854550 
2442.000000	64.863562 
2441.000000	64.875245 
2440.000000	64.889550 
2439.000000	64.906287 
2438.000000	64.925169 
2437.000000	64.945697 
2436.000000	64.967107 
2435.000000	64.988303 
2434.000000	65.008068 
2433.000000	65.024876 
2432.000000	65.037345 
2431.000000	65.044140 
2430.000000	65.044522 
2429.000000	65.038228 
2428.000000	65.026021 
2427.000000	65.009260 
2426.000000	64.989781 
2425.000000	64.969635 
2424.000000	64.950823 
2423.000000	64.934730 
2422.000000	64.922094 
2421.000000	64.912772 
2420.000000	64.905953 
2419.000000	64.900469 
2418.000000	64.894962 
2417.000000	64.888405 
2416.000000	64.880180 
2415.000000	64.870285 
2414.000000	64.859294 
2413.000000	64.847946 
2412.000000	64.837026 
2411.000000	64.827132 
2410.000000	64.818501 
2409.000000	64.810848 
2408.000000	64.803814 
2407.000000	64.796900 
2406.000000	64.790153 
2405.000000	64.783883 
2404.000000	64.778923 
2403.000000	64.776539 
2402.000000	64.778161 
2401.000000	64.784812 
2400.000000	64.796972 
2399.000000	64.814186 
2398.000000	64.835166 
2397.000000	64.857888 
2396.000000	64.880180 
2395.000000	64.899849 
2394.000000	64.915513 
2393.000000	64.926695 
2392.000000	64.933848 
2391.000000	64.937996 
2390.000000	64.940595 
2389.000000	64.942789 
2388.000000	64.945292 
2387.000000	64.947891 
2386.000000	64.949703 
2385.000000	64.949154 
2384.000000	64.944601 
2383.000000	64.934396 
2382.000000	64.917707 
2381.000000	64.894461 
2380.000000	64.865517 
2379.000000	64.832639 
2378.000000	64.798069 
2377.000000	64.764475 
2376.000000	64.734220 
2375.000000	64.709448 
2374.000000	64.691543 
2373.000000	64.681363 
2372.000000	64.678835 
2371.000000	64.683485 
2370.000000	64.694190 
2369.000000	64.709568 
2368.000000	64.728212 
2367.000000	64.748477 
2366.000000	64.768695 
2365.000000	64.787173 
2364.000000	64.802241 
2363.000000	64.812469 
2362.000000	64.816689 
2361.000000	64.814448 
2360.000000	64.806175 
2359.000000	64.793229 
2358.000000	64.777779 
2357.000000	64.762544 
2356.000000	64.750099 
2355.000000	64.742541 
2354.000000	64.741182 
2353.000000	64.745903 
2352.000000	64.755511 
2351.000000	64.767956 
2350.000000	64.780688 
2349.000000	64.791393 
2348.000000	64.798283 
2347.000000	64.800453 
2346.000000	64.798092 
2345.000000	64.792132 
2344.000000	64.783954 
2343.000000	64.775204 
2342.000000	64.767169 
2341.000000	64.760613 
2340.000000	64.755773 
2339.000000	64.752388 
2338.000000	64.750075 
2337.000000	64.748549 
2336.000000	64.747667 
2335.000000	64.747571 
2334.000000	64.748859 
2333.000000	64.752125 
2332.000000	64.757847 
2331.000000	64.766192 
2330.000000	64.776778 
2329.000000	64.788866 
2328.000000	64.801406 
2327.000000	64.813327 
2326.000000	64.823818 
2325.000000	64.832425 
2324.000000	64.839124 
2323.000000	64.844274 
2322.000000	64.848494 
2321.000000	64.852285 
2320.000000	64.855861 
2319.000000	64.859080 
2318.000000	64.861631 
2317.000000	64.862990 
2316.000000	64.862751 
2315.000000	64.860677 
2314.000000	64.856910 
2313.000000	64.851760 
2312.000000	64.845848 
2311.000000	64.839935 
2310.000000	64.834642 
2309.000000	64.830470 
2308.000000	64.827704 
2307.000000	64.826250 
2306.000000	64.825940 
2305.000000	64.826321 
2304.000000	64.826989 
2303.000000	64.827752 
2302.000000	64.828300 
2301.000000	64.828515 
2300.000000	64.828062 
2299.000000	64.826512 
2298.000000	64.823222 
2297.000000	64.817500 
2296.000000	64.808773 
2295.000000	64.796638 
2294.000000	64.781451 
2293.000000	64.764118 
2292.000000	64.746379 
2291.000000	64.730548 
2290.000000	64.719080 
2289.000000	64.714074 
2288.000000	64.716625 
2287.000000	64.726638 
2286.000000	64.742493 
2285.000000	64.761495 
2284.000000	64.780259 
2283.000000	64.795517 
2282.000000	64.804720 
2281.000000	64.806604 
2280.000000	64.801287 
2279.000000	64.790081 
2278.000000	64.775109 
2277.000000	64.758753 
2276.000000	64.743161 
2275.000000	64.730000 
2274.000000	64.720201 
2273.000000	64.714121 
2272.000000	64.711904 
2271.000000	64.713549 
2270.000000	64.719128 
2269.000000	64.728641 
2268.000000	64.741849 
2267.000000	64.758396 
2266.000000	64.777088 
2265.000000	64.796328 
2264.000000	64.814138 
2263.000000	64.828681 
2262.000000	64.838480 
2261.000000	64.842772 
2260.000000	64.841580 
2259.000000	64.835810 
2258.000000	64.827060 
2257.000000	64.817142 
2256.000000	64.807796 
2255.000000	64.800143 
2254.000000	64.794778 
2253.000000	64.791560 
2252.000000	64.789652 
2251.000000	64.787864 
2250.000000	64.785003 
2249.000000	64.780139 
2248.000000	64.772844 
2247.000000	64.763164 
2246.000000	64.751768 
2245.000000	64.739513 
2244.000000	64.727425 
2243.000000	64.716410 
2242.000000	64.706945 
2241.000000	64.699101 
2240.000000	64.692473 
2239.000000	64.686441 
2238.000000	64.680361 
2237.000000	64.673781 
2236.000000	64.666748 
2235.000000	64.659619 
2234.000000	64.653253 
2233.000000	64.648723 
2232.000000	64.647030 
2231.000000	64.648866 
2230.000000	64.654588 
2229.000000	64.664006 
2228.000000	64.676547 
2227.000000	64.691281 
2226.000000	64.707159 
2225.000000	64.723038 
2224.000000	64.737868 
2223.000000	64.750838 
2222.000000	64.761137 
2221.000000	64.768242 
2220.000000	64.771676 
2219.000000	64.771246 
2218.000000	64.767026 
2217.000000	64.759588 
2216.000000	64.749813 
2215.000000	64.738821 
2214.000000	64.728045 
2213.000000	64.718794 
2212.000000	64.712285 
2211.000000	64.709186 
2210.000000	64.709591 
2209.000000	64.712977 
2208.000000	64.718556 
2207.000000	64.725351 
2206.000000	64.732384 
2205.000000	64.739060 
2204.000000	64.745187 
2203.000000	64.750862 
2202.000000	64.756441 
2201.000000	64.762425 
2200.000000	64.768958 
2199.000000	64.776015 
2198.000000	64.783358 
2197.000000	64.790511 
2196.000000	64.796638 
2195.000000	64.800930 
2194.000000	64.802479 
2193.000000	64.800500 
2192.000000	64.794492 
2191.000000	64.784264 
2190.000000	64.770245 
2189.000000	64.753413 
2188.000000	64.735531 
2187.000000	64.718675 
2186.000000	64.705038 
2185.000000	64.696741 
2184.000000	64.695096 
2183.000000	64.700841 
2182.000000	64.713454 
2181.000000	64.731264 
2180.000000	64.751410 
2179.000000	64.770460 
2178.000000	64.784765 
2177.000000	64.791131 
2176.000000	64.787721 
2175.000000	64.774250 
2174.000000	64.752030 
2173.000000	64.723944 
2172.000000	64.693546 
2171.000000	64.664387 
2170.000000	64.639306 
2169.000000	64.620018 
2168.000000	64.607524 
2167.000000	64.601993 
2166.000000	64.603304 
2165.000000	64.611124 
2164.000000	64.625096 
2163.000000	64.644622 
2162.000000	64.668607 
2161.000000	64.695310 
2160.000000	64.722442 
2159.000000	64.747285 
2158.000000	64.767193 
2157.000000	64.779949 
2156.000000	64.784026 
2155.000000	64.779186 
2154.000000	64.766430 
2153.000000	64.747929 
2152.000000	64.726734 
2151.000000	64.706087 
2150.000000	64.688873 
2149.000000	64.677166 
2148.000000	64.671945 
2147.000000	64.672875 
2146.000000	64.678573 
2145.000000	64.687108 
2144.000000	64.696335 
2143.000000	64.704394 
2142.000000	64.710044 
2141.000000	64.712452 
2140.000000	64.711475 
2139.000000	64.707350 
2138.000000	64.700722 
2137.000000	64.692568 
2136.000000	64.684009 
2135.000000	64.676284 
2134.000000	64.670729 
2133.000000	64.668655 
2132.000000	64.670920 
2131.000000	64.677858 
2130.000000	64.688944 
2129.000000	64.702987 
2128.000000	64.718127 
2127.000000	64.732122 
2126.000000	64.742875 
2125.000000	64.748930 
2124.000000	64.749717 
2123.000000	64.745664 
2122.000000	64.738178 
2121.000000	64.729070 
2120.000000	64.720296 
2119.000000	64.713358 
2118.000000	64.709091 
2117.000000	64.707589 
2116.000000	64.708352 
2115.000000	64.710521 
2114.000000	64.713382 
2113.000000	64.716219 
2112.000000	64.718937 
2111.000000	64.721608 
2110.000000	64.724493 
2109.000000	64.727783 
2108.000000	64.731574 
2107.000000	64.735698 
2106.000000	64.739894 
2105.000000	64.743876 
2104.000000	64.747524 
2103.000000	64.750719 
2102.000000	64.753508 
2101.000000	64.755797 
2100.000000	64.757442 
2099.000000	64.757919 
2098.000000	64.756488 
2097.000000	64.752268 
2096.000000	64.744472 
2095.000000	64.732456 
2094.000000	64.716029 
2093.000000	64.695358 
2092.000000	64.671111 
2091.000000	64.644384 
2090.000000	64.616703 
2089.000000	64.589762 
2088.000000	64.565396 
2087.000000	64.545607 
2086.000000	64.532136 
2085.000000	64.526486 
2084.000000	64.529561 
2083.000000	64.541316 
2082.000000	64.560770 
2081.000000	64.585757 
2080.000000	64.613413 
2079.000000	64.640593 
2078.000000	64.664411 
2077.000000	64.682626 
2076.000000	64.694142 
2075.000000	64.699125 
2074.000000	64.698910 
2073.000000	64.695644 
2072.000000	64.691710 
2071.000000	64.689493 
2070.000000	64.690589 
2069.000000	64.695906 
2068.000000	64.705109 
2067.000000	64.716982 
2066.000000	64.729666 
2065.000000	64.741110 
2064.000000	64.749360 
2063.000000	64.753055 
2062.000000	64.751791 
2061.000000	64.745926 
2060.000000	64.736676 
2059.000000	64.725661 
2058.000000	64.714694 
2057.000000	64.705300 
2056.000000	64.698553 
2055.000000	64.694595 
2054.000000	64.693045 
2053.000000	64.692759 
2052.000000	64.692378 
2051.000000	64.690685 
2050.000000	64.686846 
2049.000000	64.680719 
2048.000000	64.672946 
2047.000000	64.664888 
2046.000000	64.658117 
2045.000000	64.654111 
2044.000000	64.653897 
2043.000000	64.657735 
2042.000000	64.665079 
2041.000000	64.674615 
2040.000000	64.684653 
2039.000000	64.693498 
2038.000000	64.699935 
2037.000000	64.703321 
2036.000000	64.703607 
2035.000000	64.701461 
2034.000000	64.697456 
2033.000000	64.692187 
2032.000000	64.685773 
2031.000000	64.677906 
2030.000000	64.668035 
2029.000000	64.655685 
2028.000000	64.640641 
2027.000000	64.623570 
2026.000000	64.605617 
2025.000000	64.588284 
2024.000000	64.573168 
2023.000000	64.561557 
2022.000000	64.554119 
2021.000000	64.550662 
2020.000000	64.550495 
2019.000000	64.552402 
2018.000000	64.555239 
2017.000000	64.558172 
2016.000000	64.560914 
2015.000000	64.563703 
2014.000000	64.567208 
2013.000000	64.572238 
2012.000000	64.579296 
2011.000000	64.588499 
2010.000000	64.599633 
2009.000000	64.612197 
2008.000000	64.625334 
2007.000000	64.638113 
2006.000000	64.649701 
2005.000000	64.659476 
2004.000000	64.666867 
2003.000000	64.671468 
2002.000000	64.673066 
2001.000000	64.671587 
2000.000000	64.667487 
1999.000000	64.661192 
1998.000000	64.653444 
1997.000000	64.644885 
1996.000000	64.636373 
1995.000000	64.628553 
1994.000000	64.622044 
1993.000000	64.617228 
1992.000000	64.614391 
1991.000000	64.613676 
1990.000000	64.615011 
1989.000000	64.618206 
1988.000000	64.622664 
1987.000000	64.627504 
1986.000000	64.631509 
1985.000000	64.633226 
1984.000000	64.631223 
1983.000000	64.624309 
1982.000000	64.612054 
1981.000000	64.594888 
1980.000000	64.574217 
1979.000000	64.552378 
1978.000000	64.532089 
1977.000000	64.516019 
1976.000000	64.506244 
1975.000000	64.503812 
1974.000000	64.508438 
1973.000000	64.518785 
1972.000000	64.532613 
1971.000000	64.547443 
1970.000000	64.561080 
1969.000000	64.572000 
1968.000000	64.579582 
1967.000000	64.583754 
1966.000000	64.584994 
1965.000000	64.583802 
1964.000000	64.580535 
1963.000000	64.575171 
1962.000000	64.567494 
1961.000000	64.557290 
1960.000000	64.544773 
1959.000000	64.530754 
1958.000000	64.516735 
1957.000000	64.504694 
1956.000000	64.496707 
1955.000000	64.494347 
1954.000000	64.498329 
1953.000000	64.508032 
1952.000000	64.521694 
1951.000000	64.536595 
1950.000000	64.549708 
1949.000000	64.558362 
1948.000000	64.560532 
1947.000000	64.555811 
1946.000000	64.545035 
1945.000000	64.530467 
1944.000000	64.515280 
1943.000000	64.502835 
1942.000000	64.496159 
1941.000000	64.497137 
1940.000000	64.506363 
1939.000000	64.522624 
1938.000000	64.543437 
1937.000000	64.565324 
1936.000000	64.584589 
1935.000000	64.598083 
1934.000000	64.603757 
1933.000000	64.600896 
1932.000000	64.590263 
1931.000000	64.573788 
1930.000000	64.554071 
1929.000000	64.533758 
1928.000000	64.515042 
1927.000000	64.499402 
1926.000000	64.487266 
1925.000000	64.478206 
1924.000000	64.471459 
1923.000000	64.466118 
1922.000000	64.461517 
1921.000000	64.457321 
1920.000000	64.453673 
1919.000000	64.450716 
1918.000000	64.448857 
1917.000000	64.448189 
1916.000000	64.448738 
1915.000000	64.450168 
1914.000000	64.452266 
1913.000000	64.454650 
1912.000000	64.457201 
1911.000000	64.460301 
1910.000000	64.464449 
1909.000000	64.470219 
1908.000000	64.477968 
1907.000000	64.487624 
1906.000000	64.498424 
1905.000000	64.508938 
1904.000000	64.517235 
1903.000000	64.521241 
1902.000000	64.519309 
1901.000000	64.510822 
1900.000000	64.496350 
1899.000000	64.477729 
1898.000000	64.457678 
1897.000000	64.439344 
1896.000000	64.425635 
1895.000000	64.418721 
1894.000000	64.419364 
1893.000000	64.427161 
1892.000000	64.440417 
1891.000000	64.456987 
1890.000000	64.474368 
1889.000000	64.490771 
1888.000000	64.504909 
1887.000000	64.516639 
1886.000000	64.526343 
1885.000000	64.534926 
1884.000000	64.543175 
1883.000000	64.551568 
1882.000000	64.560222 
1881.000000	64.568614 
1880.000000	64.576053 
1879.000000	64.581751 
1878.000000	64.585089 
1877.000000	64.585924 
1876.000000	64.584374 
1875.000000	64.580941 
1874.000000	64.576244 
1873.000000	64.570879 
1872.000000	64.565420 
1871.000000	64.560103 
1870.000000	64.555096 
1869.000000	64.550495 
1868.000000	64.546513 
1867.000000	64.543581 
1866.000000	64.542126 
1865.000000	64.542722 
1864.000000	64.545774 
1863.000000	64.551472 
1862.000000	64.559650 
1861.000000	64.569687 
1860.000000	64.580512 
1859.000000	64.591217 
1858.000000	64.600682 
1857.000000	64.607930 
1856.000000	64.612007 
1855.000000	64.612150 
1854.000000	64.607715 
1853.000000	64.598274 
1852.000000	64.583778 
1851.000000	64.564752 
1850.000000	64.542460 
1849.000000	64.518904 
1848.000000	64.496684 
1847.000000	64.478683 
1846.000000	64.467501 
1845.000000	64.464926 
1844.000000	64.471507 
1843.000000	64.486360 
1842.000000	64.507269 
1841.000000	64.530968 
1840.000000	64.553785 
1839.000000	64.572167 
1838.000000	64.583468 
1837.000000	64.586091 
1836.000000	64.579677 
1835.000000	64.564990 
1834.000000	64.543771 
1833.000000	64.518332 
1832.000000	64.491176 
1831.000000	64.464759 
1830.000000	64.441251 
1829.000000	64.422297 
1828.000000	64.409041 
1827.000000	64.401793 
1826.000000	64.400315 
1825.000000	64.403724 
1824.000000	64.410686 
1823.000000	64.419817 
1822.000000	64.429640 
1821.000000	64.439105 
1820.000000	64.447569 
1819.000000	64.454865 
1818.000000	64.461183 
1817.000000	64.466810 
1816.000000	64.471793 
1815.000000	64.475941 
1814.000000	64.478850 
1813.000000	64.480042 
1812.000000	64.479088 
1811.000000	64.475846 
1810.000000	64.470505 
1809.000000	64.463925 
1808.000000	64.456844 
1807.000000	64.450025 
1806.000000	64.443898 
1805.000000	64.438509 
1804.000000	64.433789 
1803.000000	64.429187 
1802.000000	64.424324 
1801.000000	64.419031 
1800.000000	64.413619 
1799.000000	64.408707 
1798.000000	64.405179 
1797.000000	64.403867 
1796.000000	64.405202 
1795.000000	64.409208 
1794.000000	64.415431 
1793.000000	64.423131 
1792.000000	64.431452 
1791.000000	64.439654 
1790.000000	64.447164 
1789.000000	64.453554 
1788.000000	64.458489 
1787.000000	64.461731 
1786.000000	64.462995 
1785.000000	64.461779 
1784.000000	64.457798 
1783.000000	64.450454 
1782.000000	64.439487 
1781.000000	64.424753 
1780.000000	64.406585 
1779.000000	64.385509 
1778.000000	64.362692 
1777.000000	64.339590 
1776.000000	64.317774 
1775.000000	64.298796 
1774.000000	64.283919 
1773.000000	64.274001 
1772.000000	64.269089 
1771.000000	64.268708 
1770.000000	64.271736 
1769.000000	64.276671 
1768.000000	64.282083 
1767.000000	64.286875 
1766.000000	64.290690 
1765.000000	64.293742 
1764.000000	64.296817 
1763.000000	64.300870 
1762.000000	64.306664 
1761.000000	64.314341 
1760.000000	64.323377 
1759.000000	64.332509 
1758.000000	64.340066 
1757.000000	64.344406 
1756.000000	64.344263 
1755.000000	64.338970 
1754.000000	64.328527 
1753.000000	64.313769 
1752.000000	64.295792 
1751.000000	64.275908 
1750.000000	64.255309 
1749.000000	64.234924 
1748.000000	64.215493 
1747.000000	64.197659 
1746.000000	64.182186 
1745.000000	64.169883 
1744.000000	64.161634 
1743.000000	64.157891 
1742.000000	64.158701 
1741.000000	64.163613 
1740.000000	64.171504 
1739.000000	64.180898 
1738.000000	64.190268 
1737.000000	64.198446 
1736.000000	64.204668 
1735.000000	64.208793 
1734.000000	64.211249 
1733.000000	64.212751 
1732.000000	64.214181 
1731.000000	64.216113 
1730.000000	64.218878 
1729.000000	64.222383 
1728.000000	64.226126 
1727.000000	64.229393 
1726.000000	64.231514 
1725.000000	64.231801 
1724.000000	64.229822 
1723.000000	64.225435 
1722.000000	64.218783 
1721.000000	64.210319 
1720.000000	64.200758 
1719.000000	64.191174 
1718.000000	64.182639 
1717.000000	64.176368 
1716.000000	64.173460 
1715.000000	64.174580 
1714.000000	64.179992 
1713.000000	64.189600 
1712.000000	64.202880 
1711.000000	64.218854 
1710.000000	64.236569 
1709.000000	64.254927 
1708.000000	64.272999 
1707.000000	64.289951 
1706.000000	64.304971 
1705.000000	64.317417 
1704.000000	64.326786 
1703.000000	64.332771 
1702.000000	64.335107 
1701.000000	64.333724 
1700.000000	64.328956 
1699.000000	64.321517 
1698.000000	64.312481 
1697.000000	64.303040 
1696.000000	64.294290 
1695.000000	64.287447 
1694.000000	64.283013 
1693.000000	64.281249 
1692.000000	64.281678 
1691.000000	64.283609 
1690.000000	64.286088 
1689.000000	64.288163 
1688.000000	64.289045 
1687.000000	64.288139 
1686.000000	64.285135 
1685.000000	64.279866 
1684.000000	64.272212 
1683.000000	64.262080 
1682.000000	64.249563 
1681.000000	64.234972 
1680.000000	64.218759 
1679.000000	64.201927 
1678.000000	64.185714 
1677.000000	64.171791 
1676.000000	64.161705 
1675.000000	64.156985 
1674.000000	64.158391 
1673.000000	64.166402 
1672.000000	64.180445 
1671.000000	64.199495 
1670.000000	64.222073 
1669.000000	64.246654 
1668.000000	64.271569 
1667.000000	64.295315 
1666.000000	64.316606 
1665.000000	64.334297 
1664.000000	64.347457 
1663.000000	64.355206 
1662.000000	64.356827 
1661.000000	64.351940 
1660.000000	64.340591 
1659.000000	64.323282 
1658.000000	64.301013 
1657.000000	64.275312 
1656.000000	64.248371 
1655.000000	64.222502 
1654.000000	64.200091 
1653.000000	64.183402 
1652.000000	64.174151 
1651.000000	64.173388 
1650.000000	64.181065 
1649.000000	64.195990 
1648.000000	64.216184 
1647.000000	64.238595 
1646.000000	64.259934 
1645.000000	64.276790 
1644.000000	64.286518 
1643.000000	64.287447 
1642.000000	64.279294 
1641.000000	64.263176 
1640.000000	64.241576 
1639.000000	64.217638 
1638.000000	64.194679 
1637.000000	64.175558 
1636.000000	64.162135 
1635.000000	64.155125 
1634.000000	64.154124 
1633.000000	64.157629 
1632.000000	64.163923 
1631.000000	64.171385 
1630.000000	64.178943 
1629.000000	64.186167 
1628.000000	64.193224 
1627.000000	64.200806 
1626.000000	64.209365 
1625.000000	64.219260 
1624.000000	64.230251 
1623.000000	64.241647 
1622.000000	64.252591 
1621.000000	64.262342 
1620.000000	64.270353 
1619.000000	64.276623 
1618.000000	64.281749 
1617.000000	64.286541 
1616.000000	64.291691 
1615.000000	64.297628 
1614.000000	64.304137 
1613.000000	64.310407 
1612.000000	64.315152 
1611.000000	64.316940 
1610.000000	64.314746 
1609.000000	64.308047 
1608.000000	64.297223 
1607.000000	64.283418 
1606.000000	64.268445 
1605.000000	64.253926 
1604.000000	64.241051 
1603.000000	64.230418 
1602.000000	64.221787 
1601.000000	64.214468 
1600.000000	64.207553 
1599.000000	64.200210 
1598.000000	64.192271 
1597.000000	64.184165 
1596.000000	64.176893 
1595.000000	64.171433 
1594.000000	64.168834 
1593.000000	64.169740 
1592.000000	64.174318 
1591.000000	64.182066 
1590.000000	64.192056 
1589.000000	64.203214 
1588.000000	64.214324 
1587.000000	64.224457 
1586.000000	64.233016 
1585.000000	64.239716 
1584.000000	64.244675 
1583.000000	64.248299 
1582.000000	64.251089 
1581.000000	64.253449 
1580.000000	64.255881 
1579.000000	64.258575 
1578.000000	64.261579 
1577.000000	64.264917 
1576.000000	64.268350 
1575.000000	64.271497 
1574.000000	64.273715 
1573.000000	64.274191 
1572.000000	64.272022 
1571.000000	64.266371 
1570.000000	64.256811 
1569.000000	64.243221 
1568.000000	64.226150 
1567.000000	64.206647 
1566.000000	64.186072 
1565.000000	64.165925 
1564.000000	64.147520 
1563.000000	64.131999 
1562.000000	64.120125 
1561.000000	64.112424 
1560.000000	64.109015 
1559.000000	64.110064 
1558.000000	64.115357 
1557.000000	64.124703 
1556.000000	64.137554 
1555.000000	64.153075 
1554.000000	64.170074 
1553.000000	64.187002 
1552.000000	64.202189 
1551.000000	64.213943 
1550.000000	64.220929 
1549.000000	64.222431 
1548.000000	64.218521 
1547.000000	64.210033 
1546.000000	64.198493 
1545.000000	64.185833 
1544.000000	64.173936 
1543.000000	64.164185 
1542.000000	64.157319 
1541.000000	64.153289 
1540.000000	64.151358 
1539.000000	64.150500 
1538.000000	64.149737 
1537.000000	64.148402 
1536.000000	64.146494 
1535.000000	64.144635 
1534.000000	64.143967 
1533.000000	64.145922 
1532.000000	64.151620 
1531.000000	64.161634 
1530.000000	64.175772 
1529.000000	64.193105 
1528.000000	64.211988 
1527.000000	64.230585 
1526.000000	64.247107 
1525.000000	64.260149 
1524.000000	64.268946 
1523.000000	64.273405 
1522.000000	64.273929 
1521.000000	64.271450 
1520.000000	64.267039 
1519.000000	64.261817 
1518.000000	64.256858 
1517.000000	64.252972 
1516.000000	64.250993 
1515.000000	64.251232 
1514.000000	64.253926 
1513.000000	64.258933 
1512.000000	64.265680 
1511.000000	64.273405 
1510.000000	64.281010 
1509.000000	64.287638 
1508.000000	64.292812 
1507.000000	64.296603 
1506.000000	64.299654 
1505.000000	64.303064 
1504.000000	64.308190 
1503.000000	64.316058 
1502.000000	64.326977 
1501.000000	64.340376 
1500.000000	64.354801 
1499.000000	64.368104 
1498.000000	64.377808 
1497.000000	64.381837 
1496.000000	64.379096 
1495.000000	64.369559 
1494.000000	64.354324 
1493.000000	64.335560 
1492.000000	64.315795 
1491.000000	64.297556 
1490.000000	64.282655 
1489.000000	64.272165 
1488.000000	64.265990 
1487.000000	64.263248 
1486.000000	64.262390 
1485.000000	64.261460 
1484.000000	64.258646 
1483.000000	64.252448 
1482.000000	64.242243 
1481.000000	64.228057 
1480.000000	64.210820 
1479.000000	64.191985 
1478.000000	64.173340 
1477.000000	64.156627 
1476.000000	64.143037 
1475.000000	64.133191 
1474.000000	64.126706 
1473.000000	64.122653 
1472.000000	64.119482 
1471.000000	64.115524 
1470.000000	64.109563 
1469.000000	64.101004 
1468.000000	64.090156 
1467.000000	64.078187 
1466.000000	64.066839 
1465.000000	64.058208 
1464.000000	64.054131 
1463.000000	64.055991 
1462.000000	64.064359 
1461.000000	64.079093 
1460.000000	64.099431 
1459.000000	64.123988 
1458.000000	64.150977 
1457.000000	64.178347 
1456.000000	64.204025 
1455.000000	64.226055 
1454.000000	64.242720 
1453.000000	64.252614 
1452.000000	64.254832 
1451.000000	64.249205 
1450.000000	64.236283 
1449.000000	64.217162 
1448.000000	64.193773 
1447.000000	64.168238 
1446.000000	64.142918 
1445.000000	64.119863 
1444.000000	64.100813 
1443.000000	64.086747 
1442.000000	64.077973 
1441.000000	64.074182 
1440.000000	64.074659 
1439.000000	64.078474 
1438.000000	64.084792 
1437.000000	64.093017 
1436.000000	64.102911 
1435.000000	64.114379 
1434.000000	64.127516 
1433.000000	64.142417 
1432.000000	64.158678 
1431.000000	64.175581 
1430.000000	64.191865 
1429.000000	64.205884 
1428.000000	64.215779 
1427.000000	64.220094 
1426.000000	64.217543 
1425.000000	64.207816 
1424.000000	64.191246 
1423.000000	64.169192 
1422.000000	64.143538 
1421.000000	64.116621 
1420.000000	64.090776 
1419.000000	64.068150 
1418.000000	64.050340 
1417.000000	64.038276 
1416.000000	64.032196 
1415.000000	64.031648 
1414.000000	64.035773 
1413.000000	64.043450 
1412.000000	64.053440 
1411.000000	64.064717 
1410.000000	64.076256 
1409.000000	64.087438 
1408.000000	64.097762 
1407.000000	64.107036 
1406.000000	64.115190 
1405.000000	64.122056 
1404.000000	64.127635 
1403.000000	64.131855 
1402.000000	64.134812 
1401.000000	64.136719 
1400.000000	64.138054 
1399.000000	64.139342 
1398.000000	64.141201 
1397.000000	64.144086 
1396.000000	64.148020 
1395.000000	64.152526 
1394.000000	64.156723 
1393.000000	64.159393 
1392.000000	64.159417 
1391.000000	64.155960 
1390.000000	64.148855 
1389.000000	64.138531 
1388.000000	64.125847 
1387.000000	64.111828 
1386.000000	64.097404 
1385.000000	64.082860 
1384.000000	64.067888 
1383.000000	64.051580 
1382.000000	64.033055 
1381.000000	64.011931 
1380.000000	63.988780 
1379.000000	63.965249 
1378.000000	63.943982 
1377.000000	63.927865 
1376.000000	63.919663 
1375.000000	63.920879 
1374.000000	63.931465 
1373.000000	63.949632 
1372.000000	63.972258 
1371.000000	63.995480 
1370.000000	64.015650 
1369.000000	64.029979 
1368.000000	64.037156 
1367.000000	64.037346 
1366.000000	64.032173 
1365.000000	64.024114 
1364.000000	64.015698 
1363.000000	64.008975 
1362.000000	64.005303 
1361.000000	64.005184 
1360.000000	64.008378 
1359.000000	64.014124 
1358.000000	64.021539 
1357.000000	64.029693 
1356.000000	64.037847 
1355.000000	64.045643 
1354.000000	64.052724 
1353.000000	64.059185 
1352.000000	64.065074 
1351.000000	64.070749 
1350.000000	64.076471 
1349.000000	64.082527 
1348.000000	64.089179 
1347.000000	64.096522 
1346.000000	64.104509 
1345.000000	64.112758 
1344.000000	64.120817 
1343.000000	64.127755 
1342.000000	64.132571 
1341.000000	64.134168 
1340.000000	64.131593 
1339.000000	64.124083 
1338.000000	64.111399 
1337.000000	64.093923 
1336.000000	64.072608 
1335.000000	64.048981 
1334.000000	64.024996 
1333.000000	64.002871 
1332.000000	63.984751 
1331.000000	63.972139 
1330.000000	63.965940 
1329.000000	63.966035 
1328.000000	63.971614 
1327.000000	63.981246 
1326.000000	63.993287 
1325.000000	64.005970 
1324.000000	64.017939 
1323.000000	64.028453 
1322.000000	64.037346 
1321.000000	64.044761 
1320.000000	64.050936 
1319.000000	64.056110 
1318.000000	64.060211 
1317.000000	64.062952 
1316.000000	64.063930 
1315.000000	64.063096 
1314.000000	64.060568 
1313.000000	64.056992 
1312.000000	64.053344 
1311.000000	64.050817 
1310.000000	64.050459 
1309.000000	64.053034 
1308.000000	64.059114 
1307.000000	64.068937 
1306.000000	64.082598 
1305.000000	64.100122 
1304.000000	64.121103 
1303.000000	64.144730 
1302.000000	64.169859 
1301.000000	64.194560 
1300.000000	64.216423 
1299.000000	64.232826 
1298.000000	64.241528 
1297.000000	64.241051 
1296.000000	64.231109 
1295.000000	64.212822 
1294.000000	64.188718 
1293.000000	64.161968 
1292.000000	64.136171 
1291.000000	64.114046 
1290.000000	64.097309 
1289.000000	64.086031 
1288.000000	64.079070 
1287.000000	64.074206 
1286.000000	64.069008 
1285.000000	64.061641 
1284.000000	64.051318 
1283.000000	64.038419 
1282.000000	64.024448 
1281.000000	64.011430 
1280.000000	64.001488 
1279.000000	63.996171 
1278.000000	63.995981 
1277.000000	64.000415 
1276.000000	64.008116 
1275.000000	64.017415 
1274.000000	64.026641 
1273.000000	64.034652 
1272.000000	64.040923 
1271.000000	64.045548 
1270.000000	64.048838 
1269.000000	64.051055 
1268.000000	64.052152 
1267.000000	64.051580 
1266.000000	64.048385 
1265.000000	64.041686 
1264.000000	64.030909 
1263.000000	64.016103 
1262.000000	63.998079 
1261.000000	63.978242 
1260.000000	63.958525 
1259.000000	63.940954 
1258.000000	63.927197 
1257.000000	63.918542 
1256.000000	63.915419 
1255.000000	63.917517 
1254.000000	63.923811 
1253.000000	63.932633 
1252.000000	63.942074 
1251.000000	63.950419 
1250.000000	63.956356 
1249.000000	63.959574 
1248.000000	63.960623 
1247.000000	63.960695 
1246.000000	63.961505 
1245.000000	63.964462 
1244.000000	63.970351 
1243.000000	63.978981 
1242.000000	63.989257 
1241.000000	63.998913 
1240.000000	64.005494 
1239.000000	64.006733 
1238.000000	64.000988 
1237.000000	63.987755 
1236.000000	63.967752 
1235.000000	63.942694 
1234.000000	63.914895 
1233.000000	63.886785 
1232.000000	63.860392 
1231.000000	63.837361 
1230.000000	63.818669 
1229.000000	63.804912 
1228.000000	63.796305 
1227.000000	63.792824 
1226.000000	63.794422 
1225.000000	63.800573 
1224.000000	63.810563 
1223.000000	63.823008 
1222.000000	63.836526 
1221.000000	63.849282 
1220.000000	63.859701 
1219.000000	63.866853 
1218.000000	63.870716 
1217.000000	63.872122 
1216.000000	63.872647 
1215.000000	63.874101 
1214.000000	63.878154 
1213.000000	63.885784 
1212.000000	63.896894 
1211.000000	63.910484 
1210.000000	63.924717 
1209.000000	63.937497 
1208.000000	63.946866 
1207.000000	63.951516 
1206.000000	63.950991 
1205.000000	63.945627 
1204.000000	63.936328 
1203.000000	63.924336 
1202.000000	63.910841 
1201.000000	63.897061 
1200.000000	63.884019 
1199.000000	63.872456 
1198.000000	63.862991 
1197.000000	63.856172 
1196.000000	63.852167 
1195.000000	63.850975 
1194.000000	63.851881 
1193.000000	63.853836 
1192.000000	63.855695 
1191.000000	63.856363 
1190.000000	63.855195 
1189.000000	63.852047 
1188.000000	63.847637 
1187.000000	63.843178 
1186.000000	63.839936 
1185.000000	63.838958 
1184.000000	63.840413 
1183.000000	63.843774 
1182.000000	63.847661 
1181.000000	63.850545 
1180.000000	63.851284 
1179.000000	63.849568 
1178.000000	63.846206 
1177.000000	63.842892 
1176.000000	63.841795 
1175.000000	63.844633 
1174.000000	63.852190 
1173.000000	63.863682 
1172.000000	63.876867 
1171.000000	63.888573 
1170.000000	63.895392 
1169.000000	63.894343 
1168.000000	63.883590 
1167.000000	63.863039 
1166.000000	63.834190 
1165.000000	63.799929 
1164.000000	63.763713 
1163.000000	63.728976 
1162.000000	63.698554 
1161.000000	63.674259 
1160.000000	63.656854 
1159.000000	63.646173 
1158.000000	63.641333 
1157.000000	63.641190 
1156.000000	63.644695 
1155.000000	63.650679 
1154.000000	63.658452 
1153.000000	63.667535 
1152.000000	63.677716 
1151.000000	63.688778 
1150.000000	63.700747 
1149.000000	63.713717 
1148.000000	63.727831 
1147.000000	63.743090 
1146.000000	63.759660 
1145.000000	63.777399 
1144.000000	63.796186 
1143.000000	63.815474 
1142.000000	63.834357 
1141.000000	63.851666 
1140.000000	63.865923 
1139.000000	63.875746 
1138.000000	63.879990 
1137.000000	63.878107 
1136.000000	63.870453 
1135.000000	63.858032 
1134.000000	63.842511 
1133.000000	63.825821 
1132.000000	63.810181 
1131.000000	63.797307 
1130.000000	63.788199 
1129.000000	63.782691 
1128.000000	63.779926 
1127.000000	63.778233 
1126.000000	63.775515 
1125.000000	63.769769 
1124.000000	63.759589 
1123.000000	63.744330 
1122.000000	63.724565 
1121.000000	63.701605 
1120.000000	63.677453 
1119.000000	63.654088 
1118.000000	63.633203 
1117.000000	63.615489 
1116.000000	63.600897 
1115.000000	63.588595 
1114.000000	63.577699 
1113.000000	63.567256 
1112.000000	63.557291 
1111.000000	63.549065 
1110.000000	63.545274 
1109.000000	63.548970 
1108.000000	63.563013 
1107.000000	63.589119 
1106.000000	63.627028 
1105.000000	63.674187 
1104.000000	63.725900 
1103.000000	63.776302 
1102.000000	63.819336 
1101.000000	63.850331 
1100.000000	63.866639 
1099.000000	63.868188 
1098.000000	63.857483 
1097.000000	63.838624 
1096.000000	63.816618 
1095.000000	63.796091 
1094.000000	63.780689 
1093.000000	63.772344 
1092.000000	63.771224 
1091.000000	63.775944 
1090.000000	63.784241 
1089.000000	63.793611 
1088.000000	63.801503 
1087.000000	63.805627 
1086.000000	63.804316 
1085.000000	63.796472 
1084.000000	63.781666 
1083.000000	63.760256 
1082.000000	63.733196 
1081.000000	63.702344 
1080.000000	63.670468 
1079.000000	63.640713 
1078.000000	63.616275 
1077.000000	63.599658 
1076.000000	63.592290 
1075.000000	63.594007 
1074.000000	63.602972 
1073.000000	63.615942 
1072.000000	63.629221 
1071.000000	63.639235 
1070.000000	63.643431 
1069.000000	63.641142 
1068.000000	63.633799 
1067.000000	63.624668 
1066.000000	63.617968 
1065.000000	63.617873 
1064.000000	63.627433 
1063.000000	63.647961 
1062.000000	63.678455 
1061.000000	63.715934 
1060.000000	63.755488 
1059.000000	63.792014 
1058.000000	63.820505 
1057.000000	63.836908 
1056.000000	63.838601 
1055.000000	63.824820 
1054.000000	63.796949 
1053.000000	63.758039 
1052.000000	63.712716 
1051.000000	63.666582 
1050.000000	63.625216 
1049.000000	63.593816 
1048.000000	63.575839 
1047.000000	63.572931 
1046.000000	63.584280 
1045.000000	63.607215 
1044.000000	63.637256 
1043.000000	63.669085 
1042.000000	63.697409 
1041.000000	63.717842 
1040.000000	63.727569 
1039.000000	63.725805 
1038.000000	63.714003 
1037.000000	63.695454 
1036.000000	63.674902 
1035.000000	63.657522 
1034.000000	63.648152 
1033.000000	63.650321 
1032.000000	63.665962 
1031.000000	63.694834 
1030.000000	63.734912 
1029.000000	63.782358 
1028.000000	63.832378 
1027.000000	63.879871 
1026.000000	63.920235 
1025.000000	63.949751 
1024.000000	63.966012 
1023.000000	63.967871 
1022.000000	63.955664 
1021.000000	63.930726 
1020.000000	63.895440 
1019.000000	63.852524 
1018.000000	63.805127 
1017.000000	63.756322 
1016.000000	63.709473 
1015.000000	63.667821 
1014.000000	63.634419 
1013.000000	63.611721 
1012.000000	63.601446 
1011.000000	63.603973 
1010.000000	63.618540 
1009.000000	63.642740 
1008.000000	63.673329 
1007.000000	63.706636 
1006.000000	63.739299 
1005.000000	63.768744 
1004.000000	63.793396 
1003.000000	63.812470 
1002.000000	63.825774 
1001.000000	63.833355 
1000.000000	63.835239 
999.000000	 63.831543 
998.000000	 63.822150 
997.000000	 63.807392 
996.000000	 63.787913 
995.000000	 63.765144 
994.000000	 63.741159 
993.000000	 63.718247 
992.000000	 63.698720 
991.000000	 63.684558 
990.000000	 63.677167 
989.000000	 63.676881 
988.000000	 63.683462 
987.000000	 63.696074 
986.000000	 63.713669 
985.000000	 63.735103 
984.000000	 63.758778 
983.000000	 63.782930 
982.000000	 63.805675 
981.000000	 63.825368 
980.000000	 63.840818 
979.000000	 63.851356 
978.000000	 63.857364 
977.000000	 63.859581 
976.000000	 63.859462 
975.000000	 63.858127 
974.000000	 63.856291 
973.000000	 63.853931 
972.000000	 63.850712 
971.000000	 63.845944 
970.000000	 63.839316 
969.000000	 63.830733 
968.000000	 63.820838 
967.000000	 63.810205 
966.000000	 63.799715 
965.000000	 63.789415 
964.000000	 63.778448 
963.000000	 63.765406 
962.000000	 63.748598 
961.000000	 63.727235 
960.000000	 63.701915 
959.000000	 63.675236 
958.000000	 63.651490 
957.000000	 63.635921 
956.000000	 63.633227 
955.000000	 63.646173 
954.000000	 63.674402 
953.000000	 63.714265 
952.000000	 63.759255 
951.000000	 63.801312 
950.000000	 63.832640 
949.000000	 63.847637 
948.000000	 63.843798 
947.000000	 63.822531 
946.000000	 63.788533 
945.000000	 63.748359 
944.000000	 63.709092 
943.000000	 63.676762 
942.000000	 63.655138 
941.000000	 63.645315 
940.000000	 63.645911 
939.000000	 63.654303 
938.000000	 63.667154 
937.000000	 63.681507 
936.000000	 63.695144 
935.000000	 63.706922 
934.000000	 63.716483 
933.000000	 63.723707 
932.000000	 63.728666 
931.000000	 63.731026 
930.000000	 63.730716 
929.000000	 63.727784 
928.000000	 63.722729 
927.000000	 63.716626 
926.000000	 63.710856 
925.000000	 63.707017 
924.000000	 63.706231 
923.000000	 63.709211 
922.000000	 63.715910 
921.000000	 63.725900 
920.000000	 63.738250 
919.000000	 63.752245 
918.000000	 63.767337 
917.000000	 63.783693 
916.000000	 63.801670 
915.000000	 63.821887 
914.000000	 63.844752 
913.000000	 63.870263 
912.000000	 63.897776 
911.000000	 63.925838 
910.000000	 63.952422 
909.000000	 63.974928 
908.000000	 63.990926 
907.000000	 63.998246 
906.000000	 63.995575 
905.000000	 63.982486 
904.000000	 63.959550 
903.000000	 63.928604 
902.000000	 63.892173 
901.000000	 63.853192 
900.000000	 63.814496 
899.000000	 63.778471 
898.000000	 63.746738 
897.000000	 63.719844 
896.000000	 63.697862 
895.000000	 63.680553 
894.000000	 63.668012 
893.000000	 63.660717 
892.000000	 63.659620 
891.000000	 63.665580 
890.000000	 63.679194 
889.000000	 63.700151 
888.000000	 63.726997 
887.000000	 63.756942 
886.000000	 63.786411 
885.000000	 63.811349 
884.000000	 63.828110 
883.000000	 63.834357 
882.000000	 63.829207 
881.000000	 63.813495 
880.000000	 63.789486 
879.000000	 63.760256 
878.000000	 63.729119 
877.000000	 63.698959 
876.000000	 63.671517 
875.000000	 63.647222 
874.000000	 63.625574 
873.000000	 63.605284 
872.000000	 63.584613 
871.000000	 63.562202 
870.000000	 63.537216 
869.000000	 63.510417 
868.000000	 63.483595 
867.000000	 63.460350 
866.000000	 63.444614 
865.000000	 63.440680 
864.000000	 63.451528 
863.000000	 63.478374 
862.000000	 63.519930 
861.000000	 63.572216 
860.000000	 63.629102 
859.000000	 63.683319 
858.000000	 63.727736 
857.000000	 63.756942 
856.000000	 63.768100 
855.000000	 63.761591 
854.000000	 63.740849 
853.000000	 63.711905 
852.000000	 63.682103 
851.000000	 63.658428 
850.000000	 63.646197 
849.000000	 63.648295 
848.000000	 63.664793 
847.000000	 63.693308 
846.000000	 63.729596 
845.000000	 63.768172 
844.000000	 63.803577 
843.000000	 63.831019 
842.000000	 63.847422 
841.000000	 63.851332 
840.000000	 63.843369 
839.000000	 63.825702 
838.000000	 63.801479 
837.000000	 63.774371 
836.000000	 63.748002 
835.000000	 63.725686 
834.000000	 63.710236 
833.000000	 63.704133 
832.000000	 63.708710 
831.000000	 63.724660 
830.000000	 63.750457 
829.000000	 63.782668 
828.000000	 63.815569 
827.000000	 63.841915 
826.000000	 63.854718 
825.000000	 63.848757 
824.000000	 63.822126 
823.000000	 63.776803 
822.000000	 63.718485 
821.000000	 63.655543 
820.000000	 63.597011 
819.000000	 63.550686 
818.000000	 63.521862 
817.000000	 63.512277 
816.000000	 63.520026 
815.000000	 63.540220 
814.000000	 63.566493 
813.000000	 63.592553 
812.000000	 63.613033 
811.000000	 63.625121 
810.000000	 63.628363 
809.000000	 63.624930 
808.000000	 63.618183 
807.000000	 63.612174 
806.000000	 63.610076 
805.000000	 63.613963 
804.000000	 63.624429 
803.000000	 63.640356 
802.000000	 63.659667 
801.000000	 63.679647 
800.000000	 63.697981 
799.000000	 63.712739 
798.000000	 63.722610 
797.000000	 63.726806 
796.000000	 63.724803 
795.000000	 63.716077 
794.000000	 63.699936 
793.000000	 63.675642 
792.000000	 63.642787 
791.000000	 63.601827 
790.000000	 63.554668 
789.000000	 63.504838 
788.000000	 63.457107 
787.000000	 63.416576 
786.000000	 63.388180 
785.000000	 63.374996 
784.000000	 63.378167 
783.000000	 63.396644 
782.000000	 63.427376 
781.000000	 63.465499 
780.000000	 63.505959 
779.000000	 63.544154 
778.000000	 63.577032 
777.000000	 63.602924 
776.000000	 63.622164 
775.000000	 63.636159 
774.000000	 63.647055 
773.000000	 63.656902 
772.000000	 63.666868 
771.000000	 63.677000 
770.000000	 63.686180 
769.000000	 63.692402 
768.000000	 63.693523 
767.000000	 63.687658 
766.000000	 63.673996 
765.000000	 63.652992 
764.000000	 63.626384 
763.000000	 63.596796 
762.000000	 63.567256 
761.000000	 63.540220 
760.000000	 63.517045 
759.000000	 63.497328 
758.000000	 63.479542 
757.000000	 63.460922 
756.000000	 63.438248 
755.000000	 63.409161 
754.000000	 63.372468 
753.000000	 63.329458 
752.000000	 63.283276 
751.000000	 63.239026 
750.000000	 63.202238 
749.000000	 63.178253 
748.000000	 63.170838 
747.000000	 63.181471 
746.000000	 63.208723 
745.000000	 63.248825 
744.000000	 63.296198 
743.000000	 63.344669 
742.000000	 63.388466 
741.000000	 63.423180 
740.000000	 63.446140 
739.000000	 63.456463 
738.000000	 63.454937 
737.000000	 63.443517 
736.000000	 63.424849 
735.000000	 63.401961 
734.000000	 63.377666 
733.000000	 63.354969 
732.000000	 63.336372 
731.000000	 63.324356 
730.000000	 63.320541 
729.000000	 63.325095 
728.000000	 63.336944 
727.000000	 63.353586 
726.000000	 63.371801 
725.000000	 63.387727 
724.000000	 63.398408 
723.000000	 63.402199 
722.000000	 63.399434 
721.000000	 63.392019 
720.000000	 63.383460 
719.000000	 63.377881 
718.000000	 63.379144 
717.000000	 63.389754 
716.000000	 63.410258 
715.000000	 63.438892 
714.000000	 63.471817 
713.000000	 63.503956 
712.000000	 63.529491 
711.000000	 63.543248 
710.000000	 63.541388 
709.000000	 63.522553 
708.000000	 63.487935 
707.000000	 63.441467 
706.000000	 63.389348 
705.000000	 63.338828 
704.000000	 63.297009 
703.000000	 63.269472 
702.000000	 63.259387 
701.000000	 63.267254 
700.000000	 63.290405 
699.000000	 63.324546 
698.000000	 63.364672 
697.000000	 63.406348 
696.000000	 63.446402 
695.000000	 63.483357 
694.000000	 63.517165 
693.000000	 63.548064 
692.000000	 63.575744 
691.000000	 63.598561 
690.000000	 63.613677 
689.000000	 63.617849 
688.000000	 63.608598 
687.000000	 63.586020 
686.000000	 63.553237 
685.000000	 63.517069 
684.000000	 63.486170 
683.000000	 63.469266 
682.000000	 63.472294 
681.000000	 63.496708 
680.000000	 63.538193 
679.000000	 63.587403 
678.000000	 63.631916 
677.000000	 63.659477 
676.000000	 63.661098 
675.000000	 63.633561 
674.000000	 63.580131 
673.000000	 63.509607 
672.000000	 63.433790 
671.000000	 63.364315 
670.000000	 63.309884 
669.000000	 63.274478 
668.000000	 63.257217 
667.000000	 63.253569 
666.000000	 63.257360 
665.000000	 63.263082 
664.000000	 63.267588 
663.000000	 63.270998 
662.000000	 63.275074 
661.000000	 63.282275 
660.000000	 63.294315 
659.000000	 63.311386 
658.000000	 63.331651 
657.000000	 63.352108 
656.000000	 63.370680 
655.000000	 63.386106 
654.000000	 63.399815 
653.000000	 63.413834 
652.000000	 63.429498 
651.000000	 63.446211 
650.000000	 63.460564 
649.000000	 63.467502 
648.000000	 63.461160 
647.000000	 63.437962 
646.000000	 63.398170 
645.000000	 63.346838 
644.000000	 63.293933 
643.000000	 63.251042 
642.000000	 63.228893 
641.000000	 63.233327 
640.000000	 63.263487 
639.000000	 63.311457 
638.000000	 63.364100 
637.000000	 63.406133 
636.000000	 63.424134 
635.000000	 63.409757 
634.000000	 63.362073 
633.000000	 63.286662 
632.000000	 63.194704 
631.000000	 63.098907 
630.000000	 63.011837 
629.000000	 62.943696 
628.000000	 62.901735 
627.000000	 62.890124 
626.000000	 62.909650 
625.000000	 62.959003 
624.000000	 63.033843 
623.000000	 63.127303 
622.000000	 63.229751 
621.000000	 63.329005 
620.000000	 63.412237 
619.000000	 63.466954 
618.000000	 63.484287 
617.000000	 63.460135 
616.000000	 63.397336 
615.000000	 63.306140 
614.000000	 63.201427 
613.000000	 63.100147 
612.000000	 63.017535 
611.000000	 62.964606 
610.000000	 62.945365 
609.000000	 62.956953 
608.000000	 62.990427 
607.000000	 63.033556 
606.000000	 63.073372 
605.000000	 63.099789 
604.000000	 63.106393 
603.000000	 63.092041 
602.000000	 63.060259 
601.000000	 63.018107 
600.000000	 62.973856 
599.000000	 62.935113 
598.000000	 62.907004 
597.000000	 62.891674 
596.000000	 62.888574 
595.000000	 62.895822 
594.000000	 62.910580 
593.000000	 62.931799 
592.000000	 62.959766 
591.000000	 62.997770 
590.000000	 63.050913 
589.000000	 63.124012 
588.000000	 63.219618 
587.000000	 63.335180 
586.000000	 63.462591 
585.000000	 63.587903 
584.000000	 63.694572 
583.000000	 63.765501 
582.000000	 63.787198 
581.000000	 63.754010 
580.000000	 63.670301 
579.000000	 63.548374 
578.000000	 63.406062 
577.000000	 63.263034 
576.000000	 63.136768 
575.000000	 63.038563 
574.000000	 62.972807 
573.000000	 62.937378 
572.000000	 62.926697 
571.000000	 62.934494 
570.000000	 62.956738 
569.000000	 62.992644 
568.000000	 63.044190 
567.000000	 63.113856 
566.000000	 63.201761 
565.000000	 63.302350 
564.000000	 63.405251 
563.000000	 63.495302 
562.000000	 63.558244 
561.000000	 63.583278 
560.000000	 63.569259 
559.000000	 63.525509 
558.000000	 63.471555 
557.000000	 63.432765 
556.000000	 63.433980 
555.000000	 63.493227 
554.000000	 63.615489 
553.000000	 63.790988 
552.000000	 63.998532 
551.000000	 64.210891 
550.000000	 64.400863 
549.000000	 64.547801 
548.000000	 64.643383 
547.000000	 64.691638 
546.000000	 64.705991 
545.000000	 64.703083 
544.000000	 64.697623 
543.000000	 64.696478 
542.000000	 64.698195 
541.000000	 64.693069 
540.000000	 64.668750 
539.000000	 64.614653 
538.000000	 64.528203 
537.000000	 64.416718 
536.000000	 64.297485 
535.000000	 64.193439 
534.000000	 64.126944 
533.000000	 64.114022 
532.000000	 64.160203 
531.000000	 64.257144 
530.000000	 64.384889 
529.000000	 64.514279 
528.000000	 64.613962 
527.000000	 64.655351 
526.000000	 64.618945 
525.000000	 64.496445 
524.000000	 64.291954 
523.000000	 64.019513 
522.000000	 63.700151 
521.000000	 63.358354 
520.000000	 63.018584 
519.000000	 62.701845 
518.000000	 62.424945 
517.000000	 62.201237 
516.000000	 62.040162 
515.000000	 61.946868 
514.000000	 61.921977 
513.000000	 61.959767 
512.000000	 62.049627 
511.000000	 62.173938 
510.000000	 62.313103 
509.000000	 62.444734 
508.000000	 62.550950 
507.000000	 62.618970 
506.000000	 62.645459 
505.000000	 62.634873 
504.000000	 62.600111 
503.000000	 62.558889 
502.000000	 62.528252 
501.000000	 62.520170 
500.000000	 62.538909 
499.000000	 62.580084 
498.000000	 62.631607 
497.000000	 62.676978 
496.000000	 62.699151 
495.000000	 62.685489 
494.000000	 62.629294 
493.000000	 62.533140 
492.000000	 62.407803 
491.000000	 62.271761 
490.000000	 62.146139 
489.000000	 62.051486 
488.000000	 62.004733 
487.000000	 62.014865 
486.000000	 62.080645 
485.000000	 62.192034 
484.000000	 62.331199 
483.000000	 62.479543 
482.000000	 62.620186 
481.000000	 62.744474 
480.000000	 62.851333 
479.000000	 62.948656 
478.000000	 63.049697 
477.000000	 63.166689 
476.000000	 63.305974 
475.000000	 63.463068 
474.000000	 63.622832 
473.000000	 63.761734 
472.000000	 63.854241 
471.000000	 63.881349 
470.000000	 63.836836 
469.000000	 63.731050 
468.000000	 63.588643 
467.000000	 63.443422 
466.000000	 63.328719 
465.000000	 63.267993 
464.000000	 63.268303 
463.000000	 63.320779 
462.000000	 63.401651 
461.000000	 63.481450 
460.000000	 63.530921 
459.000000	 63.529157 
458.000000	 63.468265 
457.000000	 63.354301 
456.000000	 63.205027 
455.000000	 63.042521 
454.000000	 62.889409 
453.000000	 62.762904 
452.000000	 62.671780 
451.000000	 62.615489 
450.000000	 62.586593 
449.000000	 62.575078 
448.000000	 62.570714 
447.000000	 62.566208 
446.000000	 62.556958 
445.000000	 62.540769 
444.000000	 62.514972 
443.000000	 62.474894 
442.000000	 62.413477 
441.000000	 62.322020 
440.000000	 62.192988 
439.000000	 62.023282 
438.000000	 61.813735 
437.000000	 61.573529 
436.000000	 61.322140 
435.000000	 61.087179 
434.000000	 60.895347 
433.000000	 60.771989 
432.000000	 60.732531 
431.000000	 60.784792 
430.000000	 60.923409 
429.000000	 61.137890 
428.000000	 61.412096 
427.000000	 61.730670 
426.000000	 62.080836 
425.000000	 62.450122 
424.000000	 62.822604 
423.000000	 63.180589 
422.000000	 63.502097 
421.000000	 63.770103 
420.000000	 63.974714 
419.000000	 64.117455 
418.000000	 64.209222 
417.000000	 64.270615 
416.000000	 64.322233 
415.000000	 64.375305 
414.000000	 64.421057 
413.000000	 64.434695 
412.000000	 64.374232 
411.000000	 64.183974 
410.000000	 63.813829 
409.000000	 63.239192 
408.000000	 62.474346 
407.000000	 61.579418 
406.000000	 60.652422 
405.000000	 59.797668 
404.000000	 59.121704 
403.000000	 58.703589 
402.000000	 58.592915 
401.000000	 58.808183 
400.000000	 59.322357 
399.000000	 60.072970 
398.000000	 60.955214 
397.000000	 61.832284 
396.000000	 62.564325 
395.000000	 63.033413 
394.000000	 63.160872 
393.000000	 62.917160 
392.000000	 62.335300 
391.000000	 61.494112 
390.000000	 60.506153 
389.000000	 59.481406 
388.000000	 58.468079 
387.000000	 57.446479 
386.000000	 56.335473 
385.000000	 55.050134 
384.000000	 53.509473 
383.000000	 51.732730 
382.000000	 49.897050 
381.000000	 48.299288 
380.000000	 47.331619 
379.000000	 47.312307 
378.000000	 48.359990 
377.000000	 50.337433 
376.000000	 52.797722 
375.000000	 55.170035 
374.000000	 56.863093 
373.000000	 57.517218 
372.000000	 57.116746 
371.000000	 56.010103 
370.000000	 54.800558 

