PE IR       SPECTRUM    SPECTRUM    ASCII       PEDS        1.60        
  -1
BZ6B23~1.ASC
17/04/07
15:09:50.00
17/04/07
15:09:50.00
tln
$BZ1503107-1_t0023$<tbV0>[13.0,-7.8,8.0,0.0,27,1,0]
370.000000
64









2002,4.07    
MIRTGS : RIGHTBACK : INTERNAL 2
MIR : ON : INTERNAL 2
OPTKBR

0.200000
8
8.000000
FILLER
RATIO
SPECTRUM
UNLOCKED 256

DOUBLE
64
COMBINED
1
0
0


1.000000
RATIO


1
0
TRUE
51149
0
LEFT NOT FITTED RIGHT NOT FITTED 0
NONE
NONE
15600
12.000000
4.427000
51148
TRUE
1 0 8 72 0 0 0 0 

15798.010000






#HDR
-1
-1
#GR
CM-1
%T
0.00002384185791015625
0.0
5000.000000
-1.000000
4631
8
83.535909
54.158449
#DATA
5000.000000	64.898610 
4999.000000	64.603781 
4998.000000	64.336514 
4997.000000	64.119815 
4996.000000	63.969802 
4995.000000	63.895130 
4994.000000	63.896846 
4993.000000	63.968491 
4992.000000	64.099144 
4991.000000	64.274096 
4990.000000	64.477515 
4989.000000	64.691805 
4988.000000	64.901494 
4987.000000	65.092420 
4986.000000	65.255212 
4985.000000	65.384578 
4984.000000	65.480351 
4983.000000	65.545701 
4982.000000	65.586304 
4981.000000	65.607452 
4980.000000	65.612673 
4979.000000	65.601706 
4978.000000	65.571451 
4977.000000	65.516209 
4976.000000	65.430736 
4975.000000	65.312123 
4974.000000	65.162825 
4973.000000	64.990663 
4972.000000	64.808249 
4971.000000	64.631152 
4970.000000	64.475226 
4969.000000	64.353680 
4968.000000	64.273238 
4967.000000	64.234399 
4966.000000	64.231848 
4965.000000	64.255809 
4964.000000	64.294123 
4963.000000	64.335417 
4962.000000	64.370656 
4961.000000	64.395117 
4960.000000	64.407730 
4959.000000	64.410400 
4958.000000	64.405918 
4957.000000	64.397406 
4956.000000	64.387059 
4955.000000	64.375638 
4954.000000	64.362645 
4953.000000	64.346909 
4952.000000	64.327573 
4951.000000	64.304828 
4950.000000	64.281058 
4949.000000	64.260697 
4948.000000	64.249777 
4947.000000	64.254689 
4946.000000	64.280390 
4945.000000	64.329099 
4944.000000	64.398956 
4943.000000	64.484214 
4942.000000	64.575338 
4941.000000	64.660501 
4940.000000	64.728212 
4939.000000	64.770126 
4938.000000	64.782691 
4937.000000	64.767217 
4936.000000	64.730715 
4935.000000	64.683842 
4934.000000	64.639472 
4933.000000	64.609932 
4932.000000	64.605164 
4931.000000	64.630722 
4930.000000	64.688467 
4929.000000	64.776468 
4928.000000	64.889717 
4927.000000	65.020847 
4926.000000	65.161013 
4925.000000	65.300107 
4924.000000	65.427255 
4923.000000	65.530991 
4922.000000	65.600132 
4921.000000	65.625381 
4920.000000	65.601301 
4919.000000	65.528154 
4918.000000	65.413141 
4917.000000	65.269708 
4916.000000	65.117192 
4915.000000	64.975762 
4914.000000	64.864039 
4913.000000	64.793729 
4912.000000	64.768671 
4911.000000	64.783024 
4910.000000	64.823579 
4909.000000	64.872789 
4908.000000	64.912915 
4907.000000	64.930605 
4906.000000	64.919567 
4905.000000	64.880919 
4904.000000	64.821648 
4903.000000	64.752101 
4902.000000	64.682698 
4901.000000	64.620995 
4900.000000	64.570093 
4899.000000	64.529824 
4898.000000	64.497971 
4897.000000	64.472317 
4896.000000	64.452147 
4895.000000	64.438891 
4894.000000	64.435982 
4893.000000	64.446425 
4892.000000	64.472484 
4891.000000	64.513683 
4890.000000	64.567995 
4889.000000	64.630770 
4888.000000	64.697408 
4887.000000	64.763498 
4886.000000	64.826464 
4885.000000	64.886307 
4884.000000	64.943861 
4883.000000	64.999723 
4882.000000	65.052843 
4881.000000	65.100598 
4880.000000	65.137600 
4879.000000	65.157175 
4878.000000	65.152525 
4877.000000	65.119051 
4876.000000	65.055322 
4875.000000	64.964509 
4874.000000	64.853763 
4873.000000	64.733648 
4872.000000	64.616346 
4871.000000	64.513969 
4870.000000	64.436984 
4869.000000	64.392542 
4868.000000	64.383101 
4867.000000	64.406895 
4866.000000	64.457821 
4865.000000	64.527630 
4864.000000	64.607119 
4863.000000	64.688444 
4862.000000	64.765095 
4861.000000	64.833760 
4860.000000	64.893150 
4859.000000	64.943933 
4858.000000	64.987611 
4857.000000	65.024995 
4856.000000	65.056133 
4855.000000	65.078997 
4854.000000	65.090847 
4853.000000	65.088129 
4852.000000	65.068268 
4851.000000	65.030264 
4850.000000	64.975810 
4849.000000	64.909100 
4848.000000	64.836740 
4847.000000	64.766740 
4846.000000	64.706897 
4845.000000	64.663791 
4844.000000	64.641118 
4843.000000	64.639449 
4842.000000	64.655733 
4841.000000	64.683604 
4840.000000	64.714932 
4839.000000	64.740991 
4838.000000	64.755511 
4837.000000	64.755415 
4836.000000	64.742636 
4835.000000	64.722681 
4834.000000	64.704203 
4833.000000	64.696717 
4832.000000	64.707970 
4831.000000	64.741873 
4830.000000	64.797019 
4829.000000	64.867329 
4828.000000	64.942741 
4827.000000	65.011858 
4826.000000	65.063905 
4825.000000	65.091395 
4824.000000	65.091252 
4823.000000	65.065503 
4822.000000	65.020370 
4821.000000	64.964580 
4820.000000	64.907789 
4819.000000	64.858293 
4818.000000	64.822030 
4817.000000	64.801239 
4816.000000	64.795184 
4815.000000	64.800095 
4814.000000	64.810276 
4813.000000	64.819312 
4812.000000	64.821076 
4811.000000	64.811491 
4810.000000	64.788460 
4809.000000	64.753508 
4808.000000	64.710235 
4807.000000	64.664793 
4806.000000	64.623999 
4805.000000	64.594602 
4804.000000	64.581489 
4803.000000	64.587140 
4802.000000	64.610934 
4801.000000	64.649796 
4800.000000	64.698863 
4799.000000	64.752626 
4798.000000	64.805841 
4797.000000	64.854669 
4796.000000	64.896798 
4795.000000	64.931392 
4794.000000	64.958500 
4793.000000	64.978408 
4792.000000	64.990830 
4791.000000	64.994692 
4790.000000	64.988183 
4789.000000	64.969944 
4788.000000	64.939618 
4787.000000	64.898324 
4786.000000	64.848709 
4785.000000	64.795327 
4784.000000	64.743638 
4783.000000	64.699172 
4782.000000	64.666557 
4781.000000	64.648199 
4780.000000	64.644646 
4779.000000	64.654135 
4778.000000	64.673924 
4777.000000	64.700412 
4776.000000	64.730811 
4775.000000	64.763140 
4774.000000	64.796853 
4773.000000	64.831995 
4772.000000	64.869141 
4771.000000	64.908123 
4770.000000	64.948248 
4769.000000	64.987730 
4768.000000	65.024685 
4767.000000	65.057659 
4766.000000	65.086269 
4765.000000	65.111207 
4764.000000	65.134596 
4763.000000	65.158796 
4762.000000	65.185952 
4761.000000	65.216326 
4760.000000	65.248155 
4759.000000	65.277409 
4758.000000	65.298867 
4757.000000	65.307188 
4756.000000	65.298843 
4755.000000	65.273022 
4754.000000	65.232467 
4753.000000	65.182662 
4752.000000	65.130615 
4751.000000	65.083456 
4750.000000	65.047121 
4749.000000	65.025019 
4748.000000	65.017533 
4747.000000	65.022730 
4746.000000	65.037298 
4745.000000	65.057563 
4744.000000	65.080142 
4743.000000	65.102624 
4742.000000	65.123915 
4741.000000	65.143394 
4740.000000	65.160703 
4739.000000	65.175437 
4738.000000	65.186858 
4737.000000	65.194749 
4736.000000	65.199065 
4735.000000	65.200209 
4734.000000	65.198421 
4733.000000	65.194034 
4732.000000	65.186977 
4731.000000	65.176105 
4730.000000	65.160179 
4729.000000	65.138220 
4728.000000	65.110993 
4727.000000	65.080881 
4726.000000	65.052604 
4725.000000	65.032172 
4724.000000	65.026378 
4723.000000	65.040349 
4722.000000	65.077686 
4721.000000	65.138673 
4720.000000	65.221452 
4719.000000	65.321207 
4718.000000	65.432572 
4717.000000	65.550279 
4716.000000	65.669703 
4715.000000	65.787076 
4714.000000	65.898895 
4713.000000	66.000938 
4712.000000	66.087818 
4711.000000	66.152620 
4710.000000	66.188168 
4709.000000	66.188406 
4708.000000	66.150426 
4707.000000	66.075515 
4706.000000	65.970277 
4705.000000	65.845608 
4704.000000	65.715575 
4703.000000	65.594577 
4702.000000	65.495562 
4701.000000	65.426754 
4700.000000	65.391206 
4699.000000	65.386033 
4698.000000	65.403676 
4697.000000	65.433597 
4696.000000	65.464282 
4695.000000	65.486073 
4694.000000	65.492367 
4693.000000	65.480709 
4692.000000	65.452003 
4691.000000	65.410470 
4690.000000	65.361881 
4689.000000	65.312314 
4688.000000	65.266418 
4687.000000	65.227103 
4686.000000	65.195012 
4685.000000	65.168881 
4684.000000	65.146374 
4683.000000	65.125131 
4682.000000	65.103840 
4681.000000	65.082192 
4680.000000	65.061140 
4679.000000	65.042018 
4678.000000	65.026307 
4677.000000	65.014648 
4676.000000	65.007233 
4675.000000	65.003108 
4674.000000	65.000963 
4673.000000	64.999628 
4672.000000	64.998126 
4671.000000	64.995670 
4670.000000	64.991760 
4669.000000	64.985990 
4668.000000	64.978075 
4667.000000	64.967465 
4666.000000	64.954280 
4665.000000	64.938926 
4664.000000	64.923191 
4663.000000	64.910149 
4662.000000	64.903664 
4661.000000	64.907479 
4660.000000	64.924025 
4659.000000	64.953684 
4658.000000	64.994287 
4657.000000	65.041446 
4656.000000	65.089893 
4655.000000	65.134835 
4654.000000	65.173506 
4653.000000	65.205693 
4652.000000	65.233373 
4651.000000	65.259432 
4650.000000	65.286779 
4649.000000	65.316271 
4648.000000	65.346026 
4647.000000	65.371465 
4646.000000	65.386986 
4645.000000	65.386939 
4644.000000	65.368056 
4643.000000	65.330195 
4642.000000	65.277481 
4641.000000	65.216803 
4640.000000	65.156507 
4639.000000	65.103936 
4638.000000	65.063929 
4637.000000	65.037488 
4636.000000	65.022134 
4635.000000	65.012526 
4634.000000	65.002608 
4633.000000	64.987111 
4632.000000	64.963293 
4631.000000	64.931249 
4630.000000	64.893865 
4629.000000	64.855813 
4628.000000	64.822602 
4627.000000	64.798879 
4626.000000	64.787650 
4625.000000	64.789676 
4624.000000	64.803695 
4623.000000	64.826774 
4622.000000	64.855170 
4621.000000	64.885306 
4620.000000	64.914131 
4619.000000	64.939212 
4618.000000	64.959263 
4617.000000	64.973664 
4616.000000	64.982628 
4615.000000	64.986991 
4614.000000	64.987397 
4613.000000	64.984583 
4612.000000	64.978480 
4611.000000	64.969325 
4610.000000	64.956331 
4609.000000	64.938068 
4608.000000	64.912962 
4607.000000	64.880275 
4606.000000	64.840221 
4605.000000	64.794540 
4604.000000	64.746761 
4603.000000	64.701914 
4602.000000	64.666247 
4601.000000	64.645934 
4600.000000	64.645433 
4599.000000	64.666318 
4598.000000	64.706730 
4597.000000	64.761161 
4596.000000	64.821267 
4595.000000	64.877200 
4594.000000	64.919567 
4593.000000	64.941692 
4592.000000	64.940381 
4591.000000	64.917659 
4590.000000	64.879536 
4589.000000	64.836120 
4588.000000	64.798521 
4587.000000	64.777636 
4586.000000	64.781975 
4585.000000	64.816093 
4584.000000	64.879918 
4583.000000	64.968323 
4582.000000	65.072631 
4581.000000	65.181279 
4580.000000	65.282034 
4579.000000	65.362977 
4578.000000	65.414309 
4577.000000	65.429830 
4576.000000	65.407490 
4575.000000	65.349483 
4574.000000	65.261507 
4573.000000	65.152978 
4572.000000	65.035009 
4571.000000	64.918780 
4570.000000	64.813661 
4569.000000	64.727044 
4568.000000	64.662885 
4567.000000	64.622163 
4566.000000	64.603137 
4565.000000	64.602065 
4564.000000	64.614582 
4563.000000	64.636135 
4562.000000	64.662742 
4561.000000	64.690232 
4560.000000	64.715194 
4559.000000	64.734411 
4558.000000	64.745187 
4557.000000	64.744663 
4556.000000	64.731264 
4555.000000	64.704966 
4554.000000	64.667677 
4553.000000	64.623236 
4552.000000	64.577794 
4551.000000	64.539027 
4550.000000	64.514565 
4549.000000	64.510583 
4548.000000	64.530897 
4547.000000	64.575886 
4546.000000	64.642238 
4545.000000	64.723682 
4544.000000	64.811873 
4543.000000	64.898037 
4542.000000	64.974927 
4541.000000	65.037846 
4540.000000	65.084457 
4539.000000	65.114927 
4538.000000	65.132188 
4537.000000	65.139389 
4536.000000	65.139222 
4535.000000	65.132212 
4534.000000	65.118122 
4533.000000	65.094137 
4532.000000	65.057134 
4531.000000	65.003442 
4530.000000	64.931106 
4529.000000	64.840173 
4528.000000	64.733910 
4527.000000	64.618206 
4526.000000	64.500737 
4525.000000	64.390754 
4524.000000	64.297604 
4523.000000	64.229297 
4522.000000	64.191150 
4521.000000	64.185118 
4520.000000	64.210057 
4519.000000	64.261221 
4518.000000	64.331960 
4517.000000	64.413881 
4516.000000	64.499235 
4515.000000	64.581179 
4514.000000	64.655423 
4513.000000	64.719724 
4512.000000	64.774394 
4511.000000	64.820790 
4510.000000	64.860796 
4509.000000	64.896535 
4508.000000	64.928436 
4507.000000	64.956355 
4506.000000	64.977598 
4505.000000	64.988827 
4504.000000	64.985346 
4503.000000	64.963936 
4502.000000	64.921712 
4501.000000	64.857792 
4500.000000	64.773321 
4499.000000	64.672088 
4498.000000	64.559245 
4497.000000	64.440894 
4496.000000	64.323759 
4495.000000	64.214968 
4494.000000	64.121198 
4493.000000	64.048910 
4492.000000	64.003777 
4491.000000	63.990473 
4490.000000	64.010858 
4489.000000	64.063668 
4488.000000	64.143943 
4487.000000	64.243364 
4486.000000	64.350318 
4485.000000	64.452171 
4484.000000	64.535880 
4483.000000	64.591646 
4482.000000	64.614391 
4481.000000	64.605283 
4480.000000	64.570975 
4479.000000	64.522504 
4478.000000	64.473056 
4477.000000	64.434933 
4476.000000	64.416790 
4475.000000	64.423155 
4474.000000	64.454627 
4473.000000	64.507007 
4472.000000	64.573097 
4471.000000	64.642739 
4470.000000	64.705562 
4469.000000	64.751958 
4468.000000	64.775800 
4467.000000	64.777874 
4466.000000	64.766144 
4465.000000	64.754366 
4464.000000	64.758038 
4463.000000	64.791417 
4462.000000	64.862179 
4461.000000	64.966344 
4460.000000	65.090489 
4459.000000	65.215897 
4458.000000	65.322303 
4457.000000	65.399622 
4456.000000	65.443253 
4455.000000	65.447068 
4454.000000	65.410614 
4453.000000	65.348553 
4452.000000	65.273046 
4451.000000	65.186381 
4450.000000	65.085601 
4449.000000	64.964318 
4448.000000	64.817690 
4447.000000	64.648294 
4446.000000	64.464592 
4445.000000	64.281105 
4444.000000	64.112615 
4443.000000	63.971233 
4442.000000	63.858485 
4441.000000	63.763332 
4440.000000	63.678002 
4439.000000	63.592314 
4438.000000	63.494229 
4437.000000	63.366413 
4436.000000	63.167524 
4435.000000	62.863969 
4434.000000	62.404513 
4433.000000	61.798119 
4432.000000	61.114239 
4431.000000	60.522699 
4430.000000	60.259628 
4429.000000	60.590457 
4428.000000	61.743783 
4427.000000	63.833260 
4426.000000	66.807055 
4425.000000	70.425939 
4424.000000	74.300885 
4423.000000	77.953791 
4422.000000	80.922794 
4421.000000	82.845067 
4420.000000	83.535909 
4419.000000	83.011198 
4418.000000	81.477403 
4417.000000	79.259586 
4416.000000	76.723861 
4415.000000	74.203205 
4414.000000	71.938276 
4413.000000	70.064997 
4412.000000	68.611860 
4411.000000	67.551136 
4410.000000	66.818881 
4409.000000	66.342306 
4408.000000	66.060614 
4407.000000	65.906691 
4406.000000	65.835118 
4405.000000	65.796828 
4404.000000	65.764880 
4403.000000	65.711283 
4402.000000	65.627169 
4401.000000	65.511083 
4400.000000	65.374183 
4399.000000	65.227127 
4398.000000	65.084552 
4397.000000	64.961266 
4396.000000	64.867281 
4395.000000	64.803123 
4394.000000	64.765191 
4393.000000	64.750027 
4392.000000	64.749002 
4391.000000	64.748311 
4390.000000	64.742946 
4389.000000	64.738535 
4388.000000	64.743423 
4387.000000	64.766287 
4386.000000	64.810085 
4385.000000	64.870285 
4384.000000	64.942979 
4383.000000	65.022730 
4382.000000	65.095663 
4381.000000	65.145730 
4380.000000	65.165996 
4379.000000	65.155982 
4378.000000	65.118670 
4377.000000	65.060782 
4376.000000	64.992308 
4375.000000	64.922308 
4374.000000	64.857006 
4373.000000	64.798712 
4372.000000	64.747405 
4371.000000	64.700508 
4370.000000	64.655017 
4369.000000	64.609074 
4368.000000	64.563393 
4367.000000	64.521169 
4366.000000	64.486956 
4365.000000	64.466238 
4364.000000	64.463186 
4363.000000	64.479303 
4362.000000	64.512181 
4361.000000	64.556264 
4360.000000	64.603567 
4359.000000	64.645743 
4358.000000	64.675927 
4357.000000	64.690041 
4356.000000	64.687347 
4355.000000	64.670324 
4354.000000	64.643311 
4353.000000	64.611244 
4352.000000	64.578104 
4351.000000	64.546537 
4350.000000	64.517235 
4349.000000	64.489650 
4348.000000	64.462900 
4347.000000	64.436721 
4346.000000	64.412426 
4345.000000	64.392709 
4344.000000	64.381361 
4343.000000	64.381623 
4342.000000	64.395761 
4341.000000	64.423918 
4340.000000	64.464092 
4339.000000	64.511775 
4338.000000	64.561605 
4337.000000	64.608502 
4336.000000	64.648509 
4335.000000	64.679694 
4334.000000	64.702200 
4333.000000	64.718031 
4332.000000	64.730000 
4331.000000	64.740800 
4330.000000	64.752101 
4329.000000	64.763808 
4328.000000	64.774799 
4327.000000	64.782953 
4326.000000	64.786314 
4325.000000	64.783239 
4324.000000	64.773607 
4323.000000	64.758515 
4322.000000	64.740395 
4321.000000	64.721965 
4320.000000	64.705681 
4319.000000	64.693212 
4318.000000	64.685320 
4317.000000	64.681887 
4316.000000	64.682006 
4315.000000	64.684963 
4314.000000	64.690709 
4313.000000	64.699983 
4312.000000	64.714050 
4311.000000	64.734125 
4310.000000	64.760780 
4309.000000	64.792752 
4308.000000	64.826798 
4307.000000	64.857530 
4306.000000	64.878392 
4305.000000	64.883327 
4304.000000	64.868330 
4303.000000	64.832401 
4302.000000	64.778161 
4301.000000	64.711785 
4300.000000	64.641690 
4299.000000	64.576697 
4298.000000	64.524769 
4297.000000	64.491271 
4296.000000	64.478778 
4295.000000	64.486336 
4294.000000	64.510941 
4293.000000	64.548516 
4292.000000	64.595293 
4291.000000	64.647960 
4290.000000	64.704871 
4289.000000	64.765167 
4288.000000	64.828729 
4287.000000	64.894986 
4286.000000	64.962387 
4285.000000	65.028047 
4284.000000	65.087938 
4283.000000	65.137600 
4282.000000	65.172576 
4281.000000	65.189385 
4280.000000	65.186429 
4279.000000	65.164446 
4278.000000	65.126562 
4277.000000	65.077733 
4276.000000	65.024375 
4275.000000	64.972662 
4274.000000	64.927697 
4273.000000	64.892005 
4272.000000	64.865612 
4271.000000	64.845776 
4270.000000	64.827895 
4269.000000	64.806628 
4268.000000	64.777374 
4267.000000	64.737844 
4266.000000	64.688038 
4265.000000	64.631509 
4264.000000	64.573621 
4263.000000	64.521479 
4262.000000	64.481973 
4261.000000	64.460396 
4260.000000	64.459037 
4259.000000	64.477109 
4258.000000	64.510989 
4257.000000	64.554977 
4256.000000	64.602446 
4255.000000	64.647555 
4254.000000	64.686346 
4253.000000	64.717102 
4252.000000	64.740395 
4251.000000	64.758610 
4250.000000	64.774894 
4249.000000	64.792060 
4248.000000	64.811635 
4247.000000	64.833378 
4246.000000	64.855456 
4245.000000	64.875149 
4244.000000	64.889669 
4243.000000	64.897084 
4242.000000	64.896917 
4241.000000	64.890623 
4240.000000	64.881086 
4239.000000	64.871382 
4238.000000	64.864420 
4237.000000	64.862084 
4236.000000	64.864873 
4235.000000	64.871859 
4234.000000	64.881443 
4233.000000	64.892148 
4232.000000	64.902734 
4231.000000	64.912700 
4230.000000	64.922261 
4229.000000	64.932227 
4228.000000	64.943599 
4227.000000	64.956951 
4226.000000	64.972186 
4225.000000	64.988398 
4224.000000	65.004014 
4223.000000	65.016913 
4222.000000	65.024828 
4221.000000	65.025901 
4220.000000	65.019154 
4219.000000	65.004777 
4218.000000	64.984035 
4217.000000	64.959168 
4216.000000	64.933395 
4215.000000	64.910316 
4214.000000	64.892983 
4213.000000	64.883947 
4212.000000	64.884829 
4211.000000	64.895987 
4210.000000	64.916419 
4209.000000	64.944291 
4208.000000	64.977049 
4207.000000	65.012145 
4206.000000	65.047335 
4205.000000	65.080761 
4204.000000	65.110921 
4203.000000	65.137028 
4202.000000	65.159010 
4201.000000	65.176916 
4200.000000	65.190839 
4199.000000	65.201258 
4198.000000	65.208768 
4197.000000	65.214061 
4196.000000	65.217638 
4195.000000	65.219926 
4194.000000	65.220880 
4193.000000	65.220451 
4192.000000	65.217995 
4191.000000	65.212512 
4190.000000	65.202569 
4189.000000	65.187311 
4188.000000	65.166473 
4187.000000	65.140199 
4186.000000	65.109658 
4185.000000	65.076589 
4184.000000	65.044045 
4183.000000	65.014767 
4182.000000	64.992618 
4181.000000	64.981317 
4180.000000	64.985179 
4179.000000	65.007448 
4178.000000	65.051150 
4177.000000	65.118026 
4176.000000	65.208053 
4175.000000	65.318679 
4174.000000	65.444803 
4173.000000	65.578699 
4172.000000	65.710806 
4171.000000	65.830564 
4170.000000	65.927672 
4169.000000	65.993261 
4168.000000	66.021823 
4167.000000	66.011047 
4166.000000	65.962529 
4165.000000	65.880584 
4164.000000	65.773010 
4163.000000	65.648555 
4162.000000	65.517115 
4161.000000	65.387558 
4160.000000	65.268158 
4159.000000	65.164542 
4158.000000	65.080571 
4157.000000	65.017127 
4156.000000	64.972853 
4155.000000	64.944720 
4154.000000	64.928412 
4153.000000	64.919948 
4152.000000	64.915251 
4151.000000	64.912486 
4150.000000	64.911127 
4149.000000	64.912629 
4148.000000	64.919018 
4147.000000	64.932775 
4146.000000	64.955639 
4145.000000	64.988040 
4144.000000	65.028452 
4143.000000	65.074682 
4142.000000	65.123987 
4141.000000	65.173506 
4140.000000	65.220761 
4139.000000	65.264368 
4138.000000	65.303635 
4137.000000	65.338039 
4136.000000	65.366983 
4135.000000	65.389704 
4134.000000	65.405106 
4133.000000	65.412640 
4132.000000	65.411949 
4131.000000	65.403652 
4130.000000	65.388989 
4129.000000	65.370941 
4128.000000	65.352654 
4127.000000	65.336680 
4126.000000	65.324878 
4125.000000	65.318274 
4124.000000	65.316748 
4123.000000	65.319418 
4122.000000	65.324997 
4121.000000	65.332245 
4120.000000	65.340113 
4119.000000	65.347695 
4118.000000	65.353822 
4117.000000	65.357112 
4116.000000	65.356063 
4115.000000	65.349340 
4114.000000	65.335845 
4113.000000	65.314865 
4112.000000	65.287041 
4111.000000	65.253734 
4110.000000	65.217113 
4109.000000	65.179681 
4108.000000	65.143704 
4107.000000	65.111422 
4106.000000	65.083956 
4105.000000	65.062499 
4104.000000	65.047812 
4103.000000	65.040993 
4102.000000	65.043020 
4101.000000	65.054535 
4100.000000	65.075612 
4099.000000	65.105271 
4098.000000	65.141057 
4097.000000	65.179657 
4096.000000	65.217256 
4095.000000	65.250229 
4094.000000	65.275716 
4093.000000	65.291881 
4092.000000	65.298128 
4091.000000	65.294623 
4090.000000	65.282297 
4089.000000	65.262222 
4088.000000	65.235567 
4087.000000	65.203976 
4086.000000	65.169405 
4085.000000	65.134692 
4084.000000	65.103244 
4083.000000	65.079116 
4082.000000	65.066027 
4081.000000	65.066599 
4080.000000	65.081524 
4079.000000	65.109181 
4078.000000	65.146112 
4077.000000	65.187358 
4076.000000	65.227437 
4075.000000	65.261626 
4074.000000	65.286159 
4073.000000	65.299057 
4072.000000	65.299391 
4071.000000	65.287303 
4070.000000	65.263700 
4069.000000	65.229916 
4068.000000	65.187907 
4067.000000	65.140080 
4066.000000	65.089893 
4065.000000	65.041685 
4064.000000	65.000128 
4063.000000	64.969706 
4062.000000	64.953899 
4061.000000	64.954495 
4060.000000	64.970469 
4059.000000	64.998745 
4058.000000	65.034461 
4057.000000	65.072321 
4056.000000	65.107560 
4055.000000	65.137267 
4054.000000	65.160250 
4053.000000	65.177249 
4052.000000	65.190291 
4051.000000	65.201520 
4050.000000	65.212178 
4049.000000	65.222024 
4048.000000	65.229654 
4047.000000	65.232610 
4046.000000	65.228533 
4045.000000	65.215802 
4044.000000	65.194678 
4043.000000	65.166950 
4042.000000	65.135741 
4041.000000	65.104675 
4040.000000	65.077018 
4039.000000	65.054750 
4038.000000	65.038013 
4037.000000	65.025496 
4036.000000	65.014863 
4035.000000	65.003299 
4034.000000	64.988708 
4033.000000	64.969944 
4032.000000	64.947652 
4031.000000	64.923930 
4030.000000	64.902424 
4029.000000	64.886856 
4028.000000	64.880704 
4027.000000	64.886379 
4026.000000	64.904713 
4025.000000	64.934682 
4024.000000	64.973711 
4023.000000	65.018200 
4022.000000	65.064406 
4021.000000	65.108728 
4020.000000	65.148758 
4019.000000	65.183210 
4018.000000	65.212202 
4017.000000	65.236783 
4016.000000	65.258550 
4015.000000	65.278959 
4014.000000	65.299010 
4013.000000	65.318727 
4012.000000	65.337204 
4011.000000	65.353083 
4010.000000	65.364742 
4009.000000	65.370655 
4008.000000	65.369415 
4007.000000	65.359902 
4006.000000	65.341734 
4005.000000	65.315389 
4004.000000	65.281987 
4003.000000	65.243530 
4002.000000	65.202927 
4001.000000	65.163707 
4000.000000	65.129494 
3999.000000	65.103793 
3998.000000	65.089488 
3997.000000	65.088248 
3996.000000	65.100336 
3995.000000	65.124249 
3994.000000	65.157246 
3993.000000	65.194821 
3992.000000	65.231800 
3991.000000	65.262222 
3990.000000	65.280389 
3989.000000	65.281462 
3988.000000	65.262413 
3987.000000	65.222454 
3986.000000	65.163421 
3985.000000	65.090036 
3984.000000	65.009522 
3983.000000	64.930772 
3982.000000	64.862823 
3981.000000	64.813613 
3980.000000	64.788436 
3979.000000	64.788889 
3978.000000	64.812850 
3977.000000	64.854598 
3976.000000	64.906501 
3975.000000	64.960026 
3974.000000	65.007901 
3973.000000	65.044498 
3972.000000	65.067672 
3971.000000	65.077853 
3970.000000	65.078401 
3969.000000	65.073823 
3968.000000	65.068984 
3967.000000	65.068101 
3966.000000	65.073347 
3965.000000	65.084743 
3964.000000	65.100073 
3963.000000	65.115904 
3962.000000	65.128207 
3961.000000	65.133500 
3960.000000	65.129542 
3959.000000	65.115857 
3958.000000	65.093922 
3957.000000	65.066671 
3956.000000	65.037918 
3955.000000	65.011525 
3954.000000	64.990448 
3953.000000	64.976382 
3952.000000	64.969921 
3951.000000	64.970660 
3950.000000	64.977717 
3949.000000	64.989900 
3948.000000	65.006232 
3947.000000	65.025782 
3946.000000	65.047240 
3945.000000	65.069198 
3944.000000	65.089154 
3943.000000	65.105104 
3942.000000	65.115499 
3941.000000	65.120053 
3940.000000	65.120005 
3939.000000	65.117669 
3938.000000	65.116381 
3937.000000	65.118980 
3936.000000	65.127205 
3935.000000	65.140628 
3934.000000	65.156507 
3933.000000	65.170550 
3932.000000	65.178084 
3931.000000	65.175580 
3930.000000	65.162014 
3929.000000	65.139389 
3928.000000	65.112543 
3927.000000	65.087628 
3926.000000	65.070748 
3925.000000	65.066099 
3924.000000	65.074706 
3923.000000	65.094423 
3922.000000	65.120100 
3921.000000	65.145659 
3920.000000	65.164947 
3919.000000	65.173888 
3918.000000	65.170860 
3917.000000	65.156793 
3916.000000	65.135002 
3915.000000	65.109610 
3914.000000	65.085077 
3913.000000	65.064525 
3912.000000	65.049862 
3911.000000	65.041780 
3910.000000	65.039873 
3909.000000	65.043497 
3908.000000	65.051531 
3907.000000	65.062880 
3906.000000	65.076303 
3905.000000	65.090537 
3904.000000	65.104246 
3903.000000	65.116143 
3902.000000	65.125322 
3901.000000	65.131235 
3900.000000	65.133810 
3899.000000	65.133380 
3898.000000	65.130519 
3897.000000	65.125894 
3896.000000	65.120148 
3895.000000	65.114045 
3894.000000	65.108108 
3893.000000	65.102601 
3892.000000	65.097808 
3891.000000	65.093612 
3890.000000	65.089678 
3889.000000	65.085601 
3888.000000	65.080833 
3887.000000	65.074968 
3886.000000	65.067768 
3885.000000	65.059614 
3884.000000	65.051317 
3883.000000	65.044283 
3882.000000	65.040588 
3881.000000	65.042018 
3880.000000	65.049600 
3879.000000	65.063500 
3878.000000	65.082788 
3877.000000	65.105724 
3876.000000	65.129852 
3875.000000	65.152597 
3874.000000	65.171575 
3873.000000	65.184831 
3872.000000	65.190958 
3871.000000	65.188908 
3870.000000	65.178155 
3869.000000	65.158748 
3868.000000	65.131568 
3867.000000	65.098285 
3866.000000	65.061235 
3865.000000	65.023255 
3864.000000	64.987325 
3863.000000	64.956259 
3862.000000	64.932465 
3861.000000	64.917278 
3860.000000	64.911556 
3859.000000	64.915060 
3858.000000	64.927625 
3857.000000	64.948701 
3856.000000	64.978098 
3855.000000	65.015411 
3854.000000	65.060257 
3853.000000	65.111446 
3852.000000	65.166783 
3851.000000	65.222907 
3850.000000	65.275454 
3849.000000	65.319609 
3848.000000	65.350699 
3847.000000	65.365123 
3846.000000	65.360879 
3845.000000	65.338039 
3844.000000	65.298628 
3843.000000	65.246438 
3842.000000	65.186905 
3841.000000	65.126323 
3840.000000	65.071249 
3839.000000	65.027332 
3838.000000	64.998650 
3837.000000	64.987134 
3836.000000	64.992666 
3835.000000	65.013289 
3834.000000	65.044856 
3833.000000	65.082645 
3832.000000	65.121626 
3831.000000	65.157318 
3830.000000	65.186047 
3829.000000	65.205764 
3828.000000	65.215587 
3827.000000	65.216326 
3826.000000	65.210056 
3825.000000	65.199375 
3824.000000	65.186738 
3823.000000	65.174055 
3822.000000	65.162253 
3821.000000	65.150570 
3820.000000	65.137171 
3819.000000	65.119266 
3818.000000	65.094423 
3817.000000	65.060853 
3816.000000	65.019321 
3815.000000	64.972996 
3814.000000	64.927935 
3813.000000	64.891839 
3812.000000	64.872908 
3811.000000	64.877772 
3810.000000	64.909958 
3809.000000	64.969062 
3808.000000	65.050435 
3807.000000	65.146040 
3806.000000	65.245628 
3805.000000	65.339159 
3804.000000	65.417456 
3803.000000	65.474152 
3802.000000	65.505552 
3801.000000	65.511059 
3800.000000	65.492486 
3799.000000	65.453505 
3798.000000	65.399122 
3797.000000	65.335106 
3796.000000	65.267753 
3795.000000	65.203309 
3794.000000	65.147757 
3793.000000	65.106248 
3792.000000	65.082049 
3791.000000	65.076112 
3790.000000	65.086579 
3789.000000	65.109395 
3788.000000	65.138697 
3787.000000	65.168285 
3786.000000	65.192627 
3785.000000	65.208053 
3784.000000	65.213155 
3783.000000	65.208959 
3782.000000	65.198016 
3781.000000	65.183830 
3780.000000	65.169739 
3779.000000	65.158271 
3778.000000	65.150570 
3777.000000	65.146565 
3776.000000	65.145516 
3775.000000	65.146279 
3774.000000	65.147805 
3773.000000	65.149497 
3772.000000	65.151619 
3771.000000	65.154814 
3770.000000	65.159535 
3769.000000	65.166020 
3768.000000	65.173959 
3767.000000	65.182566 
3766.000000	65.190863 
3765.000000	65.197563 
3764.000000	65.201425 
3763.000000	65.201640 
3762.000000	65.197920 
3761.000000	65.190434 
3760.000000	65.179610 
3759.000000	65.166187 
3758.000000	65.150713 
3757.000000	65.133857 
3756.000000	65.116167 
3755.000000	65.098142 
3754.000000	65.080380 
3753.000000	65.063643 
3752.000000	65.048766 
3751.000000	65.036654 
3750.000000	65.027952 
3749.000000	65.022778 
3748.000000	65.020823 
3747.000000	65.021252 
3746.000000	65.023279 
3745.000000	65.025997 
3744.000000	65.029263 
3743.000000	65.033459 
3742.000000	65.039587 
3741.000000	65.048718 
3740.000000	65.061831 
3739.000000	65.079021 
3738.000000	65.099024 
3737.000000	65.119147 
3736.000000	65.135669 
3735.000000	65.144610 
3734.000000	65.142607 
3733.000000	65.128040 
3732.000000	65.101528 
3731.000000	65.066337 
3730.000000	65.027880 
3729.000000	64.993000 
3728.000000	64.968109 
3727.000000	64.958477 
3726.000000	64.967155 
3725.000000	64.994144 
3724.000000	65.036630 
3723.000000	65.089488 
3722.000000	65.146350 
3721.000000	65.200972 
3720.000000	65.248036 
3719.000000	65.284347 
3718.000000	65.308952 
3717.000000	65.323233 
3716.000000	65.330028 
3715.000000	65.333104 
3714.000000	65.336084 
3713.000000	65.341877 
3712.000000	65.351986 
3711.000000	65.366482 
3710.000000	65.384006 
3709.000000	65.402531 
3708.000000	65.419530 
3707.000000	65.432715 
3706.000000	65.440177 
3705.000000	65.441012 
3704.000000	65.434694 
3703.000000	65.421319 
3702.000000	65.401148 
3701.000000	65.374708 
3700.000000	65.342640 
3699.000000	65.305900 
3698.000000	65.265727 
3697.000000	65.224027 
3696.000000	65.183138 
3695.000000	65.145492 
3694.000000	65.113258 
3693.000000	65.088009 
3692.000000	65.070557 
3691.000000	65.060758 
3690.000000	65.057444 
3689.000000	65.058684 
3688.000000	65.062403 
3687.000000	65.066838 
3686.000000	65.071034 
3685.000000	65.074777 
3684.000000	65.078830 
3683.000000	65.084528 
3682.000000	65.093517 
3681.000000	65.107274 
3680.000000	65.126514 
3679.000000	65.150880 
3678.000000	65.179014 
3677.000000	65.208745 
3676.000000	65.237450 
3675.000000	65.262484 
3674.000000	65.281963 
3673.000000	65.294933 
3672.000000	65.301704 
3671.000000	65.303564 
3670.000000	65.302491 
3669.000000	65.300703 
3668.000000	65.300226 
3667.000000	65.302109 
3666.000000	65.306615 
3665.000000	65.312933 
3664.000000	65.319490 
3663.000000	65.324807 
3662.000000	65.327835 
3661.000000	65.328764 
3660.000000	65.328907 
3659.000000	65.330624 
3658.000000	65.336656 
3657.000000	65.349292 
3656.000000	65.369725 
3655.000000	65.397429 
3654.000000	65.430188 
3653.000000	65.464615 
3652.000000	65.496921 
3651.000000	65.523934 
3650.000000	65.543222 
3649.000000	65.554141 
3648.000000	65.556764 
3647.000000	65.552234 
3646.000000	65.541291 
3645.000000	65.524315 
3644.000000	65.500974 
3643.000000	65.470671 
3642.000000	65.433216 
3641.000000	65.389633 
3640.000000	65.342354 
3639.000000	65.295624 
3638.000000	65.254163 
3637.000000	65.222358 
3636.000000	65.203022 
3635.000000	65.196561 
3634.000000	65.200877 
3633.000000	65.211844 
3632.000000	65.224409 
3631.000000	65.233826 
3630.000000	65.236878 
3629.000000	65.232729 
3628.000000	65.222525 
3627.000000	65.209054 
3626.000000	65.195608 
3625.000000	65.185213 
3624.000000	65.179538 
3623.000000	65.178894 
3622.000000	65.182399 
3621.000000	65.188503 
3620.000000	65.195822 
3619.000000	65.203619 
3618.000000	65.211963 
3617.000000	65.221762 
3616.000000	65.234136 
3615.000000	65.250110 
3614.000000	65.269899 
3613.000000	65.293025 
3612.000000	65.318012 
3611.000000	65.342712 
3610.000000	65.364527 
3609.000000	65.380787 
3608.000000	65.389442 
3607.000000	65.388965 
3606.000000	65.378713 
3605.000000	65.359044 
3604.000000	65.331387 
3603.000000	65.298056 
3602.000000	65.262055 
3601.000000	65.226888 
3600.000000	65.196108 
3599.000000	65.172767 
3598.000000	65.159153 
3597.000000	65.156126 
3596.000000	65.163278 
3595.000000	65.178799 
3594.000000	65.200138 
3593.000000	65.224146 
3592.000000	65.247702 
3591.000000	65.268206 
3590.000000	65.283966 
3589.000000	65.294051 
3588.000000	65.298151 
3587.000000	65.296578 
3586.000000	65.289807 
3585.000000	65.278172 
3584.000000	65.262031 
3583.000000	65.241718 
3582.000000	65.217781 
3581.000000	65.191006 
3580.000000	65.162587 
3579.000000	65.134167 
3578.000000	65.107488 
3577.000000	65.084385 
3576.000000	65.066289 
3575.000000	65.054082 
3574.000000	65.048003 
3573.000000	65.047502 
3572.000000	65.051078 
3571.000000	65.056800 
3570.000000	65.062189 
3569.000000	65.065240 
3568.000000	65.064215 
3567.000000	65.058398 
3566.000000	65.047883 
3565.000000	65.033578 
3564.000000	65.017104 
3563.000000	65.000247 
3562.000000	64.984679 
3561.000000	64.971518 
3560.000000	64.961361 
3559.000000	64.954113 
3558.000000	64.949202 
3557.000000	64.945626 
3556.000000	64.942312 
3555.000000	64.938545 
3554.000000	64.934182 
3553.000000	64.929699 
3552.000000	64.926195 
3551.000000	64.925432 
3550.000000	64.929485 
3549.000000	64.940357 
3548.000000	64.959406 
3547.000000	64.987301 
3546.000000	65.023255 
3545.000000	65.064764 
3544.000000	65.107679 
3543.000000	65.147233 
3542.000000	65.178442 
3541.000000	65.197205 
3540.000000	65.201139 
3539.000000	65.190172 
3538.000000	65.166664 
3537.000000	65.134620 
3536.000000	65.099024 
3535.000000	65.064859 
3534.000000	65.036296 
3533.000000	65.016055 
3532.000000	65.005278 
3531.000000	65.003752 
3530.000000	65.010285 
3529.000000	65.023183 
3528.000000	65.040898 
3527.000000	65.061879 
3526.000000	65.085005 
3525.000000	65.109324 
3524.000000	65.133833 
3523.000000	65.157532 
3522.000000	65.179538 
3521.000000	65.199065 
3520.000000	65.215706 
3519.000000	65.229320 
3518.000000	65.240359 
3517.000000	65.249514 
3516.000000	65.257453 
3515.000000	65.264725 
3514.000000	65.271711 
3513.000000	65.278363 
3512.000000	65.284395 
3511.000000	65.289092 
3510.000000	65.291595 
3509.000000	65.290760 
3508.000000	65.285611 
3507.000000	65.275239 
3506.000000	65.258884 
3505.000000	65.236449 
3504.000000	65.208649 
3503.000000	65.177130 
3502.000000	65.144324 
3501.000000	65.113425 
3500.000000	65.087962 
3499.000000	65.071010 
3498.000000	65.064597 
3497.000000	65.068960 
3496.000000	65.082454 
3495.000000	65.101456 
3494.000000	65.120935 
3493.000000	65.135383 
3492.000000	65.139794 
3491.000000	65.130686 
3490.000000	65.107107 
3489.000000	65.070343 
3488.000000	65.024304 
3487.000000	64.974427 
3486.000000	64.927029 
3485.000000	64.887881 
3484.000000	64.861679 
3483.000000	64.851093 
3482.000000	64.856863 
3481.000000	64.877724 
3480.000000	64.910864 
3479.000000	64.952301 
3478.000000	64.997696 
3477.000000	65.042710 
3476.000000	65.083932 
3475.000000	65.118813 
3474.000000	65.146207 
3473.000000	65.165925 
3472.000000	65.178775 
3471.000000	65.186095 
3470.000000	65.189623 
3469.000000	65.190887 
3468.000000	65.191149 
3467.000000	65.191006 
3466.000000	65.190839 
3465.000000	65.190577 
3464.000000	65.189981 
3463.000000	65.188765 
3462.000000	65.186715 
3461.000000	65.183949 
3460.000000	65.180516 
3459.000000	65.176820 
3458.000000	65.173387 
3457.000000	65.170884 
3456.000000	65.169978 
3455.000000	65.171074 
3454.000000	65.174698 
3453.000000	65.180683 
3452.000000	65.187954 
3451.000000	65.194702 
3450.000000	65.198612 
3449.000000	65.197205 
3448.000000	65.188479 
3447.000000	65.171408 
3446.000000	65.146231 
3445.000000	65.114712 
3444.000000	65.080142 
3443.000000	65.046477 
3442.000000	65.017867 
3441.000000	64.997911 
3440.000000	64.989280 
3439.000000	64.993071 
3438.000000	65.008854 
3437.000000	65.034937 
3436.000000	65.068769 
3435.000000	65.107154 
3434.000000	65.146899 
3433.000000	65.185022 
3432.000000	65.219497 
3431.000000	65.248680 
3430.000000	65.272212 
3429.000000	65.290594 
3428.000000	65.305256 
3427.000000	65.318131 
3426.000000	65.331006 
3425.000000	65.345120 
3424.000000	65.360665 
3423.000000	65.376806 
3422.000000	65.391755 
3421.000000	65.403437 
3420.000000	65.409922 
3419.000000	65.410280 
3418.000000	65.404558 
3417.000000	65.394043 
3416.000000	65.380811 
3415.000000	65.367245 
3414.000000	65.355396 
3413.000000	65.346384 
3412.000000	65.340375 
3411.000000	65.336537 
3410.000000	65.333509 
3409.000000	65.329837 
3408.000000	65.324306 
3407.000000	65.316271 
3406.000000	65.305376 
3405.000000	65.292000 
3404.000000	65.276145 
3403.000000	65.258479 
3402.000000	65.239739 
3401.000000	65.221166 
3400.000000	65.204143 
3399.000000	65.190100 
3398.000000	65.180444 
3397.000000	65.176033 
3396.000000	65.176892 
3395.000000	65.182256 
3394.000000	65.190744 
3393.000000	65.200710 
3392.000000	65.210390 
3391.000000	65.218400 
3390.000000	65.223836 
3389.000000	65.226340 
3388.000000	65.225815 
3387.000000	65.222120 
3386.000000	65.214967 
3385.000000	65.203833 
3384.000000	65.188360 
3383.000000	65.168714 
3382.000000	65.145778 
3381.000000	65.121650 
3380.000000	65.099143 
3379.000000	65.081167 
3378.000000	65.070366 
3377.000000	65.068101 
3376.000000	65.074372 
3375.000000	65.087652 
3374.000000	65.105104 
3373.000000	65.123486 
3372.000000	65.139579 
3371.000000	65.150618 
3370.000000	65.155076 
3369.000000	65.152454 
3368.000000	65.143442 
3367.000000	65.129637 
3366.000000	65.113329 
3365.000000	65.097022 
3364.000000	65.083241 
3363.000000	65.074229 
3362.000000	65.071606 
3361.000000	65.076017 
3360.000000	65.087080 
3359.000000	65.103244 
3358.000000	65.122008 
3357.000000	65.140485 
3356.000000	65.155887 
3355.000000	65.166234 
3354.000000	65.170907 
3353.000000	65.170574 
3352.000000	65.167045 
3351.000000	65.162706 
3350.000000	65.159845 
3349.000000	65.159916 
3348.000000	65.163350 
3347.000000	65.169477 
3346.000000	65.176796 
3345.000000	65.183639 
3344.000000	65.188717 
3343.000000	65.191340 
3342.000000	65.191864 
3341.000000	65.191364 
3340.000000	65.191221 
3339.000000	65.192461 
3338.000000	65.195441 
3337.000000	65.199422 
3336.000000	65.202927 
3335.000000	65.203905 
3334.000000	65.200638 
3333.000000	65.192174 
3332.000000	65.178656 
3331.000000	65.161538 
3330.000000	65.143156 
3329.000000	65.126395 
3328.000000	65.113759 
3327.000000	65.106916 
3326.000000	65.106058 
3325.000000	65.109968 
3324.000000	65.116167 
3323.000000	65.121603 
3322.000000	65.123200 
3321.000000	65.118336 
3320.000000	65.105724 
3319.000000	65.085434 
3318.000000	65.059208 
3317.000000	65.029811 
3316.000000	65.000820 
3315.000000	64.975833 
3314.000000	64.957904 
3313.000000	64.948868 
3312.000000	64.949178 
3311.000000	64.957785 
3310.000000	64.972352 
3309.000000	64.989852 
3308.000000	65.006947 
3307.000000	65.020632 
3306.000000	65.028429 
3305.000000	65.028929 
3304.000000	65.021586 
3303.000000	65.007138 
3302.000000	64.987373 
3301.000000	64.965081 
3300.000000	64.943647 
3299.000000	64.926671 
3298.000000	64.917373 
3297.000000	64.918088 
3296.000000	64.930033 
3295.000000	64.953064 
3294.000000	64.985728 
3293.000000	65.025544 
3292.000000	65.069317 
3291.000000	65.113639 
3290.000000	65.155148 
3289.000000	65.191173 
3288.000000	65.219593 
3287.000000	65.239405 
3286.000000	65.250444 
3285.000000	65.253591 
3284.000000	65.250682 
3283.000000	65.244054 
3282.000000	65.236353 
3281.000000	65.230178 
3280.000000	65.227508 
3279.000000	65.229272 
3278.000000	65.235114 
3277.000000	65.243530 
3276.000000	65.251970 
3275.000000	65.257716 
3274.000000	65.258359 
3273.000000	65.252423 
3272.000000	65.239906 
3271.000000	65.222120 
3270.000000	65.201473 
3269.000000	65.180873 
3268.000000	65.162992 
3267.000000	65.149545 
3266.000000	65.141010 
3265.000000	65.136671 
3264.000000	65.134954 
3263.000000	65.134096 
3262.000000	65.132784 
3261.000000	65.130376 
3260.000000	65.127086 
3259.000000	65.124034 
3258.000000	65.122461 
3257.000000	65.123343 
3256.000000	65.127134 
3255.000000	65.133738 
3254.000000	65.142393 
3253.000000	65.151834 
3252.000000	65.160942 
3251.000000	65.168952 
3250.000000	65.175509 
3249.000000	65.180826 
3248.000000	65.185427 
3247.000000	65.190052 
3246.000000	65.195274 
3245.000000	65.201544 
3244.000000	65.208911 
3243.000000	65.217137 
3242.000000	65.225958 
3241.000000	65.234851 
3240.000000	65.243363 
3239.000000	65.250873 
3238.000000	65.257072 
3237.000000	65.261793 
3236.000000	65.265059 
3235.000000	65.266966 
3234.000000	65.267920 
3233.000000	65.268135 
3232.000000	65.267610 
3231.000000	65.265846 
3230.000000	65.262103 
3229.000000	65.255165 
3228.000000	65.243721 
3227.000000	65.226745 
3226.000000	65.203857 
3225.000000	65.175652 
3224.000000	65.143918 
3223.000000	65.111351 
3222.000000	65.081214 
3221.000000	65.056538 
3220.000000	65.039992 
3219.000000	65.032958 
3218.000000	65.035700 
3217.000000	65.047359 
3216.000000	65.066242 
3215.000000	65.090274 
3214.000000	65.117025 
3213.000000	65.144085 
3212.000000	65.169095 
3211.000000	65.189886 
3210.000000	65.204620 
3209.000000	65.211987 
3208.000000	65.211653 
3207.000000	65.204334 
3206.000000	65.191984 
3205.000000	65.177536 
3204.000000	65.164351 
3203.000000	65.155696 
3202.000000	65.153551 
3201.000000	65.158271 
3200.000000	65.168237 
3199.000000	65.180301 
3198.000000	65.190410 
3197.000000	65.194725 
3196.000000	65.190625 
3195.000000	65.177440 
3194.000000	65.156555 
3193.000000	65.130949 
3192.000000	65.104484 
3191.000000	65.080761 
3190.000000	65.062308 
3189.000000	65.050172 
3188.000000	65.043973 
3187.000000	65.042161 
3186.000000	65.042877 
3185.000000	65.044832 
3184.000000	65.047430 
3183.000000	65.051269 
3182.000000	65.057635 
3181.000000	65.068221 
3180.000000	65.083932 
3179.000000	65.104913 
3178.000000	65.130305 
3177.000000	65.158295 
3176.000000	65.186476 
3175.000000	65.212416 
3174.000000	65.234184 
3173.000000	65.250420 
3172.000000	65.260767 
3171.000000	65.265297 
3170.000000	65.264201 
3169.000000	65.257716 
3168.000000	65.246009 
3167.000000	65.229296 
3166.000000	65.207934 
3165.000000	65.182876 
3164.000000	65.155553 
3163.000000	65.127706 
3162.000000	65.101146 
3161.000000	65.077853 
3160.000000	65.059375 
3159.000000	65.046453 
3158.000000	65.038871 
3157.000000	65.035891 
3156.000000	65.036058 
3155.000000	65.037441 
3154.000000	65.038108 
3153.000000	65.036106 
3152.000000	65.030360 
3151.000000	65.020728 
3150.000000	65.008282 
3149.000000	64.994835 
3148.000000	64.982962 
3147.000000	64.975380 
3146.000000	64.973998 
3145.000000	64.979434 
3144.000000	64.990687 
3143.000000	65.005111 
3142.000000	65.018963 
3141.000000	65.028572 
3140.000000	65.031218 
3139.000000	65.026640 
3138.000000	65.017104 
3137.000000	65.007305 
3136.000000	65.003299 
3135.000000	65.010738 
3134.000000	65.033769 
3133.000000	65.073227 
3132.000000	65.126252 
3131.000000	65.186405 
3130.000000	65.245318 
3129.000000	65.293955 
3128.000000	65.324950 
3127.000000	65.333795 
3126.000000	65.320086 
3125.000000	65.286946 
3124.000000	65.240168 
3123.000000	65.186738 
3122.000000	65.133404 
3121.000000	65.085172 
3120.000000	65.045142 
3119.000000	65.014171 
3118.000000	64.991664 
3117.000000	64.976167 
3116.000000	64.966297 
3115.000000	64.961123 
3114.000000	64.960694 
3113.000000	64.965677 
3112.000000	64.977359 
3111.000000	64.996623 
3110.000000	65.023517 
3109.000000	65.056800 
3108.000000	65.093946 
3107.000000	65.131258 
3106.000000	65.164518 
3105.000000	65.189814 
3104.000000	65.204358 
3103.000000	65.206909 
3102.000000	65.198230 
3101.000000	65.180921 
3100.000000	65.158820 
3099.000000	65.136170 
3098.000000	65.116834 
3097.000000	65.103363 
3096.000000	65.096545 
3095.000000	65.095376 
3094.000000	65.097498 
3093.000000	65.099787 
3092.000000	65.099239 
3091.000000	65.093851 
3090.000000	65.082693 
3089.000000	65.066003 
3088.000000	65.045189 
3087.000000	65.022563 
3086.000000	65.000677 
3085.000000	64.981913 
3084.000000	64.968252 
3083.000000	64.960837 
3082.000000	64.959883 
3081.000000	64.964699 
3080.000000	64.973664 
3079.000000	64.984917 
3078.000000	64.996504 
3077.000000	65.007042 
3076.000000	65.015578 
3075.000000	65.022397 
3074.000000	65.028595 
3073.000000	65.036201 
3072.000000	65.047073 
3071.000000	65.062689 
3070.000000	65.083479 
3069.000000	65.108489 
3068.000000	65.135502 
3067.000000	65.161371 
3066.000000	65.182757 
3065.000000	65.196847 
3064.000000	65.201997 
3063.000000	65.198040 
3062.000000	65.186405 
3061.000000	65.169572 
3060.000000	65.150785 
3059.000000	65.133333 
3058.000000	65.119957 
3057.000000	65.112543 
3056.000000	65.111708 
3055.000000	65.116763 
3054.000000	65.126061 
3053.000000	65.137267 
3052.000000	65.147972 
3051.000000	65.155982 
3050.000000	65.159964 
3049.000000	65.159344 
3048.000000	65.154719 
3047.000000	65.147376 
3046.000000	65.139126 
3045.000000	65.131783 
3044.000000	65.126633 
3043.000000	65.124201 
3042.000000	65.124106 
3041.000000	65.125298 
3040.000000	65.126371 
3039.000000	65.125966 
3038.000000	65.123176 
3037.000000	65.117764 
3036.000000	65.109992 
3035.000000	65.100550 
3034.000000	65.090155 
3033.000000	65.079283 
3032.000000	65.068316 
3031.000000	65.057182 
3030.000000	65.045881 
3029.000000	65.034413 
3028.000000	65.022969 
3027.000000	65.011882 
3026.000000	65.001630 
3025.000000	64.993023 
3024.000000	64.986371 
3023.000000	64.982199 
3022.000000	64.980649 
3021.000000	64.981746 
3020.000000	64.985346 
3019.000000	64.991283 
3018.000000	64.999461 
3017.000000	65.009689 
3016.000000	65.021753 
3015.000000	65.035200 
3014.000000	65.049338 
3013.000000	65.063238 
3012.000000	65.075850 
3011.000000	65.086221 
3010.000000	65.093469 
3009.000000	65.097427 
3008.000000	65.098333 
3007.000000	65.097093 
3006.000000	65.094804 
3005.000000	65.092682 
3004.000000	65.091490 
3003.000000	65.091633 
3002.000000	65.092897 
3001.000000	65.094685 
3000.000000	65.096139 
2999.000000	65.096688 
2998.000000	65.095925 
2997.000000	65.094351 
2996.000000	65.092873 
2995.000000	65.092730 
2994.000000	65.095448 
2993.000000	65.102195 
2992.000000	65.113639 
2991.000000	65.129685 
2990.000000	65.149259 
2989.000000	65.170693 
2988.000000	65.191531 
2987.000000	65.209341 
2986.000000	65.221524 
2985.000000	65.226101 
2984.000000	65.221762 
2983.000000	65.208387 
2982.000000	65.187096 
2981.000000	65.160202 
2980.000000	65.130996 
2979.000000	65.103125 
2978.000000	65.080118 
2977.000000	65.064311 
2976.000000	65.056824 
2975.000000	65.056848 
2974.000000	65.062332 
2973.000000	65.070080 
2972.000000	65.076518 
2971.000000	65.078520 
2970.000000	65.073847 
2969.000000	65.061759 
2968.000000	65.042710 
2967.000000	65.018677 
2966.000000	64.992260 
2965.000000	64.966392 
2964.000000	64.943861 
2963.000000	64.926791 
2962.000000	64.916634 
2961.000000	64.913868 
2960.000000	64.918208 
2959.000000	64.928603 
2958.000000	64.943480 
2957.000000	64.960908 
2956.000000	64.978837 
2955.000000	64.995431 
2954.000000	65.009260 
2953.000000	65.019559 
2952.000000	65.025854 
2951.000000	65.028095 
2950.000000	65.026283 
2949.000000	65.020704 
2948.000000	65.011501 
2947.000000	64.998793 
2946.000000	64.982962 
2945.000000	64.964747 
2944.000000	64.945578 
2943.000000	64.927363 
2942.000000	64.912366 
2941.000000	64.902734 
2940.000000	64.900064 
2939.000000	64.905047 
2938.000000	64.916992 
2937.000000	64.933896 
2936.000000	64.952778 
2935.000000	64.970064 
2934.000000	64.982533 
2933.000000	64.988040 
2932.000000	64.985632 
2931.000000	64.975786 
2930.000000	64.960241 
2929.000000	64.941620 
2928.000000	64.922809 
2927.000000	64.906525 
2926.000000	64.894795 
2925.000000	64.888811 
2924.000000	64.888739 
2923.000000	64.893960 
2922.000000	64.903402 
2921.000000	64.915609 
2920.000000	64.929270 
2919.000000	64.943051 
2918.000000	64.955949 
2917.000000	64.967036 
2916.000000	64.975166 
2915.000000	64.979338 
2914.000000	64.978551 
2913.000000	64.972496 
2912.000000	64.961624 
2911.000000	64.947605 
2910.000000	64.932990 
2909.000000	64.920949 
2908.000000	64.914536 
2907.000000	64.916062 
2906.000000	64.926457 
2905.000000	64.944887 
2904.000000	64.969015 
2903.000000	64.995384 
2902.000000	65.020322 
2901.000000	65.040469 
2900.000000	65.053653 
2899.000000	65.059256 
2898.000000	65.058255 
2897.000000	65.052556 
2896.000000	65.044736 
2895.000000	65.037417 
2894.000000	65.032529 
2893.000000	65.031027 
2892.000000	65.032649 
2891.000000	65.036487 
2890.000000	65.040707 
2889.000000	65.043449 
2888.000000	65.042901 
2887.000000	65.037536 
2886.000000	65.026593 
2885.000000	65.009760 
2884.000000	64.987730 
2883.000000	64.961719 
2882.000000	64.933967 
2881.000000	64.907169 
2880.000000	64.884138 
2879.000000	64.867544 
2878.000000	64.859461 
2877.000000	64.860916 
2876.000000	64.871621 
2875.000000	64.889860 
2874.000000	64.913034 
2873.000000	64.938187 
2872.000000	64.962482 
2871.000000	64.983916 
2870.000000	65.001797 
2869.000000	65.016698 
2868.000000	65.029954 
2867.000000	65.043234 
2866.000000	65.057659 
2865.000000	65.073561 
2864.000000	65.090107 
2863.000000	65.105724 
2862.000000	65.118527 
2861.000000	65.127182 
2860.000000	65.131425 
2859.000000	65.132212 
2858.000000	65.131664 
2857.000000	65.132069 
2856.000000	65.135717 
2855.000000	65.143537 
2854.000000	65.155029 
2853.000000	65.167975 
2852.000000	65.179181 
2851.000000	65.185189 
2850.000000	65.183234 
2849.000000	65.172123 
2848.000000	65.152573 
2847.000000	65.127110 
2846.000000	65.099549 
2845.000000	65.074157 
2844.000000	65.054583 
2843.000000	65.043115 
2842.000000	65.040230 
2841.000000	65.044689 
2840.000000	65.053796 
2839.000000	65.064215 
2838.000000	65.072798 
2837.000000	65.077114 
2836.000000	65.076112 
2835.000000	65.070295 
2834.000000	65.061426 
2833.000000	65.051984 
2832.000000	65.044426 
2831.000000	65.040636 
2830.000000	65.041255 
2829.000000	65.045690 
2828.000000	65.052008 
2827.000000	65.057492 
2826.000000	65.059423 
2825.000000	65.055632 
2824.000000	65.045213 
2823.000000	65.028905 
2822.000000	65.008831 
2821.000000	64.988279 
2820.000000	64.971017 
2819.000000	64.960408 
2818.000000	64.958834 
2817.000000	64.967131 
2816.000000	64.984655 
2815.000000	65.009355 
2814.000000	65.038394 
2813.000000	65.068554 
2812.000000	65.096902 
2811.000000	65.121316 
2810.000000	65.140295 
2809.000000	65.153574 
2808.000000	65.161418 
2807.000000	65.164732 
2806.000000	65.164828 
2805.000000	65.163278 
2804.000000	65.161538 
2803.000000	65.161013 
2802.000000	65.163040 
2801.000000	65.168237 
2800.000000	65.176606 
2799.000000	65.187311 
2798.000000	65.199017 
2797.000000	65.210175 
2796.000000	65.219140 
2795.000000	65.224599 
2794.000000	65.225863 
2793.000000	65.222549 
2792.000000	65.214657 
2791.000000	65.202331 
2790.000000	65.185642 
2789.000000	65.164589 
2788.000000	65.139365 
2787.000000	65.110540 
2786.000000	65.079450 
2785.000000	65.048050 
2784.000000	65.019130 
2783.000000	64.995551 
2782.000000	64.980244 
2781.000000	64.975190 
2780.000000	64.981579 
2779.000000	64.998745 
2778.000000	65.024948 
2777.000000	65.057277 
2776.000000	65.092563 
2775.000000	65.127515 
2774.000000	65.159606 
2773.000000	65.187025 
2772.000000	65.208768 
2771.000000	65.224575 
2770.000000	65.234565 
2769.000000	65.239048 
2768.000000	65.238428 
2767.000000	65.233135 
2766.000000	65.223836 
2765.000000	65.211701 
2764.000000	65.198326 
2763.000000	65.185451 
2762.000000	65.174961 
2761.000000	65.168190 
2760.000000	65.165853 
2759.000000	65.167880 
2758.000000	65.173125 
2757.000000	65.180039 
2756.000000	65.186953 
2755.000000	65.192651 
2754.000000	65.196371 
2753.000000	65.198230 
2752.000000	65.199017 
2751.000000	65.200018 
2750.000000	65.202450 
2749.000000	65.207171 
2748.000000	65.214371 
2747.000000	65.223193 
2746.000000	65.231990 
2745.000000	65.238380 
2744.000000	65.239930 
2743.000000	65.234208 
2742.000000	65.219736 
2741.000000	65.195965 
2740.000000	65.163683 
2739.000000	65.124893 
2738.000000	65.082788 
2737.000000	65.041112 
2736.000000	65.003824 
2735.000000	64.974331 
2734.000000	64.955163 
2733.000000	64.947557 
2732.000000	64.951395 
2731.000000	64.965200 
2730.000000	64.986658 
2729.000000	65.012860 
2728.000000	65.040874 
2727.000000	65.068030 
2726.000000	65.092325 
2725.000000	65.112185 
2724.000000	65.127015 
2723.000000	65.136623 
2722.000000	65.141487 
2721.000000	65.142321 
2720.000000	65.140080 
2719.000000	65.135717 
2718.000000	65.130114 
2717.000000	65.124058 
2716.000000	65.117955 
2715.000000	65.111875 
2714.000000	65.105557 
2713.000000	65.098643 
2712.000000	65.090847 
2711.000000	65.082263 
2710.000000	65.073370 
2709.000000	65.065121 
2708.000000	65.058660 
2707.000000	65.054988 
2706.000000	65.054821 
2705.000000	65.058350 
2704.000000	65.065145 
2703.000000	65.074062 
2702.000000	65.083789 
2701.000000	65.092897 
2700.000000	65.100097 
2699.000000	65.104460 
2698.000000	65.105271 
2697.000000	65.102195 
2696.000000	65.095281 
2695.000000	65.084695 
2694.000000	65.070915 
2693.000000	65.054774 
2692.000000	65.037465 
2691.000000	65.020632 
2690.000000	65.006113 
2689.000000	64.995694 
2688.000000	64.990639 
2687.000000	64.991402 
2686.000000	64.997553 
2685.000000	65.007686 
2684.000000	65.019750 
2683.000000	65.031552 
2682.000000	65.040969 
2681.000000	65.046453 
2680.000000	65.047121 
2679.000000	65.042757 
2678.000000	65.033912 
2677.000000	65.021538 
2676.000000	65.006828 
2675.000000	64.990925 
2674.000000	64.975070 
2673.000000	64.960336 
2672.000000	64.947748 
2671.000000	64.938211 
2670.000000	64.932727 
2669.000000	64.932155 
2668.000000	64.937114 
2667.000000	64.947772 
2666.000000	64.963936 
2665.000000	64.984703 
2664.000000	65.008664 
2663.000000	65.033793 
2662.000000	65.057873 
2661.000000	65.078425 
2660.000000	65.093398 
2659.000000	65.101289 
2658.000000	65.101552 
2657.000000	65.094542 
2656.000000	65.081715 
2655.000000	65.065050 
2654.000000	65.046977 
2653.000000	65.029501 
2652.000000	65.014123 
2651.000000	65.001368 
2650.000000	64.991068 
2649.000000	64.982557 
2648.000000	64.974880 
2647.000000	64.967393 
2646.000000	64.959955 
2645.000000	64.953231 
2644.000000	64.948177 
2643.000000	64.945936 
2642.000000	64.947319 
2641.000000	64.952564 
2640.000000	64.961051 
2639.000000	64.971756 
2638.000000	64.983344 
2637.000000	64.994788 
2636.000000	65.005540 
2635.000000	65.015625 
2634.000000	65.025472 
2633.000000	65.035653 
2632.000000	65.046620 
2631.000000	65.058231 
2630.000000	65.069675 
2629.000000	65.079784 
2628.000000	65.086936 
2627.000000	65.089654 
2626.000000	65.086650 
2625.000000	65.077400 
2624.000000	65.061855 
2623.000000	65.040564 
2622.000000	65.014410 
2621.000000	64.984679 
2620.000000	64.952874 
2619.000000	64.920568 
2618.000000	64.889311 
2617.000000	64.860677 
2616.000000	64.835929 
2615.000000	64.816117 
2614.000000	64.801740 
2613.000000	64.792561 
2612.000000	64.788007 
2611.000000	64.787077 
2610.000000	64.788985 
2609.000000	64.793062 
2608.000000	64.799451 
2607.000000	64.808893 
2606.000000	64.822745 
2605.000000	64.842247 
2604.000000	64.868092 
2603.000000	64.899992 
2602.000000	64.936470 
2601.000000	64.974975 
2600.000000	65.012478 
2599.000000	65.045857 
2598.000000	65.073132 
2597.000000	65.093159 
2596.000000	65.106225 
2595.000000	65.113234 
2594.000000	65.115737 
2593.000000	65.114903 
2592.000000	65.111303 
2591.000000	65.104699 
2590.000000	65.094566 
2589.000000	65.080118 
2588.000000	65.060973 
2587.000000	65.037441 
2586.000000	65.010929 
2585.000000	64.983582 
2584.000000	64.957928 
2583.000000	64.936232 
2582.000000	64.920067 
2581.000000	64.910030 
2580.000000	64.905714 
2579.000000	64.905953 
2578.000000	64.908862 
2577.000000	64.912772 
2576.000000	64.916443 
2575.000000	64.919281 
2574.000000	64.921426 
2573.000000	64.923763 
2572.000000	64.927721 
2571.000000	64.934468 
2570.000000	64.944982 
2569.000000	64.959526 
2568.000000	64.977645 
2567.000000	64.998054 
2566.000000	65.018820 
2565.000000	65.038180 
2564.000000	65.054392 
2563.000000	65.066313 
2562.000000	65.073347 
2561.000000	65.075445 
2560.000000	65.072846 
2559.000000	65.066218 
2558.000000	65.055847 
2557.000000	65.041828 
2556.000000	65.024065 
2555.000000	65.002560 
2554.000000	64.977598 
2553.000000	64.949965 
2552.000000	64.921021 
2551.000000	64.892888 
2550.000000	64.867949 
2549.000000	64.848613 
2548.000000	64.836883 
2547.000000	64.834022 
2546.000000	64.840221 
2545.000000	64.854955 
2544.000000	64.876699 
2543.000000	64.903330 
2542.000000	64.932417 
2541.000000	64.961433 
2540.000000	64.987945 
2539.000000	65.010046 
2538.000000	65.026259 
2537.000000	65.036082 
2536.000000	65.039682 
2535.000000	65.038299 
2534.000000	65.034079 
2533.000000	65.029716 
2532.000000	65.028023 
2531.000000	65.031051 
2530.000000	65.039992 
2529.000000	65.054416 
2528.000000	65.072417 
2527.000000	65.090990 
2526.000000	65.106582 
2525.000000	65.115976 
2524.000000	65.117096 
2523.000000	65.109276 
2522.000000	65.093517 
2521.000000	65.072321 
2520.000000	65.048956 
2519.000000	65.026926 
2518.000000	65.009355 
2517.000000	64.998316 
2516.000000	64.994812 
2515.000000	64.998579 
2514.000000	65.008282 
2513.000000	65.021944 
2512.000000	65.037250 
2511.000000	65.052151 
2510.000000	65.064644 
2509.000000	65.073323 
2508.000000	65.077066 
2507.000000	65.075278 
2506.000000	65.067815 
2505.000000	65.055012 
2504.000000	65.037560 
2503.000000	65.016722 
2502.000000	64.994144 
2501.000000	64.971661 
2500.000000	64.951086 
2499.000000	64.934134 
2498.000000	64.921903 
2497.000000	64.914894 
2496.000000	64.912700 
2495.000000	64.914369 
2494.000000	64.918470 
2493.000000	64.923286 
2492.000000	64.927291 
2491.000000	64.929223 
2490.000000	64.928364 
2489.000000	64.924383 
2488.000000	64.917540 
2487.000000	64.908623 
2486.000000	64.898514 
2485.000000	64.888453 
2484.000000	64.879703 
2483.000000	64.873504 
2482.000000	64.870929 
2481.000000	64.872789 
2480.000000	64.879322 
2479.000000	64.890122 
2478.000000	64.904046 
2477.000000	64.919304 
2476.000000	64.933538 
2475.000000	64.944410 
2474.000000	64.950060 
2473.000000	64.949321 
2472.000000	64.941978 
2471.000000	64.928889 
2470.000000	64.912104 
2469.000000	64.893937 
2468.000000	64.876365 
2467.000000	64.860844 
2466.000000	64.848017 
2465.000000	64.837479 
2464.000000	64.828038 
2463.000000	64.818120 
2462.000000	64.806461 
2461.000000	64.792323 
2460.000000	64.776110 
2459.000000	64.758825 
2458.000000	64.742255 
2457.000000	64.728522 
2456.000000	64.719557 
2455.000000	64.716601 
2454.000000	64.720106 
2453.000000	64.729809 
2452.000000	64.744806 
2451.000000	64.763736 
2450.000000	64.785408 
2449.000000	64.808845 
2448.000000	64.833569 
2447.000000	64.859390 
2446.000000	64.886212 
2445.000000	64.913606 
2444.000000	64.940929 
2443.000000	64.967036 
2442.000000	64.990472 
2441.000000	65.009522 
2440.000000	65.022897 
2439.000000	65.029597 
2438.000000	65.029406 
2437.000000	65.022754 
2436.000000	65.010809 
2435.000000	64.995074 
2434.000000	64.977240 
2433.000000	64.959025 
2432.000000	64.941978 
2431.000000	64.926910 
2430.000000	64.914441 
2429.000000	64.904570 
2428.000000	64.896869 
2427.000000	64.890551 
2426.000000	64.884400 
2425.000000	64.877653 
2424.000000	64.869737 
2423.000000	64.861106 
2422.000000	64.853096 
2421.000000	64.848041 
2420.000000	64.848637 
2419.000000	64.857459 
2418.000000	64.876103 
2417.000000	64.904594 
2416.000000	64.940953 
2415.000000	64.981484 
2414.000000	65.021419 
2413.000000	65.055632 
2412.000000	65.079545 
2411.000000	65.090370 
2410.000000	65.087103 
2409.000000	65.070724 
2408.000000	65.043830 
2407.000000	65.009832 
2406.000000	64.972519 
2405.000000	64.935255 
2404.000000	64.900827 
2403.000000	64.871525 
2402.000000	64.849042 
2401.000000	64.834856 
2400.000000	64.830064 
2399.000000	64.835262 
2398.000000	64.850449 
2397.000000	64.874505 
2396.000000	64.905548 
2395.000000	64.940619 
2394.000000	64.976596 
2393.000000	65.010285 
2392.000000	65.039157 
2391.000000	65.061450 
2390.000000	65.076470 
2389.000000	65.084528 
2388.000000	65.086412 
2387.000000	65.083122 
2386.000000	65.075612 
2385.000000	65.064620 
2384.000000	65.050816 
2383.000000	65.034747 
2382.000000	65.017271 
2381.000000	64.999461 
2380.000000	64.982533 
2379.000000	64.967608 
2378.000000	64.955449 
2377.000000	64.946174 
2376.000000	64.939141 
2375.000000	64.933180 
2374.000000	64.926815 
2373.000000	64.918947 
2372.000000	64.908981 
2371.000000	64.897370 
2370.000000	64.885568 
2369.000000	64.875817 
2368.000000	64.870595 
2367.000000	64.872074 
2366.000000	64.881515 
2365.000000	64.899063 
2364.000000	64.923620 
2363.000000	64.953112 
2362.000000	64.984655 
2361.000000	65.015196 
2360.000000	65.042185 
2359.000000	65.063667 
2358.000000	65.078783 
2357.000000	65.087699 
2356.000000	65.091490 
2355.000000	65.091919 
2354.000000	65.090680 
2353.000000	65.089249 
2352.000000	65.088415 
2351.000000	65.088343 
2350.000000	65.088486 
2349.000000	65.087962 
2348.000000	65.085816 
2347.000000	65.081667 
2346.000000	65.075516 
2345.000000	65.068221 
2344.000000	65.061020 
2343.000000	65.055346 
2342.000000	65.052390 
2341.000000	65.052413 
2340.000000	65.054965 
2339.000000	65.058827 
2338.000000	65.062499 
2337.000000	65.064501 
2336.000000	65.063858 
2335.000000	65.060424 
2334.000000	65.054702 
2333.000000	65.047597 
2332.000000	65.039896 
2331.000000	65.031957 
2330.000000	65.023827 
2329.000000	65.015125 
2328.000000	65.005230 
2327.000000	64.993572 
2326.000000	64.980101 
2325.000000	64.965152 
2324.000000	64.949536 
2323.000000	64.934372 
2322.000000	64.920616 
2321.000000	64.909148 
2320.000000	64.900279 
2319.000000	64.894151 
2318.000000	64.890480 
2317.000000	64.888954 
2316.000000	64.889430 
2315.000000	64.891791 
2314.000000	64.896106 
2313.000000	64.902544 
2312.000000	64.911055 
2311.000000	64.921641 
2310.000000	64.933896 
2309.000000	64.947438 
2308.000000	64.961647 
2307.000000	64.975738 
2306.000000	64.988660 
2305.000000	64.999270 
2304.000000	65.006399 
2303.000000	65.009117 
2302.000000	65.006923 
2301.000000	64.999842 
2300.000000	64.988565 
2299.000000	64.974284 
2298.000000	64.958477 
2297.000000	64.942836 
2296.000000	64.928913 
2295.000000	64.918017 
2294.000000	64.910960 
2293.000000	64.908289 
2292.000000	64.910101 
2291.000000	64.916253 
2290.000000	64.926218 
2289.000000	64.939260 
2288.000000	64.954233 
2287.000000	64.969730 
2286.000000	64.984250 
2285.000000	64.996051 
2284.000000	65.003800 
2283.000000	65.006637 
2282.000000	65.004563 
2281.000000	64.998459 
2280.000000	64.989638 
2279.000000	64.979743 
2278.000000	64.970254 
2277.000000	64.962077 
2276.000000	64.955568 
2275.000000	64.950442 
2274.000000	64.945816 
2273.000000	64.940881 
2272.000000	64.934921 
2271.000000	64.928007 
2270.000000	64.920616 
2269.000000	64.913773 
2268.000000	64.908742 
2267.000000	64.906620 
2266.000000	64.907956 
2265.000000	64.912581 
2264.000000	64.919447 
2263.000000	64.926958 
2262.000000	64.933347 
2261.000000	64.937138 
2260.000000	64.937424 
2259.000000	64.934349 
2258.000000	64.928865 
2257.000000	64.922738 
2256.000000	64.918208 
2255.000000	64.917206 
2254.000000	64.921069 
2253.000000	64.929819 
2252.000000	64.942169 
2251.000000	64.955830 
2250.000000	64.967799 
2249.000000	64.975142 
2248.000000	64.975571 
2247.000000	64.968013 
2246.000000	64.952826 
2245.000000	64.931702 
2244.000000	64.907217 
2243.000000	64.882230 
2242.000000	64.859628 
2241.000000	64.841461 
2240.000000	64.829063 
2239.000000	64.822649 
2238.000000	64.821839 
2237.000000	64.825725 
2236.000000	64.833211 
2235.000000	64.843106 
2234.000000	64.854407 
2233.000000	64.865994 
2232.000000	64.877128 
2231.000000	64.887046 
2230.000000	64.895439 
2229.000000	64.902210 
2228.000000	64.907741 
2227.000000	64.912605 
2226.000000	64.917635 
2225.000000	64.923381 
2224.000000	64.929962 
2223.000000	64.936804 
2222.000000	64.942836 
2221.000000	64.946484 
2220.000000	64.946413 
2219.000000	64.941382 
2218.000000	64.930963 
2217.000000	64.915490 
2216.000000	64.896059 
2215.000000	64.874482 
2214.000000	64.852666 
2213.000000	64.832615 
2212.000000	64.815831 
2211.000000	64.803695 
2210.000000	64.797115 
2209.000000	64.796805 
2208.000000	64.803171 
2207.000000	64.816331 
2206.000000	64.836072 
2205.000000	64.861416 
2204.000000	64.890646 
2203.000000	64.921355 
2202.000000	64.950513 
2201.000000	64.974951 
2200.000000	64.991927 
2199.000000	64.999532 
2198.000000	64.997172 
2197.000000	64.985704 
2196.000000	64.967346 
2195.000000	64.945292 
2194.000000	64.923191 
2193.000000	64.904499 
2192.000000	64.892005 
2191.000000	64.887285 
2190.000000	64.890456 
2189.000000	64.900541 
2188.000000	64.915132 
2187.000000	64.931511 
2186.000000	64.946341 
2185.000000	64.956736 
2184.000000	64.960312 
2183.000000	64.955472 
2182.000000	64.941835 
2181.000000	64.920067 
2180.000000	64.892125 
2179.000000	64.860820 
2178.000000	64.829516 
2177.000000	64.801502 
2176.000000	64.779520 
2175.000000	64.765334 
2174.000000	64.759397 
2173.000000	64.760804 
2172.000000	64.767670 
2171.000000	64.777684 
2170.000000	64.788389 
2169.000000	64.797997 
2168.000000	64.805507 
2167.000000	64.810943 
2166.000000	64.814901 
2165.000000	64.818215 
2164.000000	64.821338 
2163.000000	64.824271 
2162.000000	64.826512 
2161.000000	64.827156 
2160.000000	64.825415 
2159.000000	64.820861 
2158.000000	64.813995 
2157.000000	64.805698 
2156.000000	64.797377 
2155.000000	64.790129 
2154.000000	64.784646 
2153.000000	64.780879 
2152.000000	64.778041 
2151.000000	64.775180 
2150.000000	64.771413 
2149.000000	64.766263 
2148.000000	64.759945 
2147.000000	64.753317 
2146.000000	64.747595 
2145.000000	64.743685 
2144.000000	64.741873 
2143.000000	64.741611 
2142.000000	64.741826 
2141.000000	64.741063 
2140.000000	64.738321 
2139.000000	64.733386 
2138.000000	64.726948 
2137.000000	64.720726 
2136.000000	64.716958 
2135.000000	64.717483 
2134.000000	64.723634 
2133.000000	64.735627 
2132.000000	64.752626 
2131.000000	64.772868 
2130.000000	64.794254 
2129.000000	64.814782 
2128.000000	64.833068 
2127.000000	64.848494 
2126.000000	64.861392 
2125.000000	64.872598 
2124.000000	64.883279 
2123.000000	64.894390 
2122.000000	64.906263 
2121.000000	64.918351 
2120.000000	64.929652 
2119.000000	64.938974 
2118.000000	64.945316 
2117.000000	64.948177 
2116.000000	64.947748 
2115.000000	64.944911 
2114.000000	64.940905 
2113.000000	64.936947 
2112.000000	64.933848 
2111.000000	64.931559 
2110.000000	64.929342 
2109.000000	64.926004 
2108.000000	64.920401 
2107.000000	64.911699 
2106.000000	64.899873 
2105.000000	64.885568 
2104.000000	64.870357 
2103.000000	64.855980 
2102.000000	64.844036 
2101.000000	64.835548 
2100.000000	64.830684 
2099.000000	64.829182 
2098.000000	64.830493 
2097.000000	64.834117 
2096.000000	64.839839 
2095.000000	64.848041 
2094.000000	64.859294 
2093.000000	64.873933 
2092.000000	64.891481 
2091.000000	64.910221 
2090.000000	64.927291 
2089.000000	64.938974 
2088.000000	64.941644 
2087.000000	64.932703 
2086.000000	64.911723 
2085.000000	64.880657 
2084.000000	64.844131 
2083.000000	64.808249 
2082.000000	64.779806 
2081.000000	64.764380 
2080.000000	64.765787 
2079.000000	64.784789 
2078.000000	64.819216 
2077.000000	64.864635 
2076.000000	64.914655 
2075.000000	64.962601 
2074.000000	65.002155 
2073.000000	65.028667 
2072.000000	65.039730 
2071.000000	65.035080 
2070.000000	65.016579 
2069.000000	64.987683 
2068.000000	64.952635 
2067.000000	64.915633 
2066.000000	64.880275 
2065.000000	64.849352 
2064.000000	64.824509 
2063.000000	64.806485 
2062.000000	64.795112 
2061.000000	64.789676 
2060.000000	64.789056 
2059.000000	64.792180 
2058.000000	64.797616 
2057.000000	64.804363 
2056.000000	64.811396 
2055.000000	64.818215 
2054.000000	64.824342 
2053.000000	64.829707 
2052.000000	64.834189 
2051.000000	64.837789 
2050.000000	64.840579 
2049.000000	64.842534 
2048.000000	64.843726 
2047.000000	64.844202 
2046.000000	64.844059 
2045.000000	64.843416 
2044.000000	64.842677 
2043.000000	64.842319 
2042.000000	64.842486 
2041.000000	64.843344 
2040.000000	64.845013 
2039.000000	64.847278 
2038.000000	64.849829 
2037.000000	64.852118 
2036.000000	64.853477 
2035.000000	64.853382 
2034.000000	64.851474 
2033.000000	64.847493 
2032.000000	64.841508 
2031.000000	64.833950 
2030.000000	64.825749 
2029.000000	64.817976 
2028.000000	64.811849 
2027.000000	64.808583 
2026.000000	64.808964 
2025.000000	64.813280 
2024.000000	64.821171 
2023.000000	64.831471 
2022.000000	64.842557 
2021.000000	64.852643 
2020.000000	64.860010 
2019.000000	64.863324 
2018.000000	64.861989 
2017.000000	64.856123 
2016.000000	64.846563 
2015.000000	64.834618 
2014.000000	64.821934 
2013.000000	64.810132 
2012.000000	64.800620 
2011.000000	64.794540 
2010.000000	64.792561 
2009.000000	64.795017 
2008.000000	64.801764 
2007.000000	64.812374 
2006.000000	64.826226 
2005.000000	64.842367 
2004.000000	64.859628 
2003.000000	64.876604 
2002.000000	64.891672 
2001.000000	64.903187 
2000.000000	64.909648 
1999.000000	64.910030 
1998.000000	64.903903 
1997.000000	64.891624 
1996.000000	64.874362 
1995.000000	64.854073 
1994.000000	64.833116 
1993.000000	64.813756 
1992.000000	64.798021 
1991.000000	64.787006 
1990.000000	64.781117 
1989.000000	64.779710 
1988.000000	64.781522 
1987.000000	64.784669 
1986.000000	64.787483 
1985.000000	64.788341 
1984.000000	64.786148 
1983.000000	64.780306 
1982.000000	64.770770 
1981.000000	64.757895 
1980.000000	64.742517 
1979.000000	64.725708 
1978.000000	64.708995 
1977.000000	64.693999 
1976.000000	64.682531 
1975.000000	64.676213 
1974.000000	64.676284 
1973.000000	64.683103 
1972.000000	64.696264 
1971.000000	64.714288 
1970.000000	64.735102 
1969.000000	64.755916 
1968.000000	64.774012 
1967.000000	64.787101 
1966.000000	64.793753 
1965.000000	64.793586 
1964.000000	64.787316 
1963.000000	64.776420 
1962.000000	64.762878 
1961.000000	64.748811 
1960.000000	64.736175 
1959.000000	64.726352 
1958.000000	64.720129 
1957.000000	64.717817 
1956.000000	64.719247 
1955.000000	64.724016 
1954.000000	64.731407 
1953.000000	64.740633 
1952.000000	64.750909 
1951.000000	64.761543 
1950.000000	64.771842 
1949.000000	64.781069 
1948.000000	64.788651 
1947.000000	64.794111 
1946.000000	64.797115 
1945.000000	64.797592 
1944.000000	64.795565 
1943.000000	64.791345 
1942.000000	64.785575 
1941.000000	64.779043 
1940.000000	64.772629 
1939.000000	64.767217 
1938.000000	64.763498 
1937.000000	64.761757 
1936.000000	64.761805 
1935.000000	64.762949 
1934.000000	64.764142 
1933.000000	64.764165 
1932.000000	64.762115 
1931.000000	64.757490 
1930.000000	64.750647 
1929.000000	64.742422 
1928.000000	64.734125 
1927.000000	64.727187 
1926.000000	64.722728 
1925.000000	64.721226 
1924.000000	64.722347 
1923.000000	64.725041 
1922.000000	64.727926 
1921.000000	64.729738 
1920.000000	64.729690 
1919.000000	64.727854 
1918.000000	64.724874 
1917.000000	64.722084 
1916.000000	64.720821 
1915.000000	64.721989 
1914.000000	64.725732 
1913.000000	64.731407 
1912.000000	64.737796 
1911.000000	64.743280 
1910.000000	64.746594 
1909.000000	64.747047 
1908.000000	64.745020 
1907.000000	64.741539 
1906.000000	64.738345 
1905.000000	64.737248 
1904.000000	64.739632 
1903.000000	64.746141 
1902.000000	64.756417 
1901.000000	64.769220 
1900.000000	64.782834 
1899.000000	64.795398 
1898.000000	64.805436 
1897.000000	64.811921 
1896.000000	64.814615 
1895.000000	64.813852 
1894.000000	64.810681 
1893.000000	64.806151 
1892.000000	64.801311 
1891.000000	64.796614 
1890.000000	64.792180 
1889.000000	64.787507 
1888.000000	64.781761 
1887.000000	64.774179 
1886.000000	64.764022 
1885.000000	64.751148 
1884.000000	64.735865 
1883.000000	64.719152 
1882.000000	64.702200 
1881.000000	64.686346 
1880.000000	64.672803 
1879.000000	64.662575 
1878.000000	64.656186 
1877.000000	64.653992 
1876.000000	64.655876 
1875.000000	64.661693 
1874.000000	64.671111 
1873.000000	64.683699 
1872.000000	64.698624 
1871.000000	64.714598 
1870.000000	64.729738 
1869.000000	64.741635 
1868.000000	64.747834 
1867.000000	64.746165 
1866.000000	64.735198 
1865.000000	64.715003 
1864.000000	64.687395 
1863.000000	64.655590 
1862.000000	64.624047 
1861.000000	64.597558 
1860.000000	64.580273 
1859.000000	64.575076 
1858.000000	64.582633 
1857.000000	64.601564 
1856.000000	64.628434 
1855.000000	64.658641 
1854.000000	64.687371 
1853.000000	64.710545 
1852.000000	64.725518 
1851.000000	64.731407 
1850.000000	64.729070 
1849.000000	64.720678 
1848.000000	64.708852 
1847.000000	64.696216 
1846.000000	64.684700 
1845.000000	64.675474 
1844.000000	64.669036 
1843.000000	64.665317 
1842.000000	64.664196 
1841.000000	64.665508 
1840.000000	64.669299 
1839.000000	64.675664 
1838.000000	64.684391 
1837.000000	64.694762 
1836.000000	64.705705 
1835.000000	64.715719 
1834.000000	64.723205 
1833.000000	64.726972 
1832.000000	64.726424 
1831.000000	64.722037 
1830.000000	64.715218 
1829.000000	64.707875 
1828.000000	64.701986 
1827.000000	64.699196 
1826.000000	64.700436 
1825.000000	64.705753 
1824.000000	64.714360 
1823.000000	64.724969 
1822.000000	64.736008 
1821.000000	64.746189 
1820.000000	64.754438 
1819.000000	64.759993 
1818.000000	64.762258 
1817.000000	64.760637 
1816.000000	64.754509 
1815.000000	64.743232 
1814.000000	64.726519 
1813.000000	64.704537 
1812.000000	64.678430 
1811.000000	64.650177 
1810.000000	64.622354 
1809.000000	64.597892 
1808.000000	64.579343 
1807.000000	64.568233 
1806.000000	64.565134 
1805.000000	64.569115 
1804.000000	64.578461 
1803.000000	64.590620 
1802.000000	64.603209 
1801.000000	64.614391 
1800.000000	64.623069 
1799.000000	64.628982 
1798.000000	64.632725 
1797.000000	64.635252 
1796.000000	64.637494 
1795.000000	64.640259 
1794.000000	64.644050 
1793.000000	64.648818 
1792.000000	64.654254 
1791.000000	64.659690 
1790.000000	64.664268 
1789.000000	64.666914 
1788.000000	64.666628 
1787.000000	64.662551 
1786.000000	64.654135 
1785.000000	64.641594 
1784.000000	64.625787 
1783.000000	64.608502 
1782.000000	64.591956 
1781.000000	64.578533 
1780.000000	64.570355 
1779.000000	64.568662 
1778.000000	64.573502 
1777.000000	64.583492 
1776.000000	64.596319 
1775.000000	64.608955 
1774.000000	64.618539 
1773.000000	64.622831 
1772.000000	64.620804 
1771.000000	64.612793 
1770.000000	64.600396 
1769.000000	64.585876 
1768.000000	64.571404 
1767.000000	64.558863 
1766.000000	64.549231 
1765.000000	64.542627 
1764.000000	64.538264 
1763.000000	64.535093 
1762.000000	64.532041 
1761.000000	64.528441 
1760.000000	64.524102 
1759.000000	64.519429 
1758.000000	64.514875 
1757.000000	64.510941 
1756.000000	64.507794 
1755.000000	64.504981 
1754.000000	64.501786 
1753.000000	64.497399 
1752.000000	64.491152 
1751.000000	64.482855 
1750.000000	64.472746 
1749.000000	64.461803 
1748.000000	64.451026 
1747.000000	64.441394 
1746.000000	64.433240 
1745.000000	64.426350 
1744.000000	64.419770 
1743.000000	64.412117 
1742.000000	64.401984 
1741.000000	64.388442 
1740.000000	64.371156 
1739.000000	64.350724 
1738.000000	64.328670 
1737.000000	64.307260 
1736.000000	64.288830 
1735.000000	64.275622 
1734.000000	64.269304 
1733.000000	64.270687 
1732.000000	64.279580 
1731.000000	64.294934 
1730.000000	64.315032 
1729.000000	64.337730 
1728.000000	64.360833 
1727.000000	64.382386 
1726.000000	64.400911 
1725.000000	64.415597 
1724.000000	64.426231 
1723.000000	64.433121 
1722.000000	64.437127 
1721.000000	64.439129 
1720.000000	64.439868 
1719.000000	64.439821 
1718.000000	64.439439 
1717.000000	64.438915 
1716.000000	64.438724 
1715.000000	64.439606 
1714.000000	64.442634 
1713.000000	64.449071 
1712.000000	64.460325 
1711.000000	64.477276 
1710.000000	64.500188 
1709.000000	64.528417 
1708.000000	64.560341 
1707.000000	64.593696 
1706.000000	64.625883 
1705.000000	64.654302 
1704.000000	64.676976 
1703.000000	64.692783 
1702.000000	64.701557 
1701.000000	64.703941 
1700.000000	64.701151 
1699.000000	64.694905 
1698.000000	64.686942 
1697.000000	64.679050 
1696.000000	64.672613 
1695.000000	64.668679 
1694.000000	64.667510 
1693.000000	64.668941 
1692.000000	64.671921 
1691.000000	64.674854 
1690.000000	64.675712 
1689.000000	64.672708 
1688.000000	64.664459 
1687.000000	64.650392 
1686.000000	64.630913 
1685.000000	64.607524 
1684.000000	64.582276 
1683.000000	64.557647 
1682.000000	64.535903 
1681.000000	64.518880 
1680.000000	64.507579 
1679.000000	64.502239 
1678.000000	64.502692 
1677.000000	64.508461 
1676.000000	64.518809 
1675.000000	64.532923 
1674.000000	64.549922 
1673.000000	64.568829 
1672.000000	64.588093 
1671.000000	64.606022 
1670.000000	64.620637 
1669.000000	64.630341 
1668.000000	64.633941 
1667.000000	64.631199 
1666.000000	64.622712 
1665.000000	64.609932 
1664.000000	64.594960 
1663.000000	64.579868 
1662.000000	64.566326 
1661.000000	64.555239 
1660.000000	64.546728 
1659.000000	64.540362 
1658.000000	64.535450 
1657.000000	64.531326 
1656.000000	64.527535 
1655.000000	64.523863 
1654.000000	64.520335 
1653.000000	64.516711 
1652.000000	64.512562 
1651.000000	64.507269 
1650.000000	64.500212 
1649.000000	64.490985 
1648.000000	64.479851 
1647.000000	64.467883 
1646.000000	64.457058 
1645.000000	64.449739 
1644.000000	64.448404 
1643.000000	64.454722 
1642.000000	64.469361 
1641.000000	64.491391 
1640.000000	64.518547 
1639.000000	64.547729 
1638.000000	64.575481 
1637.000000	64.598703 
1636.000000	64.615130 
1635.000000	64.623546 
1634.000000	64.623785 
1633.000000	64.616632 
1632.000000	64.603352 
1631.000000	64.585423 
1630.000000	64.564466 
1629.000000	64.541935 
1628.000000	64.518976 
1627.000000	64.496445 
1626.000000	64.475321 
1625.000000	64.456343 
1624.000000	64.439964 
1623.000000	64.426612 
1622.000000	64.416456 
1621.000000	64.409542 
1620.000000	64.405655 
1619.000000	64.404606 
1618.000000	64.406108 
1617.000000	64.409852 
1616.000000	64.415311 
1615.000000	64.421701 
1614.000000	64.428138 
1613.000000	64.433646 
1612.000000	64.437341 
1611.000000	64.438581 
1610.000000	64.437055 
1609.000000	64.432954 
1608.000000	64.426803 
1607.000000	64.419341 
1606.000000	64.411377 
1605.000000	64.403629 
1604.000000	64.396858 
1603.000000	64.391469 
1602.000000	64.387822 
1601.000000	64.386177 
1600.000000	64.386773 
1599.000000	64.389896 
1598.000000	64.395809 
1597.000000	64.404511 
1596.000000	64.415717 
1595.000000	64.428710 
1594.000000	64.442801 
1593.000000	64.456987 
1592.000000	64.470362 
1591.000000	64.482164 
1590.000000	64.491915 
1589.000000	64.499354 
1588.000000	64.504218 
1587.000000	64.506483 
1586.000000	64.505887 
1585.000000	64.502239 
1584.000000	64.495468 
1583.000000	64.485549 
1582.000000	64.472842 
1581.000000	64.458084 
1580.000000	64.442276 
1579.000000	64.426803 
1578.000000	64.412903 
1577.000000	64.401888 
1576.000000	64.394688 
1575.000000	64.391875 
1574.000000	64.393758 
1573.000000	64.400339 
1572.000000	64.411425 
1571.000000	64.426422 
1570.000000	64.444279 
1569.000000	64.463686 
1568.000000	64.482641 
1567.000000	64.499163 
1566.000000	64.511322 
1565.000000	64.517831 
1564.000000	64.518260 
1563.000000	64.513063 
1562.000000	64.503765 
1561.000000	64.492487 
1560.000000	64.481544 
1559.000000	64.472842 
1558.000000	64.467668 
1557.000000	64.466190 
1556.000000	64.467644 
1555.000000	64.470529 
1554.000000	64.473295 
1553.000000	64.474487 
1552.000000	64.473342 
1551.000000	64.469742 
1550.000000	64.464211 
1549.000000	64.457559 
1548.000000	64.450931 
1547.000000	64.445137 
1546.000000	64.440679 
1545.000000	64.437723 
1544.000000	64.436006 
1543.000000	64.434862 
1542.000000	64.433526 
1541.000000	64.431357 
1540.000000	64.428114 
1539.000000	64.424157 
1538.000000	64.420413 
1537.000000	64.418244 
1536.000000	64.418959 
1535.000000	64.423537 
1534.000000	64.432024 
1533.000000	64.443492 
1532.000000	64.456129 
1531.000000	64.467430 
1530.000000	64.474964 
1529.000000	64.476871 
1528.000000	64.472579 
1527.000000	64.462828 
1526.000000	64.449763 
1525.000000	64.436531 
1524.000000	64.426398 
1523.000000	64.422082 
1522.000000	64.425039 
1521.000000	64.435195 
1520.000000	64.451122 
1519.000000	64.470505 
1518.000000	64.490342 
1517.000000	64.507961 
1516.000000	64.521241 
1515.000000	64.529109 
1514.000000	64.531421 
1513.000000	64.529180 
1512.000000	64.524078 
1511.000000	64.518284 
1510.000000	64.514064 
1509.000000	64.513158 
1508.000000	64.516615 
1507.000000	64.524316 
1506.000000	64.535379 
1505.000000	64.548063 
1504.000000	64.560508 
1503.000000	64.571070 
1502.000000	64.578700 
1501.000000	64.583420 
1500.000000	64.586281 
1499.000000	64.588975 
1498.000000	64.592981 
1497.000000	64.598870 
1496.000000	64.605927 
1495.000000	64.611911 
1494.000000	64.613604 
1493.000000	64.607930 
1492.000000	64.592766 
1491.000000	64.568138 
1490.000000	64.536333 
1489.000000	64.501261 
1488.000000	64.467859 
1487.000000	64.440774 
1486.000000	64.423704 
1485.000000	64.418530 
1484.000000	64.425086 
1483.000000	64.441490 
1482.000000	64.464259 
1481.000000	64.489102 
1480.000000	64.511370 
1479.000000	64.526987 
1478.000000	64.532947 
1477.000000	64.527893 
1476.000000	64.512085 
1475.000000	64.487266 
1474.000000	64.456343 
1473.000000	64.422774 
1472.000000	64.389801 
1471.000000	64.360070 
1470.000000	64.335370 
1469.000000	64.316511 
1468.000000	64.303660 
1467.000000	64.296746 
1466.000000	64.295649 
1465.000000	64.300870 
1464.000000	64.313006 
1463.000000	64.332962 
1462.000000	64.361286 
1461.000000	64.397716 
1460.000000	64.440703 
1459.000000	64.487218 
1458.000000	64.532923 
1457.000000	64.573073 
1456.000000	64.603161 
1455.000000	64.619994 
1454.000000	64.622640 
1453.000000	64.612388 
1452.000000	64.592719 
1451.000000	64.568257 
1450.000000	64.543724 
1449.000000	64.522886 
1448.000000	64.507770 
1447.000000	64.498877 
1446.000000	64.495444 
1445.000000	64.495968 
1444.000000	64.499092 
1443.000000	64.503598 
1442.000000	64.508724 
1441.000000	64.513945 
1440.000000	64.518713 
1439.000000	64.522051 
1438.000000	64.522790 
1437.000000	64.519739 
1436.000000	64.512062 
1435.000000	64.499807 
1434.000000	64.483904 
1433.000000	64.466309 
1432.000000	64.449524 
1431.000000	64.436030 
1430.000000	64.427566 
1429.000000	64.424562 
1428.000000	64.426112 
1427.000000	64.430403 
1426.000000	64.435195 
1425.000000	64.438343 
1424.000000	64.438414 
1423.000000	64.435124 
1422.000000	64.429140 
1421.000000	64.421725 
1420.000000	64.414167 
1419.000000	64.407324 
1418.000000	64.401483 
1417.000000	64.396142 
1416.000000	64.390277 
1415.000000	64.382839 
1414.000000	64.373064 
1413.000000	64.360880 
1412.000000	64.346981 
1411.000000	64.332628 
1410.000000	64.319300 
1409.000000	64.308285 
1408.000000	64.300441 
1407.000000	64.296007 
1406.000000	64.294648 
1405.000000	64.295649 
1404.000000	64.298081 
1403.000000	64.301180 
1402.000000	64.304494 
1401.000000	64.308047 
1400.000000	64.312124 
1399.000000	64.317250 
1398.000000	64.323735 
1397.000000	64.331674 
1396.000000	64.340758 
1395.000000	64.350223 
1394.000000	64.358925 
1393.000000	64.365649 
1392.000000	64.369416 
1391.000000	64.369630 
1390.000000	64.366316 
1389.000000	64.360094 
1388.000000	64.352202 
1387.000000	64.344167 
1386.000000	64.337491 
1385.000000	64.333438 
1384.000000	64.332628 
1383.000000	64.335060 
1382.000000	64.340209 
1381.000000	64.347386 
1380.000000	64.355826 
1379.000000	64.365005 
1378.000000	64.374494 
1377.000000	64.384031 
1376.000000	64.393210 
1375.000000	64.401459 
1374.000000	64.407873 
1373.000000	64.411306 
1372.000000	64.410495 
1371.000000	64.404702 
1370.000000	64.393615 
1369.000000	64.377570 
1368.000000	64.357614 
1367.000000	64.335536 
1366.000000	64.313364 
1365.000000	64.293193 
1364.000000	64.276766 
1363.000000	64.265084 
1362.000000	64.258527 
1361.000000	64.256620 
1360.000000	64.258265 
1359.000000	64.261913 
1358.000000	64.265799 
1357.000000	64.268469 
1356.000000	64.268589 
1355.000000	64.265275 
1354.000000	64.258360 
1353.000000	64.248347 
1352.000000	64.236021 
1351.000000	64.222812 
1350.000000	64.210295 
1349.000000	64.200353 
1348.000000	64.194607 
1347.000000	64.194726 
1346.000000	64.202070 
1345.000000	64.217615 
1344.000000	64.241695 
1343.000000	64.273643 
1342.000000	64.311647 
1341.000000	64.352703 
1340.000000	64.392852 
1339.000000	64.427757 
1338.000000	64.453244 
1337.000000	64.466309 
1336.000000	64.465451 
1335.000000	64.451169 
1334.000000	64.425754 
1333.000000	64.393067 
1332.000000	64.357542 
1331.000000	64.323592 
1330.000000	64.294409 
1329.000000	64.271998 
1328.000000	64.256572 
1327.000000	64.247155 
1326.000000	64.241909 
1325.000000	64.238762 
1324.000000	64.236140 
1323.000000	64.233040 
1322.000000	64.229631 
1321.000000	64.226436 
1320.000000	64.224672 
1319.000000	64.225578 
1318.000000	64.230203 
1317.000000	64.239048 
1316.000000	64.251828 
1315.000000	64.267635 
1314.000000	64.284920 
1313.000000	64.301633 
1312.000000	64.315605 
1311.000000	64.324951 
1310.000000	64.328169 
1309.000000	64.324498 
1308.000000	64.314198 
1307.000000	64.298534 
1306.000000	64.279460 
1305.000000	64.259457 
1304.000000	64.240980 
1303.000000	64.226102 
1302.000000	64.216089 
1301.000000	64.211320 
1300.000000	64.211058 
1299.000000	64.213943 
1298.000000	64.218068 
1297.000000	64.221811 
1296.000000	64.223456 
1295.000000	64.222073 
1294.000000	64.217138 
1293.000000	64.208793 
1292.000000	64.197397 
1291.000000	64.183712 
1290.000000	64.168405 
1289.000000	64.152240 
1288.000000	64.135932 
1287.000000	64.120173 
1286.000000	64.105796 
1285.000000	64.093852 
1284.000000	64.085483 
1283.000000	64.081764 
1282.000000	64.083433 
1281.000000	64.090657 
1280.000000	64.102745 
1279.000000	64.118170 
1278.000000	64.134812 
1277.000000	64.150261 
1276.000000	64.162206 
1275.000000	64.168858 
1274.000000	64.169383 
1273.000000	64.163780 
1272.000000	64.152789 
1271.000000	64.137768 
1270.000000	64.120531 
1269.000000	64.102697 
1268.000000	64.085912 
1267.000000	64.071464 
1266.000000	64.060306 
1265.000000	64.052939 
1264.000000	64.049458 
1263.000000	64.049673 
1262.000000	64.053130 
1261.000000	64.059138 
1260.000000	64.067125 
1259.000000	64.076566 
1258.000000	64.087414 
1257.000000	64.099812 
1256.000000	64.114284 
1255.000000	64.131331 
1254.000000	64.151048 
1253.000000	64.172863 
1252.000000	64.195394 
1251.000000	64.216589 
1250.000000	64.234185 
1249.000000	64.246106 
1248.000000	64.251089 
1247.000000	64.248871 
1246.000000	64.240312 
1245.000000	64.227104 
1244.000000	64.211583 
1243.000000	64.196014 
1242.000000	64.182329 
1241.000000	64.171671 
1240.000000	64.164614 
1239.000000	64.161133 
1238.000000	64.160847 
1237.000000	64.163422 
1236.000000	64.168477 
1235.000000	64.175701 
1234.000000	64.184594 
1233.000000	64.194512 
1232.000000	64.204382 
1231.000000	64.213109 
1230.000000	64.219665 
1229.000000	64.223241 
1228.000000	64.223575 
1227.000000	64.220738 
1226.000000	64.215254 
1225.000000	64.207744 
1224.000000	64.199066 
1223.000000	64.189910 
1222.000000	64.181327 
1221.000000	64.174199 
1220.000000	64.169526 
1219.000000	64.168310 
1218.000000	64.171004 
1217.000000	64.177680 
1216.000000	64.187479 
1215.000000	64.198946 
1214.000000	64.209842 
1213.000000	64.217805 
1212.000000	64.220714 
1211.000000	64.217162 
1210.000000	64.207124 
1209.000000	64.191770 
1208.000000	64.173245 
1207.000000	64.154148 
1206.000000	64.136981 
1205.000000	64.123535 
1204.000000	64.114856 
1203.000000	64.111113 
1202.000000	64.111757 
1201.000000	64.115810 
1200.000000	64.122366 
1199.000000	64.130568 
1198.000000	64.139795 
1197.000000	64.149689 
1196.000000	64.160037 
1195.000000	64.170908 
1194.000000	64.182257 
1193.000000	64.193868 
1192.000000	64.205408 
1191.000000	64.215993 
1190.000000	64.224624 
1189.000000	64.230036 
1188.000000	64.231324 
1187.000000	64.227724 
1186.000000	64.219212 
1185.000000	64.206266 
1184.000000	64.190101 
1183.000000	64.172267 
1182.000000	64.154577 
1181.000000	64.138698 
1180.000000	64.125990 
1179.000000	64.117097 
1178.000000	64.111948 
1177.000000	64.109611 
1176.000000	64.108586 
1175.000000	64.107179 
1174.000000	64.103865 
1173.000000	64.097547 
1172.000000	64.087843 
1171.000000	64.075255 
1170.000000	64.060974 
1169.000000	64.046859 
1168.000000	64.034771 
1167.000000	64.026188 
1166.000000	64.021849 
1165.000000	64.021515 
1164.000000	64.023971 
1163.000000	64.027380 
1162.000000	64.029669 
1161.000000	64.029407 
1160.000000	64.025902 
1159.000000	64.019536 
1158.000000	64.011645 
1157.000000	64.004111 
1156.000000	63.998937 
1155.000000	63.997697 
1154.000000	64.001274 
1153.000000	64.009642 
1152.000000	64.022159 
1151.000000	64.037919 
1150.000000	64.055776 
1149.000000	64.074850 
1148.000000	64.094305 
1147.000000	64.113545 
1146.000000	64.131712 
1145.000000	64.147496 
1144.000000	64.159274 
1143.000000	64.165115 
1142.000000	64.163589 
1141.000000	64.154005 
1140.000000	64.137053 
1139.000000	64.114665 
1138.000000	64.089488 
1137.000000	64.064216 
1136.000000	64.041304 
1135.000000	64.022564 
1134.000000	64.008712 
1133.000000	63.999366 
1132.000000	63.993716 
1131.000000	63.990497 
1130.000000	63.988375 
1129.000000	63.986420 
1128.000000	63.983821 
1127.000000	63.980650 
1126.000000	63.977742 
1125.000000	63.976502 
1124.000000	63.978338 
1123.000000	63.984179 
1122.000000	63.994050 
1121.000000	64.006638 
1120.000000	64.019560 
1119.000000	64.029860 
1118.000000	64.034867 
1117.000000	64.032793 
1116.000000	64.023756 
1115.000000	64.009618 
1114.000000	63.994145 
1113.000000	63.982033 
1112.000000	63.978075 
1111.000000	63.986277 
1110.000000	64.008712 
1109.000000	64.045476 
1108.000000	64.093542 
1107.000000	64.147686 
1106.000000	64.200711 
1105.000000	64.245367 
1104.000000	64.275074 
1103.000000	64.285421 
1102.000000	64.274692 
1101.000000	64.244484 
1100.000000	64.198851 
1099.000000	64.143490 
1098.000000	64.084720 
1097.000000	64.028429 
1096.000000	63.979530 
1095.000000	63.941574 
1094.000000	63.916540 
1093.000000	63.905119 
1092.000000	63.906359 
1091.000000	63.918232 
1090.000000	63.937473 
1089.000000	63.960361 
1088.000000	63.983035 
1087.000000	64.002513 
1086.000000	64.016842 
1085.000000	64.025712 
1084.000000	64.030432 
1083.000000	64.033579 
1082.000000	64.038372 
1081.000000	64.047455 
1080.000000	64.062595 
1079.000000	64.083838 
1078.000000	64.109468 
1077.000000	64.136409 
1076.000000	64.161586 
1075.000000	64.182043 
1074.000000	64.196038 
1073.000000	64.202952 
1072.000000	64.203500 
1071.000000	64.199018 
1070.000000	64.190888 
1069.000000	64.180350 
1068.000000	64.167904 
1067.000000	64.153766 
1066.000000	64.138126 
1065.000000	64.121174 
1064.000000	64.103341 
1063.000000	64.085674 
1062.000000	64.069700 
1061.000000	64.057135 
1060.000000	64.049601 
1059.000000	64.048171 
1058.000000	64.052891 
1057.000000	64.063000 
1056.000000	64.076375 
1055.000000	64.090156 
1054.000000	64.100980 
1053.000000	64.105439 
1052.000000	64.101004 
1051.000000	64.086127 
1050.000000	64.061331 
1049.000000	64.028787 
1048.000000	63.992595 
1047.000000	63.957786 
1046.000000	63.929581 
1045.000000	63.912248 
1044.000000	63.908171 
1043.000000	63.917398 
1042.000000	63.937878 
1041.000000	63.965892 
1040.000000	63.996982 
1039.000000	64.026761 
1038.000000	64.051699 
1037.000000	64.069819 
1036.000000	64.080524 
1035.000000	64.084625 
1034.000000	64.083671 
1033.000000	64.079713 
1032.000000	64.074873 
1031.000000	64.070868 
1030.000000	64.068937 
1029.000000	64.069628 
1028.000000	64.073157 
1027.000000	64.079308 
1026.000000	64.087367 
1025.000000	64.096355 
1024.000000	64.105153 
1023.000000	64.112806 
1022.000000	64.118766 
1021.000000	64.123010 
1020.000000	64.125871 
1019.000000	64.127779 
1018.000000	64.129090 
1017.000000	64.129567 
1016.000000	64.128446 
1015.000000	64.124417 
1014.000000	64.116120 
1013.000000	64.102649 
1012.000000	64.084029 
1011.000000	64.061522 
1010.000000	64.037799 
1009.000000	64.016366 
1008.000000	64.000844 
1007.000000	63.994479 
1006.000000	63.999366 
1005.000000	64.015769 
1004.000000	64.042282 
1003.000000	64.076232 
1002.000000	64.114093 
1001.000000	64.152431 
1000.000000	64.188122 
999.000000	 64.218759 
998.000000	 64.242625 
997.000000	 64.258694 
996.000000	 64.266252 
995.000000	 64.265060 
994.000000	 64.254784 
993.000000	 64.235830 
992.000000	 64.208698 
991.000000	 64.174532 
990.000000	 64.134931 
989.000000	 64.092278 
988.000000	 64.049291 
987.000000	 64.008808 
986.000000	 63.973474 
985.000000	 63.945460 
984.000000	 63.925957 
983.000000	 63.915205 
982.000000	 63.912463 
981.000000	 63.916444 
980.000000	 63.925337 
979.000000	 63.937592 
978.000000	 63.951873 
977.000000	 63.967370 
976.000000	 63.983821 
975.000000	 64.001297 
974.000000	 64.019703 
973.000000	 64.038562 
972.000000	 64.056921 
971.000000	 64.073181 
970.000000	 64.085340 
969.000000	 64.091634 
968.000000	 64.091229 
967.000000	 64.084577 
966.000000	 64.073419 
965.000000	 64.060616 
964.000000	 64.049363 
963.000000	 64.042663 
962.000000	 64.042735 
961.000000	 64.050722 
960.000000	 64.066481 
959.000000	 64.089059 
958.000000	 64.116978 
957.000000	 64.148497 
956.000000	 64.181613 
955.000000	 64.214658 
954.000000	 64.245915 
953.000000	 64.273691 
952.000000	 64.296030 
951.000000	 64.311194 
950.000000	 64.317584 
949.000000	 64.314103 
948.000000	 64.300060 
947.000000	 64.275765 
946.000000	 64.242553 
945.000000	 64.202833 
944.000000	 64.159870 
943.000000	 64.117193 
942.000000	 64.078783 
941.000000	 64.048576 
940.000000	 64.029908 
939.000000	 64.025020 
938.000000	 64.034676 
937.000000	 64.058017 
936.000000	 64.092206 
935.000000	 64.133000 
934.000000	 64.175248 
933.000000	 64.213943 
932.000000	 64.244961 
931.000000	 64.265704 
930.000000	 64.275503 
929.000000	 64.275836 
928.000000	 64.269781 
927.000000	 64.261436 
926.000000	 64.255356 
925.000000	 64.255380 
924.000000	 64.264273 
923.000000	 64.282631 
922.000000	 64.309191 
921.000000	 64.340400 
920.000000	 64.371538 
919.000000	 64.396858 
918.000000	 64.411187 
917.000000	 64.410638 
916.000000	 64.393591 
915.000000	 64.360880 
914.000000	 64.315509 
913.000000	 64.262247 
912.000000	 64.207077 
911.000000	 64.155602 
910.000000	 64.112043 
909.000000	 64.078640 
908.000000	 64.055848 
907.000000	 64.042234 
906.000000	 64.035415 
905.000000	 64.032602 
904.000000	 64.031338 
903.000000	 64.030194 
902.000000	 64.028978 
901.000000	 64.028143 
900.000000	 64.028453 
899.000000	 64.030694 
898.000000	 64.035320 
897.000000	 64.042019 
896.000000	 64.049744 
895.000000	 64.056944 
894.000000	 64.062213 
893.000000	 64.064335 
892.000000	 64.063429 
891.000000	 64.060282 
890.000000	 64.057469 
889.000000	 64.058136 
888.000000	 64.066004 
887.000000	 64.084529 
886.000000	 64.115858 
885.000000	 64.160513 
884.000000	 64.216232 
883.000000	 64.278507 
882.000000	 64.340376 
881.000000	 64.394116 
880.000000	 64.431953 
879.000000	 64.447927 
878.000000	 64.438986 
877.000000	 64.405894 
876.000000	 64.352965 
875.000000	 64.287352 
874.000000	 64.218068 
873.000000	 64.154005 
872.000000	 64.102506 
871.000000	 64.067864 
870.000000	 64.051294 
869.000000	 64.050841 
868.000000	 64.062070 
867.000000	 64.079546 
866.000000	 64.097881 
865.000000	 64.113497 
864.000000	 64.124512 
863.000000	 64.131498 
862.000000	 64.136219 
861.000000	 64.141345 
860.000000	 64.149212 
859.000000	 64.160633 
858.000000	 64.174842 
857.000000	 64.188861 
856.000000	 64.198493 
855.000000	 64.199137 
854.000000	 64.187097 
853.000000	 64.160895 
852.000000	 64.121842 
851.000000	 64.074158 
850.000000	 64.024138 
849.000000	 63.979220 
848.000000	 63.946437 
847.000000	 63.930583 
846.000000	 63.933730 
845.000000	 63.954687 
844.000000	 63.989758 
843.000000	 64.033770 
842.000000	 64.081406 
841.000000	 64.128088 
840.000000	 64.170885 
839.000000	 64.208507 
838.000000	 64.240884 
837.000000	 64.268755 
836.000000	 64.292597 
835.000000	 64.312124 
834.000000	 64.326214 
833.000000	 64.333438 
832.000000	 64.332604 
831.000000	 64.323925 
830.000000	 64.308834 
829.000000	 64.290404 
828.000000	 64.272618 
827.000000	 64.259743 
826.000000	 64.254689 
825.000000	 64.258074 
824.000000	 64.267826 
823.000000	 64.279723 
822.000000	 64.288759 
821.000000	 64.290404 
820.000000	 64.282083 
819.000000	 64.263534 
818.000000	 64.236903 
817.000000	 64.205837 
816.000000	 64.174222 
815.000000	 64.145016 
814.000000	 64.119625 
813.000000	 64.097404 
812.000000	 64.076161 
811.000000	 64.053201 
810.000000	 64.026212 
809.000000	 63.994956 
808.000000	 63.960480 
807.000000	 63.926768 
806.000000	 63.899111 
805.000000	 63.884067 
804.000000	 63.887190 
803.000000	 63.912391 
802.000000	 63.960337 
801.000000	 64.028239 
800.000000	 64.109587 
799.000000	 64.195299 
798.000000	 64.274954 
797.000000	 64.338636 
796.000000	 64.378666 
795.000000	 64.390778 
794.000000	 64.374804 
793.000000	 64.334797 
792.000000	 64.278101 
791.000000	 64.214015 
790.000000	 64.151716 
789.000000	 64.099144 
788.000000	 64.060926 
787.000000	 64.038228 
786.000000	 64.028882 
785.000000	 64.028263 
784.000000	 64.031457 
783.000000	 64.034748 
782.000000	 64.037084 
781.000000	 64.039611 
780.000000	 64.045476 
779.000000	 64.057970 
778.000000	 64.079046 
777.000000	 64.108157 
776.000000	 64.141917 
775.000000	 64.174628 
774.000000	 64.199876 
773.000000	 64.212465 
772.000000	 64.209532 
771.000000	 64.191317 
770.000000	 64.160966 
769.000000	 64.123702 
768.000000	 64.085555 
767.000000	 64.051938 
766.000000	 64.026188 
765.000000	 64.009118 
764.000000	 63.999867 
763.000000	 63.995742 
762.000000	 63.993954 
761.000000	 63.990950 
760.000000	 63.983488 
759.000000	 63.968515 
758.000000	 63.943481 
757.000000	 63.907027 
756.000000	 63.858628 
755.000000	 63.800287 
754.000000	 63.736152 
753.000000	 63.672757 
752.000000	 63.617706 
751.000000	 63.578915 
750.000000	 63.562679 
749.000000	 63.572621 
748.000000	 63.608551 
747.000000	 63.666224 
746.000000	 63.737750 
745.000000	 63.813376 
744.000000	 63.883090 
743.000000	 63.938140 
742.000000	 63.972401 
741.000000	 63.982963 
740.000000	 63.970303 
739.000000	 63.937473 
738.000000	 63.889431 
737.000000	 63.831853 
736.000000	 63.770318 
735.000000	 63.710379 
734.000000	 63.656735 
733.000000	 63.612627 
732.000000	 63.580393 
731.000000	 63.561534 
730.000000	 63.557434 
729.000000	 63.568758 
728.000000	 63.596391 
727.000000	 63.640308 
726.000000	 63.699412 
725.000000	 63.770794 
724.000000	 63.849353 
723.000000	 63.927960 
722.000000	 63.997936 
721.000000	 64.050221 
720.000000	 64.077234 
719.000000	 64.074134 
718.000000	 64.040517 
717.000000	 63.980746 
716.000000	 63.902974 
715.000000	 63.817787 
714.000000	 63.736271 
713.000000	 63.668227 
712.000000	 63.620185 
711.000000	 63.595175 
710.000000	 63.593459 
709.000000	 63.613414 
708.000000	 63.652658 
707.000000	 63.708567 
706.000000	 63.778018 
705.000000	 63.857007 
704.000000	 63.940167 
703.000000	 64.020586 
702.000000	 64.089679 
701.000000	 64.138913 
700.000000	 64.161419 
699.000000	 64.153456 
698.000000	 64.115977 
697.000000	 64.053821 
696.000000	 63.976097 
695.000000	 63.892006 
694.000000	 63.809800 
693.000000	 63.733601 
692.000000	 63.663482 
691.000000	 63.595628 
690.000000	 63.524556 
689.000000	 63.445806 
688.000000	 63.358688 
687.000000	 63.266348 
686.000000	 63.175988 
685.000000	 63.097357 
684.000000	 63.040590 
683.000000	 63.013100 
682.000000	 63.018178 
681.000000	 63.053727 
680.000000	 63.113093 
679.000000	 63.185811 
678.000000	 63.260483 
677.000000	 63.326406 
676.000000	 63.376522 
675.000000	 63.408041 
674.000000	 63.422870 
673.000000	 63.425660 
672.000000	 63.422799 
671.000000	 63.420295 
670.000000	 63.422822 
669.000000	 63.431978 
668.000000	 63.447880 
667.000000	 63.469767 
666.000000	 63.497877 
665.000000	 63.533902 
664.000000	 63.581824 
663.000000	 63.646817 
662.000000	 63.734388 
661.000000	 63.847970 
660.000000	 63.986134 
659.000000	 64.141631 
658.000000	 64.302253 
657.000000	 64.452672 
656.000000	 64.577221 
655.000000	 64.662861 
654.000000	 64.703154 
653.000000	 64.698529 
652.000000	 64.656782 
651.000000	 64.589953 
650.000000	 64.511942 
649.000000	 64.434838 
648.000000	 64.368653 
647.000000	 64.317607 
646.000000	 64.281678 
645.000000	 64.256191 
644.000000	 64.235639 
643.000000	 64.214062 
642.000000	 64.186954 
641.000000	 64.152836 
640.000000	 64.112758 
639.000000	 64.070773 
638.000000	 64.031958 
637.000000	 64.002799 
636.000000	 63.989353 
635.000000	 63.996815 
634.000000	 64.028096 
633.000000	 64.084577 
632.000000	 64.165377 
631.000000	 64.267253 
630.000000	 64.383649 
629.000000	 64.505910 
628.000000	 64.622354 
627.000000	 64.719963 
626.000000	 64.784383 
625.000000	 64.803075 
624.000000	 64.765882 
623.000000	 64.667415 
622.000000	 64.508366 
621.000000	 64.296674 
620.000000	 64.047360 
619.000000	 63.781499 
618.000000	 63.523674 
617.000000	 63.298702 
616.000000	 63.127827 
615.000000	 63.025593 
614.000000	 62.996888 
613.000000	 63.036417 
612.000000	 63.129091 
611.000000	 63.252568 
610.000000	 63.381528 
609.000000	 63.491773 
608.000000	 63.565325 
607.000000	 63.593053 
606.000000	 63.576459 
605.000000	 63.525795 
604.000000	 63.457942 
603.000000	 63.390731 
602.000000	 63.338208 
601.000000	 63.306498 
600.000000	 63.293838 
599.000000	 63.291049 
598.000000	 63.285756 
597.000000	 63.266205 
596.000000	 63.226270 
595.000000	 63.166451 
594.000000	 63.093924 
593.000000	 63.019824 
592.000000	 62.955355 
591.000000	 62.908792 
590.000000	 62.881469 
589.000000	 62.869215 
588.000000	 62.863707 
587.000000	 62.855863 
586.000000	 62.838339 
585.000000	 62.809777 
584.000000	 62.775373 
583.000000	 62.745261 
582.000000	 62.731337 
581.000000	 62.743973 
580.000000	 62.788701 
579.000000	 62.865900 
578.000000	 62.970685 
577.000000	 63.094258 
576.000000	 63.226342 
575.000000	 63.358163 
574.000000	 63.483929 
573.000000	 63.600492 
572.000000	 63.706851 
571.000000	 63.803100 
570.000000	 63.888931 
569.000000	 63.963317 
568.000000	 64.023733 
567.000000	 64.067411 
566.000000	 64.091610 
565.000000	 64.096426 
564.000000	 64.083600 
563.000000	 64.057493 
562.000000	 64.023804 
561.000000	 63.989162 
560.000000	 63.959503 
559.000000	 63.939476 
558.000000	 63.931560 
557.000000	 63.936471 
556.000000	 63.952064 
555.000000	 63.974070 
554.000000	 63.996338 
553.000000	 64.011859 
552.000000	 64.014244 
551.000000	 63.998460 
550.000000	 63.961720 
549.000000	 63.903427 
548.000000	 63.824677 
547.000000	 63.728451 
546.000000	 63.618659 
545.000000	 63.501048 
544.000000	 63.383674 
543.000000	 63.276553 
542.000000	 63.190364 
541.000000	 63.134908 
540.000000	 63.117003 
539.000000	 63.138580 
538.000000	 63.194680 
537.000000	 63.275170 
536.000000	 63.365554 
535.000000	 63.450908 
534.000000	 63.518166 
533.000000	 63.559532 
532.000000	 63.573312 
531.000000	 63.563966 
530.000000	 63.540267 
529.000000	 63.512110 
528.000000	 63.487601 
527.000000	 63.471174 
526.000000	 63.462901 
525.000000	 63.459348 
524.000000	 63.455438 
523.000000	 63.447093 
522.000000	 63.433146 
521.000000	 63.415884 
520.000000	 63.401079 
519.000000	 63.395404 
518.000000	 63.405203 
517.000000	 63.434076 
516.000000	 63.482069 
515.000000	 63.545727 
514.000000	 63.618540 
513.000000	 63.691830 
512.000000	 63.757181 
511.000000	 63.808441 
510.000000	 63.842964 
509.000000	 63.861608 
508.000000	 63.868474 
507.000000	 63.869357 
506.000000	 63.870263 
505.000000	 63.876152 
504.000000	 63.889312 
503.000000	 63.908982 
502.000000	 63.932752 
501.000000	 63.957858 
500.000000	 63.981461 
499.000000	 64.001536 
498.000000	 64.016866 
497.000000	 64.026808 
496.000000	 64.030361 
495.000000	 64.026069 
494.000000	 64.011549 
493.000000	 63.984799 
492.000000	 63.944864 
491.000000	 63.893532 
490.000000	 63.836193 
489.000000	 63.781428 
488.000000	 63.740158 
487.000000	 63.722491 
486.000000	 63.735890 
485.000000	 63.781976 
484.000000	 63.856172 
483.000000	 63.946723 
482.000000	 64.037489 
481.000000	 64.110326 
480.000000	 64.149737 
479.000000	 64.144873 
478.000000	 64.091992 
477.000000	 63.994574 
476.000000	 63.862919 
475.000000	 63.710594 
474.000000	 63.551855 
473.000000	 63.399529 
472.000000	 63.263344 
471.000000	 63.149690 
470.000000	 63.061666 
469.000000	 63.000130 
468.000000	 62.964320 
467.000000	 62.952256 
466.000000	 62.961268 
465.000000	 62.986660 
464.000000	 63.022756 
463.000000	 63.062191 
462.000000	 63.098621 
461.000000	 63.125824 
460.000000	 63.141179 
459.000000	 63.145446 
458.000000	 63.143920 
457.000000	 63.143205 
456.000000	 63.152289 
455.000000	 63.180327 
454.000000	 63.234472 
453.000000	 63.317298 
452.000000	 63.427090 
451.000000	 63.557934 
450.000000	 63.700938 
449.000000	 63.846087 
448.000000	 63.983440 
447.000000	 64.104270 
446.000000	 64.202237 
445.000000	 64.273881 
444.000000	 64.316439 
443.000000	 64.327931 
442.000000	 64.308571 
441.000000	 64.261054 
440.000000	 64.190840 
439.000000	 64.106035 
438.000000	 64.018988 
437.000000	 63.941884 
436.000000	 63.887882 
435.000000	 63.862705 
434.000000	 63.863468 
433.000000	 63.875293 
432.000000	 63.877820 
431.000000	 63.845872 
430.000000	 63.754439 
429.000000	 63.587808 
428.000000	 63.342094 
427.000000	 63.032650 
426.000000	 62.691640 
425.000000	 62.363696 
424.000000	 62.095260 
423.000000	 61.926460 
422.000000	 61.880302 
421.000000	 61.962056 
420.000000	 62.158799 
419.000000	 62.441205 
418.000000	 62.770485 
417.000000	 63.106846 
416.000000	 63.416075 
415.000000	 63.683223 
414.000000	 63.908076 
413.000000	 64.093017 
412.000000	 64.234018 
411.000000	 64.325666 
410.000000	 64.348220 
409.000000	 64.271068 
408.000000	 64.057612 
407.000000	 63.666820 
406.000000	 63.081955 
405.000000	 62.326431 
404.000000	 61.471819 
403.000000	 60.624289 
402.000000	 59.914541 
401.000000	 59.473633 
400.000000	 59.395098 
399.000000	 59.717321 
398.000000	 60.392546 
397.000000	 61.292743 
396.000000	 62.229847 
395.000000	 62.998580 
394.000000	 63.419771 
393.000000	 63.383269 
392.000000	 62.891554 
391.000000	 62.064027 
390.000000	 61.156034 
389.000000	 60.499167 
388.000000	 60.439848 
387.000000	 61.230731 
386.000000	 62.978553 
385.000000	 65.569734 
384.000000	 68.654394 
383.000000	 71.707367 
382.000000	 74.178314 
381.000000	 75.583124 
380.000000	 75.637459 
379.000000	 74.292922 
378.000000	 71.699690 
377.000000	 68.217468 
376.000000	 64.304995 
375.000000	 60.490989 
374.000000	 57.268595 
373.000000	 55.043411 
372.000000	 54.158449 
371.000000	 54.704093 
370.000000	 56.481266 

