PE IR       SPECTRUM    SPECTRUM    ASCII       PEDS        1.60        
  -1
BZ68A4~1.ASC
17/04/07
15:42:11.00
17/04/07
15:42:11.00
tln
$BZ1503107-1_t0030$<tbV0>[-5.2,-7.8,8.0,0.0,27,1,0]
370.000000
64









2002,4.07    
MIRTGS : RIGHTBACK : INTERNAL 2
MIR : ON : INTERNAL 2
OPTKBR

0.200000
8
8.000000
FILLER
RATIO
SPECTRUM
UNLOCKED 256

DOUBLE
64
COMBINED
1
0
0


1.000000
RATIO


1
0
TRUE
51149
0
LEFT NOT FITTED RIGHT NOT FITTED 0
NONE
NONE
15600
12.000000
4.427000
51148
TRUE
1 0 8 72 0 0 0 0 

15798.010000






#HDR
-1
-1
#GR
CM-1
%T
0.00002384185791015625
0.0
5000.000000
-1.000000
4631
8
76.566863
43.957614
#DATA
5000.000000	64.983224 
4999.000000	64.791011 
4998.000000	64.599585 
4997.000000	64.422988 
4996.000000	64.271616 
4995.000000	64.152860 
4994.000000	64.071655 
4993.000000	64.031028 
4992.000000	64.033102 
4991.000000	64.078330 
4990.000000	64.164924 
4989.000000	64.286470 
4988.000000	64.433169 
4987.000000	64.591097 
4986.000000	64.744567 
4985.000000	64.877462 
4984.000000	64.976763 
4983.000000	65.034437 
4982.000000	65.048694 
4981.000000	65.023589 
4980.000000	64.968442 
4979.000000	64.894866 
4978.000000	64.814686 
4977.000000	64.736533 
4976.000000	64.665269 
4975.000000	64.600610 
4974.000000	64.539289 
4973.000000	64.476203 
4972.000000	64.407062 
4971.000000	64.330935 
4970.000000	64.250731 
4969.000000	64.174222 
4968.000000	64.110970 
4967.000000	64.071202 
4966.000000	64.062619 
4965.000000	64.087939 
4964.000000	64.143562 
4963.000000	64.219903 
4962.000000	64.302945 
4961.000000	64.377474 
4960.000000	64.430236 
4959.000000	64.452767 
4958.000000	64.442873 
4957.000000	64.404630 
4956.000000	64.346861 
4955.000000	64.280200 
4954.000000	64.214611 
4953.000000	64.157581 
4952.000000	64.113116 
4951.000000	64.082026 
4950.000000	64.063143 
4949.000000	64.055061 
4948.000000	64.057397 
4947.000000	64.072275 
4946.000000	64.102649 
4945.000000	64.150857 
4944.000000	64.216065 
4943.000000	64.293861 
4942.000000	64.374685 
4941.000000	64.444756 
4940.000000	64.488554 
4939.000000	64.492511 
4938.000000	64.448809 
4937.000000	64.357471 
4936.000000	64.227962 
4935.000000	64.077877 
4934.000000	63.929843 
4933.000000	63.807225 
4932.000000	63.728713 
4931.000000	63.704776 
4930.000000	63.735175 
4929.000000	63.809704 
4928.000000	63.910269 
4927.000000	64.015841 
4926.000000	64.107871 
4925.000000	64.174962 
4924.000000	64.214038 
4923.000000	64.231085 
4922.000000	64.237356 
4921.000000	64.246225 
4920.000000	64.268589 
4919.000000	64.309978 
4918.000000	64.369416 
4917.000000	64.439511 
4916.000000	64.510822 
4915.000000	64.572405 
4914.000000	64.615988 
4913.000000	64.636492 
4912.000000	64.634037 
4911.000000	64.612054 
4910.000000	64.575910 
4909.000000	64.531517 
4908.000000	64.483690 
4907.000000	64.435744 
4906.000000	64.389419 
4905.000000	64.345431 
4904.000000	64.304375 
4903.000000	64.265704 
4902.000000	64.228534 
4901.000000	64.191293 
4900.000000	64.152598 
4899.000000	64.111089 
4898.000000	64.066457 
4897.000000	64.019346 
4896.000000	63.972306 
4895.000000	63.928866 
4894.000000	63.894295 
4893.000000	63.872671 
4892.000000	63.868403 
4891.000000	63.885092 
4890.000000	63.925957 
4889.000000	63.992142 
4888.000000	64.083051 
4887.000000	64.195632 
4886.000000	64.323925 
4885.000000	64.459204 
4884.000000	64.590907 
4883.000000	64.708280 
4882.000000	64.801812 
4881.000000	64.864730 
4880.000000	64.894628 
4879.000000	64.893889 
4878.000000	64.869403 
4877.000000	64.831304 
4876.000000	64.790391 
4875.000000	64.756178 
4874.000000	64.735388 
4873.000000	64.730834 
4872.000000	64.741897 
4871.000000	64.764618 
4870.000000	64.793944 
4869.000000	64.824366 
4868.000000	64.850568 
4867.000000	64.868330 
4866.000000	64.874434 
4865.000000	64.867186 
4864.000000	64.846324 
4863.000000	64.813089 
4862.000000	64.770436 
4861.000000	64.721894 
4860.000000	64.671444 
4859.000000	64.622354 
4858.000000	64.577054 
4857.000000	64.536404 
4856.000000	64.500164 
4855.000000	64.466953 
4854.000000	64.434909 
4853.000000	64.402723 
4852.000000	64.370298 
4851.000000	64.338636 
4850.000000	64.309310 
4849.000000	64.284563 
4848.000000	64.266633 
4847.000000	64.256739 
4846.000000	64.254784 
4845.000000	64.259719 
4844.000000	64.269781 
4843.000000	64.283108 
4842.000000	64.297986 
4841.000000	64.312815 
4840.000000	64.326596 
4839.000000	64.338231 
4838.000000	64.347386 
4837.000000	64.354062 
4836.000000	64.359641 
4835.000000	64.365744 
4834.000000	64.375090 
4833.000000	64.390134 
4832.000000	64.413309 
4831.000000	64.446091 
4830.000000	64.488720 
4829.000000	64.539742 
4828.000000	64.596104 
4827.000000	64.653801 
4826.000000	64.707827 
4825.000000	64.753031 
4824.000000	64.784860 
4823.000000	64.800167 
4822.000000	64.797282 
4821.000000	64.776468 
4820.000000	64.739990 
4819.000000	64.691853 
4818.000000	64.637517 
4817.000000	64.582800 
4816.000000	64.533638 
4815.000000	64.494657 
4814.000000	64.468359 
4813.000000	64.455080 
4812.000000	64.452552 
4811.000000	64.457535 
4810.000000	64.466214 
4809.000000	64.475655 
4808.000000	64.484333 
4807.000000	64.492321 
4806.000000	64.500713 
4805.000000	64.510893 
4804.000000	64.523530 
4803.000000	64.538002 
4802.000000	64.552283 
4801.000000	64.563393 
4800.000000	64.568328 
4799.000000	64.565134 
4798.000000	64.553618 
4797.000000	64.535546 
4796.000000	64.514183 
4795.000000	64.493632 
4794.000000	64.477944 
4793.000000	64.469814 
4792.000000	64.470148 
4791.000000	64.478230 
4790.000000	64.492225 
4789.000000	64.509963 
4788.000000	64.529967 
4787.000000	64.551234 
4786.000000	64.573740 
4785.000000	64.598059 
4784.000000	64.625096 
4783.000000	64.655113 
4782.000000	64.687943 
4781.000000	64.722585 
4780.000000	64.757800 
4779.000000	64.792609 
4778.000000	64.825963 
4777.000000	64.857363 
4776.000000	64.886021 
4775.000000	64.911627 
4774.000000	64.932918 
4773.000000	64.948105 
4772.000000	64.954495 
4771.000000	64.949440 
4770.000000	64.930963 
4769.000000	64.898777 
4768.000000	64.854812 
4767.000000	64.803528 
4766.000000	64.751386 
4765.000000	64.705991 
4764.000000	64.674711 
4763.000000	64.663147 
4762.000000	64.674043 
4761.000000	64.706778 
4760.000000	64.757823 
4759.000000	64.821267 
4758.000000	64.889812 
4757.000000	64.955759 
4756.000000	65.012574 
4755.000000	65.054774 
4754.000000	65.078353 
4753.000000	65.080714 
4752.000000	65.060687 
4751.000000	65.018391 
4750.000000	64.955782 
4749.000000	64.876484 
4748.000000	64.785647 
4747.000000	64.690160 
4746.000000	64.598369 
4745.000000	64.518666 
4744.000000	64.458441 
4743.000000	64.422941 
4742.000000	64.414286 
4741.000000	64.430785 
4740.000000	64.467072 
4739.000000	64.515209 
4738.000000	64.566111 
4737.000000	64.611220 
4736.000000	64.643812 
4735.000000	64.659953 
4734.000000	64.658832 
4733.000000	64.641928 
4732.000000	64.612460 
4731.000000	64.574098 
4730.000000	64.530754 
4729.000000	64.486002 
4728.000000	64.443564 
4727.000000	64.406776 
4726.000000	64.379835 
4725.000000	64.367294 
4724.000000	64.374160 
4723.000000	64.403939 
4722.000000	64.458727 
4721.000000	64.537549 
4720.000000	64.637136 
4719.000000	64.750885 
4718.000000	64.871311 
4717.000000	64.990830 
4716.000000	65.103316 
4715.000000	65.204763 
4714.000000	65.293288 
4713.000000	65.368413 
4712.000000	65.430331 
4711.000000	65.478801 
4710.000000	65.513062 
4709.000000	65.531253 
4708.000000	65.531849 
4707.000000	65.513563 
4706.000000	65.476751 
4705.000000	65.423226 
4704.000000	65.356969 
4703.000000	65.283179 
4702.000000	65.207958 
4701.000000	65.137124 
4700.000000	65.075635 
4699.000000	65.026712 
4698.000000	64.991569 
4697.000000	64.969301 
4696.000000	64.957571 
4695.000000	64.952635 
4694.000000	64.949870 
4693.000000	64.944362 
4692.000000	64.931511 
4691.000000	64.907765 
4690.000000	64.871168 
4689.000000	64.821505 
4688.000000	64.760184 
4687.000000	64.690399 
4686.000000	64.616441 
4685.000000	64.542961 
4684.000000	64.474368 
4683.000000	64.414763 
4682.000000	64.367508 
4681.000000	64.334607 
4680.000000	64.316630 
4679.000000	64.312624 
4678.000000	64.320516 
4677.000000	64.336657 
4676.000000	64.357399 
4675.000000	64.378952 
4674.000000	64.398908 
4673.000000	64.415836 
4672.000000	64.430141 
4671.000000	64.442849 
4670.000000	64.455938 
4669.000000	64.471268 
4668.000000	64.490342 
4667.000000	64.513206 
4666.000000	64.539265 
4665.000000	64.567399 
4664.000000	64.596486 
4663.000000	64.625930 
4662.000000	64.655685 
4661.000000	64.686417 
4660.000000	64.718747 
4659.000000	64.752769 
4658.000000	64.787578 
4657.000000	64.821076 
4656.000000	64.850091 
4655.000000	64.870715 
4654.000000	64.880132 
4653.000000	64.876580 
4652.000000	64.860010 
4651.000000	64.831757 
4650.000000	64.794850 
4649.000000	64.753055 
4648.000000	64.710259 
4647.000000	64.669728 
4646.000000	64.633917 
4645.000000	64.604449 
4644.000000	64.582538 
4643.000000	64.568853 
4642.000000	64.563775 
4641.000000	64.567208 
4640.000000	64.578509 
4639.000000	64.596009 
4638.000000	64.616727 
4637.000000	64.636325 
4636.000000	64.649629 
4635.000000	64.651584 
4634.000000	64.638352 
4633.000000	64.608716 
4632.000000	64.564895 
4631.000000	64.512324 
4630.000000	64.458966 
4629.000000	64.413833 
4628.000000	64.385151 
4627.000000	64.378380 
4626.000000	64.395165 
4625.000000	64.432930 
4624.000000	64.485454 
4623.000000	64.544057 
4622.000000	64.599442 
4621.000000	64.643478 
4620.000000	64.670610 
4619.000000	64.678263 
4618.000000	64.667415 
4617.000000	64.641666 
4616.000000	64.606904 
4615.000000	64.569664 
4614.000000	64.536476 
4613.000000	64.512753 
4612.000000	64.501881 
4611.000000	64.505791 
4610.000000	64.523530 
4609.000000	64.552116 
4608.000000	64.586782 
4607.000000	64.622139 
4606.000000	64.653062 
4605.000000	64.675545 
4604.000000	64.687776 
4603.000000	64.690089 
4602.000000	64.685034 
4601.000000	64.676332 
4600.000000	64.668154 
4599.000000	64.663267 
4598.000000	64.662766 
4597.000000	64.664936 
4596.000000	64.666414 
4595.000000	64.662384 
4594.000000	64.648318 
4593.000000	64.620900 
4592.000000	64.579033 
4591.000000	64.524602 
4590.000000	64.462018 
4589.000000	64.398026 
4588.000000	64.339494 
4587.000000	64.293432 
4586.000000	64.265418 
4585.000000	64.259338 
4584.000000	64.276456 
4583.000000	64.315390 
4582.000000	64.372181 
4581.000000	64.440727 
4580.000000	64.513659 
4579.000000	64.583206 
4578.000000	64.642167 
4577.000000	64.684891 
4576.000000	64.707803 
4575.000000	64.709877 
4574.000000	64.692330 
4573.000000	64.658546 
4572.000000	64.613151 
4571.000000	64.561557 
4570.000000	64.508342 
4569.000000	64.457893 
4568.000000	64.412808 
4567.000000	64.373993 
4566.000000	64.340782 
4565.000000	64.311552 
4564.000000	64.284396 
4563.000000	64.257454 
4562.000000	64.230084 
4561.000000	64.202547 
4560.000000	64.176702 
4559.000000	64.155101 
4558.000000	64.140820 
4557.000000	64.136147 
4556.000000	64.142251 
4555.000000	64.158201 
4554.000000	64.181351 
4553.000000	64.207673 
4552.000000	64.233136 
4551.000000	64.254689 
4550.000000	64.270877 
4549.000000	64.281940 
4548.000000	64.289689 
4547.000000	64.296722 
4546.000000	64.305162 
4545.000000	64.316296 
4544.000000	64.330482 
4543.000000	64.347195 
4542.000000	64.365839 
4541.000000	64.385581 
4540.000000	64.406204 
4539.000000	64.427423 
4538.000000	64.449286 
4537.000000	64.471530 
4536.000000	64.493227 
4535.000000	64.512753 
4534.000000	64.528250 
4533.000000	64.537477 
4532.000000	64.538526 
4531.000000	64.530324 
4530.000000	64.513087 
4529.000000	64.487886 
4528.000000	64.456772 
4527.000000	64.421963 
4526.000000	64.385581 
4525.000000	64.349269 
4524.000000	64.314270 
4523.000000	64.281105 
4522.000000	64.249992 
4521.000000	64.221286 
4520.000000	64.195704 
4519.000000	64.174175 
4518.000000	64.157724 
4517.000000	64.147472 
4516.000000	64.143967 
4515.000000	64.147114 
4514.000000	64.155864 
4513.000000	64.167594 
4512.000000	64.179086 
4511.000000	64.186501 
4510.000000	64.187002 
4509.000000	64.179110 
4508.000000	64.163470 
4507.000000	64.142131 
4506.000000	64.118552 
4505.000000	64.096975 
4504.000000	64.080691 
4503.000000	64.071655 
4502.000000	64.069080 
4501.000000	64.069819 
4500.000000	64.068937 
4499.000000	64.061069 
4498.000000	64.041399 
4497.000000	64.007019 
4496.000000	63.957858 
4495.000000	63.896989 
4494.000000	63.829493 
4493.000000	63.762307 
4492.000000	63.702964 
4491.000000	63.659214 
4490.000000	63.637661 
4489.000000	63.642835 
4488.000000	63.677668 
4487.000000	63.740944 
4486.000000	63.827157 
4485.000000	63.925671 
4484.000000	64.022207 
4483.000000	64.100861 
4482.000000	64.146661 
4481.000000	64.149260 
4480.000000	64.105153 
4479.000000	64.019203 
4478.000000	63.904070 
4477.000000	63.777899 
4476.000000	63.660621 
4475.000000	63.570117 
4474.000000	63.518404 
4473.000000	63.510227 
4472.000000	63.543128 
4471.000000	63.607144 
4470.000000	63.687610 
4469.000000	63.770508 
4468.000000	63.846230 
4467.000000	63.910651 
4466.000000	63.965940 
4465.000000	64.019584 
4464.000000	64.081454 
4463.000000	64.158725 
4462.000000	64.253401 
4461.000000	64.363169 
4460.000000	64.479994 
4459.000000	64.589834 
4458.000000	64.677381 
4457.000000	64.736747 
4456.000000	64.766240 
4455.000000	64.766335 
4454.000000	64.740943 
4453.000000	64.696836 
4452.000000	64.641261 
4451.000000	64.583206 
4450.000000	64.528846 
4449.000000	64.474201 
4448.000000	64.423298 
4447.000000	64.391875 
4446.000000	64.402461 
4445.000000	64.479422 
4444.000000	64.643692 
4443.000000	64.905738 
4442.000000	65.256810 
4441.000000	65.668940 
4440.000000	66.104555 
4439.000000	66.523861 
4438.000000	66.892457 
4437.000000	67.192196 
4436.000000	67.409777 
4435.000000	67.559170 
4434.000000	67.664241 
4433.000000	67.782163 
4432.000000	68.004679 
4431.000000	68.431901 
4430.000000	69.176268 
4429.000000	70.282268 
4428.000000	71.721076 
4427.000000	73.339986 
4426.000000	74.893045 
4425.000000	76.068210 
4424.000000	76.566863 
4423.000000	76.168966 
4422.000000	74.805831 
4421.000000	72.571182 
4420.000000	69.712686 
4419.000000	66.579985 
4418.000000	63.553333 
4417.000000	60.973024 
4416.000000	59.077596 
4415.000000	57.973098 
4414.000000	57.631492 
4413.000000	57.914710 
4412.000000	58.625721 
4411.000000	59.548568 
4410.000000	60.506153 
4409.000000	61.378645 
4408.000000	62.124705 
4407.000000	62.742257 
4406.000000	63.265681 
4405.000000	63.721585 
4404.000000	64.123678 
4403.000000	64.455771 
4402.000000	64.684748 
4401.000000	64.785194 
4400.000000	64.743304 
4399.000000	64.583849 
4398.000000	64.351916 
4397.000000	64.111542 
4396.000000	63.921880 
4395.000000	63.821220 
4394.000000	63.823103 
4393.000000	63.915991 
4392.000000	64.071679 
4391.000000	64.257764 
4390.000000	64.443612 
4389.000000	64.608073 
4388.000000	64.745140 
4387.000000	64.863181 
4386.000000	64.969205 
4385.000000	65.065550 
4384.000000	65.155792 
4383.000000	65.239763 
4382.000000	65.311670 
4381.000000	65.361285 
4380.000000	65.379381 
4379.000000	65.358281 
4378.000000	65.299677 
4377.000000	65.210056 
4376.000000	65.096592 
4375.000000	64.968013 
4374.000000	64.835143 
4373.000000	64.707469 
4372.000000	64.592862 
4371.000000	64.495944 
4370.000000	64.418864 
4369.000000	64.360165 
4368.000000	64.314937 
4367.000000	64.278173 
4366.000000	64.245724 
4365.000000	64.216804 
4364.000000	64.194130 
4363.000000	64.181804 
4362.000000	64.183688 
4361.000000	64.201378 
4360.000000	64.233112 
4359.000000	64.275574 
4358.000000	64.324045 
4357.000000	64.373588 
4356.000000	64.419245 
4355.000000	64.457249 
4354.000000	64.484524 
4353.000000	64.498138 
4352.000000	64.495658 
4351.000000	64.475584 
4350.000000	64.437890 
4349.000000	64.384818 
4348.000000	64.320945 
4347.000000	64.252781 
4346.000000	64.188289 
4345.000000	64.135575 
4344.000000	64.101529 
4343.000000	64.090061 
4342.000000	64.102292 
4341.000000	64.136362 
4340.000000	64.187693 
4339.000000	64.249610 
4338.000000	64.314842 
4337.000000	64.376664 
4336.000000	64.429092 
4335.000000	64.467167 
4334.000000	64.487171 
4333.000000	64.487099 
4332.000000	64.466643 
4331.000000	64.427661 
4330.000000	64.374518 
4329.000000	64.313602 
4328.000000	64.252686 
4327.000000	64.199447 
4326.000000	64.160585 
4325.000000	64.140272 
4324.000000	64.139747 
4323.000000	64.156985 
4322.000000	64.186787 
4321.000000	64.222621 
4320.000000	64.257645 
4319.000000	64.286804 
4318.000000	64.306998 
4317.000000	64.318633 
4316.000000	64.324474 
4315.000000	64.329433 
4314.000000	64.338898 
4313.000000	64.357352 
4312.000000	64.387202 
4311.000000	64.428043 
4310.000000	64.476823 
4309.000000	64.528632 
4308.000000	64.578080 
4307.000000	64.620208 
4306.000000	64.651870 
4305.000000	64.672660 
4304.000000	64.685082 
4303.000000	64.693641 
4302.000000	64.703321 
4301.000000	64.718675 
4300.000000	64.741849 
4299.000000	64.772319 
4298.000000	64.806127 
4297.000000	64.836955 
4296.000000	64.857292 
4295.000000	64.860868 
4294.000000	64.844131 
4293.000000	64.807200 
4292.000000	64.754247 
4291.000000	64.692783 
4290.000000	64.631819 
4289.000000	64.580202 
4288.000000	64.543843 
4287.000000	64.524674 
4286.000000	64.520192 
4285.000000	64.524579 
4284.000000	64.530014 
4283.000000	64.528989 
4282.000000	64.516329 
4281.000000	64.490509 
4280.000000	64.453744 
4279.000000	64.410853 
4278.000000	64.368057 
4277.000000	64.330911 
4276.000000	64.302635 
4275.000000	64.283847 
4274.000000	64.272642 
4273.000000	64.266157 
4272.000000	64.261698 
4271.000000	64.258432 
4270.000000	64.257693 
4269.000000	64.262843 
4268.000000	64.278030 
4267.000000	64.306521 
4266.000000	64.348912 
4265.000000	64.402222 
4264.000000	64.460110 
4263.000000	64.513921 
4262.000000	64.554738 
4261.000000	64.575433 
4260.000000	64.572906 
4259.000000	64.548134 
4258.000000	64.505720 
4257.000000	64.453125 
4256.000000	64.398884 
4255.000000	64.350652 
4254.000000	64.313840 
4253.000000	64.291214 
4252.000000	64.283084 
4251.000000	64.287996 
4250.000000	64.303660 
4249.000000	64.327692 
4248.000000	64.358139 
4247.000000	64.393353 
4246.000000	64.432358 
4245.000000	64.473843 
4244.000000	64.516806 
4243.000000	64.559912 
4242.000000	64.601826 
4241.000000	64.641475 
4240.000000	64.677882 
4239.000000	64.710354 
4238.000000	64.738321 
4237.000000	64.761543 
4236.000000	64.779925 
4235.000000	64.793920 
4234.000000	64.804053 
4233.000000	64.811730 
4232.000000	64.818358 
4231.000000	64.825344 
4230.000000	64.833307 
4229.000000	64.841794 
4228.000000	64.849019 
4227.000000	64.852070 
4226.000000	64.847517 
4225.000000	64.832639 
4224.000000	64.806079 
4223.000000	64.768648 
4222.000000	64.723873 
4221.000000	64.677286 
4220.000000	64.634966 
4219.000000	64.602589 
4218.000000	64.583230 
4217.000000	64.577889 
4216.000000	64.585041 
4215.000000	64.602065 
4214.000000	64.625167 
4213.000000	64.651560 
4212.000000	64.680290 
4211.000000	64.712190 
4210.000000	64.748692 
4209.000000	64.791536 
4208.000000	64.841413 
4207.000000	64.897179 
4206.000000	64.955615 
4205.000000	65.011787 
4204.000000	65.060114 
4203.000000	65.095734 
4202.000000	65.115880 
4201.000000	65.120196 
4200.000000	65.110921 
4199.000000	65.092468 
4198.000000	65.070295 
4197.000000	65.050148 
4196.000000	65.036463 
4195.000000	65.032339 
4194.000000	65.037870 
4193.000000	65.051031 
4192.000000	65.066838 
4191.000000	65.079355 
4190.000000	65.081667 
4189.000000	65.067696 
4188.000000	65.033435 
4187.000000	64.977598 
4186.000000	64.903068 
4185.000000	64.815974 
4184.000000	64.725995 
4183.000000	64.643764 
4182.000000	64.580440 
4181.000000	64.545178 
4180.000000	64.543676 
4179.000000	64.576721 
4178.000000	64.640307 
4177.000000	64.726257 
4176.000000	64.823508 
4175.000000	64.919877 
4174.000000	65.004205 
4173.000000	65.068006 
4172.000000	65.106487 
4171.000000	65.118956 
4170.000000	65.108561 
4169.000000	65.081143 
4168.000000	65.044355 
4167.000000	65.005445 
4166.000000	64.970421 
4165.000000	64.942622 
4164.000000	64.923191 
4163.000000	64.910960 
4162.000000	64.903998 
4161.000000	64.899682 
4160.000000	64.895892 
4159.000000	64.891338 
4158.000000	64.885210 
4157.000000	64.877557 
4156.000000	64.868259 
4155.000000	64.857721 
4154.000000	64.846277 
4153.000000	64.834713 
4152.000000	64.824366 
4151.000000	64.816641 
4150.000000	64.812827 
4149.000000	64.813852 
4148.000000	64.819836 
4147.000000	64.830446 
4146.000000	64.844727 
4145.000000	64.861297 
4144.000000	64.878630 
4143.000000	64.895391 
4142.000000	64.910483 
4141.000000	64.922881 
4140.000000	64.931321 
4139.000000	64.934277 
4138.000000	64.929723 
4137.000000	64.915895 
4136.000000	64.891386 
4135.000000	64.855766 
4134.000000	64.810156 
4133.000000	64.757513 
4132.000000	64.702153 
4131.000000	64.649271 
4130.000000	64.603853 
4129.000000	64.569640 
4128.000000	64.548730 
4127.000000	64.540910 
4126.000000	64.544129 
4125.000000	64.555025 
4124.000000	64.569687 
4123.000000	64.584445 
4122.000000	64.596748 
4121.000000	64.605474 
4120.000000	64.611029 
4119.000000	64.614820 
4118.000000	64.619016 
4117.000000	64.625763 
4116.000000	64.636969 
4115.000000	64.653682 
4114.000000	64.676141 
4113.000000	64.703416 
4112.000000	64.733862 
4111.000000	64.765048 
4110.000000	64.794182 
4109.000000	64.818263 
4108.000000	64.834713 
4107.000000	64.841485 
4106.000000	64.837598 
4105.000000	64.823412 
4104.000000	64.800429 
4103.000000	64.771437 
4102.000000	64.740157 
4101.000000	64.710664 
4100.000000	64.686799 
4099.000000	64.671897 
4098.000000	64.668369 
4097.000000	64.677405 
4096.000000	64.698672 
4095.000000	64.730572 
4094.000000	64.770531 
4093.000000	64.815020 
4092.000000	64.860105 
4091.000000	64.901471 
4090.000000	64.935111 
4089.000000	64.957571 
4088.000000	64.966607 
4087.000000	64.961314 
4086.000000	64.942455 
4085.000000	64.912581 
4084.000000	64.875555 
4083.000000	64.836168 
4082.000000	64.799141 
4081.000000	64.768481 
4080.000000	64.746761 
4079.000000	64.734673 
4078.000000	64.731097 
4077.000000	64.733743 
4076.000000	64.739847 
4075.000000	64.746642 
4074.000000	64.752602 
4073.000000	64.757370 
4072.000000	64.762353 
4071.000000	64.769434 
4070.000000	64.780735 
4069.000000	64.797544 
4068.000000	64.819717 
4067.000000	64.845538 
4066.000000	64.871978 
4065.000000	64.895367 
4064.000000	64.912104 
4063.000000	64.919352 
4062.000000	64.915776 
4061.000000	64.901733 
4060.000000	64.878916 
4059.000000	64.850020 
4058.000000	64.818429 
4057.000000	64.787340 
4056.000000	64.759802 
4055.000000	64.737701 
4054.000000	64.722156 
4053.000000	64.712810 
4052.000000	64.708590 
4051.000000	64.707636 
4050.000000	64.707231 
4049.000000	64.704918 
4048.000000	64.698719 
4047.000000	64.688086 
4046.000000	64.673686 
4045.000000	64.657688 
4044.000000	64.643168 
4043.000000	64.633178 
4042.000000	64.629745 
4041.000000	64.633059 
4040.000000	64.641237 
4039.000000	64.650774 
4038.000000	64.657378 
4037.000000	64.656972 
4036.000000	64.647078 
4035.000000	64.627361 
4034.000000	64.599943 
4033.000000	64.568686 
4032.000000	64.538311 
4031.000000	64.513325 
4030.000000	64.497280 
4029.000000	64.491844 
4028.000000	64.497065 
4027.000000	64.511322 
4026.000000	64.532208 
4025.000000	64.557385 
4024.000000	64.585041 
4023.000000	64.613699 
4022.000000	64.642643 
4021.000000	64.671230 
4020.000000	64.699244 
4019.000000	64.726114 
4018.000000	64.751505 
4017.000000	64.774894 
4016.000000	64.796161 
4015.000000	64.815592 
4014.000000	64.833641 
4013.000000	64.850902 
4012.000000	64.867424 
4011.000000	64.882755 
4010.000000	64.895606 
4009.000000	64.904141 
4008.000000	64.906167 
4007.000000	64.900255 
4006.000000	64.885902 
4005.000000	64.864587 
4004.000000	64.839744 
4003.000000	64.816784 
4002.000000	64.801836 
4001.000000	64.800620 
4000.000000	64.817094 
3999.000000	64.852571 
3998.000000	64.904952 
3997.000000	64.969134 
3996.000000	65.038132 
3995.000000	65.103626 
3994.000000	65.158152 
3993.000000	65.195631 
3992.000000	65.212845 
3991.000000	65.209102 
3990.000000	65.185999 
3989.000000	65.146851 
3988.000000	65.096235 
3987.000000	65.039014 
3986.000000	64.979815 
3985.000000	64.922618 
3984.000000	64.870810 
3983.000000	64.826703 
3982.000000	64.791774 
3981.000000	64.766478 
3980.000000	64.750289 
3979.000000	64.741611 
3978.000000	64.738416 
3977.000000	64.738488 
3976.000000	64.740228 
3975.000000	64.742612 
3974.000000	64.745569 
3973.000000	64.749813 
3972.000000	64.756417 
3971.000000	64.766454 
3970.000000	64.780020 
3969.000000	64.796090 
3968.000000	64.812040 
3967.000000	64.824390 
3966.000000	64.829015 
3965.000000	64.822125 
3964.000000	64.801216 
3963.000000	64.765739 
3962.000000	64.717650 
3961.000000	64.661335 
3960.000000	64.603185 
3959.000000	64.550375 
3958.000000	64.509606 
3957.000000	64.485764 
3956.000000	64.481258 
3955.000000	64.495635 
3954.000000	64.525127 
3953.000000	64.563465 
3952.000000	64.603233 
3951.000000	64.637637 
3950.000000	64.661169 
3949.000000	64.671111 
3948.000000	64.667296 
3947.000000	64.652419 
3946.000000	64.630913 
3945.000000	64.608025 
3944.000000	64.588570 
3943.000000	64.575982 
3942.000000	64.572286 
3941.000000	64.577651 
3940.000000	64.591073 
3939.000000	64.610576 
3938.000000	64.634013 
3937.000000	64.659452 
3936.000000	64.685320 
3935.000000	64.710831 
3934.000000	64.735531 
3933.000000	64.759778 
3932.000000	64.784169 
3931.000000	64.810204 
3930.000000	64.839458 
3929.000000	64.873766 
3928.000000	64.914464 
3927.000000	64.961624 
3926.000000	65.013456 
3925.000000	65.066552 
3924.000000	65.115833 
3923.000000	65.155696 
3922.000000	65.180873 
3921.000000	65.187764 
3920.000000	65.175008 
3919.000000	65.144443 
3918.000000	65.100383 
3917.000000	65.048789 
3916.000000	64.996099 
3915.000000	64.948153 
3914.000000	64.909291 
3913.000000	64.881706 
3912.000000	64.865851 
3911.000000	64.861035 
3910.000000	64.865565 
3909.000000	64.877653 
3908.000000	64.895057 
3907.000000	64.915490 
3906.000000	64.936256 
3905.000000	64.954137 
3904.000000	64.966511 
3903.000000	64.971423 
3902.000000	64.968299 
3901.000000	64.958024 
3900.000000	64.943027 
3899.000000	64.926290 
3898.000000	64.910745 
3897.000000	64.898347 
3896.000000	64.889621 
3895.000000	64.883637 
3894.000000	64.878177 
3893.000000	64.870476 
3892.000000	64.858436 
3891.000000	64.840984 
3890.000000	64.818358 
3889.000000	64.792060 
3888.000000	64.764261 
3887.000000	64.737200 
3886.000000	64.712476 
3885.000000	64.691138 
3884.000000	64.673519 
3883.000000	64.659929 
3882.000000	64.650893 
3881.000000	64.647507 
3880.000000	64.650940 
3879.000000	64.662504 
3878.000000	64.682888 
3877.000000	64.712071 
3876.000000	64.748668 
3875.000000	64.790177 
3874.000000	64.833092 
3873.000000	64.873409 
3872.000000	64.907097 
3871.000000	64.930796 
3870.000000	64.942026 
3869.000000	64.939689 
3868.000000	64.923977 
3867.000000	64.896416 
3866.000000	64.859509 
3865.000000	64.816260 
3864.000000	64.769768 
3863.000000	64.723324 
3862.000000	64.679574 
3861.000000	64.640617 
3860.000000	64.607906 
3859.000000	64.582109 
3858.000000	64.563822 
3857.000000	64.553189 
3856.000000	64.550709 
3855.000000	64.556717 
3854.000000	64.571690 
3853.000000	64.595484 
3852.000000	64.627385 
3851.000000	64.665603 
3850.000000	64.707612 
3849.000000	64.749860 
3848.000000	64.788532 
3847.000000	64.819931 
3846.000000	64.840936 
3845.000000	64.849615 
3844.000000	64.845538 
3843.000000	64.829897 
3842.000000	64.805436 
3841.000000	64.776015 
3840.000000	64.745998 
3839.000000	64.719319 
3838.000000	64.699006 
3837.000000	64.686632 
3836.000000	64.682364 
3835.000000	64.685082 
3834.000000	64.692759 
3833.000000	64.703321 
3832.000000	64.715170 
3831.000000	64.727544 
3830.000000	64.740514 
3829.000000	64.754772 
3828.000000	64.771151 
3827.000000	64.790010 
3826.000000	64.810633 
3825.000000	64.831542 
3824.000000	64.850449 
3823.000000	64.865446 
3822.000000	64.875388 
3821.000000	64.880466 
3820.000000	64.881944 
3819.000000	64.881968 
3818.000000	64.882659 
3817.000000	64.885258 
3816.000000	64.889812 
3815.000000	64.895415 
3814.000000	64.900636 
3813.000000	64.904117 
3812.000000	64.904928 
3811.000000	64.903259 
3810.000000	64.900255 
3809.000000	64.897441 
3808.000000	64.896345 
3807.000000	64.897799 
3806.000000	64.901733 
3805.000000	64.907264 
3804.000000	64.912962 
3803.000000	64.917731 
3802.000000	64.920878 
3801.000000	64.922904 
3800.000000	64.924788 
3799.000000	64.927816 
3798.000000	64.932799 
3797.000000	64.939785 
3796.000000	64.948058 
3795.000000	64.956259 
3794.000000	64.962935 
3793.000000	64.966750 
3792.000000	64.966678 
3791.000000	64.962005 
3790.000000	64.952230 
3789.000000	64.937162 
3788.000000	64.916706 
3787.000000	64.891076 
3786.000000	64.860916 
3785.000000	64.827156 
3784.000000	64.791607 
3783.000000	64.756512 
3782.000000	64.724254 
3781.000000	64.697360 
3780.000000	64.678072 
3779.000000	64.667987 
3778.000000	64.667749 
3777.000000	64.677143 
3776.000000	64.695024 
3775.000000	64.719820 
3774.000000	64.749360 
3773.000000	64.781498 
3772.000000	64.814138 
3771.000000	64.845538 
3770.000000	64.874196 
3769.000000	64.899492 
3768.000000	64.921450 
3767.000000	64.940857 
3766.000000	64.958691 
3765.000000	64.975857 
3764.000000	64.992594 
3763.000000	65.008258 
3762.000000	65.021324 
3761.000000	65.029692 
3760.000000	65.031147 
3759.000000	65.024161 
3758.000000	65.008115 
3757.000000	64.983820 
3756.000000	64.953327 
3755.000000	64.919996 
3754.000000	64.887809 
3753.000000	64.860630 
3752.000000	64.841747 
3751.000000	64.833474 
3750.000000	64.836502 
3749.000000	64.849805 
3748.000000	64.870858 
3747.000000	64.896130 
3746.000000	64.921736 
3745.000000	64.944005 
3744.000000	64.960026 
3743.000000	64.968037 
3742.000000	64.968061 
3741.000000	64.961695 
3740.000000	64.951515 
3739.000000	64.940333 
3738.000000	64.930367 
3737.000000	64.922714 
3736.000000	64.917087 
3735.000000	64.911913 
3734.000000	64.905500 
3733.000000	64.896368 
3732.000000	64.884281 
3731.000000	64.870429 
3730.000000	64.856934 
3729.000000	64.846968 
3728.000000	64.843320 
3727.000000	64.848279 
3726.000000	64.863061 
3725.000000	64.887619 
3724.000000	64.920830 
3723.000000	64.960312 
3722.000000	65.003037 
3721.000000	65.045285 
3720.000000	65.083289 
3719.000000	65.113282 
3718.000000	65.131974 
3717.000000	65.137052 
3716.000000	65.127706 
3715.000000	65.105199 
3714.000000	65.072655 
3713.000000	65.034914 
3712.000000	64.997553 
3711.000000	64.965844 
3710.000000	64.943480 
3709.000000	64.931941 
3708.000000	64.930462 
3707.000000	64.936447 
3706.000000	64.946603 
3705.000000	64.957809 
3704.000000	64.967989 
3703.000000	64.976191 
3702.000000	64.982819 
3701.000000	64.988636 
3700.000000	64.994645 
3699.000000	65.001106 
3698.000000	65.007662 
3697.000000	65.013384 
3696.000000	65.017223 
3695.000000	65.018415 
3694.000000	65.016937 
3693.000000	65.013551 
3692.000000	65.009641 
3691.000000	65.006947 
3690.000000	65.007114 
3689.000000	65.010738 
3688.000000	65.017771 
3687.000000	65.027523 
3686.000000	65.038800 
3685.000000	65.050148 
3684.000000	65.060257 
3683.000000	65.068006 
3682.000000	65.072751 
3681.000000	65.074276 
3680.000000	65.072393 
3679.000000	65.067553 
3678.000000	65.060567 
3677.000000	65.052938 
3676.000000	65.046715 
3675.000000	65.044116 
3674.000000	65.047216 
3673.000000	65.057277 
3672.000000	65.074205 
3671.000000	65.096187 
3670.000000	65.119862 
3669.000000	65.140867 
3668.000000	65.155124 
3667.000000	65.159463 
3666.000000	65.152478 
3665.000000	65.134906 
3664.000000	65.109324 
3663.000000	65.079545 
3662.000000	65.049457 
3661.000000	65.022397 
3660.000000	65.000605 
3659.000000	64.984846 
3658.000000	64.974808 
3657.000000	64.969444 
3656.000000	64.967632 
3655.000000	64.968490 
3654.000000	64.971590 
3653.000000	64.976406 
3652.000000	64.982581 
3651.000000	64.989185 
3650.000000	64.995145 
3649.000000	64.999127 
3648.000000	65.000009 
3647.000000	64.997243 
3646.000000	64.990735 
3645.000000	64.980697 
3644.000000	64.967632 
3643.000000	64.951920 
3642.000000	64.933943 
3641.000000	64.913845 
3640.000000	64.891862 
3639.000000	64.868497 
3638.000000	64.844727 
3637.000000	64.821910 
3636.000000	64.801478 
3635.000000	64.784622 
3634.000000	64.772152 
3633.000000	64.764332 
3632.000000	64.760899 
3631.000000	64.761328 
3630.000000	64.765405 
3629.000000	64.773511 
3628.000000	64.786720 
3627.000000	64.806509 
3626.000000	64.834117 
3625.000000	64.869761 
3624.000000	64.912223 
3623.000000	64.958643 
3622.000000	65.004801 
3621.000000	65.046191 
3620.000000	65.078902 
3619.000000	65.100693 
3618.000000	65.111613 
3617.000000	65.113806 
3616.000000	65.111207 
3615.000000	65.108203 
3614.000000	65.108656 
3613.000000	65.114665 
3612.000000	65.126252 
3611.000000	65.141320 
3610.000000	65.156459 
3609.000000	65.167737 
3608.000000	65.171861 
3607.000000	65.166831 
3606.000000	65.152287 
3605.000000	65.129327 
3604.000000	65.100216 
3603.000000	65.067553 
3602.000000	65.034103 
3601.000000	65.002226 
3600.000000	64.973878 
3599.000000	64.950871 
3598.000000	64.934897 
3597.000000	64.927458 
3596.000000	64.929413 
3595.000000	64.941120 
3594.000000	64.961624 
3593.000000	64.988684 
3592.000000	65.018749 
3591.000000	65.047502 
3590.000000	65.070390 
3589.000000	65.083622 
3588.000000	65.084481 
3587.000000	65.072178 
3586.000000	65.047407 
3585.000000	65.012574 
3584.000000	64.970707 
3583.000000	64.925169 
3582.000000	64.878988 
3581.000000	64.834690 
3580.000000	64.794230 
3579.000000	64.759111 
3578.000000	64.730238 
3577.000000	64.708280 
3576.000000	64.693307 
3575.000000	64.684987 
3574.000000	64.682102 
3573.000000	64.682936 
3572.000000	64.685225 
3571.000000	64.687013 
3570.000000	64.686608 
3569.000000	64.683818 
3568.000000	64.679598 
3567.000000	64.676380 
3566.000000	64.677166 
3565.000000	64.685297 
3564.000000	64.703249 
3563.000000	64.732146 
3562.000000	64.771199 
3561.000000	64.817833 
3560.000000	64.868330 
3559.000000	64.917969 
3558.000000	64.962244 
3557.000000	64.997220 
3556.000000	65.020370 
3555.000000	65.030503 
3554.000000	65.027904 
3553.000000	65.014052 
3552.000000	64.991235 
3551.000000	64.962553 
3550.000000	64.931440 
3549.000000	64.901185 
3548.000000	64.874315 
3547.000000	64.852809 
3546.000000	64.837694 
3545.000000	64.828562 
3544.000000	64.823937 
3543.000000	64.821529 
3542.000000	64.818859 
3541.000000	64.813995 
3540.000000	64.805793 
3539.000000	64.794373 
3538.000000	64.780688 
3537.000000	64.766478 
3536.000000	64.753341 
3535.000000	64.742112 
3534.000000	64.732789 
3533.000000	64.724516 
3532.000000	64.715981 
3531.000000	64.705777 
3530.000000	64.693355 
3529.000000	64.679121 
3528.000000	64.664840 
3527.000000	64.653038 
3526.000000	64.646911 
3525.000000	64.649605 
3524.000000	64.663434 
3523.000000	64.689230 
3522.000000	64.726638 
3521.000000	64.773821 
3520.000000	64.827895 
3519.000000	64.885210 
3518.000000	64.941883 
3517.000000	64.994144 
3516.000000	65.038847 
3515.000000	65.073466 
3514.000000	65.096426 
3513.000000	65.106844 
3512.000000	65.105128 
3511.000000	65.092349 
3510.000000	65.070414 
3509.000000	65.041804 
3508.000000	65.009617 
3507.000000	64.977288 
3506.000000	64.948225 
3505.000000	64.925503 
3504.000000	64.911746 
3503.000000	64.908599 
3502.000000	64.916467 
3501.000000	64.934301 
3500.000000	64.959621 
3499.000000	64.988565 
3498.000000	65.016365 
3497.000000	65.038108 
3496.000000	65.049481 
3495.000000	65.047645 
3494.000000	65.031838 
3493.000000	65.003514 
3492.000000	64.966034 
3491.000000	64.924001 
3490.000000	64.882493 
3489.000000	64.845895 
3488.000000	64.817428 
3487.000000	64.798879 
3486.000000	64.790630 
3485.000000	64.791822 
3484.000000	64.800596 
3483.000000	64.815020 
3482.000000	64.832782 
3481.000000	64.851522 
3480.000000	64.868927 
3479.000000	64.882707 
3478.000000	64.890861 
3477.000000	64.891648 
3476.000000	64.884376 
3475.000000	64.869618 
3474.000000	64.849185 
3473.000000	64.826011 
3472.000000	64.803290 
3471.000000	64.783930 
3470.000000	64.769649 
3469.000000	64.760947 
3468.000000	64.757037 
3467.000000	64.756727 
3466.000000	64.758586 
3465.000000	64.761853 
3464.000000	64.766478 
3463.000000	64.773201 
3462.000000	64.783215 
3461.000000	64.797711 
3460.000000	64.817190 
3459.000000	64.841198 
3458.000000	64.868688 
3457.000000	64.897418 
3456.000000	64.924645 
3455.000000	64.947128 
3454.000000	64.962387 
3453.000000	64.968156 
3452.000000	64.963030 
3451.000000	64.946365 
3450.000000	64.918565 
3449.000000	64.881134 
3448.000000	64.836454 
3447.000000	64.787721 
3446.000000	64.738488 
3445.000000	64.692068 
3444.000000	64.651036 
3443.000000	64.616918 
3442.000000	64.590096 
3441.000000	64.569878 
3440.000000	64.555191 
3439.000000	64.544939 
3438.000000	64.538717 
3437.000000	64.536571 
3436.000000	64.539623 
3435.000000	64.548754 
3434.000000	64.565324 
3433.000000	64.589691 
3432.000000	64.621949 
3431.000000	64.660811 
3430.000000	64.704465 
3429.000000	64.750933 
3428.000000	64.798331 
3427.000000	64.844918 
3426.000000	64.889264 
3425.000000	64.930129 
3424.000000	64.966320 
3423.000000	64.996576 
3422.000000	65.019607 
3421.000000	65.034365 
3420.000000	65.040397 
3419.000000	65.038371 
3418.000000	65.029954 
3417.000000	65.017771 
3416.000000	65.005230 
3415.000000	64.995765 
3414.000000	64.992165 
3413.000000	64.995884 
3412.000000	65.007019 
3411.000000	65.023970 
3410.000000	65.044116 
3409.000000	65.063953 
3408.000000	65.080094 
3407.000000	65.089392 
3406.000000	65.089511 
3405.000000	65.079331 
3404.000000	65.058588 
3403.000000	65.028524 
3402.000000	64.991450 
3401.000000	64.950895 
3400.000000	64.910984 
3399.000000	64.876294 
3398.000000	64.851236 
3397.000000	64.839148 
3396.000000	64.841628 
3395.000000	64.858365 
3394.000000	64.887332 
3393.000000	64.924883 
3392.000000	64.966177 
3391.000000	65.006208 
3390.000000	65.040802 
3389.000000	65.066719 
3388.000000	65.082120 
3387.000000	65.086364 
3386.000000	65.079808 
3385.000000	65.063357 
3384.000000	65.038371 
3383.000000	65.006613 
3382.000000	64.969992 
3381.000000	64.931035 
3380.000000	64.892721 
3379.000000	64.858317 
3378.000000	64.830970 
3377.000000	64.813208 
3376.000000	64.806509 
3375.000000	64.810943 
3374.000000	64.825177 
3373.000000	64.846324 
3372.000000	64.870619 
3371.000000	64.893698 
3370.000000	64.911580 
3369.000000	64.921212 
3368.000000	64.921092 
3367.000000	64.911270 
3366.000000	64.893627 
3365.000000	64.871168 
3364.000000	64.847874 
3363.000000	64.827752 
3362.000000	64.814138 
3361.000000	64.809131 
3360.000000	64.813470 
3359.000000	64.826416 
3358.000000	64.845895 
3357.000000	64.869117 
3356.000000	64.893221 
3355.000000	64.915776 
3354.000000	64.935207 
3353.000000	64.950656 
3352.000000	64.961957 
3351.000000	64.969182 
3350.000000	64.972496 
3349.000000	64.972138 
3348.000000	64.968180 
3347.000000	64.960813 
3346.000000	64.950728 
3345.000000	64.938855 
3344.000000	64.926767 
3343.000000	64.916133 
3342.000000	64.908432 
3341.000000	64.904856 
3340.000000	64.905786 
3339.000000	64.910769 
3338.000000	64.918518 
3337.000000	64.927339 
3336.000000	64.935398 
3335.000000	64.941096 
3334.000000	64.943242 
3333.000000	64.941382 
3332.000000	64.935660 
3331.000000	64.926624 
3330.000000	64.915084 
3329.000000	64.901900 
3328.000000	64.887905 
3327.000000	64.873981 
3326.000000	64.860773 
3325.000000	64.849209 
3324.000000	64.839744 
3323.000000	64.832639 
3322.000000	64.827489 
3321.000000	64.823079 
3320.000000	64.817738 
3319.000000	64.809250 
3318.000000	64.796376 
3317.000000	64.778804 
3316.000000	64.758205 
3315.000000	64.737749 
3314.000000	64.721560 
3313.000000	64.713597 
3312.000000	64.716482 
3311.000000	64.730572 
3310.000000	64.753484 
3309.000000	64.780449 
3308.000000	64.805436 
3307.000000	64.822697 
3306.000000	64.828109 
3305.000000	64.820146 
3304.000000	64.800262 
3303.000000	64.772558 
3302.000000	64.742541 
3301.000000	64.716005 
3300.000000	64.697456 
3299.000000	64.689302 
3298.000000	64.691877 
3297.000000	64.703369 
3296.000000	64.720940 
3295.000000	64.741373 
3294.000000	64.761710 
3293.000000	64.779782 
3292.000000	64.794111 
3291.000000	64.804267 
3290.000000	64.810156 
3289.000000	64.812159 
3288.000000	64.810705 
3287.000000	64.806461 
3286.000000	64.800214 
3285.000000	64.793109 
3284.000000	64.786553 
3283.000000	64.781975 
3282.000000	64.780449 
3281.000000	64.782619 
3280.000000	64.788532 
3279.000000	64.797425 
3278.000000	64.808058 
3277.000000	64.818859 
3276.000000	64.828467 
3275.000000	64.835762 
3274.000000	64.840364 
3273.000000	64.842462 
3272.000000	64.842724 
3271.000000	64.842247 
3270.000000	64.841914 
3269.000000	64.842534 
3268.000000	64.844226 
3267.000000	64.846396 
3266.000000	64.847755 
3265.000000	64.846730 
3264.000000	64.841842 
3263.000000	64.832425 
3262.000000	64.818882 
3261.000000	64.802551 
3260.000000	64.785790 
3259.000000	64.771604 
3258.000000	64.762830 
3257.000000	64.761471 
3256.000000	64.768362 
3255.000000	64.782905 
3254.000000	64.803242 
3253.000000	64.826464 
3252.000000	64.849400 
3251.000000	64.869189 
3250.000000	64.883637 
3249.000000	64.891910 
3248.000000	64.894151 
3247.000000	64.891576 
3246.000000	64.886093 
3245.000000	64.879679 
3244.000000	64.874362 
3243.000000	64.871287 
3242.000000	64.871191 
3241.000000	64.873671 
3240.000000	64.877510 
3239.000000	64.880561 
3238.000000	64.880561 
3237.000000	64.875316 
3236.000000	64.863228 
3235.000000	64.843606 
3234.000000	64.816999 
3233.000000	64.785051 
3232.000000	64.750504 
3231.000000	64.716482 
3230.000000	64.685940 
3229.000000	64.661216 
3228.000000	64.643597 
3227.000000	64.633274 
3226.000000	64.629411 
3225.000000	64.630603 
3224.000000	64.635491 
3223.000000	64.642786 
3222.000000	64.651823 
3221.000000	64.662170 
3220.000000	64.674019 
3219.000000	64.687323 
3218.000000	64.702415 
3217.000000	64.719581 
3216.000000	64.739322 
3215.000000	64.762115 
3214.000000	64.788079 
3213.000000	64.817023 
3212.000000	64.847612 
3211.000000	64.878058 
3210.000000	64.905452 
3209.000000	64.926457 
3208.000000	64.937686 
3207.000000	64.936733 
3206.000000	64.922523 
3205.000000	64.895749 
3204.000000	64.858913 
3203.000000	64.815855 
3202.000000	64.770865 
3201.000000	64.727854 
3200.000000	64.689874 
3199.000000	64.658856 
3198.000000	64.635396 
3197.000000	64.619255 
3196.000000	64.609813 
3195.000000	64.606523 
3194.000000	64.608788 
3193.000000	64.616036 
3192.000000	64.627146 
3191.000000	64.640808 
3190.000000	64.655113 
3189.000000	64.668440 
3188.000000	64.679193 
3187.000000	64.686632 
3186.000000	64.690947 
3185.000000	64.693474 
3184.000000	64.696168 
3183.000000	64.700913 
3182.000000	64.709329 
3181.000000	64.721775 
3180.000000	64.737439 
3179.000000	64.754271 
3178.000000	64.769840 
3177.000000	64.781832 
3176.000000	64.788722 
3175.000000	64.790320 
3174.000000	64.788007 
3173.000000	64.784145 
3172.000000	64.781570 
3171.000000	64.782786 
3170.000000	64.789199 
3169.000000	64.800953 
3168.000000	64.817070 
3167.000000	64.835453 
3166.000000	64.853549 
3165.000000	64.869046 
3164.000000	64.880514 
3163.000000	64.887285 
3162.000000	64.889574 
3161.000000	64.888286 
3160.000000	64.884519 
3159.000000	64.879417 
3158.000000	64.873838 
3157.000000	64.868235 
3156.000000	64.862728 
3155.000000	64.857268 
3154.000000	64.851593 
3153.000000	64.845442 
3152.000000	64.838433 
3151.000000	64.830231 
3150.000000	64.820265 
3149.000000	64.808058 
3148.000000	64.793157 
3147.000000	64.775466 
3146.000000	64.755272 
3145.000000	64.733123 
3144.000000	64.710330 
3143.000000	64.688801 
3142.000000	64.670562 
3141.000000	64.657759 
3140.000000	64.652276 
3139.000000	64.655566 
3138.000000	64.668297 
3137.000000	64.690279 
3136.000000	64.720296 
3135.000000	64.756178 
3134.000000	64.794802 
3133.000000	64.832639 
3132.000000	64.865851 
3131.000000	64.891171 
3130.000000	64.906239 
3129.000000	64.910101 
3128.000000	64.903593 
3127.000000	64.889073 
3126.000000	64.870309 
3125.000000	64.851069 
3124.000000	64.834570 
3123.000000	64.822435 
3122.000000	64.814734 
3121.000000	64.809632 
3120.000000	64.804267 
3119.000000	64.795494 
3118.000000	64.781069 
3117.000000	64.759993 
3116.000000	64.733123 
3115.000000	64.703011 
3114.000000	64.673399 
3113.000000	64.648151 
3112.000000	64.630699 
3111.000000	64.623045 
3110.000000	64.625835 
3109.000000	64.637994 
3108.000000	64.657235 
3107.000000	64.680647 
3106.000000	64.705204 
3105.000000	64.728617 
3104.000000	64.749431 
3103.000000	64.766860 
3102.000000	64.781165 
3101.000000	64.793038 
3100.000000	64.803361 
3099.000000	64.812850 
3098.000000	64.821648 
3097.000000	64.829421 
3096.000000	64.835381 
3095.000000	64.838719 
3094.000000	64.839029 
3093.000000	64.836478 
3092.000000	64.832282 
3091.000000	64.828467 
3090.000000	64.827680 
3089.000000	64.832425 
3088.000000	64.844655 
3087.000000	64.864945 
3086.000000	64.892244 
3085.000000	64.923906 
3084.000000	64.956235 
3083.000000	64.984965 
3082.000000	65.006279 
3081.000000	65.017437 
3080.000000	65.017318 
3079.000000	65.006780 
3078.000000	64.988064 
3077.000000	64.964413 
3076.000000	64.939308 
3075.000000	64.915943 
3074.000000	64.897084 
3073.000000	64.884400 
3072.000000	64.878726 
3071.000000	64.879870 
3070.000000	64.887022 
3069.000000	64.898753 
3068.000000	64.913201 
3067.000000	64.928174 
3066.000000	64.941287 
3065.000000	64.950370 
3064.000000	64.953637 
3063.000000	64.949870 
3062.000000	64.938902 
3061.000000	64.921641 
3060.000000	64.899945 
3059.000000	64.876341 
3058.000000	64.853549 
3057.000000	64.834189 
3056.000000	64.820075 
3055.000000	64.812350 
3054.000000	64.811038 
3053.000000	64.815282 
3052.000000	64.823412 
3051.000000	64.833426 
3050.000000	64.843416 
3049.000000	64.851498 
3048.000000	64.856386 
3047.000000	64.857244 
3046.000000	64.854049 
3045.000000	64.847326 
3044.000000	64.838171 
3043.000000	64.827919 
3042.000000	64.818072 
3041.000000	64.810013 
3040.000000	64.805006 
3039.000000	64.803910 
3038.000000	64.806962 
3037.000000	64.814138 
3036.000000	64.824914 
3035.000000	64.838552 
3034.000000	64.854264 
3033.000000	64.871168 
3032.000000	64.888238 
3031.000000	64.904475 
3030.000000	64.918923 
3029.000000	64.930725 
3028.000000	64.938950 
3027.000000	64.942836 
3026.000000	64.942121 
3025.000000	64.936661 
3024.000000	64.926862 
3023.000000	64.913463 
3022.000000	64.897513 
3021.000000	64.880347 
3020.000000	64.863300 
3019.000000	64.847564 
3018.000000	64.834022 
3017.000000	64.823150 
3016.000000	64.815163 
3015.000000	64.809799 
3014.000000	64.806532 
3013.000000	64.804482 
3012.000000	64.802694 
3011.000000	64.800453 
3010.000000	64.797377 
3009.000000	64.793872 
3008.000000	64.791011 
3007.000000	64.790582 
3006.000000	64.794516 
3005.000000	64.804530 
3004.000000	64.821338 
3003.000000	64.844298 
3002.000000	64.871144 
3001.000000	64.898657 
3000.000000	64.922666 
2999.000000	64.939260 
2998.000000	64.945292 
2997.000000	64.939427 
2996.000000	64.922022 
2995.000000	64.895224 
2994.000000	64.862418 
2993.000000	64.827513 
2992.000000	64.794111 
2991.000000	64.765191 
2990.000000	64.742660 
2989.000000	64.727306 
2988.000000	64.719104 
2987.000000	64.717507 
2986.000000	64.721369 
2985.000000	64.729285 
2984.000000	64.739584 
2983.000000	64.750599 
2982.000000	64.760613 
2981.000000	64.768218 
2980.000000	64.772462 
2979.000000	64.772796 
2978.000000	64.769315 
2977.000000	64.762163 
2976.000000	64.751839 
2975.000000	64.738607 
2974.000000	64.722824 
2973.000000	64.704537 
2972.000000	64.683938 
2971.000000	64.661478 
2970.000000	64.638161 
2969.000000	64.615631 
2968.000000	64.595890 
2967.000000	64.581108 
2966.000000	64.573121 
2965.000000	64.573144 
2964.000000	64.581274 
2963.000000	64.596700 
2962.000000	64.617633 
2961.000000	64.642095 
2960.000000	64.668035 
2959.000000	64.693856 
2958.000000	64.718556 
2957.000000	64.741659 
2956.000000	64.763188 
2955.000000	64.783453 
2954.000000	64.802670 
2953.000000	64.820790 
2952.000000	64.837479 
2951.000000	64.851856 
2950.000000	64.862799 
2949.000000	64.869236 
2948.000000	64.870214 
2947.000000	64.865446 
2946.000000	64.855051 
2945.000000	64.840102 
2944.000000	64.822030 
2943.000000	64.802694 
2942.000000	64.783859 
2941.000000	64.767074 
2940.000000	64.753389 
2939.000000	64.743113 
2938.000000	64.735794 
2937.000000	64.730691 
2936.000000	64.726662 
2935.000000	64.722657 
2934.000000	64.717864 
2933.000000	64.711761 
2932.000000	64.704370 
2931.000000	64.695835 
2930.000000	64.686560 
2929.000000	64.677023 
2928.000000	64.667940 
2927.000000	64.660239 
2926.000000	64.654970 
2925.000000	64.653086 
2924.000000	64.655423 
2923.000000	64.662361 
2922.000000	64.673590 
2921.000000	64.688110 
2920.000000	64.704370 
2919.000000	64.720344 
2918.000000	64.734125 
2917.000000	64.744281 
2916.000000	64.750027 
2915.000000	64.751553 
2914.000000	64.749836 
2913.000000	64.746379 
2912.000000	64.742994 
2911.000000	64.741182 
2910.000000	64.741873 
2909.000000	64.745306 
2908.000000	64.751195 
2907.000000	64.758801 
2906.000000	64.767217 
2905.000000	64.775681 
2904.000000	64.783644 
2903.000000	64.790725 
2902.000000	64.796781 
2901.000000	64.801573 
2900.000000	64.804768 
2899.000000	64.805841 
2898.000000	64.804458 
2897.000000	64.800453 
2896.000000	64.794039 
2895.000000	64.786267 
2894.000000	64.778780 
2893.000000	64.773607 
2892.000000	64.772677 
2891.000000	64.777588 
2890.000000	64.788699 
2889.000000	64.805150 
2888.000000	64.824557 
2887.000000	64.843654 
2886.000000	64.858603 
2885.000000	64.865851 
2884.000000	64.862895 
2883.000000	64.848685 
2882.000000	64.824080 
2881.000000	64.791607 
2880.000000	64.755058 
2879.000000	64.718770 
2878.000000	64.686846 
2877.000000	64.662742 
2876.000000	64.648604 
2875.000000	64.644980 
2874.000000	64.651322 
2873.000000	64.666199 
2872.000000	64.687490 
2871.000000	64.712858 
2870.000000	64.739942 
2869.000000	64.766788 
2868.000000	64.791631 
2867.000000	64.813232 
2866.000000	64.830803 
2865.000000	64.844226 
2864.000000	64.853930 
2863.000000	64.860892 
2862.000000	64.866566 
2861.000000	64.872360 
2860.000000	64.879703 
2859.000000	64.889311 
2858.000000	64.901089 
2857.000000	64.913845 
2856.000000	64.925789 
2855.000000	64.934563 
2854.000000	64.937925 
2853.000000	64.934110 
2852.000000	64.922213 
2851.000000	64.902448 
2850.000000	64.875912 
2849.000000	64.844560 
2848.000000	64.810872 
2847.000000	64.777493 
2846.000000	64.746880 
2845.000000	64.721202 
2844.000000	64.702129 
2843.000000	64.690279 
2842.000000	64.685511 
2841.000000	64.686608 
2840.000000	64.691781 
2839.000000	64.698648 
2838.000000	64.705014 
2837.000000	64.708781 
2836.000000	64.709067 
2835.000000	64.705896 
2834.000000	64.700508 
2833.000000	64.695000 
2832.000000	64.691686 
2831.000000	64.692711 
2830.000000	64.699172 
2829.000000	64.711070 
2828.000000	64.726972 
2827.000000	64.744305 
2826.000000	64.759993 
2825.000000	64.771103 
2824.000000	64.775609 
2823.000000	64.772725 
2822.000000	64.763283 
2821.000000	64.749383 
2820.000000	64.734172 
2819.000000	64.721250 
2818.000000	64.713907 
2817.000000	64.714479 
2816.000000	64.724111 
2815.000000	64.742445 
2814.000000	64.767909 
2813.000000	64.797902 
2812.000000	64.829301 
2811.000000	64.859104 
2810.000000	64.884591 
2809.000000	64.904022 
2808.000000	64.916634 
2807.000000	64.922881 
2806.000000	64.923954 
2805.000000	64.921855 
2804.000000	64.918994 
2803.000000	64.917516 
2802.000000	64.919304 
2801.000000	64.925193 
2800.000000	64.935088 
2799.000000	64.947724 
2798.000000	64.961075 
2797.000000	64.972758 
2796.000000	64.980268 
2795.000000	64.981627 
2794.000000	64.975738 
2793.000000	64.962387 
2792.000000	64.942288 
2791.000000	64.916968 
2790.000000	64.888405 
2789.000000	64.858818 
2788.000000	64.830327 
2787.000000	64.804911 
2786.000000	64.784121 
2785.000000	64.768910 
2784.000000	64.759898 
2783.000000	64.756774 
2782.000000	64.759206 
2781.000000	64.766573 
2780.000000	64.778280 
2779.000000	64.793443 
2778.000000	64.811182 
2777.000000	64.830303 
2776.000000	64.849615 
2775.000000	64.867711 
2774.000000	64.883208 
2773.000000	64.894890 
2772.000000	64.902043 
2771.000000	64.904546 
2770.000000	64.902901 
2769.000000	64.898204 
2768.000000	64.891862 
2767.000000	64.885425 
2766.000000	64.880394 
2765.000000	64.877891 
2764.000000	64.878654 
2763.000000	64.882898 
2762.000000	64.890360 
2761.000000	64.900231 
2760.000000	64.911532 
2759.000000	64.922904 
2758.000000	64.932775 
2757.000000	64.939546 
2756.000000	64.941954 
2755.000000	64.939284 
2754.000000	64.931464 
2753.000000	64.919519 
2752.000000	64.905214 
2751.000000	64.890861 
2750.000000	64.878845 
2749.000000	64.871025 
2748.000000	64.868283 
2747.000000	64.870381 
2746.000000	64.875841 
2745.000000	64.882397 
2744.000000	64.887475 
2743.000000	64.888834 
2742.000000	64.885210 
2741.000000	64.876365 
2740.000000	64.863276 
2739.000000	64.847731 
2738.000000	64.832019 
2737.000000	64.818239 
2736.000000	64.807987 
2735.000000	64.802289 
2734.000000	64.801406 
2733.000000	64.804983 
2732.000000	64.812231 
2731.000000	64.821815 
2730.000000	64.832448 
2729.000000	64.842438 
2728.000000	64.850449 
2727.000000	64.855384 
2726.000000	64.856863 
2725.000000	64.855027 
2724.000000	64.850950 
2723.000000	64.846301 
2722.000000	64.843010 
2721.000000	64.842796 
2720.000000	64.846587 
2719.000000	64.854264 
2718.000000	64.864659 
2717.000000	64.875745 
2716.000000	64.885091 
2715.000000	64.890408 
2714.000000	64.890289 
2713.000000	64.884424 
2712.000000	64.873743 
2711.000000	64.860033 
2710.000000	64.845538 
2709.000000	64.832282 
2708.000000	64.821624 
2707.000000	64.814186 
2706.000000	64.809846 
2705.000000	64.807868 
2704.000000	64.807677 
2703.000000	64.808702 
2702.000000	64.810848 
2701.000000	64.814138 
2700.000000	64.818692 
2699.000000	64.824247 
2698.000000	64.829874 
2697.000000	64.834308 
2696.000000	64.836096 
2695.000000	64.834189 
2694.000000	64.828157 
2693.000000	64.818501 
2692.000000	64.806771 
2691.000000	64.794969 
2690.000000	64.785265 
2689.000000	64.779400 
2688.000000	64.778113 
2687.000000	64.781212 
2686.000000	64.787650 
2685.000000	64.795970 
2684.000000	64.804792 
2683.000000	64.813184 
2682.000000	64.820742 
2681.000000	64.827442 
2680.000000	64.833188 
2679.000000	64.837765 
2678.000000	64.840364 
2677.000000	64.839982 
2676.000000	64.835381 
2675.000000	64.825820 
2674.000000	64.811182 
2673.000000	64.792346 
2672.000000	64.770817 
2671.000000	64.748764 
2670.000000	64.728331 
2669.000000	64.711236 
2668.000000	64.698553 
2667.000000	64.690446 
2666.000000	64.686632 
2665.000000	64.686274 
2664.000000	64.688754 
2663.000000	64.693641 
2662.000000	64.701032 
2661.000000	64.711165 
2660.000000	64.724373 
2659.000000	64.740586 
2658.000000	64.759397 
2657.000000	64.779806 
2656.000000	64.800548 
2655.000000	64.820170 
2654.000000	64.837455 
2653.000000	64.851403 
2652.000000	64.861536 
2651.000000	64.867615 
2650.000000	64.869642 
2649.000000	64.867782 
2648.000000	64.862155 
2647.000000	64.853024 
2646.000000	64.841008 
2645.000000	64.827227 
2644.000000	64.813375 
2643.000000	64.801478 
2642.000000	64.793682 
2641.000000	64.791631 
2640.000000	64.796185 
2639.000000	64.807128 
2638.000000	64.823079 
2637.000000	64.841651 
2636.000000	64.860057 
2635.000000	64.875602 
2634.000000	64.886236 
2633.000000	64.891052 
2632.000000	64.890432 
2631.000000	64.886045 
2630.000000	64.880299 
2629.000000	64.875698 
2628.000000	64.874267 
2627.000000	64.876961 
2626.000000	64.883089 
2625.000000	64.890623 
2624.000000	64.896392 
2623.000000	64.897131 
2622.000000	64.889931 
2621.000000	64.873266 
2620.000000	64.847493 
2619.000000	64.814782 
2618.000000	64.778900 
2617.000000	64.744305 
2616.000000	64.715433 
2615.000000	64.695572 
2614.000000	64.686393 
2613.000000	64.687609 
2612.000000	64.697027 
2611.000000	64.711427 
2610.000000	64.727163 
2609.000000	64.741039 
2608.000000	64.751052 
2607.000000	64.756584 
2606.000000	64.758229 
2605.000000	64.757490 
2604.000000	64.755868 
2603.000000	64.754366 
2602.000000	64.753198 
2601.000000	64.751625 
2600.000000	64.748120 
2599.000000	64.741063 
2598.000000	64.729309 
2597.000000	64.712786 
2596.000000	64.692449 
2595.000000	64.670276 
2594.000000	64.648938 
2593.000000	64.631199 
2592.000000	64.619064 
2591.000000	64.613819 
2590.000000	64.615368 
2589.000000	64.622616 
2588.000000	64.633560 
2587.000000	64.645957 
2586.000000	64.657735 
2585.000000	64.667367 
2584.000000	64.673876 
2583.000000	64.677143 
2582.000000	64.677500 
2581.000000	64.675712 
2580.000000	64.672803 
2579.000000	64.669704 
2578.000000	64.667248 
2577.000000	64.666175 
2576.000000	64.667081 
2575.000000	64.670252 
2574.000000	64.675784 
2573.000000	64.683294 
2572.000000	64.692115 
2571.000000	64.701390 
2570.000000	64.710378 
2569.000000	64.718294 
2568.000000	64.724898 
2567.000000	64.730429 
2566.000000	64.735627 
2565.000000	64.741539 
2564.000000	64.749193 
2563.000000	64.759373 
2562.000000	64.772129 
2561.000000	64.786672 
2560.000000	64.801359 
2559.000000	64.814114 
2558.000000	64.822554 
2557.000000	64.824795 
2556.000000	64.819502 
2555.000000	64.806294 
2554.000000	64.785885 
2553.000000	64.759969 
2552.000000	64.730858 
2551.000000	64.701247 
2550.000000	64.674067 
2549.000000	64.652180 
2548.000000	64.638209 
2547.000000	64.634037 
2546.000000	64.640760 
2545.000000	64.658474 
2544.000000	64.685988 
2543.000000	64.720916 
2542.000000	64.759659 
2541.000000	64.798164 
2540.000000	64.832186 
2539.000000	64.858365 
2538.000000	64.874815 
2537.000000	64.881348 
2536.000000	64.879679 
2535.000000	64.872622 
2534.000000	64.863705 
2533.000000	64.855980 
2532.000000	64.851522 
2531.000000	64.850592 
2530.000000	64.852285 
2529.000000	64.854264 
2528.000000	64.853882 
2527.000000	64.848709 
2526.000000	64.837503 
2525.000000	64.820265 
2524.000000	64.798140 
2523.000000	64.773607 
2522.000000	64.749693 
2521.000000	64.729356 
2520.000000	64.715170 
2519.000000	64.708709 
2518.000000	64.710497 
2517.000000	64.720201 
2516.000000	64.736509 
2515.000000	64.757370 
2514.000000	64.780426 
2513.000000	64.803099 
2512.000000	64.823365 
2511.000000	64.839625 
2510.000000	64.851164 
2509.000000	64.858031 
2508.000000	64.860725 
2507.000000	64.860129 
2506.000000	64.856958 
2505.000000	64.851713 
2504.000000	64.844083 
2503.000000	64.833378 
2502.000000	64.818549 
2501.000000	64.798879 
2500.000000	64.773964 
2499.000000	64.744114 
2498.000000	64.710640 
2497.000000	64.675593 
2496.000000	64.641642 
2495.000000	64.611625 
2494.000000	64.588141 
2493.000000	64.573001 
2492.000000	64.567399 
2491.000000	64.571499 
2490.000000	64.584589 
2489.000000	64.605212 
2488.000000	64.631295 
2487.000000	64.660644 
2486.000000	64.690685 
2485.000000	64.719414 
2484.000000	64.745211 
2483.000000	64.767336 
2482.000000	64.785575 
2481.000000	64.800310 
2480.000000	64.812278 
2479.000000	64.822196 
2478.000000	64.830684 
2477.000000	64.837861 
2476.000000	64.843606 
2475.000000	64.847445 
2474.000000	64.849066 
2473.000000	64.848041 
2472.000000	64.844155 
2471.000000	64.837336 
2470.000000	64.827728 
2469.000000	64.815545 
2468.000000	64.800953 
2467.000000	64.784097 
2466.000000	64.765286 
2465.000000	64.745020 
2464.000000	64.723992 
2463.000000	64.703297 
2462.000000	64.684152 
2461.000000	64.667582 
2460.000000	64.654111 
2459.000000	64.643740 
2458.000000	64.635968 
2457.000000	64.629721 
2456.000000	64.624047 
2455.000000	64.618015 
2454.000000	64.611411 
2453.000000	64.604592 
2452.000000	64.598727 
2451.000000	64.595103 
2450.000000	64.595317 
2449.000000	64.600706 
2448.000000	64.611911 
2447.000000	64.628744 
2446.000000	64.649939 
2445.000000	64.673519 
2444.000000	64.696860 
2443.000000	64.717173 
2442.000000	64.731931 
2441.000000	64.739298 
2440.000000	64.738631 
2439.000000	64.730572 
2438.000000	64.717149 
2437.000000	64.701080 
2436.000000	64.685821 
2435.000000	64.674544 
2434.000000	64.669632 
2433.000000	64.671993 
2432.000000	64.681172 
2431.000000	64.695310 
2430.000000	64.711737 
2429.000000	64.727520 
2428.000000	64.740228 
2427.000000	64.748191 
2426.000000	64.750814 
2425.000000	64.748382 
2424.000000	64.741849 
2423.000000	64.732193 
2422.000000	64.720392 
2421.000000	64.707112 
2420.000000	64.692759 
2419.000000	64.678049 
2418.000000	64.664101 
2417.000000	64.652705 
2416.000000	64.646053 
2415.000000	64.646553 
2414.000000	64.655971 
2413.000000	64.674949 
2412.000000	64.702415 
2411.000000	64.735651 
2410.000000	64.770698 
2409.000000	64.802908 
2408.000000	64.828014 
2407.000000	64.842963 
2406.000000	64.846587 
2405.000000	64.839839 
2404.000000	64.825558 
2403.000000	64.807796 
2402.000000	64.791059 
2401.000000	64.779138 
2400.000000	64.774560 
2399.000000	64.778208 
2398.000000	64.789009 
2397.000000	64.804625 
2396.000000	64.821887 
2395.000000	64.837574 
2394.000000	64.849090 
2393.000000	64.854764 
2392.000000	64.854168 
2391.000000	64.847683 
2390.000000	64.836502 
2389.000000	64.822053 
2388.000000	64.805674 
2387.000000	64.788269 
2386.000000	64.770293 
2385.000000	64.751791 
2384.000000	64.732718 
2383.000000	64.713001 
2382.000000	64.692854 
2381.000000	64.672756 
2380.000000	64.653468 
2379.000000	64.635801 
2378.000000	64.620256 
2377.000000	64.607191 
2376.000000	64.596462 
2375.000000	64.587807 
2374.000000	64.580678 
2373.000000	64.574646 
2372.000000	64.569401 
2371.000000	64.565086 
2370.000000	64.562225 
2369.000000	64.561724 
2368.000000	64.564514 
2367.000000	64.571499 
2366.000000	64.583039 
2365.000000	64.598846 
2364.000000	64.618039 
2363.000000	64.639115 
2362.000000	64.660191 
2361.000000	64.679431 
2360.000000	64.695477 
2359.000000	64.707756 
2358.000000	64.716386 
2357.000000	64.722228 
2356.000000	64.726305 
2355.000000	64.729905 
2354.000000	64.733815 
2353.000000	64.738368 
2352.000000	64.743304 
2351.000000	64.748144 
2350.000000	64.752411 
2349.000000	64.755916 
2348.000000	64.758825 
2347.000000	64.761972 
2346.000000	64.766120 
2345.000000	64.771962 
2344.000000	64.779591 
2343.000000	64.788413 
2342.000000	64.797115 
2341.000000	64.804124 
2340.000000	64.807915 
2339.000000	64.807510 
2338.000000	64.802718 
2337.000000	64.794135 
2336.000000	64.783000 
2335.000000	64.770841 
2334.000000	64.759135 
2333.000000	64.748883 
2332.000000	64.740467 
2331.000000	64.733624 
2330.000000	64.727854 
2329.000000	64.722824 
2328.000000	64.718294 
2327.000000	64.714550 
2326.000000	64.712238 
2325.000000	64.712262 
2324.000000	64.715361 
2323.000000	64.721775 
2322.000000	64.731216 
2321.000000	64.742636 
2320.000000	64.754652 
2319.000000	64.765572 
2318.000000	64.773774 
2317.000000	64.778137 
2316.000000	64.778280 
2315.000000	64.774680 
2314.000000	64.768433 
2313.000000	64.761209 
2312.000000	64.754748 
2311.000000	64.750504 
2310.000000	64.749193 
2309.000000	64.750742 
2308.000000	64.754152 
2307.000000	64.757657 
2306.000000	64.759087 
2305.000000	64.756512 
2304.000000	64.748549 
2303.000000	64.734578 
2302.000000	64.715170 
2301.000000	64.691877 
2300.000000	64.667129 
2299.000000	64.643502 
2298.000000	64.623570 
2297.000000	64.609193 
2296.000000	64.601612 
2295.000000	64.600992 
2294.000000	64.606857 
2293.000000	64.618158 
2292.000000	64.633584 
2291.000000	64.651727 
2290.000000	64.671254 
2289.000000	64.690923 
2288.000000	64.709782 
2287.000000	64.726972 
2286.000000	64.741826 
2285.000000	64.753675 
2284.000000	64.762187 
2283.000000	64.767336 
2282.000000	64.769482 
2281.000000	64.769315 
2280.000000	64.767718 
2279.000000	64.765691 
2278.000000	64.764046 
2277.000000	64.763259 
2276.000000	64.763355 
2275.000000	64.763975 
2274.000000	64.764523 
2273.000000	64.764142 
2272.000000	64.762210 
2271.000000	64.758372 
2270.000000	64.752817 
2269.000000	64.746093 
2268.000000	64.739012 
2267.000000	64.732599 
2266.000000	64.727759 
2265.000000	64.725089 
2264.000000	64.724636 
2263.000000	64.725899 
2262.000000	64.727997 
2261.000000	64.729881 
2260.000000	64.730548 
2259.000000	64.729189 
2258.000000	64.725446 
2257.000000	64.719510 
2256.000000	64.712071 
2255.000000	64.703965 
2254.000000	64.695930 
2253.000000	64.688301 
2252.000000	64.680957 
2251.000000	64.673209 
2250.000000	64.664077 
2249.000000	64.652562 
2248.000000	64.638042 
2247.000000	64.620614 
2246.000000	64.601182 
2245.000000	64.581370 
2244.000000	64.563560 
2243.000000	64.550065 
2242.000000	64.543128 
2241.000000	64.543986 
2240.000000	64.553141 
2239.000000	64.569950 
2238.000000	64.592885 
2237.000000	64.619970 
2236.000000	64.648795 
2235.000000	64.677095 
2234.000000	64.702582 
2233.000000	64.723229 
2232.000000	64.737319 
2231.000000	64.743781 
2230.000000	64.741992 
2229.000000	64.732050 
2228.000000	64.714980 
2227.000000	64.692759 
2226.000000	64.667844 
2225.000000	64.643025 
2224.000000	64.620852 
2223.000000	64.603281 
2222.000000	64.591217 
2221.000000	64.584565 
2220.000000	64.582300 
2219.000000	64.583039 
2218.000000	64.585399 
2217.000000	64.588356 
2216.000000	64.591574 
2215.000000	64.595174 
2214.000000	64.599394 
2213.000000	64.604496 
2212.000000	64.610195 
2211.000000	64.615917 
2210.000000	64.620852 
2209.000000	64.624428 
2208.000000	64.626431 
2207.000000	64.627385 
2206.000000	64.628577 
2205.000000	64.631676 
2204.000000	64.638066 
2203.000000	64.648699 
2202.000000	64.663672 
2201.000000	64.681982 
2200.000000	64.701700 
2199.000000	64.720606 
2198.000000	64.736461 
2197.000000	64.747667 
2196.000000	64.753460 
2195.000000	64.753794 
2194.000000	64.749407 
2193.000000	64.741325 
2192.000000	64.730978 
2191.000000	64.719629 
2190.000000	64.708471 
2189.000000	64.698648 
2188.000000	64.691019 
2187.000000	64.686155 
2186.000000	64.684176 
2185.000000	64.684796 
2184.000000	64.687180 
2183.000000	64.690446 
2182.000000	64.693570 
2181.000000	64.695787 
2180.000000	64.696741 
2179.000000	64.696550 
2178.000000	64.695787 
2177.000000	64.695286 
2176.000000	64.695715 
2175.000000	64.697480 
2174.000000	64.700412 
2173.000000	64.703822 
2172.000000	64.706754 
2171.000000	64.708471 
2170.000000	64.708542 
2169.000000	64.706993 
2168.000000	64.704227 
2167.000000	64.700984 
2166.000000	64.697837 
2165.000000	64.695096 
2164.000000	64.692592 
2163.000000	64.689612 
2162.000000	64.685344 
2161.000000	64.678812 
2160.000000	64.669394 
2159.000000	64.656901 
2158.000000	64.641928 
2157.000000	64.625620 
2156.000000	64.609575 
2155.000000	64.595556 
2154.000000	64.585208 
2153.000000	64.579868 
2152.000000	64.580202 
2151.000000	64.586138 
2150.000000	64.596939 
2149.000000	64.610958 
2148.000000	64.626073 
2147.000000	64.639854 
2146.000000	64.649963 
2145.000000	64.654660 
2144.000000	64.653110 
2143.000000	64.645624 
2142.000000	64.633464 
2141.000000	64.618825 
2140.000000	64.604210 
2139.000000	64.591884 
2138.000000	64.583563 
2137.000000	64.580059 
2136.000000	64.581227 
2135.000000	64.586257 
2134.000000	64.593935 
2133.000000	64.602994 
2132.000000	64.612627 
2131.000000	64.622426 
2130.000000	64.632558 
2129.000000	64.643049 
2128.000000	64.654064 
2127.000000	64.665460 
2126.000000	64.676642 
2125.000000	64.686942 
2124.000000	64.695501 
2123.000000	64.701771 
2122.000000	64.705228 
2121.000000	64.705681 
2120.000000	64.703083 
2119.000000	64.697504 
2118.000000	64.689111 
2117.000000	64.677906 
2116.000000	64.664196 
2115.000000	64.648437 
2114.000000	64.631438 
2113.000000	64.614295 
2112.000000	64.598274 
2111.000000	64.584612 
2110.000000	64.574098 
2109.000000	64.566922 
2108.000000	64.562678 
2107.000000	64.560532 
2106.000000	64.559507 
2105.000000	64.559030 
2104.000000	64.558887 
2103.000000	64.559412 
2102.000000	64.561104 
2101.000000	64.564538 
2100.000000	64.569783 
2099.000000	64.576554 
2098.000000	64.583921 
2097.000000	64.590954 
2096.000000	64.596772 
2095.000000	64.601087 
2094.000000	64.604496 
2093.000000	64.608311 
2092.000000	64.614152 
2091.000000	64.623308 
2090.000000	64.636349 
2089.000000	64.652681 
2088.000000	64.670729 
2087.000000	64.688467 
2086.000000	64.703631 
2085.000000	64.714860 
2084.000000	64.721417 
2083.000000	64.723515 
2082.000000	64.721918 
2081.000000	64.717435 
2080.000000	64.711046 
2079.000000	64.703369 
2078.000000	64.695072 
2077.000000	64.686918 
2076.000000	64.679741 
2075.000000	64.674496 
2074.000000	64.672088 
2073.000000	64.673137 
2072.000000	64.677739 
2071.000000	64.685344 
2070.000000	64.694571 
2069.000000	64.703607 
2068.000000	64.710450 
2067.000000	64.713454 
2066.000000	64.711713 
2065.000000	64.705181 
2064.000000	64.694905 
2063.000000	64.682483 
2062.000000	64.669799 
2061.000000	64.658427 
2060.000000	64.649224 
2059.000000	64.642071 
2058.000000	64.636206 
2057.000000	64.630126 
2056.000000	64.622569 
2055.000000	64.612627 
2054.000000	64.600133 
2053.000000	64.585804 
2052.000000	64.570999 
2051.000000	64.557409 
2050.000000	64.546585 
2049.000000	64.539527 
2048.000000	64.536547 
2047.000000	64.537191 
2046.000000	64.540433 
2045.000000	64.545059 
2044.000000	64.549946 
2043.000000	64.554190 
2042.000000	64.557385 
2041.000000	64.559626 
2040.000000	64.561295 
2039.000000	64.562845 
2038.000000	64.564824 
2037.000000	64.567828 
2036.000000	64.572405 
2035.000000	64.579010 
2034.000000	64.588069 
2033.000000	64.599728 
2032.000000	64.613914 
2031.000000	64.630126 
2030.000000	64.647412 
2029.000000	64.664602 
2028.000000	64.680266 
2027.000000	64.693140 
2026.000000	64.702343 
2025.000000	64.707612 
2024.000000	64.709091 
2023.000000	64.707589 
2022.000000	64.704060 
2021.000000	64.699530 
2020.000000	64.694643 
2019.000000	64.689803 
2018.000000	64.684963 
2017.000000	64.679789 
2016.000000	64.673900 
2015.000000	64.667034 
2014.000000	64.659214 
2013.000000	64.651012 
2012.000000	64.643073 
2011.000000	64.636301 
2010.000000	64.631581 
2009.000000	64.629673 
2008.000000	64.631009 
2007.000000	64.635705 
2006.000000	64.643502 
2005.000000	64.653658 
2004.000000	64.665269 
2003.000000	64.677119 
2002.000000	64.688014 
2001.000000	64.696788 
2000.000000	64.702391 
1999.000000	64.704179 
1998.000000	64.702057 
1997.000000	64.696335 
1996.000000	64.687800 
1995.000000	64.677453 
1994.000000	64.666461 
1993.000000	64.655661 
1992.000000	64.645552 
1991.000000	64.636158 
1990.000000	64.627051 
1989.000000	64.617562 
1988.000000	64.607095 
1987.000000	64.595437 
1986.000000	64.582967 
1985.000000	64.570736 
1984.000000	64.560198 
1983.000000	64.552950 
1982.000000	64.550352 
1981.000000	64.553070 
1980.000000	64.561200 
1979.000000	64.573955 
1978.000000	64.589977 
1977.000000	64.607572 
1976.000000	64.625072 
1975.000000	64.640998 
1974.000000	64.654302 
1973.000000	64.664340 
1972.000000	64.670920 
1971.000000	64.674329 
1970.000000	64.674997 
1969.000000	64.673709 
1968.000000	64.671254 
1967.000000	64.668345 
1966.000000	64.665436 
1965.000000	64.662861 
1964.000000	64.660549 
1963.000000	64.658260 
1962.000000	64.655542 
1961.000000	64.652109 
1960.000000	64.647936 
1959.000000	64.643430 
1958.000000	64.639306 
1957.000000	64.636540 
1956.000000	64.635872 
1955.000000	64.637541 
1954.000000	64.641094 
1953.000000	64.645242 
1952.000000	64.648318 
1951.000000	64.648675 
1950.000000	64.645075 
1949.000000	64.637112 
1948.000000	64.625573 
1947.000000	64.612078 
1946.000000	64.598798 
1945.000000	64.588141 
1944.000000	64.581942 
1943.000000	64.581346 
1942.000000	64.586377 
1941.000000	64.595985 
1940.000000	64.608430 
1939.000000	64.621448 
1938.000000	64.633035 
1937.000000	64.641332 
1936.000000	64.645242 
1935.000000	64.644312 
1934.000000	64.638710 
1933.000000	64.629173 
1932.000000	64.616894 
1931.000000	64.603281 
1930.000000	64.589738 
1929.000000	64.577627 
1928.000000	64.567947 
1927.000000	64.561200 
1926.000000	64.557433 
1925.000000	64.556193 
1924.000000	64.556717 
1923.000000	64.557909 
1922.000000	64.558649 
1921.000000	64.557790 
1920.000000	64.554715 
1919.000000	64.549160 
1918.000000	64.541411 
1917.000000	64.532542 
1916.000000	64.523935 
1915.000000	64.517307 
1914.000000	64.514160 
1913.000000	64.515423 
1912.000000	64.521050 
1911.000000	64.530134 
1910.000000	64.541029 
1909.000000	64.551758 
1908.000000	64.560437 
1907.000000	64.565634 
1906.000000	64.566516 
1905.000000	64.563012 
1904.000000	64.555740 
1903.000000	64.545655 
1902.000000	64.533734 
1901.000000	64.520907 
1900.000000	64.507913 
1899.000000	64.495372 
1898.000000	64.483833 
1897.000000	64.473748 
1896.000000	64.465689 
1895.000000	64.460301 
1894.000000	64.458131 
1893.000000	64.459586 
1892.000000	64.464735 
1891.000000	64.473176 
1890.000000	64.484071 
1889.000000	64.496254 
1888.000000	64.508366 
1887.000000	64.518928 
1886.000000	64.526557 
1885.000000	64.530110 
1884.000000	64.528965 
1883.000000	64.523005 
1882.000000	64.512801 
1881.000000	64.499568 
1880.000000	64.485096 
1879.000000	64.471411 
1878.000000	64.460492 
1877.000000	64.453935 
1876.000000	64.452767 
1875.000000	64.457297 
1874.000000	64.467024 
1873.000000	64.480900 
1872.000000	64.497351 
1871.000000	64.514470 
1870.000000	64.530205 
1869.000000	64.542722 
1868.000000	64.550423 
1867.000000	64.552164 
1866.000000	64.547252 
1865.000000	64.535737 
1864.000000	64.518404 
1863.000000	64.496827 
1862.000000	64.473009 
1861.000000	64.449357 
1860.000000	64.428257 
1859.000000	64.411592 
1858.000000	64.400649 
1857.000000	64.395761 
1856.000000	64.396595 
1855.000000	64.402365 
1854.000000	64.412069 
1853.000000	64.424610 
1852.000000	64.439320 
1851.000000	64.455699 
1850.000000	64.473366 
1849.000000	64.491987 
1848.000000	64.510941 
1847.000000	64.529299 
1846.000000	64.546060 
1845.000000	64.560031 
1844.000000	64.570212 
1843.000000	64.575886 
1842.000000	64.576840 
1841.000000	64.573311 
1840.000000	64.566063 
1839.000000	64.556026 
1838.000000	64.544224 
1837.000000	64.531517 
1836.000000	64.518761 
1835.000000	64.506506 
1834.000000	64.495301 
1833.000000	64.485502 
1832.000000	64.477300 
1831.000000	64.470839 
1830.000000	64.466118 
1829.000000	64.463090 
1828.000000	64.461421 
1827.000000	64.460778 
1826.000000	64.460849 
1825.000000	64.461445 
1824.000000	64.462637 
1823.000000	64.464592 
1822.000000	64.467597 
1821.000000	64.471888 
1820.000000	64.477610 
1819.000000	64.484548 
1818.000000	64.492154 
1817.000000	64.499402 
1816.000000	64.505004 
1815.000000	64.507722 
1814.000000	64.506387 
1813.000000	64.500403 
1812.000000	64.489912 
1811.000000	64.475679 
1810.000000	64.459180 
1809.000000	64.442276 
1808.000000	64.426946 
1807.000000	64.415097 
1806.000000	64.408183 
1805.000000	64.407086 
1804.000000	64.412021 
1803.000000	64.422535 
1802.000000	64.437270 
1801.000000	64.454388 
1800.000000	64.471769 
1799.000000	64.486956 
1798.000000	64.498019 
1797.000000	64.503502 
1796.000000	64.503097 
1795.000000	64.497447 
1794.000000	64.488220 
1793.000000	64.477825 
1792.000000	64.468908 
1791.000000	64.463567 
1790.000000	64.463090 
1789.000000	64.467525 
1788.000000	64.475703 
1787.000000	64.485716 
1786.000000	64.495539 
1785.000000	64.503598 
1784.000000	64.509081 
1783.000000	64.512109 
1782.000000	64.513564 
1781.000000	64.514493 
1780.000000	64.515590 
1779.000000	64.516735 
1778.000000	64.517140 
1777.000000	64.515161 
1776.000000	64.509034 
1775.000000	64.497423 
1774.000000	64.480042 
1773.000000	64.457774 
1772.000000	64.432668 
1771.000000	64.407587 
1770.000000	64.385628 
1769.000000	64.369297 
1768.000000	64.359903 
1767.000000	64.357662 
1766.000000	64.361667 
1765.000000	64.370036 
1764.000000	64.380383 
1763.000000	64.390420 
1762.000000	64.398169 
1761.000000	64.402079 
1760.000000	64.401340 
1759.000000	64.395523 
1758.000000	64.384627 
1757.000000	64.369130 
1756.000000	64.349699 
1755.000000	64.327096 
1754.000000	64.302062 
1753.000000	64.275550 
1752.000000	64.248204 
1751.000000	64.220571 
1750.000000	64.192795 
1749.000000	64.165163 
1748.000000	64.137363 
1747.000000	64.108991 
1746.000000	64.079689 
1745.000000	64.049315 
1744.000000	64.017796 
1743.000000	63.985347 
1742.000000	63.952445 
1741.000000	63.919901 
1740.000000	63.888692 
1739.000000	63.860106 
1738.000000	63.835477 
1737.000000	63.816261 
1736.000000	63.803505 
1735.000000	63.798069 
1734.000000	63.800001 
1733.000000	63.809037 
1732.000000	63.824057 
1731.000000	63.843679 
1730.000000	63.866186 
1729.000000	63.889861 
1728.000000	63.912987 
1727.000000	63.934493 
1726.000000	63.953709 
1725.000000	63.970971 
1724.000000	63.987016 
1723.000000	64.003133 
1722.000000	64.020872 
1721.000000	64.041519 
1720.000000	64.065694 
1719.000000	64.093065 
1718.000000	64.122653 
1717.000000	64.152574 
1716.000000	64.180541 
1715.000000	64.204430 
1714.000000	64.222812 
1713.000000	64.235305 
1712.000000	64.242625 
1711.000000	64.246511 
1710.000000	64.249324 
1709.000000	64.253306 
1708.000000	64.260101 
1707.000000	64.270544 
1706.000000	64.284467 
1705.000000	64.301013 
1704.000000	64.318728 
1703.000000	64.336323 
1702.000000	64.352655 
1701.000000	64.366841 
1700.000000	64.378333 
1699.000000	64.386582 
1698.000000	64.391207 
1697.000000	64.392280 
1696.000000	64.390015 
1695.000000	64.385080 
1694.000000	64.378547 
1693.000000	64.371991 
1692.000000	64.366912 
1691.000000	64.364552 
1690.000000	64.365339 
1689.000000	64.368939 
1688.000000	64.373970 
1687.000000	64.378356 
1686.000000	64.380073 
1685.000000	64.377713 
1684.000000	64.370822 
1683.000000	64.360094 
1682.000000	64.347338 
1681.000000	64.335131 
1680.000000	64.325857 
1679.000000	64.321398 
1678.000000	64.322781 
1677.000000	64.329695 
1676.000000	64.340949 
1675.000000	64.354538 
1674.000000	64.368295 
1673.000000	64.380121 
1672.000000	64.388251 
1671.000000	64.391875 
1670.000000	64.390778 
1669.000000	64.385652 
1668.000000	64.377665 
1667.000000	64.368247 
1666.000000	64.358925 
1665.000000	64.350843 
1664.000000	64.344811 
1663.000000	64.340686 
1662.000000	64.337706 
1661.000000	64.334416 
1660.000000	64.329195 
1659.000000	64.320826 
1658.000000	64.308691 
1657.000000	64.293265 
1656.000000	64.276099 
1655.000000	64.259362 
1654.000000	64.245676 
1653.000000	64.237070 
1652.000000	64.234614 
1651.000000	64.237999 
1650.000000	64.245605 
1649.000000	64.254903 
1648.000000	64.263033 
1647.000000	64.267683 
1646.000000	64.267539 
1645.000000	64.262700 
1644.000000	64.254498 
1643.000000	64.244890 
1642.000000	64.236116 
1641.000000	64.229917 
1640.000000	64.227390 
1639.000000	64.228653 
1638.000000	64.233374 
1637.000000	64.240860 
1636.000000	64.250373 
1635.000000	64.261293 
1634.000000	64.273142 
1633.000000	64.285445 
1632.000000	64.297652 
1631.000000	64.308857 
1630.000000	64.317917 
1629.000000	64.323711 
1628.000000	64.325428 
1627.000000	64.322543 
1626.000000	64.315390 
1625.000000	64.304757 
1624.000000	64.291787 
1623.000000	64.277625 
1622.000000	64.263057 
1621.000000	64.248752 
1620.000000	64.235067 
1619.000000	64.222455 
1618.000000	64.211440 
1617.000000	64.202761 
1616.000000	64.197564 
1615.000000	64.196801 
1614.000000	64.200949 
1613.000000	64.210057 
1612.000000	64.223456 
1611.000000	64.240002 
1610.000000	64.258098 
1609.000000	64.276099 
1608.000000	64.292669 
1607.000000	64.306855 
1606.000000	64.318370 
1605.000000	64.327430 
1604.000000	64.334630 
1603.000000	64.340543 
1602.000000	64.345622 
1601.000000	64.349794 
1600.000000	64.352369 
1599.000000	64.352488 
1598.000000	64.349198 
1597.000000	64.341759 
1596.000000	64.329934 
1595.000000	64.314293 
1594.000000	64.295911 
1593.000000	64.276194 
1592.000000	64.256477 
1591.000000	64.237928 
1590.000000	64.221143 
1589.000000	64.206242 
1588.000000	64.192914 
1587.000000	64.180588 
1586.000000	64.168739 
1585.000000	64.157032 
1584.000000	64.145493 
1583.000000	64.134383 
1582.000000	64.124274 
1581.000000	64.115810 
1580.000000	64.109587 
1579.000000	64.106082 
1578.000000	64.105558 
1577.000000	64.108180 
1576.000000	64.113855 
1575.000000	64.122557 
1574.000000	64.134144 
1573.000000	64.148783 
1572.000000	64.166498 
1571.000000	64.187359 
1570.000000	64.211201 
1569.000000	64.237427 
1568.000000	64.265108 
1567.000000	64.292788 
1566.000000	64.318823 
1565.000000	64.341139 
1564.000000	64.358162 
1563.000000	64.368462 
1562.000000	64.371132 
1561.000000	64.365768 
1560.000000	64.352941 
1559.000000	64.333748 
1558.000000	64.310193 
1557.000000	64.284491 
1556.000000	64.259147 
1555.000000	64.236474 
1554.000000	64.218235 
1553.000000	64.205503 
1552.000000	64.198565 
1551.000000	64.197063 
1550.000000	64.200234 
1549.000000	64.207029 
1548.000000	64.216470 
1547.000000	64.227414 
1546.000000	64.238882 
1545.000000	64.249777 
1544.000000	64.259147 
1543.000000	64.266252 
1542.000000	64.270901 
1541.000000	64.273500 
1540.000000	64.274859 
1539.000000	64.276218 
1538.000000	64.278626 
1537.000000	64.283037 
1536.000000	64.289522 
1535.000000	64.297604 
1534.000000	64.305782 
1533.000000	64.312148 
1532.000000	64.314293 
1531.000000	64.310336 
1530.000000	64.299130 
1529.000000	64.280605 
1528.000000	64.256286 
1527.000000	64.229035 
1526.000000	64.202594 
1525.000000	64.180874 
1524.000000	64.167046 
1523.000000	64.162826 
1522.000000	64.168024 
1521.000000	64.180946 
1520.000000	64.198589 
1519.000000	64.217782 
1518.000000	64.235639 
1517.000000	64.250612 
1516.000000	64.262700 
1515.000000	64.273452 
1514.000000	64.284920 
1513.000000	64.299416 
1512.000000	64.318418 
1511.000000	64.342093 
1510.000000	64.369201 
1509.000000	64.397120 
1508.000000	64.422869 
1507.000000	64.443254 
1506.000000	64.456057 
1505.000000	64.459824 
1504.000000	64.454388 
1503.000000	64.440608 
1502.000000	64.419984 
1501.000000	64.394831 
1500.000000	64.367723 
1499.000000	64.341402 
1498.000000	64.318490 
1497.000000	64.300990 
1496.000000	64.289999 
1495.000000	64.285492 
1494.000000	64.286422 
1493.000000	64.290857 
1492.000000	64.296507 
1491.000000	64.301252 
1490.000000	64.303588 
1489.000000	64.302778 
1488.000000	64.299011 
1487.000000	64.292955 
1486.000000	64.285659 
1485.000000	64.278268 
1484.000000	64.271330 
1483.000000	64.265036 
1482.000000	64.258599 
1481.000000	64.250969 
1480.000000	64.240694 
1479.000000	64.226603 
1478.000000	64.208245 
1477.000000	64.186024 
1476.000000	64.161348 
1475.000000	64.136099 
1474.000000	64.112472 
1473.000000	64.092230 
1472.000000	64.076519 
1471.000000	64.065575 
1470.000000	64.058876 
1469.000000	64.055395 
1468.000000	64.054036 
1467.000000	64.054274 
1466.000000	64.056158 
1465.000000	64.060187 
1464.000000	64.067244 
1463.000000	64.077973 
1462.000000	64.092469 
1461.000000	64.109945 
1460.000000	64.128780 
1459.000000	64.146685 
1458.000000	64.161205 
1457.000000	64.170241 
1456.000000	64.172768 
1455.000000	64.168834 
1454.000000	64.159607 
1453.000000	64.147186 
1452.000000	64.134144 
1451.000000	64.123010 
1450.000000	64.115977 
1449.000000	64.114522 
1448.000000	64.119195 
1447.000000	64.129710 
1446.000000	64.145040 
1445.000000	64.163589 
1444.000000	64.183545 
1443.000000	64.203190 
1442.000000	64.221191 
1441.000000	64.236521 
1440.000000	64.248800 
1439.000000	64.258122 
1438.000000	64.264965 
1437.000000	64.270043 
1436.000000	64.274048 
1435.000000	64.277744 
1434.000000	64.281606 
1433.000000	64.286136 
1432.000000	64.291477 
1431.000000	64.297819 
1430.000000	64.305138 
1429.000000	64.313530 
1428.000000	64.322495 
1427.000000	64.331436 
1426.000000	64.339280 
1425.000000	64.344787 
1424.000000	64.346861 
1423.000000	64.344739 
1422.000000	64.338350 
1421.000000	64.328312 
1420.000000	64.315724 
1419.000000	64.301896 
1418.000000	64.287877 
1417.000000	64.274215 
1416.000000	64.261054 
1415.000000	64.248108 
1414.000000	64.234828 
1413.000000	64.220786 
1412.000000	64.205837 
1411.000000	64.190459 
1410.000000	64.175319 
1409.000000	64.161396 
1408.000000	64.149451 
1407.000000	64.140057 
1406.000000	64.133262 
1405.000000	64.128875 
1404.000000	64.126706 
1403.000000	64.126372 
1402.000000	64.127683 
1401.000000	64.130663 
1400.000000	64.135193 
1399.000000	64.141201 
1398.000000	64.148044 
1397.000000	64.155077 
1396.000000	64.161491 
1395.000000	64.166569 
1394.000000	64.169669 
1393.000000	64.170455 
1392.000000	64.168691 
1391.000000	64.164280 
1390.000000	64.157199 
1389.000000	64.147424 
1388.000000	64.135026 
1387.000000	64.120531 
1386.000000	64.104890 
1385.000000	64.089655 
1384.000000	64.076757 
1383.000000	64.068388 
1382.000000	64.066433 
1381.000000	64.071965 
1380.000000	64.084959 
1379.000000	64.104175 
1378.000000	64.127135 
1377.000000	64.150738 
1376.000000	64.171695 
1375.000000	64.187431 
1374.000000	64.196133 
1373.000000	64.197182 
1372.000000	64.190912 
1371.000000	64.178466 
1370.000000	64.161252 
1369.000000	64.140868 
1368.000000	64.118695 
1367.000000	64.095973 
1366.000000	64.073920 
1365.000000	64.053916 
1364.000000	64.037370 
1363.000000	64.025831 
1362.000000	64.020466 
1361.000000	64.021730 
1360.000000	64.029359 
1359.000000	64.041972 
1358.000000	64.057135 
1357.000000	64.071965 
1356.000000	64.083528 
1355.000000	64.089894 
1354.000000	64.090108 
1353.000000	64.084815 
1352.000000	64.075875 
1351.000000	64.066028 
1350.000000	64.058208 
1349.000000	64.054656 
1348.000000	64.056563 
1347.000000	64.063763 
1346.000000	64.074873 
1345.000000	64.087486 
1344.000000	64.099001 
1343.000000	64.106917 
1342.000000	64.109611 
1341.000000	64.106369 
1340.000000	64.097452 
1339.000000	64.083957 
1338.000000	64.067673 
1337.000000	64.050698 
1336.000000	64.035320 
1335.000000	64.023709 
1334.000000	64.017653 
1333.000000	64.018559 
1332.000000	64.027118 
1331.000000	64.042997 
1330.000000	64.064955 
1329.000000	64.090704 
1328.000000	64.117407 
1327.000000	64.141845 
1326.000000	64.161229 
1325.000000	64.173507 
1324.000000	64.177966 
1323.000000	64.175415 
1322.000000	64.167714 
1321.000000	64.157485 
1320.000000	64.147257 
1319.000000	64.138960 
1318.000000	64.133358 
1317.000000	64.130139 
1316.000000	64.128065 
1315.000000	64.125585 
1314.000000	64.121437 
1313.000000	64.115095 
1312.000000	64.106917 
1311.000000	64.098024 
1310.000000	64.089822 
1309.000000	64.083576 
1308.000000	64.079952 
1307.000000	64.078783 
1306.000000	64.079356 
1305.000000	64.080524 
1304.000000	64.081168 
1303.000000	64.080429 
1302.000000	64.078116 
1301.000000	64.074683 
1300.000000	64.070940 
1299.000000	64.067935 
1298.000000	64.066267 
1297.000000	64.066171 
1296.000000	64.067268 
1295.000000	64.068722 
1294.000000	64.069414 
1293.000000	64.068222 
1292.000000	64.064478 
1291.000000	64.058065 
1290.000000	64.049386 
1289.000000	64.039349 
1288.000000	64.029097 
1287.000000	64.019918 
1286.000000	64.012956 
1285.000000	64.009141 
1284.000000	64.009070 
1283.000000	64.012932 
1282.000000	64.020586 
1281.000000	64.031553 
1280.000000	64.044880 
1279.000000	64.059305 
1278.000000	64.073395 
1277.000000	64.085483 
1276.000000	64.094042 
1275.000000	64.097952 
1274.000000	64.096665 
1273.000000	64.090299 
1272.000000	64.079618 
1271.000000	64.066028 
1270.000000	64.051127 
1269.000000	64.036273 
1268.000000	64.022469 
1267.000000	64.010167 
1266.000000	63.999271 
1265.000000	63.989377 
1264.000000	63.980126 
1263.000000	63.971424 
1262.000000	63.963675 
1261.000000	63.957476 
1260.000000	63.953733 
1259.000000	63.953089 
1258.000000	63.955903 
1257.000000	63.961887 
1256.000000	63.970279 
1255.000000	63.979697 
1254.000000	63.988709 
1253.000000	63.995933 
1252.000000	64.000678 
1251.000000	64.002799 
1250.000000	64.003086 
1249.000000	64.002895 
1248.000000	64.003825 
1247.000000	64.007139 
1246.000000	64.013528 
1245.000000	64.022469 
1244.000000	64.032506 
1243.000000	64.041686 
1242.000000	64.047956 
1241.000000	64.049839 
1240.000000	64.046978 
1239.000000	64.040255 
1238.000000	64.031863 
1237.000000	64.024662 
1236.000000	64.021468 
1235.000000	64.023995 
1234.000000	64.032673 
1233.000000	64.046025 
1232.000000	64.061117 
1231.000000	64.074420 
1230.000000	64.082694 
1229.000000	64.083647 
1228.000000	64.076709 
1227.000000	64.063000 
1226.000000	64.045190 
1225.000000	64.026594 
1224.000000	64.010596 
1223.000000	64.000082 
1222.000000	63.996744 
1221.000000	64.001274 
1220.000000	64.012789 
1219.000000	64.029669 
1218.000000	64.049315 
1217.000000	64.068603 
1216.000000	64.084291 
1215.000000	64.093327 
1214.000000	64.093232 
1213.000000	64.082646 
1212.000000	64.061522 
1211.000000	64.031171 
1210.000000	63.994336 
1209.000000	63.954806 
1208.000000	63.916659 
1207.000000	63.883566 
1206.000000	63.857936 
1205.000000	63.840651 
1204.000000	63.831043 
1203.000000	63.827037 
1202.000000	63.825964 
1201.000000	63.825297 
1200.000000	63.823246 
1199.000000	63.819265 
1198.000000	63.813853 
1197.000000	63.808393 
1196.000000	63.804244 
1195.000000	63.802504 
1194.000000	63.803339 
1193.000000	63.806056 
1192.000000	63.809299 
1191.000000	63.811492 
1190.000000	63.811564 
1189.000000	63.809394 
1188.000000	63.806080 
1187.000000	63.803601 
1186.000000	63.804268 
1185.000000	63.809919 
1184.000000	63.821387 
1183.000000	63.837933 
1182.000000	63.857531 
1181.000000	63.876843 
1180.000000	63.892245 
1179.000000	63.900494 
1178.000000	63.899946 
1177.000000	63.890314 
1176.000000	63.872861 
1175.000000	63.850116 
1174.000000	63.825488 
1173.000000	63.802504 
1172.000000	63.784122 
1171.000000	63.772702 
1170.000000	63.769388 
1169.000000	63.774204 
1168.000000	63.785982 
1167.000000	63.802552 
1166.000000	63.820958 
1165.000000	63.837695 
1164.000000	63.849186 
1163.000000	63.852095 
1162.000000	63.844299 
1161.000000	63.824772 
1160.000000	63.794779 
1159.000000	63.757038 
1158.000000	63.715839 
1157.000000	63.676404 
1156.000000	63.644027 
1155.000000	63.623070 
1154.000000	63.616466 
1153.000000	63.625121 
1152.000000	63.647890 
1151.000000	63.681888 
1150.000000	63.723039 
1149.000000	63.766741 
1148.000000	63.808751 
1147.000000	63.845586 
1146.000000	63.875031 
1145.000000	63.896393 
1144.000000	63.910150 
1143.000000	63.917803 
1142.000000	63.921642 
1141.000000	63.923954 
1140.000000	63.926815 
1139.000000	63.931488 
1138.000000	63.938140 
1137.000000	63.945865 
1136.000000	63.952779 
1135.000000	63.956761 
1134.000000	63.956332 
1133.000000	63.950800 
1132.000000	63.940930 
1131.000000	63.928389 
1130.000000	63.915252 
1129.000000	63.903617 
1128.000000	63.894772 
1127.000000	63.889455 
1126.000000	63.887715 
1125.000000	63.889384 
1124.000000	63.894295 
1123.000000	63.902068 
1122.000000	63.912296 
1121.000000	63.924098 
1120.000000	63.936257 
1119.000000	63.947367 
1118.000000	63.955783 
1117.000000	63.960123 
1116.000000	63.959240 
1115.000000	63.952374 
1114.000000	63.939189 
1113.000000	63.919806 
1112.000000	63.894915 
1111.000000	63.865876 
1110.000000	63.834714 
1109.000000	63.803911 
1108.000000	63.775920 
1107.000000	63.752913 
1106.000000	63.736319 
1105.000000	63.726544 
1104.000000	63.722991 
1103.000000	63.724231 
1102.000000	63.728618 
1101.000000	63.734364 
1100.000000	63.740348 
1099.000000	63.745975 
1098.000000	63.751769 
1097.000000	63.758754 
1096.000000	63.768577 
1095.000000	63.782835 
1094.000000	63.802862 
1093.000000	63.829135 
1092.000000	63.861155 
1091.000000	63.897347 
1090.000000	63.935065 
1089.000000	63.971090 
1088.000000	64.002037 
1087.000000	64.024758 
1086.000000	64.037060 
1085.000000	64.037990 
1084.000000	64.027786 
1083.000000	64.008140 
1082.000000	63.981699 
1081.000000	63.951706 
1080.000000	63.921403 
1079.000000	63.893556 
1078.000000	63.870191 
1077.000000	63.852572 
1076.000000	63.841032 
1075.000000	63.835573 
1074.000000	63.835740 
1073.000000	63.841080 
1072.000000	63.850998 
1071.000000	63.864850 
1070.000000	63.881635 
1069.000000	63.900065 
1068.000000	63.918519 
1067.000000	63.935089 
1066.000000	63.947749 
1065.000000	63.954973 
1064.000000	63.956117 
1063.000000	63.951587 
1062.000000	63.942980 
1061.000000	63.932847 
1060.000000	63.924169 
1059.000000	63.919734 
1058.000000	63.921451 
1057.000000	63.929939 
1056.000000	63.944125 
1055.000000	63.961720 
1054.000000	63.979172 
1053.000000	63.992857 
1052.000000	63.999462 
1051.000000	63.997077 
1050.000000	63.985514 
1049.000000	63.966083 
1048.000000	63.941550 
1047.000000	63.915610 
1046.000000	63.891625 
1045.000000	63.872075 
1044.000000	63.857984 
1043.000000	63.848805 
1042.000000	63.842916 
1041.000000	63.838148 
1040.000000	63.832688 
1039.000000	63.825607 
1038.000000	63.817429 
1037.000000	63.810110 
1036.000000	63.806366 
1035.000000	63.809037 
1034.000000	63.820314 
1033.000000	63.841128 
1032.000000	63.870739 
1031.000000	63.906860 
1030.000000	63.946151 
1029.000000	63.984942 
1028.000000	64.020204 
1027.000000	64.049649 
1026.000000	64.072275 
1025.000000	64.088296 
1024.000000	64.098691 
1023.000000	64.104843 
1022.000000	64.108157 
1021.000000	64.109444 
1020.000000	64.109230 
1019.000000	64.107584 
1018.000000	64.104628 
1017.000000	64.100432 
1016.000000	64.095354 
1015.000000	64.089655 
1014.000000	64.083528 
1013.000000	64.076948 
1012.000000	64.069724 
1011.000000	64.061427 
1010.000000	64.051532 
1009.000000	64.039897 
1008.000000	64.026784 
1007.000000	64.013004 
1006.000000	63.999748 
1005.000000	63.988232 
1004.000000	63.979530 
1003.000000	63.974499 
1002.000000	63.973379 
1001.000000	63.975858 
1000.000000	63.980960 
999.000000	 63.987612 
998.000000	 63.994312 
997.000000	 63.999629 
996.000000	 64.001917 
995.000000	 63.999915 
994.000000	 63.992452 
993.000000	 63.978767 
992.000000	 63.958597 
991.000000	 63.932275 
990.000000	 63.901185 
989.000000	 63.867688 
988.000000	 63.835048 
987.000000	 63.806891 
986.000000	 63.787007 
985.000000	 63.778519 
984.000000	 63.783144 
983.000000	 63.800740 
982.000000	 63.829255 
981.000000	 63.864755 
980.000000	 63.902139 
979.000000	 63.935923 
978.000000	 63.961076 
977.000000	 63.974142 
976.000000	 63.973665 
975.000000	 63.960528 
974.000000	 63.937425 
973.000000	 63.908410 
972.000000	 63.878035 
971.000000	 63.850593 
970.000000	 63.829636 
969.000000	 63.817358 
968.000000	 63.814902 
967.000000	 63.822269 
966.000000	 63.838791 
965.000000	 63.863182 
964.000000	 63.893723 
963.000000	 63.928389 
962.000000	 63.964796 
961.000000	 64.000606 
960.000000	 64.033699 
959.000000	 64.062428 
958.000000	 64.085793 
957.000000	 64.103651 
956.000000	 64.116287 
955.000000	 64.124822 
954.000000	 64.130377 
953.000000	 64.133763 
952.000000	 64.134812 
951.000000	 64.132881 
950.000000	 64.126515 
949.000000	 64.114236 
948.000000	 64.094972 
947.000000	 64.068579 
946.000000	 64.036321 
945.000000	 64.001035 
944.000000	 63.966584 
943.000000	 63.937354 
942.000000	 63.917255 
941.000000	 63.909173 
940.000000	 63.914012 
939.000000	 63.930487 
938.000000	 63.954997 
937.000000	 63.982176 
936.000000	 64.005994 
935.000000	 64.020729 
934.000000	 64.022731 
933.000000	 64.011168 
932.000000	 63.988232 
931.000000	 63.958716 
930.000000	 63.929152 
929.000000	 63.906240 
928.000000	 63.895320 
927.000000	 63.899183 
926.000000	 63.917660 
925.000000	 63.947820 
924.000000	 63.984775 
923.000000	 64.022827 
922.000000	 64.056754 
921.000000	 64.082813 
920.000000	 64.099001 
919.000000	 64.105367 
918.000000	 64.103031 
917.000000	 64.094161 
916.000000	 64.080834 
915.000000	 64.064955 
914.000000	 64.047813 
913.000000	 64.030337 
912.000000	 64.013624 
911.000000	 63.998413 
910.000000	 63.985371 
909.000000	 63.974905 
908.000000	 63.967251 
907.000000	 63.962221 
906.000000	 63.959336 
905.000000	 63.957762 
904.000000	 63.956522 
903.000000	 63.954877 
902.000000	 63.952374 
901.000000	 63.948893 
900.000000	 63.944649 
899.000000	 63.939714 
898.000000	 63.934016 
897.000000	 63.927292 
896.000000	 63.919115 
895.000000	 63.908934 
894.000000	 63.896512 
893.000000	 63.881850 
892.000000	 63.865995 
891.000000	 63.850808 
890.000000	 63.838934 
889.000000	 63.832974 
888.000000	 63.835239 
887.000000	 63.847064 
886.000000	 63.868427 
885.000000	 63.897657 
884.000000	 63.931512 
883.000000	 63.965797 
882.000000	 63.996005 
881.000000	 64.018201 
880.000000	 64.029717 
879.000000	 64.029717 
878.000000	 64.019441 
877.000000	 64.001965 
876.000000	 63.981652 
875.000000	 63.963413 
874.000000	 63.951802 
873.000000	 63.950037 
872.000000	 63.959574 
871.000000	 63.979411 
870.000000	 64.006710 
869.000000	 64.037084 
868.000000	 64.065194 
867.000000	 64.085888 
866.000000	 64.095211 
865.000000	 64.091467 
864.000000	 64.075231 
863.000000	 64.049506 
862.000000	 64.018917 
861.000000	 63.988614 
860.000000	 63.963413 
859.000000	 63.946366 
858.000000	 63.938260 
857.000000	 63.937711 
856.000000	 63.941907 
855.000000	 63.947200 
854.000000	 63.950252 
853.000000	 63.948822 
852.000000	 63.942384 
851.000000	 63.931846 
850.000000	 63.919019 
849.000000	 63.906145 
848.000000	 63.895297 
847.000000	 63.887858 
846.000000	 63.884639 
845.000000	 63.885784 
844.000000	 63.891267 
843.000000	 63.901257 
842.000000	 63.915944 
841.000000	 63.935637 
840.000000	 63.959765 
839.000000	 63.986992 
838.000000	 64.014410 
837.000000	 64.038085 
836.000000	 64.053273 
835.000000	 64.055323 
834.000000	 64.040780 
833.000000	 64.008140 
832.000000	 63.958549 
831.000000	 63.895702 
830.000000	 63.825345 
829.000000	 63.754129 
828.000000	 63.688731 
827.000000	 63.634610 
826.000000	 63.595318 
825.000000	 63.572072 
824.000000	 63.564324 
823.000000	 63.570070 
822.000000	 63.586997 
821.000000	 63.612961 
820.000000	 63.646054 
819.000000	 63.684654 
818.000000	 63.726544 
817.000000	 63.769102 
816.000000	 63.808894 
815.000000	 63.842201 
814.000000	 63.865661 
813.000000	 63.877201 
812.000000	 63.876819 
811.000000	 63.866138 
810.000000	 63.848447 
809.000000	 63.827157 
808.000000	 63.805437 
807.000000	 63.785171 
806.000000	 63.766789 
805.000000	 63.749790 
804.000000	 63.733363 
803.000000	 63.717317 
802.000000	 63.702678 
801.000000	 63.691782 
800.000000	 63.687872 
799.000000	 63.693904 
798.000000	 63.711118 
797.000000	 63.738679 
796.000000	 63.773465 
795.000000	 63.810276 
794.000000	 63.843178 
793.000000	 63.867139 
792.000000	 63.879442 
791.000000	 63.880228 
790.000000	 63.872194 
789.000000	 63.859844 
788.000000	 63.847875 
787.000000	 63.840222 
786.000000	 63.838720 
785.000000	 63.842749 
784.000000	 63.849472 
783.000000	 63.855385 
782.000000	 63.856887 
781.000000	 63.851737 
780.000000	 63.839769 
779.000000	 63.822913 
778.000000	 63.804697 
777.000000	 63.788676 
776.000000	 63.778138 
775.000000	 63.774847 
774.000000	 63.779282 
773.000000	 63.790369 
772.000000	 63.806390 
771.000000	 63.825631 
770.000000	 63.847160 
769.000000	 63.870835 
768.000000	 63.897085 
767.000000	 63.925909 
766.000000	 63.956785 
765.000000	 63.987970 
764.000000	 64.016127 
763.000000	 64.036965 
762.000000	 64.046525 
761.000000	 64.042043 
760.000000	 64.023232 
759.000000	 63.992238 
758.000000	 63.954043 
757.000000	 63.914299 
756.000000	 63.878464 
755.000000	 63.849496 
754.000000	 63.827633 
753.000000	 63.809704 
752.000000	 63.790822 
751.000000	 63.765311 
750.000000	 63.728499 
749.000000	 63.678908 
748.000000	 63.619041 
747.000000	 63.555288 
746.000000	 63.495922 
745.000000	 63.450384 
744.000000	 63.426995 
743.000000	 63.431310 
742.000000	 63.464975 
741.000000	 63.526177 
740.000000	 63.610315 
739.000000	 63.711142 
738.000000	 63.821721 
737.000000	 63.935303 
736.000000	 64.045953 
735.000000	 64.148616 
734.000000	 64.239287 
733.000000	 64.315176 
732.000000	 64.374160 
731.000000	 64.415764 
730.000000	 64.439225 
729.000000	 64.444851 
728.000000	 64.431929 
727.000000	 64.401078 
726.000000	 64.351701 
725.000000	 64.283871 
724.000000	 64.197254 
723.000000	 64.093637 
722.000000	 63.975548 
721.000000	 63.847017 
720.000000	 63.713240 
719.000000	 63.580393 
718.000000	 63.455414 
717.000000	 63.345456 
716.000000	 63.256955 
715.000000	 63.194727 
714.000000	 63.162207 
713.000000	 63.160920 
712.000000	 63.190031 
711.000000	 63.246464 
710.000000	 63.324737 
709.000000	 63.417744 
708.000000	 63.516211 
707.000000	 63.610482 
706.000000	 63.691735 
705.000000	 63.753533 
704.000000	 63.791489 
703.000000	 63.805460 
702.000000	 63.799238 
701.000000	 63.780236 
700.000000	 63.757967 
699.000000	 63.742089 
698.000000	 63.740992 
697.000000	 63.758778 
696.000000	 63.796448 
695.000000	 63.848233 
694.000000	 63.903927 
693.000000	 63.949680 
692.000000	 63.971948 
691.000000	 63.959884 
690.000000	 63.908386 
689.000000	 63.820123 
688.000000	 63.705635 
687.000000	 63.581061 
686.000000	 63.464713 
685.000000	 63.373994 
684.000000	 63.321065 
683.000000	 63.311195 
682.000000	 63.340926 
681.000000	 63.399243 
680.000000	 63.469815 
679.000000	 63.533973 
678.000000	 63.575601 
677.000000	 63.581919 
676.000000	 63.549351 
675.000000	 63.482737 
674.000000	 63.396477 
673.000000	 63.309979 
672.000000	 63.244199 
671.000000	 63.216543 
670.000000	 63.236451 
669.000000	 63.304162 
668.000000	 63.409423 
667.000000	 63.534498 
666.000000	 63.657879 
665.000000	 63.759660 
664.000000	 63.825345 
663.000000	 63.848328 
662.000000	 63.831019 
661.000000	 63.783097 
660.000000	 63.718795 
659.000000	 63.652610 
658.000000	 63.596487 
657.000000	 63.556313 
656.000000	 63.531160 
655.000000	 63.513374 
654.000000	 63.492131 
653.000000	 63.456511 
652.000000	 63.398241 
651.000000	 63.315749 
650.000000	 63.212943 
649.000000	 63.101768 
648.000000	 62.998366 
647.000000	 62.921357 
646.000000	 62.886118 
645.000000	 62.902927 
644.000000	 62.973928 
643.000000	 63.093018 
642.000000	 63.246774 
641.000000	 63.417339 
640.000000	 63.585424 
639.000000	 63.734626 
638.000000	 63.853812 
637.000000	 63.938522 
636.000000	 63.990283 
635.000000	 64.015483 
634.000000	 64.022541 
633.000000	 64.020466 
632.000000	 64.016175 
631.000000	 64.014220 
630.000000	 64.015436 
629.000000	 64.017891 
628.000000	 64.016604 
627.000000	 64.006280 
626.000000	 63.981533 
625.000000	 63.938307 
624.000000	 63.874769 
623.000000	 63.791370 
622.000000	 63.691997 
621.000000	 63.582897 
620.000000	 63.473224 
619.000000	 63.372397 
618.000000	 63.290739 
617.000000	 63.237547 
616.000000	 63.219952 
615.000000	 63.241219 
614.000000	 63.300347 
613.000000	 63.391494 
612.000000	 63.505005 
611.000000	 63.628101 
610.000000	 63.748311 
609.000000	 63.855195 
608.000000	 63.941717 
607.000000	 64.004993 
606.000000	 64.046669 
605.000000	 64.071416 
604.000000	 64.085245 
603.000000	 64.092874 
602.000000	 64.097285 
601.000000	 64.097929 
600.000000	 64.092659 
599.000000	 64.077353 
598.000000	 64.048552 
597.000000	 64.003753 
596.000000	 63.943529 
595.000000	 63.870334 
594.000000	 63.788056 
593.000000	 63.701486 
592.000000	 63.614964 
591.000000	 63.532757 
590.000000	 63.458013 
589.000000	 63.393712 
588.000000	 63.342905 
587.000000	 63.308525 
586.000000	 63.292503 
585.000000	 63.295817 
584.000000	 63.317418 
583.000000	 63.354635 
582.000000	 63.402891 
581.000000	 63.456583 
580.000000	 63.509416 
579.000000	 63.556408 
578.000000	 63.594150 
577.000000	 63.620662 
576.000000	 63.635444 
575.000000	 63.639450 
574.000000	 63.634777 
573.000000	 63.623476 
572.000000	 63.607716 
571.000000	 63.589763 
570.000000	 63.572239 
569.000000	 63.558411 
568.000000	 63.551878 
567.000000	 63.556075 
566.000000	 63.573503 
565.000000	 63.605213 
564.000000	 63.650107 
563.000000	 63.704371 
562.000000	 63.762640 
561.000000	 63.818788 
560.000000	 63.867640 
559.000000	 63.905811 
558.000000	 63.932847 
557.000000	 63.951468 
556.000000	 63.965511 
555.000000	 63.978433 
554.000000	 63.991737 
553.000000	 64.004039 
552.000000	 64.011096 
551.000000	 64.006805 
550.000000	 63.984918 
549.000000	 63.941049 
548.000000	 63.873958 
547.000000	 63.786840 
546.000000	 63.686275 
545.000000	 63.582110 
544.000000	 63.486146 
543.000000	 63.409876 
542.000000	 63.362479 
541.000000	 63.348221 
540.000000	 63.365507 
539.000000	 63.407397 
538.000000	 63.462066 
537.000000	 63.517165 
536.000000	 63.562059 
535.000000	 63.591289 
534.000000	 63.604807 
533.000000	 63.607692 
532.000000	 63.607597 
531.000000	 63.612413 
530.000000	 63.627243 
529.000000	 63.653850 
528.000000	 63.690066 
527.000000	 63.731002 
526.000000	 63.770675 
525.000000	 63.802981 
524.000000	 63.823056 
523.000000	 63.827586 
522.000000	 63.815331 
521.000000	 63.786911 
520.000000	 63.744449 
519.000000	 63.691258 
518.000000	 63.631224 
517.000000	 63.568592 
516.000000	 63.507127 
515.000000	 63.450694 
514.000000	 63.402342 
513.000000	 63.363385 
512.000000	 63.334417 
511.000000	 63.315439 
510.000000	 63.306355 
509.000000	 63.306403 
508.000000	 63.315486 
507.000000	 63.333654 
506.000000	 63.361692 
505.000000	 63.400530 
504.000000	 63.450241 
503.000000	 63.509035 
502.000000	 63.573288 
501.000000	 63.637804 
500.000000	 63.695955 
499.000000	 63.740611 
498.000000	 63.766217 
497.000000	 63.769984 
496.000000	 63.751840 
495.000000	 63.714337 
494.000000	 63.661670 
493.000000	 63.599586 
492.000000	 63.533306 
491.000000	 63.468837 
490.000000	 63.412427 
489.000000	 63.371610 
488.000000	 63.354253 
487.000000	 63.368201 
486.000000	 63.419842 
485.000000	 63.511800 
484.000000	 63.641142 
483.000000	 63.798356 
482.000000	 63.968014 
481.000000	 64.130592 
480.000000	 64.265823 
479.000000	 64.356184 
478.000000	 64.390850 
477.000000	 64.366316 
476.000000	 64.287590 
475.000000	 64.164352 
474.000000	 64.009165 
473.000000	 63.833856 
472.000000	 63.648128 
471.000000	 63.460135 
470.000000	 63.277363 
469.000000	 63.107419 
468.000000	 62.958598 
467.000000	 62.840151 
466.000000	 62.760114 
465.000000	 62.722682 
464.000000	 62.726640 
463.000000	 62.763214 
462.000000	 62.818169 
461.000000	 62.873625 
460.000000	 62.912487 
459.000000	 62.920618 
458.000000	 62.890958 
457.000000	 62.824892 
456.000000	 62.730908 
455.000000	 62.620973 
454.000000	 62.508654 
453.000000	 62.404966 
452.000000	 62.318110 
451.000000	 62.252593 
450.000000	 62.209534 
449.000000	 62.188339 
448.000000	 62.184906 
447.000000	 62.192773 
446.000000	 62.202453 
445.000000	 62.203121 
444.000000	 62.183499 
443.000000	 62.134552 
442.000000	 62.051320 
441.000000	 61.935615 
440.000000	 61.796426 
439.000000	 61.650323 
438.000000	 61.515998 
437.000000	 61.413836 
436.000000	 61.363792 
435.000000	 61.381745 
434.000000	 61.472678 
433.000000	 61.632370 
432.000000	 61.851167 
431.000000	 62.112593 
430.000000	 62.391877 
429.000000	 62.663412 
428.000000	 62.905669 
427.000000	 63.102793 
426.000000	 63.242650 
425.000000	 63.324189 
424.000000	 63.356995 
423.000000	 63.358855 
422.000000	 63.352489 
421.000000	 63.358187 
420.000000	 63.388156 
419.000000	 63.447880 
418.000000	 63.535666 
417.000000	 63.634133 
416.000000	 63.712406 
415.000000	 63.740706 
414.000000	 63.692045 
413.000000	 63.542962 
412.000000	 63.273954 
411.000000	 62.883877 
410.000000	 62.378478 
409.000000	 61.763525 
408.000000	 61.043238 
407.000000	 60.232234 
406.000000	 59.345364 
405.000000	 58.407974 
404.000000	 57.445096 
403.000000	 56.475543 
402.000000	 55.517339 
401.000000	 54.601860 
400.000000	 53.754854 
399.000000	 52.972245 
398.000000	 52.260828 
397.000000	 51.636075 
396.000000	 51.138138 
395.000000	 50.815987 
394.000000	 50.746750 
393.000000	 51.008439 
392.000000	 51.684665 
391.000000	 52.836275 
390.000000	 54.455828 
389.000000	 56.463718 
388.000000	 58.690214 
387.000000	 60.924530 
386.000000	 63.004589 
385.000000	 64.845490 
384.000000	 66.454339 
383.000000	 67.897629 
382.000000	 69.298171 
381.000000	 70.726132 
380.000000	 72.179746 
379.000000	 73.504042 
378.000000	 74.480676 
377.000000	 74.771881 
376.000000	 74.096632 
375.000000	 72.181820 
374.000000	 68.826293 
373.000000	 64.008712 
372.000000	 57.916092 
371.000000	 51.015591 
370.000000	 43.957614 

