PE IR       SPECTRUM    SPECTRUM    ASCII       PEDS        1.60        
  -1
BZBBF5~1.ASC
17/04/07
21:32:49.00
17/04/07
21:32:49.00
tln
$BZ1503107-1_t0101$<tbV0>[10.4,10.4,8.0,0.0,27,1,0]
370.000000
64









2002,4.07    
MIRTGS : RIGHTBACK : INTERNAL 2
MIR : ON : INTERNAL 2
OPTKBR

0.200000
8
8.000000
FILLER
RATIO
SPECTRUM
UNLOCKED 256

DOUBLE
64
COMBINED
1
0
0


1.000000
RATIO


1
0
TRUE
51149
0
LEFT NOT FITTED RIGHT NOT FITTED 0
NONE
NONE
15600
12.000000
4.427000
51148
TRUE
1 0 8 72 0 0 0 0 

15798.010000






#HDR
-1
-1
#GR
CM-1
%T
0.00002384185791015625
0.0
5000.000000
-1.000000
4631
8
90.180230
30.999755
#DATA
5000.000000	64.293217 
4999.000000	64.467883 
4998.000000	64.573287 
4997.000000	64.580869 
4996.000000	64.475679 
4995.000000	64.259576 
4994.000000	63.958764 
4993.000000	63.620305 
4992.000000	63.305497 
4991.000000	63.078927 
4990.000000	62.991118 
4989.000000	63.068366 
4988.000000	63.301348 
4987.000000	63.646960 
4986.000000	64.037251 
4985.000000	64.396071 
4984.000000	64.656424 
4983.000000	64.775300 
4982.000000	64.745354 
4981.000000	64.593172 
4980.000000	64.365410 
4979.000000	64.114880 
4978.000000	63.884615 
4977.000000	63.698697 
4976.000000	63.560271 
4975.000000	63.456416 
4974.000000	63.367962 
4973.000000	63.279986 
4972.000000	63.193607 
4971.000000	63.124370 
4970.000000	63.096618 
4969.000000	63.135194 
4968.000000	63.252639 
4967.000000	63.445377 
4966.000000	63.686347 
4965.000000	63.937091 
4964.000000	64.155483 
4963.000000	64.310240 
4962.000000	64.389133 
4961.000000	64.403390 
4960.000000	64.383029 
4959.000000	64.371514 
4958.000000	64.412164 
4957.000000	64.542984 
4956.000000	64.785599 
4955.000000	65.143918 
4954.000000	65.599393 
4953.000000	66.114234 
4952.000000	66.633629 
4951.000000	67.092823 
4950.000000	67.426562 
4949.000000	67.579817 
4948.000000	67.519330 
4947.000000	67.241430 
4946.000000	66.774964 
4945.000000	66.177535 
4944.000000	65.525412 
4943.000000	64.904379 
4942.000000	64.388871 
4941.000000	64.032745 
4940.000000	63.856148 
4939.000000	63.847208 
4938.000000	63.964843 
4937.000000	64.151096 
4936.000000	64.345860 
4935.000000	64.498257 
4934.000000	64.579963 
4933.000000	64.586853 
4932.000000	64.535951 
4931.000000	64.453983 
4930.000000	64.370822 
4929.000000	64.308357 
4928.000000	64.275574 
4927.000000	64.266657 
4926.000000	64.267253 
4925.000000	64.259433 
4924.000000	64.229679 
4923.000000	64.172315 
4922.000000	64.090299 
4921.000000	63.994812 
4920.000000	63.897538 
4919.000000	63.811826 
4918.000000	63.748455 
4917.000000	63.716578 
4916.000000	63.723134 
4915.000000	63.771986 
4914.000000	63.863229 
4913.000000	63.992047 
4912.000000	64.150810 
4911.000000	64.325213 
4910.000000	64.494538 
4909.000000	64.635658 
4908.000000	64.727330 
4907.000000	64.753890 
4906.000000	64.708542 
4905.000000	64.595508 
4904.000000	64.429616 
4903.000000	64.233899 
4902.000000	64.035272 
4901.000000	63.858580 
4900.000000	63.722395 
4899.000000	63.637256 
4898.000000	63.605237 
4897.000000	63.621664 
4896.000000	63.677406 
4895.000000	63.760781 
4894.000000	63.861012 
4893.000000	63.967442 
4892.000000	64.073300 
4891.000000	64.174127 
4890.000000	64.269542 
4889.000000	64.360713 
4888.000000	64.449834 
4887.000000	64.538097 
4886.000000	64.624691 
4885.000000	64.707136 
4884.000000	64.780402 
4883.000000	64.839148 
4882.000000	64.877486 
4881.000000	64.891505 
4880.000000	64.879155 
4879.000000	64.842033 
4878.000000	64.783573 
4877.000000	64.709186 
4876.000000	64.624309 
4875.000000	64.533734 
4874.000000	64.440989 
4873.000000	64.348483 
4872.000000	64.257287 
4871.000000	64.168119 
4870.000000	64.082551 
4869.000000	64.003586 
4868.000000	63.933944 
4867.000000	63.876867 
4866.000000	63.834404 
4865.000000	63.808536 
4864.000000	63.800215 
4863.000000	63.810062 
4862.000000	63.837170 
4861.000000	63.879585 
4860.000000	63.934469 
4859.000000	63.997101 
4858.000000	64.060449 
4857.000000	64.116334 
4856.000000	64.155936 
4855.000000	64.172124 
4854.000000	64.160346 
4853.000000	64.121222 
4852.000000	64.060759 
4851.000000	63.990163 
4850.000000	63.923597 
4849.000000	63.875317 
4848.000000	63.856458 
4847.000000	63.872861 
4846.000000	63.924169 
4845.000000	64.003944 
4844.000000	64.101672 
4843.000000	64.205789 
4842.000000	64.305734 
4841.000000	64.393377 
4840.000000	64.463663 
4839.000000	64.514350 
4838.000000	64.545130 
4837.000000	64.556288 
4836.000000	64.548540 
4835.000000	64.523100 
4834.000000	64.481997 
4833.000000	64.429235 
4832.000000	64.370369 
4831.000000	64.313197 
4830.000000	64.265346 
4829.000000	64.233446 
4828.000000	64.221167 
4827.000000	64.228320 
4826.000000	64.251875 
4825.000000	64.286828 
4824.000000	64.328169 
4823.000000	64.371824 
4822.000000	64.415884 
4821.000000	64.460396 
4820.000000	64.506411 
4819.000000	64.554882 
4818.000000	64.605736 
4817.000000	64.656853 
4816.000000	64.704775 
4815.000000	64.744520 
4814.000000	64.771485 
4813.000000	64.781785 
4812.000000	64.773797 
4811.000000	64.748024 
4810.000000	64.707279 
4809.000000	64.655900 
4808.000000	64.598941 
4807.000000	64.541578 
4806.000000	64.489078 
4805.000000	64.445900 
4804.000000	64.415669 
4803.000000	64.400315 
4802.000000	64.400076 
4801.000000	64.413237 
4800.000000	64.436388 
4799.000000	64.465355 
4798.000000	64.495444 
4797.000000	64.522886 
4796.000000	64.545035 
4795.000000	64.560365 
4794.000000	64.568233 
4793.000000	64.568138 
4792.000000	64.559626 
4791.000000	64.542770 
4790.000000	64.518499 
4789.000000	64.488577 
4788.000000	64.456009 
4787.000000	64.425635 
4786.000000	64.403104 
4785.000000	64.393782 
4784.000000	64.401197 
4783.000000	64.425849 
4782.000000	64.464616 
4781.000000	64.510989 
4780.000000	64.556527 
4779.000000	64.591979 
4778.000000	64.610314 
4777.000000	64.608430 
4776.000000	64.588236 
4775.000000	64.555644 
4774.000000	64.519739 
4773.000000	64.490485 
4772.000000	64.476108 
4771.000000	64.480876 
4770.000000	64.504361 
4769.000000	64.541625 
4768.000000	64.584136 
4767.000000	64.621734 
4766.000000	64.644694 
4765.000000	64.645791 
4764.000000	64.620995 
4763.000000	64.570450 
4762.000000	64.497399 
4761.000000	64.408040 
4760.000000	64.310026 
4759.000000	64.212393 
4758.000000	64.123821 
4757.000000	64.052748 
4756.000000	64.006567 
4755.000000	63.991045 
4754.000000	64.009189 
4753.000000	64.060902 
4752.000000	64.142203 
4751.000000	64.245867 
4750.000000	64.360928 
4749.000000	64.475750 
4748.000000	64.579248 
4747.000000	64.663290 
4746.000000	64.723300 
4745.000000	64.759206 
4744.000000	64.774537 
4743.000000	64.775323 
4742.000000	64.768338 
4741.000000	64.759206 
4740.000000	64.751291 
4739.000000	64.745593 
4738.000000	64.741110 
4737.000000	64.735269 
4736.000000	64.725255 
4735.000000	64.708995 
4734.000000	64.685678 
4733.000000	64.656400 
4732.000000	64.623355 
4731.000000	64.589524 
4730.000000	64.557290 
4729.000000	64.527487 
4728.000000	64.499211 
4727.000000	64.470410 
4726.000000	64.438533 
4725.000000	64.401197 
4724.000000	64.357709 
4723.000000	64.309144 
4722.000000	64.259004 
4721.000000	64.212369 
4720.000000	64.174914 
4719.000000	64.150977 
4718.000000	64.143419 
4717.000000	64.152669 
4716.000000	64.176583 
4715.000000	64.210700 
4714.000000	64.249825 
4713.000000	64.288878 
4712.000000	64.323711 
4711.000000	64.351773 
4710.000000	64.371228 
4709.000000	64.381074 
4708.000000	64.380931 
4707.000000	64.371109 
4706.000000	64.352893 
4705.000000	64.328503 
4704.000000	64.301800 
4703.000000	64.277124 
4702.000000	64.258909 
4701.000000	64.250349 
4700.000000	64.252924 
4699.000000	64.265680 
4698.000000	64.285778 
4697.000000	64.308667 
4696.000000	64.329957 
4695.000000	64.345526 
4694.000000	64.352607 
4693.000000	64.350199 
4692.000000	64.338850 
4691.000000	64.320921 
4690.000000	64.299488 
4689.000000	64.278602 
4688.000000	64.262199 
4687.000000	64.254570 
4686.000000	64.259839 
4685.000000	64.281320 
4684.000000	64.320778 
4683.000000	64.377546 
4682.000000	64.448189 
4681.000000	64.526057 
4680.000000	64.602398 
4679.000000	64.668130 
4678.000000	64.715552 
4677.000000	64.739918 
4676.000000	64.740443 
4675.000000	64.720106 
4674.000000	64.684987 
4673.000000	64.642858 
4672.000000	64.601421 
4671.000000	64.567422 
4670.000000	64.544868 
4669.000000	64.535856 
4668.000000	64.539217 
4667.000000	64.551830 
4666.000000	64.568614 
4665.000000	64.584326 
4664.000000	64.593887 
4663.000000	64.593434 
4662.000000	64.580774 
4661.000000	64.555668 
4660.000000	64.520072 
4659.000000	64.477443 
4658.000000	64.432311 
4657.000000	64.389252 
4656.000000	64.351963 
4655.000000	64.322566 
4654.000000	64.301300 
4653.000000	64.286684 
4652.000000	64.276027 
4651.000000	64.266371 
4650.000000	64.254999 
4649.000000	64.240431 
4648.000000	64.222502 
4647.000000	64.202618 
4646.000000	64.182567 
4645.000000	64.164924 
4644.000000	64.151906 
4643.000000	64.145708 
4642.000000	64.147567 
4641.000000	64.157986 
4640.000000	64.176821 
4639.000000	64.202880 
4638.000000	64.234471 
4637.000000	64.268660 
4636.000000	64.301753 
4635.000000	64.329385 
4634.000000	64.347434 
4633.000000	64.352965 
4632.000000	64.344787 
4631.000000	64.324188 
4630.000000	64.294981 
4629.000000	64.262700 
4628.000000	64.233541 
4627.000000	64.213132 
4626.000000	64.205121 
4625.000000	64.210748 
4624.000000	64.228105 
4623.000000	64.253211 
4622.000000	64.280486 
4621.000000	64.304757 
4620.000000	64.321708 
4619.000000	64.328813 
4618.000000	64.325428 
4617.000000	64.312052 
4616.000000	64.290452 
4615.000000	64.262318 
4614.000000	64.229941 
4613.000000	64.195728 
4612.000000	64.162516 
4611.000000	64.133381 
4610.000000	64.111495 
4609.000000	64.099836 
4608.000000	64.100265 
4607.000000	64.113211 
4606.000000	64.137792 
4605.000000	64.171910 
4604.000000	64.212226 
4603.000000	64.254736 
4602.000000	64.295077 
4601.000000	64.328861 
4600.000000	64.351987 
4599.000000	64.360880 
4598.000000	64.352440 
4597.000000	64.324855 
4596.000000	64.278173 
4595.000000	64.214611 
4594.000000	64.138913 
4593.000000	64.057803 
4592.000000	63.979458 
4591.000000	63.911581 
4590.000000	63.860106 
4589.000000	63.827872 
4588.000000	63.813972 
4587.000000	63.814258 
4586.000000	63.822698 
4585.000000	63.832902 
4584.000000	63.839721 
4583.000000	63.839960 
4582.000000	63.832712 
4581.000000	63.818955 
4580.000000	63.800740 
4579.000000	63.780212 
4578.000000	63.759088 
4577.000000	63.738250 
4576.000000	63.717985 
4575.000000	63.698768 
4574.000000	63.681697 
4573.000000	63.668680 
4572.000000	63.662004 
4571.000000	63.663578 
4570.000000	63.674616 
4569.000000	63.694334 
4568.000000	63.720488 
4567.000000	63.750028 
4566.000000	63.779449 
4565.000000	63.805890 
4564.000000	63.827204 
4563.000000	63.841724 
4562.000000	63.848710 
4561.000000	63.848042 
4560.000000	63.840508 
4559.000000	63.827347 
4558.000000	63.810920 
4557.000000	63.794898 
4556.000000	63.782811 
4555.000000	63.777613 
4554.000000	63.780355 
4553.000000	63.790059 
4552.000000	63.803124 
4551.000000	63.814234 
4550.000000	63.817453 
4549.000000	63.808059 
4548.000000	63.784074 
4547.000000	63.747000 
4546.000000	63.701844 
4545.000000	63.655686 
4544.000000	63.615751 
4543.000000	63.587307 
4542.000000	63.571786 
4541.000000	63.566708 
4540.000000	63.566589 
4539.000000	63.564848 
4538.000000	63.555645 
4537.000000	63.536477 
4536.000000	63.508367 
4535.000000	63.476419 
4534.000000	63.447546 
4533.000000	63.429403 
4532.000000	63.427662 
4531.000000	63.445019 
4530.000000	63.479900 
4529.000000	63.527536 
4528.000000	63.581228 
4527.000000	63.634014 
4526.000000	63.680148 
4525.000000	63.716220 
4524.000000	63.741350 
4523.000000	63.756370 
4522.000000	63.762736 
4521.000000	63.761973 
4520.000000	63.754558 
4519.000000	63.740038 
4518.000000	63.716936 
4517.000000	63.683557 
4516.000000	63.638806 
4515.000000	63.583588 
4514.000000	63.521051 
4513.000000	63.455605 
4512.000000	63.393020 
4511.000000	63.339376 
4510.000000	63.299965 
4509.000000	63.278436 
4508.000000	63.275909 
4507.000000	63.290810 
4506.000000	63.318562 
4505.000000	63.352584 
4504.000000	63.385176 
4503.000000	63.408422 
4502.000000	63.417005 
4501.000000	63.409066 
4500.000000	63.386106 
4499.000000	63.352203 
4498.000000	63.311576 
4497.000000	63.267350 
4496.000000	63.219785 
4495.000000	63.167214 
4494.000000	63.108634 
4493.000000	63.045573 
4492.000000	62.984061 
4491.000000	62.933921 
4490.000000	62.906217 
4489.000000	62.910842 
4488.000000	62.953400 
4487.000000	63.033509 
4486.000000	63.143277 
4485.000000	63.268971 
4484.000000	63.396263 
4483.000000	63.510012 
4482.000000	63.595533 
4481.000000	63.642191 
4480.000000	63.647913 
4479.000000	63.614869 
4478.000000	63.545250 
4477.000000	63.445281 
4476.000000	63.328981 
4475.000000	63.207101 
4474.000000	63.081502 
4473.000000	62.958335 
4472.000000	62.852239 
4471.000000	62.769079 
4470.000000	62.706303 
4469.000000	62.654519 
4468.000000	62.600994 
4467.000000	62.545466 
4466.000000	62.500405 
4465.000000	62.480187 
4464.000000	62.499547 
4463.000000	62.568688 
4462.000000	62.693643 
4461.000000	62.858271 
4460.000000	63.045883 
4459.000000	63.251876 
4458.000000	63.486123 
4457.000000	63.772678 
4456.000000	64.141178 
4455.000000	64.600586 
4454.000000	65.156841 
4453.000000	65.777277 
4452.000000	66.455030 
4451.000000	67.196297 
4450.000000	68.067765 
4449.000000	69.172739 
4448.000000	70.651292 
4447.000000	72.638678 
4446.000000	75.200366 
4445.000000	78.292584 
4444.000000	81.701946 
4443.000000	85.063171 
4442.000000	87.902402 
4441.000000	89.733576 
4440.000000	90.180230 
4439.000000	89.061093 
4438.000000	86.464619 
4437.000000	82.719683 
4436.000000	78.314161 
4435.000000	73.796129 
4434.000000	69.649839 
4433.000000	66.232466 
4432.000000	63.760447 
4431.000000	62.285161 
4430.000000	61.768817 
4429.000000	62.067365 
4428.000000	62.975072 
4427.000000	64.252161 
4426.000000	65.607237 
4425.000000	66.799068 
4424.000000	67.633461 
4423.000000	68.024873 
4422.000000	67.978167 
4421.000000	67.585396 
4420.000000	66.981840 
4419.000000	66.305494 
4418.000000	65.654635 
4417.000000	65.090131 
4416.000000	64.632415 
4415.000000	64.274621 
4414.000000	63.997936 
4413.000000	63.781833 
4412.000000	63.614821 
4411.000000	63.481926 
4410.000000	63.373994 
4409.000000	63.288140 
4408.000000	63.228631 
4407.000000	63.201379 
4406.000000	63.212871 
4405.000000	63.255023 
4404.000000	63.314676 
4403.000000	63.385438 
4402.000000	63.460135 
4401.000000	63.521885 
4400.000000	63.557195 
4399.000000	63.563847 
4398.000000	63.544559 
4397.000000	63.503813 
4396.000000	63.449001 
4395.000000	63.386154 
4394.000000	63.323473 
4393.000000	63.271522 
4392.000000	63.238430 
4391.000000	63.228726 
4390.000000	63.242340 
4389.000000	63.274788 
4388.000000	63.318204 
4387.000000	63.363337 
4386.000000	63.398718 
4385.000000	63.413953 
4384.000000	63.404059 
4383.000000	63.370513 
4382.000000	63.319087 
4381.000000	63.259387 
4380.000000	63.202548 
4379.000000	63.159155 
4378.000000	63.136720 
4377.000000	63.138723 
4376.000000	63.164329 
4375.000000	63.209152 
4374.000000	63.266777 
4373.000000	63.330292 
4372.000000	63.393092 
4371.000000	63.450956 
4370.000000	63.501834 
4369.000000	63.546061 
4368.000000	63.584971 
4367.000000	63.620519 
4366.000000	63.654303 
4365.000000	63.687181 
4364.000000	63.719201 
4363.000000	63.749694 
4362.000000	63.777685 
4361.000000	63.802576 
4360.000000	63.824415 
4359.000000	63.843822 
4358.000000	63.861680 
4357.000000	63.879132 
4356.000000	63.896512 
4355.000000	63.913655 
4354.000000	63.928604 
4353.000000	63.938903 
4352.000000	63.940834 
4351.000000	63.930606 
4350.000000	63.904738 
4349.000000	63.861584 
4348.000000	63.802003 
4347.000000	63.729119 
4346.000000	63.648939 
4345.000000	63.569140 
4344.000000	63.498187 
4343.000000	63.443732 
4342.000000	63.411021 
4341.000000	63.401722 
4340.000000	63.413977 
4339.000000	63.442945 
4338.000000	63.481473 
4337.000000	63.521575 
4336.000000	63.556337 
4335.000000	63.581418 
4334.000000	63.595223 
4333.000000	63.598990 
4332.000000	63.596057 
4331.000000	63.590836 
4330.000000	63.587665 
4329.000000	63.589906 
4328.000000	63.599801 
4327.000000	63.617920 
4326.000000	63.643884 
4325.000000	63.676214 
4324.000000	63.712596 
4323.000000	63.750195 
4322.000000	63.785982 
4321.000000	63.817286 
4320.000000	63.841581 
4319.000000	63.857340 
4318.000000	63.864517 
4317.000000	63.864040 
4316.000000	63.857746 
4315.000000	63.847637 
4314.000000	63.835978 
4313.000000	63.823699 
4312.000000	63.810539 
4311.000000	63.795351 
4310.000000	63.776850 
4309.000000	63.754415 
4308.000000	63.729023 
4307.000000	63.703584 
4306.000000	63.682556 
4305.000000	63.670825 
4304.000000	63.672614 
4303.000000	63.689637 
4302.000000	63.720822 
4301.000000	63.762283 
4300.000000	63.808608 
4299.000000	63.853645 
4298.000000	63.892722 
4297.000000	63.923645 
4296.000000	63.947486 
4295.000000	63.967418 
4294.000000	63.987946 
4293.000000	64.012885 
4292.000000	64.044070 
4291.000000	64.080643 
4290.000000	64.119124 
4289.000000	64.154601 
4288.000000	64.181780 
4287.000000	64.197111 
4286.000000	64.198875 
4285.000000	64.187836 
4284.000000	64.166951 
4283.000000	64.140605 
4282.000000	64.113998 
4281.000000	64.091753 
4280.000000	64.077806 
4279.000000	64.074492 
4278.000000	64.082026 
4277.000000	64.098167 
4276.000000	64.118695 
4275.000000	64.138221 
4274.000000	64.150452 
4273.000000	64.150166 
4272.000000	64.133810 
4271.000000	64.101147 
4270.000000	64.055275 
4269.000000	64.002537 
4268.000000	63.951039 
4267.000000	63.909053 
4266.000000	63.883185 
4265.000000	63.876962 
4264.000000	63.889503 
4263.000000	63.916802 
4262.000000	63.952875 
4261.000000	63.991689 
4260.000000	64.028334 
4259.000000	64.060568 
4258.000000	64.088821 
4257.000000	64.115333 
4256.000000	64.142751 
4255.000000	64.173507 
4254.000000	64.208769 
4253.000000	64.247989 
4252.000000	64.288949 
4251.000000	64.328813 
4250.000000	64.364814 
4249.000000	64.395260 
4248.000000	64.419817 
4247.000000	64.439463 
4246.000000	64.455676 
4245.000000	64.470338 
4244.000000	64.484643 
4243.000000	64.498949 
4242.000000	64.512109 
4241.000000	64.522671 
4240.000000	64.528346 
4239.000000	64.527297 
4238.000000	64.517879 
4237.000000	64.499926 
4236.000000	64.474034 
4235.000000	64.441823 
4234.000000	64.405250 
4233.000000	64.366745 
4232.000000	64.328193 
4231.000000	64.290833 
4230.000000	64.254760 
4229.000000	64.219236 
4228.000000	64.182925 
4227.000000	64.144897 
4226.000000	64.104700 
4225.000000	64.063167 
4224.000000	64.023041 
4223.000000	63.988733 
4222.000000	63.965511 
4221.000000	63.958477 
4220.000000	63.971376 
4219.000000	64.005422 
4218.000000	64.058613 
4217.000000	64.125895 
4216.000000	64.199423 
4215.000000	64.270305 
4214.000000	64.330267 
4213.000000	64.373111 
4212.000000	64.395666 
4211.000000	64.398169 
4210.000000	64.384269 
4209.000000	64.359331 
4208.000000	64.329147 
4207.000000	64.298558 
4206.000000	64.271140 
4205.000000	64.248418 
4204.000000	64.230370 
4203.000000	64.215922 
4202.000000	64.204001 
4201.000000	64.193153 
4200.000000	64.182233 
4199.000000	64.170265 
4198.000000	64.156651 
4197.000000	64.141368 
4196.000000	64.125299 
4195.000000	64.110302 
4194.000000	64.099431 
4193.000000	64.096689 
4192.000000	64.106583 
4191.000000	64.132642 
4190.000000	64.176917 
4189.000000	64.238786 
4188.000000	64.315366 
4187.000000	64.400982 
4186.000000	64.488983 
4185.000000	64.572811 
4184.000000	64.647340 
4183.000000	64.709734 
4182.000000	64.759254 
4181.000000	64.797353 
4180.000000	64.826226 
4179.000000	64.847993 
4178.000000	64.863681 
4177.000000	64.873218 
4176.000000	64.875435 
4175.000000	64.869308 
4174.000000	64.854145 
4173.000000	64.830517 
4172.000000	64.800143 
4171.000000	64.765644 
4170.000000	64.729499 
4169.000000	64.693570 
4168.000000	64.658474 
4167.000000	64.623761 
4166.000000	64.588522 
4165.000000	64.552068 
4164.000000	64.514923 
4163.000000	64.479279 
4162.000000	64.448404 
4161.000000	64.426398 
4160.000000	64.416766 
4159.000000	64.421939 
4158.000000	64.442133 
4157.000000	64.475727 
4156.000000	64.519071 
4155.000000	64.567232 
4154.000000	64.615368 
4153.000000	64.658689 
4152.000000	64.693164 
4151.000000	64.715600 
4150.000000	64.724278 
4149.000000	64.718270 
4148.000000	64.697527 
4147.000000	64.663100 
4146.000000	64.617228 
4145.000000	64.563512 
4144.000000	64.507055 
4143.000000	64.453744 
4142.000000	64.409852 
4141.000000	64.380717 
4140.000000	64.370107 
4139.000000	64.379072 
4138.000000	64.406323 
4137.000000	64.447808 
4136.000000	64.498662 
4135.000000	64.553523 
4134.000000	64.608454 
4133.000000	64.660954 
4132.000000	64.710307 
4131.000000	64.756584 
4130.000000	64.799952 
4129.000000	64.839816 
4128.000000	64.874243 
4127.000000	64.900207 
4126.000000	64.914226 
4125.000000	64.913749 
4124.000000	64.898061 
4123.000000	64.869260 
4122.000000	64.832067 
4121.000000	64.793133 
4120.000000	64.759516 
4119.000000	64.737319 
4118.000000	64.730024 
4117.000000	64.737629 
4116.000000	64.756751 
4115.000000	64.781188 
4114.000000	64.803671 
4113.000000	64.817428 
4112.000000	64.817547 
4111.000000	64.802408 
4110.000000	64.773464 
4109.000000	64.735484 
4108.000000	64.694857 
4107.000000	64.658999 
4106.000000	64.634346 
4105.000000	64.625453 
4104.000000	64.634370 
4103.000000	64.659953 
4102.000000	64.698696 
4101.000000	64.744782 
4100.000000	64.791679 
4099.000000	64.833068 
4098.000000	64.863562 
4097.000000	64.880013 
4096.000000	64.881658 
4095.000000	64.870095 
4094.000000	64.848709 
4093.000000	64.821672 
4092.000000	64.793109 
4091.000000	64.766240 
4090.000000	64.742732 
4089.000000	64.722895 
4088.000000	64.705872 
4087.000000	64.690232 
4086.000000	64.674806 
4085.000000	64.658927 
4084.000000	64.643096 
4083.000000	64.628481 
4082.000000	64.616990 
4081.000000	64.610815 
4080.000000	64.612150 
4079.000000	64.622139 
4078.000000	64.641070 
4077.000000	64.668035 
4076.000000	64.701128 
4075.000000	64.737725 
4074.000000	64.774680 
4073.000000	64.808368 
4072.000000	64.835572 
4071.000000	64.853930 
4070.000000	64.862155 
4069.000000	64.860177 
4068.000000	64.849066 
4067.000000	64.830899 
4066.000000	64.807772 
4065.000000	64.781570 
4064.000000	64.753413 
4063.000000	64.723920 
4062.000000	64.692997 
4061.000000	64.660406 
4060.000000	64.626669 
4059.000000	64.592742 
4058.000000	64.560413 
4057.000000	64.531636 
4056.000000	64.507842 
4055.000000	64.489459 
4054.000000	64.475369 
4053.000000	64.463496 
4052.000000	64.450764 
4051.000000	64.434933 
4050.000000	64.415049 
4049.000000	64.392685 
4048.000000	64.371371 
4047.000000	64.356327 
4046.000000	64.353013 
4045.000000	64.365649 
4044.000000	64.395380 
4043.000000	64.440464 
4042.000000	64.496469 
4041.000000	64.557218 
4040.000000	64.616179 
4039.000000	64.668393 
4038.000000	64.711403 
4037.000000	64.745426 
4036.000000	64.772796 
4035.000000	64.796376 
4034.000000	64.818358 
4033.000000	64.839506 
4032.000000	64.858460 
4031.000000	64.872407 
4030.000000	64.877510 
4029.000000	64.871430 
4028.000000	64.853119 
4027.000000	64.824032 
4026.000000	64.787006 
4025.000000	64.746356 
4024.000000	64.706015 
4023.000000	64.668583 
4022.000000	64.634823 
4021.000000	64.603829 
4020.000000	64.573454 
4019.000000	64.541387 
4018.000000	64.505815 
4017.000000	64.466190 
4016.000000	64.423346 
4015.000000	64.379310 
4014.000000	64.336681 
4013.000000	64.297819 
4012.000000	64.264965 
4011.000000	64.239907 
4010.000000	64.224076 
4009.000000	64.218568 
4008.000000	64.224600 
4007.000000	64.243221 
4006.000000	64.274549 
4005.000000	64.317440 
4004.000000	64.368987 
4003.000000	64.424848 
4002.000000	64.479398 
4001.000000	64.527153 
4000.000000	64.563560 
3999.000000	64.586091 
3998.000000	64.595246 
3997.000000	64.593648 
3996.000000	64.585638 
3995.000000	64.575433 
3994.000000	64.566588 
3993.000000	64.560246 
3992.000000	64.555215 
3991.000000	64.548182 
3990.000000	64.535737 
3989.000000	64.514946 
3988.000000	64.485025 
3987.000000	64.447641 
3986.000000	64.406824 
3985.000000	64.367580 
3984.000000	64.334774 
3983.000000	64.311528 
3982.000000	64.298725 
3981.000000	64.294958 
3980.000000	64.297604 
3979.000000	64.303493 
3978.000000	64.310216 
3977.000000	64.317154 
3976.000000	64.325380 
3975.000000	64.336776 
3974.000000	64.353322 
3973.000000	64.375686 
3972.000000	64.402961 
3971.000000	64.432239 
3970.000000	64.459466 
3969.000000	64.480447 
3968.000000	64.491820 
3967.000000	64.492392 
3966.000000	64.482808 
3965.000000	64.465355 
3964.000000	64.443302 
3963.000000	64.420104 
3962.000000	64.398360 
3961.000000	64.379429 
3960.000000	64.363312 
3959.000000	64.349460 
3958.000000	64.336323 
3957.000000	64.322113 
3956.000000	64.304804 
3955.000000	64.282679 
3954.000000	64.253902 
3953.000000	64.217519 
3952.000000	64.173126 
3951.000000	64.121937 
3950.000000	64.067101 
3949.000000	64.013886 
3948.000000	63.968658 
3947.000000	63.938260 
3946.000000	63.928532 
3945.000000	63.942980 
3944.000000	63.981437 
3943.000000	64.040493 
3942.000000	64.113450 
3941.000000	64.192533 
3940.000000	64.269733 
3939.000000	64.339256 
3938.000000	64.397811 
3937.000000	64.445328 
3936.000000	64.483880 
3935.000000	64.516973 
3934.000000	64.547848 
3933.000000	64.578390 
3932.000000	64.608645 
3931.000000	64.636635 
3930.000000	64.659047 
3929.000000	64.672398 
3928.000000	64.673876 
3927.000000	64.661836 
3926.000000	64.636206 
3925.000000	64.598226 
3924.000000	64.550209 
3923.000000	64.494895 
3922.000000	64.435601 
3921.000000	64.375758 
3920.000000	64.319133 
3919.000000	64.269590 
3918.000000	64.230918 
3917.000000	64.206528 
3916.000000	64.199090 
3915.000000	64.209318 
3914.000000	64.236187 
3913.000000	64.276170 
3912.000000	64.323925 
3911.000000	64.373159 
3910.000000	64.417481 
3909.000000	64.451169 
3908.000000	64.470791 
3907.000000	64.475345 
3906.000000	64.466238 
3905.000000	64.446401 
3904.000000	64.419436 
3903.000000	64.388632 
3902.000000	64.356470 
3901.000000	64.324235 
3900.000000	64.292478 
3899.000000	64.261388 
3898.000000	64.231514 
3897.000000	64.204072 
3896.000000	64.180731 
3895.000000	64.163661 
3894.000000	64.154601 
3893.000000	64.154577 
3892.000000	64.162993 
3891.000000	64.178085 
3890.000000	64.197206 
3889.000000	64.217329 
3888.000000	64.235424 
3887.000000	64.249253 
3886.000000	64.257764 
3885.000000	64.261126 
3884.000000	64.260125 
3883.000000	64.256405 
3882.000000	64.251589 
3881.000000	64.247775 
3880.000000	64.247107 
3879.000000	64.251518 
3878.000000	64.262437 
3877.000000	64.280486 
3876.000000	64.305210 
3875.000000	64.334654 
3874.000000	64.365696 
3873.000000	64.394640 
3872.000000	64.418053 
3871.000000	64.433598 
3870.000000	64.440584 
3869.000000	64.439988 
3868.000000	64.434242 
3867.000000	64.426708 
3866.000000	64.421057 
3865.000000	64.420175 
3864.000000	64.425969 
3863.000000	64.438939 
3862.000000	64.458584 
3861.000000	64.483952 
3860.000000	64.513564 
3859.000000	64.546132 
3858.000000	64.580178 
3857.000000	64.613986 
3856.000000	64.645433 
3855.000000	64.671969 
3854.000000	64.690756 
3853.000000	64.699268 
3852.000000	64.695715 
3851.000000	64.679741 
3850.000000	64.652037 
3849.000000	64.614772 
3848.000000	64.570856 
3847.000000	64.523696 
3846.000000	64.477109 
3845.000000	64.434719 
3844.000000	64.399766 
3843.000000	64.374661 
3842.000000	64.361000 
3841.000000	64.359068 
3840.000000	64.367628 
3839.000000	64.383864 
3838.000000	64.403653 
3837.000000	64.422273 
3836.000000	64.434695 
3835.000000	64.437413 
3834.000000	64.428472 
3833.000000	64.408636 
3832.000000	64.381122 
3831.000000	64.351224 
3830.000000	64.325118 
3829.000000	64.308452 
3828.000000	64.305186 
3827.000000	64.316511 
3826.000000	64.341044 
3825.000000	64.374732 
3824.000000	64.411973 
3823.000000	64.446592 
3822.000000	64.473176 
3821.000000	64.487886 
3820.000000	64.489126 
3819.000000	64.477539 
3818.000000	64.455628 
3817.000000	64.427518 
3816.000000	64.397597 
3815.000000	64.370059 
3814.000000	64.347910 
3813.000000	64.333415 
3812.000000	64.327383 
3811.000000	64.329743 
3810.000000	64.339590 
3809.000000	64.355635 
3808.000000	64.376306 
3807.000000	64.400029 
3806.000000	64.425325 
3805.000000	64.450454 
3804.000000	64.474225 
3803.000000	64.495778 
3802.000000	64.514780 
3801.000000	64.531278 
3800.000000	64.545655 
3799.000000	64.558577 
3798.000000	64.570498 
3797.000000	64.581847 
3796.000000	64.592337 
3795.000000	64.601349 
3794.000000	64.607930 
3793.000000	64.611315 
3792.000000	64.611339 
3791.000000	64.608764 
3790.000000	64.605093 
3789.000000	64.602375 
3788.000000	64.602732 
3787.000000	64.607667 
3786.000000	64.617919 
3785.000000	64.632892 
3784.000000	64.651083 
3783.000000	64.670085 
3782.000000	64.687681 
3781.000000	64.701604 
3780.000000	64.710187 
3779.000000	64.712023 
3778.000000	64.706349 
3777.000000	64.693021 
3776.000000	64.672517 
3775.000000	64.646124 
3774.000000	64.615631 
3773.000000	64.583635 
3772.000000	64.553284 
3771.000000	64.527726 
3770.000000	64.509582 
3769.000000	64.500427 
3768.000000	64.500308 
3767.000000	64.507532 
3766.000000	64.519000 
3765.000000	64.530682 
3764.000000	64.538884 
3763.000000	64.540648 
3762.000000	64.534878 
3761.000000	64.522266 
3760.000000	64.505577 
3759.000000	64.488410 
3758.000000	64.474749 
3757.000000	64.467811 
3756.000000	64.469385 
3755.000000	64.479565 
3754.000000	64.496660 
3753.000000	64.517903 
3752.000000	64.540076 
3751.000000	64.560127 
3750.000000	64.576196 
3749.000000	64.587640 
3748.000000	64.595150 
3747.000000	64.600181 
3746.000000	64.604544 
3745.000000	64.609503 
3744.000000	64.615726 
3743.000000	64.622879 
3742.000000	64.629864 
3741.000000	64.635276 
3740.000000	64.637637 
3739.000000	64.635944 
3738.000000	64.629769 
3737.000000	64.619302 
3736.000000	64.605236 
3735.000000	64.588737 
3734.000000	64.571404 
3733.000000	64.555001 
3732.000000	64.541387 
3731.000000	64.532351 
3730.000000	64.529228 
3729.000000	64.532828 
3728.000000	64.542984 
3727.000000	64.558625 
3726.000000	64.577627 
3725.000000	64.597296 
3724.000000	64.614796 
3723.000000	64.628005 
3722.000000	64.635705 
3721.000000	64.638042 
3720.000000	64.636445 
3719.000000	64.632797 
3718.000000	64.628982 
3717.000000	64.626145 
3716.000000	64.624428 
3715.000000	64.623045 
3714.000000	64.620590 
3713.000000	64.615654 
3712.000000	64.607524 
3711.000000	64.596438 
3710.000000	64.583635 
3709.000000	64.570927 
3708.000000	64.560294 
3707.000000	64.553260 
3706.000000	64.550733 
3705.000000	64.552521 
3704.000000	64.557838 
3703.000000	64.565205 
3702.000000	64.573144 
3701.000000	64.580559 
3700.000000	64.587068 
3699.000000	64.592719 
3698.000000	64.598250 
3697.000000	64.604473 
3696.000000	64.612507 
3695.000000	64.623188 
3694.000000	64.637041 
3693.000000	64.654302 
3692.000000	64.674425 
3691.000000	64.696526 
3690.000000	64.719104 
3689.000000	64.740276 
3688.000000	64.757895 
3687.000000	64.769911 
3686.000000	64.774632 
3685.000000	64.771127 
3684.000000	64.759325 
3683.000000	64.740109 
3682.000000	64.715361 
3681.000000	64.687609 
3680.000000	64.659881 
3679.000000	64.635252 
3678.000000	64.616560 
3677.000000	64.605998 
3676.000000	64.605045 
3675.000000	64.614224 
3674.000000	64.632916 
3673.000000	64.659547 
3672.000000	64.691591 
3671.000000	64.725947 
3670.000000	64.759016 
3669.000000	64.787435 
3668.000000	64.808320 
3667.000000	64.819836 
3666.000000	64.821434 
3665.000000	64.813876 
3664.000000	64.799213 
3663.000000	64.780092 
3662.000000	64.759445 
3661.000000	64.739871 
3660.000000	64.723205 
3659.000000	64.710259 
3658.000000	64.700984 
3657.000000	64.694762 
3656.000000	64.690923 
3655.000000	64.688777 
3654.000000	64.687919 
3653.000000	64.688134 
3652.000000	64.689207 
3651.000000	64.690494 
3650.000000	64.691162 
3649.000000	64.689850 
3648.000000	64.685368 
3647.000000	64.676833 
3646.000000	64.664220 
3645.000000	64.648532 
3644.000000	64.631867 
3643.000000	64.616918 
3642.000000	64.606618 
3641.000000	64.603424 
3640.000000	64.608502 
3639.000000	64.621305 
3638.000000	64.639711 
3637.000000	64.660477 
3636.000000	64.679718 
3635.000000	64.693784 
3634.000000	64.699983 
3633.000000	64.697122 
3632.000000	64.685702 
3631.000000	64.667725 
3630.000000	64.646077 
3629.000000	64.623737 
3628.000000	64.603400 
3627.000000	64.586782 
3626.000000	64.574193 
3625.000000	64.564585 
3624.000000	64.556431 
3623.000000	64.547991 
3622.000000	64.537978 
3621.000000	64.526319 
3620.000000	64.513754 
3619.000000	64.502143 
3618.000000	64.493489 
3617.000000	64.489531 
3616.000000	64.490938 
3615.000000	64.497089 
3614.000000	64.506125 
3613.000000	64.515399 
3612.000000	64.522099 
3611.000000	64.524269 
3610.000000	64.521050 
3609.000000	64.513349 
3608.000000	64.503169 
3607.000000	64.493393 
3606.000000	64.486837 
3605.000000	64.485740 
3604.000000	64.491033 
3603.000000	64.502644 
3602.000000	64.519405 
3601.000000	64.539742 
3600.000000	64.562034 
3599.000000	64.584684 
3598.000000	64.606475 
3597.000000	64.626669 
3596.000000	64.644384 
3595.000000	64.658761 
3594.000000	64.668631 
3593.000000	64.673089 
3592.000000	64.671277 
3591.000000	64.663434 
3590.000000	64.650201 
3589.000000	64.633297 
3588.000000	64.614534 
3587.000000	64.595890 
3586.000000	64.578557 
3585.000000	64.562988 
3584.000000	64.548873 
3583.000000	64.535570 
3582.000000	64.522504 
3581.000000	64.509534 
3580.000000	64.497137 
3579.000000	64.486503 
3578.000000	64.478945 
3577.000000	64.475560 
3576.000000	64.477038 
3575.000000	64.483475 
3574.000000	64.494323 
3573.000000	64.508533 
3572.000000	64.525079 
3571.000000	64.543056 
3570.000000	64.561867 
3569.000000	64.580750 
3568.000000	64.598965 
3567.000000	64.615178 
3566.000000	64.627718 
3565.000000	64.634513 
3564.000000	64.633846 
3563.000000	64.624428 
3562.000000	64.606571 
3561.000000	64.581418 
3560.000000	64.551305 
3559.000000	64.519000 
3558.000000	64.487481 
3557.000000	64.459061 
3556.000000	64.435172 
3555.000000	64.416122 
3554.000000	64.401578 
3553.000000	64.390468 
3552.000000	64.381384 
3551.000000	64.372944 
3550.000000	64.364123 
3549.000000	64.354109 
3548.000000	64.342737 
3547.000000	64.329957 
3546.000000	64.316153 
3545.000000	64.302062 
3544.000000	64.288830 
3543.000000	64.277863 
3542.000000	64.270853 
3541.000000	64.269280 
3540.000000	64.274787 
3539.000000	64.288187 
3538.000000	64.309906 
3537.000000	64.339685 
3536.000000	64.376878 
3535.000000	64.420104 
3534.000000	64.467597 
3533.000000	64.516997 
3532.000000	64.565753 
3531.000000	64.611220 
3530.000000	64.650774 
3529.000000	64.682149 
3528.000000	64.703750 
3527.000000	64.714932 
3526.000000	64.715623 
3525.000000	64.706420 
3524.000000	64.688515 
3523.000000	64.663743 
3522.000000	64.633965 
3521.000000	64.601230 
3520.000000	64.567708 
3519.000000	64.535689 
3518.000000	64.507389 
3517.000000	64.484739 
3516.000000	64.469170 
3515.000000	64.461326 
3514.000000	64.460921 
3513.000000	64.466786 
3512.000000	64.476656 
3511.000000	64.488053 
3510.000000	64.498591 
3509.000000	64.506816 
3508.000000	64.511966 
3507.000000	64.514493 
3506.000000	64.515662 
3505.000000	64.517092 
3504.000000	64.519977 
3503.000000	64.525055 
3502.000000	64.532399 
3501.000000	64.541530 
3500.000000	64.551520 
3499.000000	64.561891 
3498.000000	64.572882 
3497.000000	64.585447 
3496.000000	64.600872 
3495.000000	64.620471 
3494.000000	64.644861 
3493.000000	64.673614 
3492.000000	64.704728 
3491.000000	64.735054 
3490.000000	64.760661 
3489.000000	64.778089 
3488.000000	64.784741 
3487.000000	64.779758 
3486.000000	64.763855 
3485.000000	64.739537 
3484.000000	64.710330 
3483.000000	64.680099 
3482.000000	64.652299 
3481.000000	64.629554 
3480.000000	64.612960 
3479.000000	64.602613 
3478.000000	64.597535 
3477.000000	64.596319 
3476.000000	64.597058 
3475.000000	64.598035 
3474.000000	64.597463 
3473.000000	64.593935 
3472.000000	64.586067 
3471.000000	64.572668 
3470.000000	64.552927 
3469.000000	64.526820 
3468.000000	64.495396 
3467.000000	64.460659 
3466.000000	64.425706 
3465.000000	64.394021 
3464.000000	64.369249 
3463.000000	64.354062 
3462.000000	64.349579 
3461.000000	64.354825 
3460.000000	64.367032 
3459.000000	64.382195 
3458.000000	64.395475 
3457.000000	64.402985 
3456.000000	64.402127 
3455.000000	64.392781 
3454.000000	64.376688 
3453.000000	64.357542 
3452.000000	64.339399 
3451.000000	64.326381 
3450.000000	64.321279 
3449.000000	64.325571 
3448.000000	64.338994 
3447.000000	64.360284 
3446.000000	64.387631 
3445.000000	64.419150 
3444.000000	64.453196 
3443.000000	64.488339 
3442.000000	64.523386 
3441.000000	64.556741 
3440.000000	64.586257 
3439.000000	64.609456 
3438.000000	64.623689 
3437.000000	64.626860 
3436.000000	64.617586 
3435.000000	64.596533 
3434.000000	64.565753 
3433.000000	64.528846 
3432.000000	64.489912 
3431.000000	64.453268 
3430.000000	64.422464 
3429.000000	64.399600 
3428.000000	64.385175 
3427.000000	64.378309 
3426.000000	64.376997 
3425.000000	64.379024 
3424.000000	64.382314 
3423.000000	64.385247 
3422.000000	64.387226 
3421.000000	64.388680 
3420.000000	64.390707 
3419.000000	64.394378 
3418.000000	64.400792 
3417.000000	64.410352 
3416.000000	64.422607 
3415.000000	64.436268 
3414.000000	64.449548 
3413.000000	64.460492 
3412.000000	64.467287 
3411.000000	64.468955 
3410.000000	64.465475 
3409.000000	64.458036 
3408.000000	64.448595 
3407.000000	64.439702 
3406.000000	64.433741 
3405.000000	64.432334 
3404.000000	64.436340 
3403.000000	64.445471 
3402.000000	64.458322 
3401.000000	64.472532 
3400.000000	64.485859 
3399.000000	64.495778 
3398.000000	64.500284 
3397.000000	64.497900 
3396.000000	64.487957 
3395.000000	64.470529 
3394.000000	64.446425 
3393.000000	64.417195 
3392.000000	64.384961 
3391.000000	64.352273 
3390.000000	64.321923 
3389.000000	64.296531 
3388.000000	64.278411 
3387.000000	64.268970 
3386.000000	64.268779 
3385.000000	64.277172 
3384.000000	64.292788 
3383.000000	64.313817 
3382.000000	64.338493 
3381.000000	64.365243 
3380.000000	64.392948 
3379.000000	64.420986 
3378.000000	64.448809 
3377.000000	64.475655 
3376.000000	64.500331 
3375.000000	64.521145 
3374.000000	64.535999 
3373.000000	64.543032 
3372.000000	64.540839 
3371.000000	64.529180 
3370.000000	64.509081 
3369.000000	64.482975 
3368.000000	64.454317 
3367.000000	64.427137 
3366.000000	64.405226 
3365.000000	64.391398 
3364.000000	64.387035 
3363.000000	64.391827 
3362.000000	64.403939 
3361.000000	64.420580 
3360.000000	64.438557 
3359.000000	64.454913 
3358.000000	64.467477 
3357.000000	64.475011 
3356.000000	64.477252 
3355.000000	64.474797 
3354.000000	64.468693 
3353.000000	64.460325 
3352.000000	64.451098 
3351.000000	64.442420 
3350.000000	64.435553 
3349.000000	64.431309 
3348.000000	64.430308 
3347.000000	64.432358 
3346.000000	64.436888 
3345.000000	64.442491 
3344.000000	64.447331 
3343.000000	64.449501 
3342.000000	64.447474 
3341.000000	64.440417 
3340.000000	64.428520 
3339.000000	64.413166 
3338.000000	64.396572 
3337.000000	64.381003 
3336.000000	64.368224 
3335.000000	64.359092 
3334.000000	64.353466 
3333.000000	64.349937 
3332.000000	64.346575 
3331.000000	64.341235 
3330.000000	64.332723 
3329.000000	64.320635 
3328.000000	64.305973 
3327.000000	64.290499 
3326.000000	64.276599 
3325.000000	64.266419 
3324.000000	64.261722 
3323.000000	64.263176 
3322.000000	64.270424 
3321.000000	64.282178 
3320.000000	64.296746 
3319.000000	64.312195 
3318.000000	64.327120 
3317.000000	64.340758 
3316.000000	64.353156 
3315.000000	64.364790 
3314.000000	64.376831 
3313.000000	64.390349 
3312.000000	64.406251 
3311.000000	64.424848 
3310.000000	64.445996 
3309.000000	64.469027 
3308.000000	64.492750 
3307.000000	64.515829 
3306.000000	64.536643 
3305.000000	64.553594 
3304.000000	64.565372 
3303.000000	64.571166 
3302.000000	64.570832 
3301.000000	64.564943 
3300.000000	64.554929 
3299.000000	64.542555 
3298.000000	64.529871 
3297.000000	64.518690 
3296.000000	64.510393 
3295.000000	64.505624 
3294.000000	64.504241 
3293.000000	64.505314 
3292.000000	64.507675 
3291.000000	64.509868 
3290.000000	64.510560 
3289.000000	64.508581 
3288.000000	64.503169 
3287.000000	64.493918 
3286.000000	64.480781 
3285.000000	64.464020 
3284.000000	64.444184 
3283.000000	64.422297 
3282.000000	64.399838 
3281.000000	64.378571 
3280.000000	64.360260 
3279.000000	64.346456 
3278.000000	64.338207 
3277.000000	64.335489 
3276.000000	64.337444 
3275.000000	64.342403 
3274.000000	64.348769 
3273.000000	64.354872 
3272.000000	64.359974 
3271.000000	64.364147 
3270.000000	64.368486 
3269.000000	64.374756 
3268.000000	64.384722 
3267.000000	64.399385 
3266.000000	64.418745 
3265.000000	64.441800 
3264.000000	64.466381 
3263.000000	64.489889 
3262.000000	64.509868 
3261.000000	64.524745 
3260.000000	64.534044 
3259.000000	64.538335 
3258.000000	64.539003 
3257.000000	64.537787 
3256.000000	64.536190 
3255.000000	64.534950 
3254.000000	64.534115 
3253.000000	64.532899 
3252.000000	64.530038 
3251.000000	64.524006 
3250.000000	64.513611 
3249.000000	64.498567 
3248.000000	64.479160 
3247.000000	64.456653 
3246.000000	64.432740 
3245.000000	64.409685 
3244.000000	64.389419 
3243.000000	64.373993 
3242.000000	64.364647 
3241.000000	64.362144 
3240.000000	64.366626 
3239.000000	64.377713 
3238.000000	64.394235 
3237.000000	64.414811 
3236.000000	64.437651 
3235.000000	64.460849 
3234.000000	64.482331 
3233.000000	64.500188 
3232.000000	64.513015 
3231.000000	64.519810 
3230.000000	64.520311 
3229.000000	64.514923 
3228.000000	64.504742 
3227.000000	64.491438 
3226.000000	64.476704 
3225.000000	64.462161 
3224.000000	64.448618 
3223.000000	64.436459 
3222.000000	64.425373 
3221.000000	64.414548 
3220.000000	64.403200 
3219.000000	64.390707 
3218.000000	64.377188 
3217.000000	64.363241 
3216.000000	64.349937 
3215.000000	64.338707 
3214.000000	64.330768 
3213.000000	64.326715 
3212.000000	64.326524 
3211.000000	64.329338 
3210.000000	64.333844 
3209.000000	64.338302 
3208.000000	64.341235 
3207.000000	64.341640 
3206.000000	64.339160 
3205.000000	64.334225 
3204.000000	64.327764 
3203.000000	64.320969 
3202.000000	64.315080 
3201.000000	64.311051 
3200.000000	64.309430 
3199.000000	64.310431 
3198.000000	64.313960 
3197.000000	64.319825 
3196.000000	64.327883 
3195.000000	64.338254 
3194.000000	64.350867 
3193.000000	64.365768 
3192.000000	64.382696 
3191.000000	64.401173 
3190.000000	64.420485 
3189.000000	64.439773 
3188.000000	64.458155 
3187.000000	64.475035 
3186.000000	64.490032 
3185.000000	64.503097 
3184.000000	64.514493 
3183.000000	64.524602 
3182.000000	64.533901 
3181.000000	64.542555 
3180.000000	64.550518 
3179.000000	64.557313 
3178.000000	64.562225 
3177.000000	64.564299 
3176.000000	64.562726 
3175.000000	64.557170 
3174.000000	64.548039 
3173.000000	64.536404 
3172.000000	64.523935 
3171.000000	64.512538 
3170.000000	64.504003 
3169.000000	64.499521 
3168.000000	64.499449 
3167.000000	64.503240 
3166.000000	64.509558 
3165.000000	64.516425 
3164.000000	64.522004 
3163.000000	64.524841 
3162.000000	64.524245 
3161.000000	64.520120 
3160.000000	64.512944 
3159.000000	64.503526 
3158.000000	64.492535 
3157.000000	64.480566 
3156.000000	64.467835 
3155.000000	64.454412 
3154.000000	64.440417 
3153.000000	64.425969 
3152.000000	64.411497 
3151.000000	64.397525 
3150.000000	64.384675 
3149.000000	64.373588 
3148.000000	64.364767 
3147.000000	64.358520 
3146.000000	64.355158 
3145.000000	64.354848 
3144.000000	64.357805 
3143.000000	64.363884 
3142.000000	64.372873 
3141.000000	64.383840 
3140.000000	64.394712 
3139.000000	64.402818 
3138.000000	64.404940 
3137.000000	64.398431 
3136.000000	64.381670 
3135.000000	64.354991 
3134.000000	64.321088 
3133.000000	64.284443 
3132.000000	64.250230 
3131.000000	64.223384 
3130.000000	64.207386 
3129.000000	64.203667 
3128.000000	64.211225 
3127.000000	64.227199 
3126.000000	64.247822 
3125.000000	64.269375 
3124.000000	64.289212 
3123.000000	64.306068 
3122.000000	64.320087 
3121.000000	64.332437 
3120.000000	64.344382 
3119.000000	64.356827 
3118.000000	64.369630 
3117.000000	64.381957 
3116.000000	64.392614 
3115.000000	64.400386 
3114.000000	64.404702 
3113.000000	64.405798 
3112.000000	64.404749 
3111.000000	64.403343 
3110.000000	64.403486 
3109.000000	64.407205 
3108.000000	64.416098 
3107.000000	64.431285 
3106.000000	64.452791 
3105.000000	64.479923 
3104.000000	64.510822 
3103.000000	64.542865 
3102.000000	64.572906 
3101.000000	64.597749 
3100.000000	64.614725 
3099.000000	64.622282 
3098.000000	64.620327 
3097.000000	64.610219 
3096.000000	64.594626 
3095.000000	64.576911 
3094.000000	64.560008 
3093.000000	64.545917 
3092.000000	64.534783 
3091.000000	64.525246 
3090.000000	64.514684 
3089.000000	64.500284 
3088.000000	64.479732 
3087.000000	64.452433 
3086.000000	64.419293 
3085.000000	64.383172 
3084.000000	64.347863 
3083.000000	64.317417 
3082.000000	64.295244 
3081.000000	64.283299 
3080.000000	64.281773 
3079.000000	64.288949 
3078.000000	64.301705 
3077.000000	64.316153 
3076.000000	64.328360 
3075.000000	64.335370 
3074.000000	64.335489 
3073.000000	64.328837 
3072.000000	64.316725 
3071.000000	64.301729 
3070.000000	64.287042 
3069.000000	64.275693 
3068.000000	64.269971 
3067.000000	64.270925 
3066.000000	64.278388 
3065.000000	64.290952 
3064.000000	64.306592 
3063.000000	64.323139 
3062.000000	64.338922 
3061.000000	64.353275 
3060.000000	64.366579 
3059.000000	64.380025 
3058.000000	64.395093 
3057.000000	64.413142 
3056.000000	64.434766 
3055.000000	64.459609 
3054.000000	64.486265 
3053.000000	64.512681 
3052.000000	64.536404 
3051.000000	64.555096 
3050.000000	64.566946 
3049.000000	64.571046 
3048.000000	64.567399 
3047.000000	64.556884 
3046.000000	64.541053 
3045.000000	64.521765 
3044.000000	64.500975 
3043.000000	64.480590 
3042.000000	64.462089 
3041.000000	64.446806 
3040.000000	64.435529 
3039.000000	64.428639 
3038.000000	64.426183 
3037.000000	64.427733 
3036.000000	64.432716 
3035.000000	64.440250 
3034.000000	64.449429 
3033.000000	64.459228 
3032.000000	64.468622 
3031.000000	64.476704 
3030.000000	64.482545 
3029.000000	64.485311 
3028.000000	64.484596 
3027.000000	64.479947 
3026.000000	64.471483 
3025.000000	64.459347 
3024.000000	64.444136 
3023.000000	64.426445 
3022.000000	64.406991 
3021.000000	64.386773 
3020.000000	64.367032 
3019.000000	64.349222 
3018.000000	64.334750 
3017.000000	64.324998 
3016.000000	64.321088 
3015.000000	64.323496 
3014.000000	64.332127 
3013.000000	64.346051 
3012.000000	64.363551 
3011.000000	64.382672 
3010.000000	64.401364 
3009.000000	64.418005 
3008.000000	64.431667 
3007.000000	64.441990 
3006.000000	64.449238 
3005.000000	64.454078 
3004.000000	64.457178 
3003.000000	64.458942 
3002.000000	64.459347 
3001.000000	64.458537 
3000.000000	64.456510 
2999.000000	64.453577 
2998.000000	64.450001 
2997.000000	64.446234 
2996.000000	64.442276 
2995.000000	64.437866 
2994.000000	64.432144 
2993.000000	64.423918 
2992.000000	64.412093 
2991.000000	64.396142 
2990.000000	64.376497 
2989.000000	64.355039 
2988.000000	64.334678 
2987.000000	64.318895 
2986.000000	64.311075 
2985.000000	64.313411 
2984.000000	64.326167 
2983.000000	64.347290 
2982.000000	64.372730 
2981.000000	64.397096 
2980.000000	64.414596 
2979.000000	64.420485 
2978.000000	64.411735 
2977.000000	64.387917 
2976.000000	64.350962 
2975.000000	64.305257 
2974.000000	64.256262 
2973.000000	64.209938 
2972.000000	64.171457 
2971.000000	64.144492 
2970.000000	64.130949 
2969.000000	64.130473 
2968.000000	64.141035 
2967.000000	64.159250 
2966.000000	64.181089 
2965.000000	64.202642 
2964.000000	64.220499 
2963.000000	64.232373 
2962.000000	64.237046 
2961.000000	64.234566 
2960.000000	64.226031 
2959.000000	64.213061 
2958.000000	64.197468 
2957.000000	64.181113 
2956.000000	64.165687 
2955.000000	64.152598 
2954.000000	64.142894 
2953.000000	64.137578 
2952.000000	64.137387 
2951.000000	64.142942 
2950.000000	64.154410 
2949.000000	64.171552 
2948.000000	64.193296 
2947.000000	64.218091 
2946.000000	64.243721 
2945.000000	64.267587 
2944.000000	64.287209 
2943.000000	64.300346 
2942.000000	64.305853 
2941.000000	64.303541 
2940.000000	64.294648 
2939.000000	64.281201 
2938.000000	64.266061 
2937.000000	64.252400 
2936.000000	64.243221 
2935.000000	64.241027 
2934.000000	64.247274 
2933.000000	64.262151 
2932.000000	64.284396 
2931.000000	64.311766 
2930.000000	64.341020 
2929.000000	64.368581 
2928.000000	64.391469 
2927.000000	64.407682 
2926.000000	64.416742 
2925.000000	64.419507 
2924.000000	64.417767 
2923.000000	64.413619 
2922.000000	64.408874 
2921.000000	64.404487 
2920.000000	64.400291 
2919.000000	64.395165 
2918.000000	64.387726 
2917.000000	64.376688 
2916.000000	64.361643 
2915.000000	64.343261 
2914.000000	64.323377 
2913.000000	64.304542 
2912.000000	64.289641 
2911.000000	64.281058 
2910.000000	64.279961 
2909.000000	64.285969 
2908.000000	64.297246 
2907.000000	64.310908 
2906.000000	64.323639 
2905.000000	64.332628 
2904.000000	64.336013 
2903.000000	64.333200 
2902.000000	64.324903 
2901.000000	64.312744 
2900.000000	64.298653 
2899.000000	64.284300 
2898.000000	64.270758 
2897.000000	64.258551 
2896.000000	64.247775 
2895.000000	64.238286 
2894.000000	64.229893 
2893.000000	64.222645 
2892.000000	64.216709 
2891.000000	64.212250 
2890.000000	64.209461 
2889.000000	64.208197 
2888.000000	64.208364 
2887.000000	64.209628 
2886.000000	64.211940 
2885.000000	64.215326 
2884.000000	64.220190 
2883.000000	64.227008 
2882.000000	64.236068 
2881.000000	64.247274 
2880.000000	64.259910 
2879.000000	64.272594 
2878.000000	64.283418 
2877.000000	64.290452 
2876.000000	64.292216 
2875.000000	64.287877 
2874.000000	64.277744 
2873.000000	64.263081 
2872.000000	64.245939 
2871.000000	64.228820 
2870.000000	64.213991 
2869.000000	64.203166 
2868.000000	64.197349 
2867.000000	64.196681 
2866.000000	64.200496 
2865.000000	64.207553 
2864.000000	64.216470 
2863.000000	64.225888 
2862.000000	64.234709 
2861.000000	64.242148 
2860.000000	64.247632 
2859.000000	64.250946 
2858.000000	64.251899 
2857.000000	64.250373 
2856.000000	64.246320 
2855.000000	64.239597 
2854.000000	64.230203 
2853.000000	64.218354 
2852.000000	64.204430 
2851.000000	64.189434 
2850.000000	64.174795 
2849.000000	64.162302 
2848.000000	64.153933 
2847.000000	64.151549 
2846.000000	64.156603 
2845.000000	64.169621 
2844.000000	64.190053 
2843.000000	64.216232 
2842.000000	64.245653 
2841.000000	64.275312 
2840.000000	64.302206 
2839.000000	64.323925 
2838.000000	64.338970 
2837.000000	64.347171 
2836.000000	64.349293 
2835.000000	64.346933 
2834.000000	64.342021 
2833.000000	64.336323 
2832.000000	64.331126 
2831.000000	64.327287 
2830.000000	64.324903 
2829.000000	64.323878 
2828.000000	64.323687 
2827.000000	64.323878 
2826.000000	64.323902 
2825.000000	64.323234 
2824.000000	64.321279 
2823.000000	64.317440 
2822.000000	64.311075 
2821.000000	64.301705 
2820.000000	64.289331 
2819.000000	64.274525 
2818.000000	64.258623 
2817.000000	64.243435 
2816.000000	64.230966 
2815.000000	64.223098 
2814.000000	64.220976 
2813.000000	64.224863 
2812.000000	64.234066 
2811.000000	64.246964 
2810.000000	64.261507 
2809.000000	64.275598 
2808.000000	64.287495 
2807.000000	64.296507 
2806.000000	64.302492 
2805.000000	64.306259 
2804.000000	64.308786 
2803.000000	64.311289 
2802.000000	64.314556 
2801.000000	64.318895 
2800.000000	64.323997 
2799.000000	64.329099 
2798.000000	64.333295 
2797.000000	64.335513 
2796.000000	64.334893 
2795.000000	64.330768 
2794.000000	64.323115 
2793.000000	64.312458 
2792.000000	64.299869 
2791.000000	64.286828 
2790.000000	64.275026 
2789.000000	64.266157 
2788.000000	64.261460 
2787.000000	64.261507 
2786.000000	64.266276 
2785.000000	64.274954 
2784.000000	64.286398 
2783.000000	64.299154 
2782.000000	64.311933 
2781.000000	64.323759 
2780.000000	64.334249 
2779.000000	64.343333 
2778.000000	64.351224 
2777.000000	64.358282 
2776.000000	64.364886 
2775.000000	64.371061 
2774.000000	64.376783 
2773.000000	64.381909 
2772.000000	64.386367 
2771.000000	64.390325 
2770.000000	64.393830 
2769.000000	64.396929 
2768.000000	64.399456 
2767.000000	64.400935 
2766.000000	64.400649 
2765.000000	64.397859 
2764.000000	64.391970 
2763.000000	64.382743 
2762.000000	64.370441 
2761.000000	64.355993 
2760.000000	64.340615 
2759.000000	64.325785 
2758.000000	64.312839 
2757.000000	64.302754 
2756.000000	64.295792 
2755.000000	64.291787 
2754.000000	64.290165 
2753.000000	64.290285 
2752.000000	64.291477 
2751.000000	64.293456 
2750.000000	64.296221 
2749.000000	64.300036 
2748.000000	64.304995 
2747.000000	64.311170 
2746.000000	64.318299 
2745.000000	64.325785 
2744.000000	64.332890 
2743.000000	64.338731 
2742.000000	64.342570 
2741.000000	64.344000 
2740.000000	64.342999 
2739.000000	64.340043 
2738.000000	64.335966 
2737.000000	64.331769 
2736.000000	64.328503 
2735.000000	64.326906 
2734.000000	64.327573 
2733.000000	64.330601 
2732.000000	64.335846 
2731.000000	64.343023 
2730.000000	64.351654 
2729.000000	64.361286 
2728.000000	64.371228 
2727.000000	64.380526 
2726.000000	64.387989 
2725.000000	64.392399 
2724.000000	64.392566 
2723.000000	64.387869 
2722.000000	64.378285 
2721.000000	64.364767 
2720.000000	64.348912 
2719.000000	64.332866 
2718.000000	64.318871 
2717.000000	64.308571 
2716.000000	64.302921 
2715.000000	64.301848 
2714.000000	64.304375 
2713.000000	64.308810 
2712.000000	64.313387 
2711.000000	64.316773 
2710.000000	64.318037 
2709.000000	64.316892 
2708.000000	64.313507 
2707.000000	64.308404 
2706.000000	64.302086 
2705.000000	64.295125 
2704.000000	64.288067 
2703.000000	64.281702 
2702.000000	64.277052 
2701.000000	64.275121 
2700.000000	64.276719 
2699.000000	64.282083 
2698.000000	64.290761 
2697.000000	64.301490 
2696.000000	64.312124 
2695.000000	64.320254 
2694.000000	64.323592 
2693.000000	64.320540 
2692.000000	64.310693 
2691.000000	64.294791 
2690.000000	64.274644 
2689.000000	64.252328 
2688.000000	64.229917 
2687.000000	64.208841 
2686.000000	64.189648 
2685.000000	64.172244 
2684.000000	64.156198 
2683.000000	64.141225 
2682.000000	64.127635 
2681.000000	64.115953 
2680.000000	64.107275 
2679.000000	64.102721 
2678.000000	64.103174 
2677.000000	64.109086 
2676.000000	64.120316 
2675.000000	64.136147 
2674.000000	64.155340 
2673.000000	64.176416 
2672.000000	64.197659 
2671.000000	64.217376 
2670.000000	64.233946 
2669.000000	64.246010 
2668.000000	64.252543 
2667.000000	64.253115 
2666.000000	64.247941 
2665.000000	64.237880 
2664.000000	64.224314 
2663.000000	64.209127 
2662.000000	64.194059 
2661.000000	64.180445 
2660.000000	64.168953 
2659.000000	64.159822 
2658.000000	64.153170 
2657.000000	64.149308 
2656.000000	64.149045 
2655.000000	64.153766 
2654.000000	64.165067 
2653.000000	64.184260 
2652.000000	64.211750 
2651.000000	64.246606 
2650.000000	64.286637 
2649.000000	64.328479 
2648.000000	64.368200 
2647.000000	64.401984 
2646.000000	64.426636 
2645.000000	64.440369 
2644.000000	64.442968 
2643.000000	64.435863 
2642.000000	64.421796 
2641.000000	64.404225 
2640.000000	64.386773 
2639.000000	64.372491 
2638.000000	64.363670 
2637.000000	64.361286 
2636.000000	64.365172 
2635.000000	64.373946 
2634.000000	64.385533 
2633.000000	64.397382 
2632.000000	64.407014 
2631.000000	64.412331 
2630.000000	64.412045 
2629.000000	64.405703 
2628.000000	64.393568 
2627.000000	64.376401 
2626.000000	64.355325 
2625.000000	64.331483 
2624.000000	64.306139 
2623.000000	64.280819 
2622.000000	64.257168 
2621.000000	64.237022 
2620.000000	64.221858 
2619.000000	64.212894 
2618.000000	64.210414 
2617.000000	64.213514 
2616.000000	64.220309 
2615.000000	64.228200 
2614.000000	64.234423 
2613.000000	64.236497 
2612.000000	64.232993 
2611.000000	64.223599 
2610.000000	64.209485 
2609.000000	64.192724 
2608.000000	64.175796 
2607.000000	64.160919 
2606.000000	64.149761 
2605.000000	64.142990 
2604.000000	64.140439 
2603.000000	64.141273 
2602.000000	64.144325 
2601.000000	64.148569 
2600.000000	64.153289 
2599.000000	64.157843 
2598.000000	64.161896 
2597.000000	64.164948 
2596.000000	64.166235 
2595.000000	64.164996 
2594.000000	64.160490 
2593.000000	64.152574 
2592.000000	64.141702 
2591.000000	64.129281 
2590.000000	64.117550 
2589.000000	64.109039 
2588.000000	64.106011 
2587.000000	64.109873 
2586.000000	64.120674 
2585.000000	64.137125 
2584.000000	64.156866 
2583.000000	64.176940 
2582.000000	64.194512 
2581.000000	64.207625 
2580.000000	64.215517 
2579.000000	64.218711 
2578.000000	64.218592 
2577.000000	64.216899 
2576.000000	64.215230 
2575.000000	64.214444 
2574.000000	64.214754 
2573.000000	64.215803 
2572.000000	64.216828 
2571.000000	64.217519 
2570.000000	64.217829 
2569.000000	64.218282 
2568.000000	64.219737 
2567.000000	64.222979 
2566.000000	64.228558 
2565.000000	64.236259 
2564.000000	64.245271 
2563.000000	64.254260 
2562.000000	64.261651 
2561.000000	64.266157 
2560.000000	64.266777 
2559.000000	64.263319 
2558.000000	64.256143 
2557.000000	64.246249 
2556.000000	64.234733 
2555.000000	64.222621 
2554.000000	64.210748 
2553.000000	64.199733 
2552.000000	64.189863 
2551.000000	64.181113 
2550.000000	64.173340 
2549.000000	64.166307 
2548.000000	64.159703 
2547.000000	64.153504 
2546.000000	64.147925 
2545.000000	64.143586 
2544.000000	64.141464 
2543.000000	64.142775 
2542.000000	64.148736 
2541.000000	64.160180 
2540.000000	64.177155 
2539.000000	64.198875 
2538.000000	64.223456 
2537.000000	64.248156 
2536.000000	64.269709 
2535.000000	64.284944 
2534.000000	64.291453 
2533.000000	64.287829 
2532.000000	64.274263 
2531.000000	64.252161 
2530.000000	64.224195 
2529.000000	64.193630 
2528.000000	64.163923 
2527.000000	64.137983 
2526.000000	64.117956 
2525.000000	64.105081 
2524.000000	64.099669 
2523.000000	64.100980 
2522.000000	64.107799 
2521.000000	64.118409 
2520.000000	64.131164 
2519.000000	64.144635 
2518.000000	64.157938 
2517.000000	64.170432 
2516.000000	64.182019 
2515.000000	64.192771 
2514.000000	64.202952 
2513.000000	64.212417 
2512.000000	64.220619 
2511.000000	64.226841 
2510.000000	64.230060 
2509.000000	64.229297 
2508.000000	64.224076 
2507.000000	64.214587 
2506.000000	64.201974 
2505.000000	64.188265 
2504.000000	64.175963 
2503.000000	64.167690 
2502.000000	64.165544 
2501.000000	64.170742 
2500.000000	64.183282 
2499.000000	64.201807 
2498.000000	64.224195 
2497.000000	64.247798 
2496.000000	64.270091 
2495.000000	64.288973 
2494.000000	64.303112 
2493.000000	64.311790 
2492.000000	64.314770 
2491.000000	64.311838 
2490.000000	64.302754 
2489.000000	64.287114 
2488.000000	64.264631 
2487.000000	64.235639 
2486.000000	64.200997 
2485.000000	64.163017 
2484.000000	64.124989 
2483.000000	64.091181 
2482.000000	64.065670 
2481.000000	64.052081 
2480.000000	64.052414 
2479.000000	64.066910 
2478.000000	64.093589 
2477.000000	64.128947 
2476.000000	64.168453 
2475.000000	64.207673 
2474.000000	64.242887 
2473.000000	64.271616 
2472.000000	64.292788 
2471.000000	64.306664 
2470.000000	64.314222 
2469.000000	64.316701 
2468.000000	64.315152 
2467.000000	64.310383 
2466.000000	64.302849 
2465.000000	64.293074 
2464.000000	64.281797 
2463.000000	64.270305 
2462.000000	64.260077 
2461.000000	64.252710 
2460.000000	64.249420 
2459.000000	64.250683 
2458.000000	64.256048 
2457.000000	64.263963 
2456.000000	64.271974 
2455.000000	64.277601 
2454.000000	64.278459 
2453.000000	64.273023 
2452.000000	64.260792 
2451.000000	64.242458 
2450.000000	64.219713 
2449.000000	64.194679 
2448.000000	64.169669 
2447.000000	64.146637 
2446.000000	64.127206 
2445.000000	64.112567 
2444.000000	64.103221 
2443.000000	64.099121 
2442.000000	64.100027 
2441.000000	64.105439 
2440.000000	64.114522 
2439.000000	64.126181 
2438.000000	64.139080 
2437.000000	64.151930 
2436.000000	64.163422 
2435.000000	64.172673 
2434.000000	64.179205 
2433.000000	64.183044 
2432.000000	64.184808 
2431.000000	64.185357 
2430.000000	64.185595 
2429.000000	64.186143 
2428.000000	64.187502 
2427.000000	64.189529 
2426.000000	64.191842 
2425.000000	64.193820 
2424.000000	64.194941 
2423.000000	64.194583 
2422.000000	64.192223 
2421.000000	64.187455 
2420.000000	64.179873 
2419.000000	64.169192 
2418.000000	64.155173 
2417.000000	64.138031 
2416.000000	64.118456 
2415.000000	64.097547 
2414.000000	64.076805 
2413.000000	64.058089 
2412.000000	64.043283 
2411.000000	64.033842 
2410.000000	64.030504 
2409.000000	64.032983 
2408.000000	64.040017 
2407.000000	64.049720 
2406.000000	64.059925 
2405.000000	64.068484 
2404.000000	64.074063 
2403.000000	64.076447 
2402.000000	64.076566 
2401.000000	64.075970 
2400.000000	64.076709 
2399.000000	64.080476 
2398.000000	64.088129 
2397.000000	64.099526 
2396.000000	64.113163 
2395.000000	64.126849 
2394.000000	64.138102 
2393.000000	64.144921 
2392.000000	64.146471 
2391.000000	64.143347 
2390.000000	64.137530 
2389.000000	64.131903 
2388.000000	64.129543 
2387.000000	64.132928 
2386.000000	64.143252 
2385.000000	64.160037 
2384.000000	64.181423 
2383.000000	64.204359 
2382.000000	64.225578 
2381.000000	64.242100 
2380.000000	64.252114 
2379.000000	64.254856 
2378.000000	64.251041 
2377.000000	64.242267 
2376.000000	64.230418 
2375.000000	64.217448 
2374.000000	64.204835 
2373.000000	64.193677 
2372.000000	64.184546 
2371.000000	64.177918 
2370.000000	64.174151 
2369.000000	64.173626 
2368.000000	64.176702 
2367.000000	64.183354 
2366.000000	64.193201 
2365.000000	64.205121 
2364.000000	64.217352 
2363.000000	64.227700 
2362.000000	64.233922 
2361.000000	64.234256 
2360.000000	64.227724 
2359.000000	64.214372 
2358.000000	64.195418 
2357.000000	64.172816 
2356.000000	64.148879 
2355.000000	64.125990 
2354.000000	64.106249 
2353.000000	64.091157 
2352.000000	64.081621 
2351.000000	64.077782 
2350.000000	64.079380 
2349.000000	64.085793 
2348.000000	64.095973 
2347.000000	64.108324 
2346.000000	64.121127 
2345.000000	64.132380 
2344.000000	64.140391 
2343.000000	64.143753 
2342.000000	64.141964 
2341.000000	64.135313 
2340.000000	64.125108 
2339.000000	64.113426 
2338.000000	64.102625 
2337.000000	64.094686 
2336.000000	64.090967 
2335.000000	64.091944 
2334.000000	64.097380 
2333.000000	64.106345 
2332.000000	64.117908 
2331.000000	64.131236 
2330.000000	64.145898 
2329.000000	64.161753 
2328.000000	64.178752 
2327.000000	64.196753 
2326.000000	64.214992 
2325.000000	64.232134 
2324.000000	64.246463 
2323.000000	64.256024 
2322.000000	64.259290 
2321.000000	64.255285 
2320.000000	64.244318 
2319.000000	64.227724 
2318.000000	64.207744 
2317.000000	64.187216 
2316.000000	64.168882 
2315.000000	64.154791 
2314.000000	64.146208 
2313.000000	64.143276 
2312.000000	64.145016 
2311.000000	64.149570 
2310.000000	64.154744 
2309.000000	64.158344 
2308.000000	64.158630 
2307.000000	64.154458 
2306.000000	64.145755 
2305.000000	64.133358 
2304.000000	64.118862 
2303.000000	64.104366 
2302.000000	64.091992 
2301.000000	64.083552 
2300.000000	64.080142 
2299.000000	64.082145 
2298.000000	64.088869 
2297.000000	64.098715 
2296.000000	64.109539 
2295.000000	64.118909 
2294.000000	64.124608 
2293.000000	64.124965 
2292.000000	64.119267 
2291.000000	64.107871 
2290.000000	64.092063 
2289.000000	64.073896 
2288.000000	64.055681 
2287.000000	64.039540 
2286.000000	64.027237 
2285.000000	64.019751 
2284.000000	64.017367 
2283.000000	64.019608 
2282.000000	64.025735 
2281.000000	64.034914 
2280.000000	64.046549 
2279.000000	64.060378 
2278.000000	64.076375 
2277.000000	64.094448 
2276.000000	64.114141 
2275.000000	64.134430 
2274.000000	64.153695 
2273.000000	64.169812 
2272.000000	64.180421 
2271.000000	64.183616 
2270.000000	64.178442 
2269.000000	64.165115 
2268.000000	64.145255 
2267.000000	64.121317 
2266.000000	64.096593 
2265.000000	64.074039 
2264.000000	64.056301 
2263.000000	64.044761 
2262.000000	64.039731 
2261.000000	64.040493 
2260.000000	64.045548 
2259.000000	64.053201 
2258.000000	64.061951 
2257.000000	64.070749 
2256.000000	64.078927 
2255.000000	64.086413 
2254.000000	64.093136 
2253.000000	64.099097 
2252.000000	64.104151 
2251.000000	64.107847 
2250.000000	64.109778 
2249.000000	64.109754 
2248.000000	64.107751 
2247.000000	64.104247 
2246.000000	64.099764 
2245.000000	64.094948 
2244.000000	64.090275 
2243.000000	64.085721 
2242.000000	64.080953 
2241.000000	64.075350 
2240.000000	64.068460 
2239.000000	64.060044 
2238.000000	64.050674 
2237.000000	64.041566 
2236.000000	64.034509 
2235.000000	64.031386 
2234.000000	64.033627 
2233.000000	64.041733 
2232.000000	64.054942 
2231.000000	64.071512 
2230.000000	64.088678 
2229.000000	64.103436 
2228.000000	64.113187 
2227.000000	64.116311 
2226.000000	64.112353 
2225.000000	64.102220 
2224.000000	64.087700 
2223.000000	64.071297 
2222.000000	64.055395 
2221.000000	64.042115 
2220.000000	64.032816 
2219.000000	64.028215 
2218.000000	64.028358 
2217.000000	64.032721 
2216.000000	64.040637 
2215.000000	64.051246 
2214.000000	64.063405 
2213.000000	64.075946 
2212.000000	64.087533 
2211.000000	64.096975 
2210.000000	64.103126 
2209.000000	64.105319 
2208.000000	64.103460 
2207.000000	64.098000 
2206.000000	64.089941 
2205.000000	64.080524 
2204.000000	64.071178 
2203.000000	64.063048 
2202.000000	64.056777 
2201.000000	64.052581 
2200.000000	64.050149 
2199.000000	64.048695 
2198.000000	64.047360 
2197.000000	64.045238 
2196.000000	64.041757 
2195.000000	64.036965 
2194.000000	64.031505 
2193.000000	64.026260 
2192.000000	64.022445 
2191.000000	64.021253 
2190.000000	64.023470 
2189.000000	64.029192 
2188.000000	64.038038 
2187.000000	64.048862 
2186.000000	64.060115 
2185.000000	64.070248 
2184.000000	64.077877 
2183.000000	64.082026 
2182.000000	64.082503 
2181.000000	64.079689 
2180.000000	64.074492 
2179.000000	64.067959 
2178.000000	64.061141 
2177.000000	64.054822 
2176.000000	64.049720 
2175.000000	64.046049 
2174.000000	64.043951 
2173.000000	64.043378 
2172.000000	64.044046 
2171.000000	64.045357 
2170.000000	64.046406 
2169.000000	64.046049 
2168.000000	64.043259 
2167.000000	64.036893 
2166.000000	64.026379 
2165.000000	64.011764 
2164.000000	63.993620 
2163.000000	63.973307 
2162.000000	63.952541 
2161.000000	63.933372 
2160.000000	63.917899 
2159.000000	63.907885 
2158.000000	63.904571 
2157.000000	63.908433 
2156.000000	63.919162 
2155.000000	63.935565 
2154.000000	63.955736 
2153.000000	63.977551 
2152.000000	63.998937 
2151.000000	64.018177 
2150.000000	64.034080 
2149.000000	64.046216 
2148.000000	64.054679 
2147.000000	64.059972 
2146.000000	64.062786 
2145.000000	64.063739 
2144.000000	64.063262 
2143.000000	64.061498 
2142.000000	64.058470 
2141.000000	64.054012 
2140.000000	64.047956 
2139.000000	64.040493 
2138.000000	64.032030 
2137.000000	64.023208 
2136.000000	64.014816 
2135.000000	64.007687 
2134.000000	64.002442 
2133.000000	63.999414 
2132.000000	63.998484 
2131.000000	63.999223 
2130.000000	64.000940 
2129.000000	64.002752 
2128.000000	64.003849 
2127.000000	64.003705 
2126.000000	64.002180 
2125.000000	63.999629 
2124.000000	63.996648 
2123.000000	63.993954 
2122.000000	63.992118 
2121.000000	63.991475 
2120.000000	63.991928 
2119.000000	63.992762 
2118.000000	63.993072 
2117.000000	63.991975 
2116.000000	63.988876 
2115.000000	63.983678 
2114.000000	63.976693 
2113.000000	63.968849 
2112.000000	63.961267 
2111.000000	63.955235 
2110.000000	63.951635 
2109.000000	63.951063 
2108.000000	63.953375 
2107.000000	63.958024 
2106.000000	63.964033 
2105.000000	63.970351 
2104.000000	63.975977 
2103.000000	63.980221 
2102.000000	63.982892 
2101.000000	63.984084 
2100.000000	63.984227 
2099.000000	63.983726 
2098.000000	63.982748 
2097.000000	63.981223 
2096.000000	63.978791 
2095.000000	63.975000 
2094.000000	63.969445 
2093.000000	63.962197 
2092.000000	63.953733 
2091.000000	63.945150 
2090.000000	63.937735 
2089.000000	63.932728 
2088.000000	63.931083 
2087.000000	63.933038 
2086.000000	63.937997 
2085.000000	63.944864 
2084.000000	63.951921 
2083.000000	63.957238 
2082.000000	63.959074 
2081.000000	63.956165 
2080.000000	63.948035 
2079.000000	63.934969 
2078.000000	63.918042 
2077.000000	63.898777 
2076.000000	63.879060 
2075.000000	63.860630 
2074.000000	63.845205 
2073.000000	63.834047 
2072.000000	63.828182 
2071.000000	63.828015 
2070.000000	63.833570 
2069.000000	63.844370 
2068.000000	63.859319 
2067.000000	63.876795 
2066.000000	63.894820 
2065.000000	63.911414 
2064.000000	63.925051 
2063.000000	63.935112 
2062.000000	63.941979 
2061.000000	63.947105 
2060.000000	63.952612 
2059.000000	63.960552 
2058.000000	63.972663 
2057.000000	63.989138 
2056.000000	64.008951 
2055.000000	64.029574 
2054.000000	64.047670 
2053.000000	64.059734 
2052.000000	64.062929 
2051.000000	64.055776 
2050.000000	64.038729 
2049.000000	64.013910 
2048.000000	63.984775 
2047.000000	63.955545 
2046.000000	63.930416 
2045.000000	63.912701 
2044.000000	63.904452 
2043.000000	63.906192 
2042.000000	63.917064 
2041.000000	63.935041 
2040.000000	63.957524 
2039.000000	63.981533 
2038.000000	64.004111 
2037.000000	64.022946 
2036.000000	64.036369 
2035.000000	64.043426 
2034.000000	64.043712 
2033.000000	64.037752 
2032.000000	64.026689 
2031.000000	64.012122 
2030.000000	63.995790 
2029.000000	63.979506 
2028.000000	63.964867 
2027.000000	63.953113 
2026.000000	63.945150 
2025.000000	63.941478 
2024.000000	63.942146 
2023.000000	63.946986 
2022.000000	63.955688 
2021.000000	63.967823 
2020.000000	63.982725 
2019.000000	63.999557 
2018.000000	64.017057 
2017.000000	64.033889 
2016.000000	64.048480 
2015.000000	64.059448 
2014.000000	64.065623 
2013.000000	64.066362 
2012.000000	64.061713 
2011.000000	64.052295 
2010.000000	64.039230 
2009.000000	64.023876 
2008.000000	64.007544 
2007.000000	63.991332 
2006.000000	63.976001 
2005.000000	63.962101 
2004.000000	63.949990 
2003.000000	63.940048 
2002.000000	63.932871 
2001.000000	63.929295 
2000.000000	63.930106 
1999.000000	63.935899 
1998.000000	63.946485 
1997.000000	63.960981 
1996.000000	63.977599 
1995.000000	63.994002 
1994.000000	64.007449 
1993.000000	64.015555 
1992.000000	64.016842 
1991.000000	64.010953 
1990.000000	63.998866 
1989.000000	63.982558 
1988.000000	63.964581 
1987.000000	63.947558 
1986.000000	63.933658 
1985.000000	63.924145 
1984.000000	63.919234 
1983.000000	63.918375 
1982.000000	63.920545 
1981.000000	63.924622 
1980.000000	63.929677 
1979.000000	63.934922 
1978.000000	63.940072 
1977.000000	63.944816 
1976.000000	63.949084 
1975.000000	63.952517 
1974.000000	63.954997 
1973.000000	63.956356 
1972.000000	63.956713 
1971.000000	63.956546 
1970.000000	63.956618 
1969.000000	63.957977 
1968.000000	63.961720 
1967.000000	63.968563 
1966.000000	63.978695 
1965.000000	63.991475 
1964.000000	64.005708 
1963.000000	64.019751 
1962.000000	64.031672 
1961.000000	64.039897 
1960.000000	64.043164 
1959.000000	64.040923 
1958.000000	64.033269 
1957.000000	64.021134 
1956.000000	64.005708 
1955.000000	63.988399 
1954.000000	63.970661 
1953.000000	63.953685 
1952.000000	63.938069 
1951.000000	63.923907 
1950.000000	63.910865 
1949.000000	63.898563 
1948.000000	63.886618 
1947.000000	63.875412 
1946.000000	63.865661 
1945.000000	63.858628 
1944.000000	63.855767 
1943.000000	63.858318 
1942.000000	63.866853 
1941.000000	63.880872 
1940.000000	63.898825 
1939.000000	63.918209 
1938.000000	63.935971 
1937.000000	63.949298 
1936.000000	63.956189 
1935.000000	63.955736 
1934.000000	63.948559 
1933.000000	63.936376 
1932.000000	63.921594 
1931.000000	63.906788 
1930.000000	63.894128 
1929.000000	63.885045 
1928.000000	63.879966 
1927.000000	63.878631 
1926.000000	63.880228 
1925.000000	63.883709 
1924.000000	63.887929 
1923.000000	63.891935 
1922.000000	63.895320 
1921.000000	63.897562 
1920.000000	63.898634 
1919.000000	63.898515 
1918.000000	63.897418 
1917.000000	63.895535 
1916.000000	63.892984 
1915.000000	63.890051 
1914.000000	63.886880 
1913.000000	63.883829 
1912.000000	63.881087 
1911.000000	63.878774 
1910.000000	63.876867 
1909.000000	63.875389 
1908.000000	63.874101 
1907.000000	63.872933 
1906.000000	63.872003 
1905.000000	63.871788 
1904.000000	63.872909 
1903.000000	63.876008 
1902.000000	63.881468 
1901.000000	63.889145 
1900.000000	63.898324 
1899.000000	63.907837 
1898.000000	63.916420 
1897.000000	63.922834 
1896.000000	63.926696 
1895.000000	63.928079 
1894.000000	63.927865 
1893.000000	63.927173 
1892.000000	63.927125 
1891.000000	63.928294 
1890.000000	63.930535 
1889.000000	63.933014 
1888.000000	63.934373 
1887.000000	63.933372 
1886.000000	63.929009 
1885.000000	63.921189 
1884.000000	63.910841 
1883.000000	63.899469 
1882.000000	63.889002 
1881.000000	63.881039 
1880.000000	63.876605 
1879.000000	63.875842 
1878.000000	63.877987 
1877.000000	63.881802 
1876.000000	63.885903 
1875.000000	63.889026 
1874.000000	63.890337 
1873.000000	63.889551 
1872.000000	63.886880 
1871.000000	63.882780 
1870.000000	63.877797 
1869.000000	63.872313 
1868.000000	63.866758 
1867.000000	63.861298 
1866.000000	63.856387 
1865.000000	63.852572 
1864.000000	63.850665 
1863.000000	63.851761 
1862.000000	63.856720 
1861.000000	63.866233 
1860.000000	63.880085 
1859.000000	63.897323 
1858.000000	63.915967 
1857.000000	63.933324 
1856.000000	63.946461 
1855.000000	63.952684 
1854.000000	63.950252 
1853.000000	63.938760 
1852.000000	63.919305 
1851.000000	63.894534 
1850.000000	63.868212 
1849.000000	63.844537 
1848.000000	63.827466 
1847.000000	63.819885 
1846.000000	63.823294 
1845.000000	63.837456 
1844.000000	63.860511 
1843.000000	63.889193 
1842.000000	63.919615 
1841.000000	63.947916 
1840.000000	63.970732 
1839.000000	63.985705 
1838.000000	63.991785 
1837.000000	63.989186 
1836.000000	63.979005 
1835.000000	63.962912 
1834.000000	63.942885 
1833.000000	63.920831 
1832.000000	63.898301 
1831.000000	63.876438 
1830.000000	63.856124 
1829.000000	63.837957 
1828.000000	63.822388 
1827.000000	63.809728 
1826.000000	63.800215 
1825.000000	63.793969 
1824.000000	63.791131 
1823.000000	63.791704 
1822.000000	63.795423 
1821.000000	63.802123 
1820.000000	63.811516 
1819.000000	63.823246 
1818.000000	63.836956 
1817.000000	63.852334 
1816.000000	63.868761 
1815.000000	63.885474 
1814.000000	63.901591 
1813.000000	63.916039 
1812.000000	63.927769 
1811.000000	63.935875 
1810.000000	63.939642 
1809.000000	63.938951 
1808.000000	63.934206 
1807.000000	63.926315 
1806.000000	63.916420 
1805.000000	63.905811 
1804.000000	63.895606 
1803.000000	63.886809 
1802.000000	63.880133 
1801.000000	63.875913 
1800.000000	63.874268 
1799.000000	63.875341 
1798.000000	63.879036 
1797.000000	63.885045 
1796.000000	63.892745 
1795.000000	63.901209 
1794.000000	63.909077 
1793.000000	63.914537 
1792.000000	63.915753 
1791.000000	63.910984 
1790.000000	63.899326 
1789.000000	63.880825 
1788.000000	63.856625 
1787.000000	63.828706 
1786.000000	63.799786 
1785.000000	63.772892 
1784.000000	63.750362 
1783.000000	63.733792 
1782.000000	63.723969 
1781.000000	63.720464 
1780.000000	63.722181 
1779.000000	63.727450 
1778.000000	63.734436 
1777.000000	63.741612 
1776.000000	63.747835 
1775.000000	63.752555 
1774.000000	63.755679 
1773.000000	63.757586 
1772.000000	63.758945 
1771.000000	63.760638 
1770.000000	63.763308 
1769.000000	63.767480 
1768.000000	63.773274 
1767.000000	63.780379 
1766.000000	63.788127 
1765.000000	63.795375 
1764.000000	63.800644 
1763.000000	63.802361 
1762.000000	63.799190 
1761.000000	63.790178 
1760.000000	63.775062 
1759.000000	63.754272 
1758.000000	63.729143 
1757.000000	63.701629 
1756.000000	63.674092 
1755.000000	63.648796 
1754.000000	63.627743 
1753.000000	63.612461 
1752.000000	63.603639 
1751.000000	63.601279 
1750.000000	63.604688 
1749.000000	63.612627 
1748.000000	63.623642 
1747.000000	63.635993 
1746.000000	63.647937 
1745.000000	63.657808 
1744.000000	63.663911 
1743.000000	63.664960 
1742.000000	63.659954 
1741.000000	63.648366 
1740.000000	63.630342 
1739.000000	63.606548 
1738.000000	63.578391 
1737.000000	63.547801 
1736.000000	63.517189 
1735.000000	63.488888 
1734.000000	63.464999 
1733.000000	63.447189 
1732.000000	63.436388 
1731.000000	63.432836 
1730.000000	63.436031 
1729.000000	63.444924 
1728.000000	63.458037 
1727.000000	63.473868 
1726.000000	63.490915 
1725.000000	63.508105 
1724.000000	63.524699 
1723.000000	63.540267 
1722.000000	63.554739 
1721.000000	63.568115 
1720.000000	63.580298 
1719.000000	63.590979 
1718.000000	63.599729 
1717.000000	63.606166 
1716.000000	63.610076 
1715.000000	63.611602 
1714.000000	63.611340 
1713.000000	63.610219 
1712.000000	63.609361 
1711.000000	63.609790 
1710.000000	63.612198 
1709.000000	63.616490 
1708.000000	63.621973 
1707.000000	63.627576 
1706.000000	63.632011 
1705.000000	63.634181 
1704.000000	63.633680 
1703.000000	63.630795 
1702.000000	63.626623 
1701.000000	63.622546 
1700.000000	63.619923 
1699.000000	63.619518 
1698.000000	63.621640 
1697.000000	63.625955 
1696.000000	63.631629 
1695.000000	63.637685 
1694.000000	63.643074 
1693.000000	63.647150 
1692.000000	63.649606 
1691.000000	63.650465 
1690.000000	63.649845 
1689.000000	63.648080 
1688.000000	63.645386 
1687.000000	63.641834 
1686.000000	63.637375 
1685.000000	63.631939 
1684.000000	63.625574 
1683.000000	63.618493 
1682.000000	63.611197 
1681.000000	63.604402 
1680.000000	63.598895 
1679.000000	63.595318 
1678.000000	63.594198 
1677.000000	63.595485 
1676.000000	63.598775 
1675.000000	63.603043 
1674.000000	63.607001 
1673.000000	63.609242 
1672.000000	63.608551 
1671.000000	63.604259 
1670.000000	63.596272 
1669.000000	63.585329 
1668.000000	63.572788 
1667.000000	63.560509 
1666.000000	63.550305 
1665.000000	63.543653 
1664.000000	63.541460 
1663.000000	63.543939 
1662.000000	63.550615 
1661.000000	63.560652 
1660.000000	63.572883 
1659.000000	63.586378 
1658.000000	63.600420 
1657.000000	63.614559 
1656.000000	63.628697 
1655.000000	63.642621 
1654.000000	63.655948 
1653.000000	63.668012 
1652.000000	63.677930 
1651.000000	63.684797 
1650.000000	63.687825 
1649.000000	63.686919 
1648.000000	63.682651 
1647.000000	63.676404 
1646.000000	63.669967 
1645.000000	63.665533 
1644.000000	63.664627 
1643.000000	63.668251 
1642.000000	63.676023 
1641.000000	63.686633 
1640.000000	63.697814 
1639.000000	63.706970 
1638.000000	63.711476 
1637.000000	63.709545 
1636.000000	63.700294 
1635.000000	63.683891 
1634.000000	63.661551 
1633.000000	63.635325 
1632.000000	63.607597 
1631.000000	63.580679 
1630.000000	63.556647 
1629.000000	63.537120 
1628.000000	63.523077 
1627.000000	63.514828 
1626.000000	63.511991 
1625.000000	63.513803 
1624.000000	63.518881 
1623.000000	63.525748 
1622.000000	63.532686 
1621.000000	63.538455 
1620.000000	63.542294 
1619.000000	63.544130 
1618.000000	63.544511 
1617.000000	63.544368 
1616.000000	63.544893 
1615.000000	63.546991 
1614.000000	63.551092 
1613.000000	63.557171 
1612.000000	63.564634 
1611.000000	63.572645 
1610.000000	63.580393 
1609.000000	63.587307 
1608.000000	63.593268 
1607.000000	63.598608 
1606.000000	63.603901 
1605.000000	63.609695 
1604.000000	63.616442 
1603.000000	63.624286 
1602.000000	63.633155 
1601.000000	63.642764 
1600.000000	63.652801 
1599.000000	63.663101 
1598.000000	63.673710 
1597.000000	63.684368 
1596.000000	63.694667 
1595.000000	63.703966 
1594.000000	63.711261 
1593.000000	63.715577 
1592.000000	63.716030 
1591.000000	63.712263 
1590.000000	63.704109 
1589.000000	63.691878 
1588.000000	63.675856 
1587.000000	63.656497 
1586.000000	63.634109 
1585.000000	63.609027 
1584.000000	63.581848 
1583.000000	63.553500 
1582.000000	63.525199 
1581.000000	63.498616 
1580.000000	63.475584 
1579.000000	63.457894 
1578.000000	63.446879 
1577.000000	63.443160 
1576.000000	63.446497 
1575.000000	63.455772 
1574.000000	63.469314 
1573.000000	63.485193 
1572.000000	63.501596 
1571.000000	63.517093 
1570.000000	63.530969 
1569.000000	63.543033 
1568.000000	63.553309 
1567.000000	63.561749 
1566.000000	63.567900 
1565.000000	63.570690 
1564.000000	63.568782 
1563.000000	63.560914 
1562.000000	63.546562 
1561.000000	63.526201 
1560.000000	63.501787 
1559.000000	63.476181 
1558.000000	63.452696 
1557.000000	63.434529 
1556.000000	63.423919 
1555.000000	63.422083 
1554.000000	63.428759 
1553.000000	63.442707 
1552.000000	63.461875 
1551.000000	63.483786 
1550.000000	63.505911 
1549.000000	63.525819 
1548.000000	63.541507 
1547.000000	63.551425 
1546.000000	63.554573 
1545.000000	63.550591 
1544.000000	63.539981 
1543.000000	63.524055 
1542.000000	63.504719 
1541.000000	63.484597 
1540.000000	63.466000 
1539.000000	63.451313 
1538.000000	63.441896 
1537.000000	63.438200 
1536.000000	63.439702 
1535.000000	63.445067 
1534.000000	63.452482 
1533.000000	63.460254 
1532.000000	63.466882 
1531.000000	63.471460 
1530.000000	63.473606 
1529.000000	63.473391 
1528.000000	63.471341 
1527.000000	63.467884 
1526.000000	63.463664 
1525.000000	63.459396 
1524.000000	63.455915 
1523.000000	63.454079 
1522.000000	63.454842 
1521.000000	63.459014 
1520.000000	63.467240 
1519.000000	63.479542 
1518.000000	63.495230 
1517.000000	63.512873 
1516.000000	63.530659 
1515.000000	63.546752 
1514.000000	63.559412 
1513.000000	63.567590 
1512.000000	63.570809 
1511.000000	63.569140 
1510.000000	63.563370 
1509.000000	63.554430 
1508.000000	63.543248 
1507.000000	63.530635 
1506.000000	63.517403 
1505.000000	63.504457 
1504.000000	63.492679 
1503.000000	63.483119 
1502.000000	63.477063 
1501.000000	63.475799 
1500.000000	63.480257 
1499.000000	63.490748 
1498.000000	63.506770 
1497.000000	63.526821 
1496.000000	63.548660 
1495.000000	63.569569 
1494.000000	63.586783 
1493.000000	63.598084 
1492.000000	63.602089 
1491.000000	63.598418 
1490.000000	63.587594 
1489.000000	63.570833 
1488.000000	63.549876 
1487.000000	63.526344 
1486.000000	63.501906 
1485.000000	63.478255 
1484.000000	63.457274 
1483.000000	63.440656 
1482.000000	63.430166 
1481.000000	63.427376 
1480.000000	63.433265 
1479.000000	63.447904 
1478.000000	63.470244 
1477.000000	63.497924 
1476.000000	63.527727 
1475.000000	63.555955 
1474.000000	63.579106 
1473.000000	63.594365 
1472.000000	63.600254 
1471.000000	63.596820 
1470.000000	63.585591 
1469.000000	63.569045 
1468.000000	63.550090 
1467.000000	63.531374 
1466.000000	63.514804 
1465.000000	63.500976 
1464.000000	63.489651 
1463.000000	63.479590 
1462.000000	63.469219 
1461.000000	63.457202 
1460.000000	63.442802 
1459.000000	63.426065 
1458.000000	63.407707 
1457.000000	63.389086 
1456.000000	63.371729 
1455.000000	63.357138 
1454.000000	63.346171 
1453.000000	63.339018 
1452.000000	63.335347 
1451.000000	63.334345 
1450.000000	63.334798 
1449.000000	63.335585 
1448.000000	63.335633 
1447.000000	63.334369 
1446.000000	63.331604 
1445.000000	63.327503 
1444.000000	63.322448 
1443.000000	63.317155 
1442.000000	63.312578 
1441.000000	63.309621 
1440.000000	63.308930 
1439.000000	63.310694 
1438.000000	63.314557 
1437.000000	63.319683 
1436.000000	63.325047 
1435.000000	63.329434 
1434.000000	63.331842 
1433.000000	63.331913 
1432.000000	63.330101 
1431.000000	63.327407 
1430.000000	63.325452 
1429.000000	63.325929 
1428.000000	63.330459 
1427.000000	63.340234 
1426.000000	63.355612 
1425.000000	63.376235 
1424.000000	63.400673 
1423.000000	63.426852 
1422.000000	63.452100 
1421.000000	63.473725 
1420.000000	63.489246 
1419.000000	63.496804 
1418.000000	63.495588 
1417.000000	63.486027 
1416.000000	63.469576 
1415.000000	63.448786 
1414.000000	63.426780 
1413.000000	63.406729 
1412.000000	63.391518 
1411.000000	63.383054 
1410.000000	63.382029 
1409.000000	63.387989 
1408.000000	63.399481 
1407.000000	63.414430 
1406.000000	63.430309 
1405.000000	63.444709 
1404.000000	63.455581 
1403.000000	63.461494 
1402.000000	63.461494 
1401.000000	63.455533 
1400.000000	63.443899 
1399.000000	63.427782 
1398.000000	63.408708 
1397.000000	63.388895 
1396.000000	63.370656 
1395.000000	63.356399 
1394.000000	63.348102 
1393.000000	63.347125 
1392.000000	63.353991 
1391.000000	63.368105 
1390.000000	63.387727 
1389.000000	63.410520 
1388.000000	63.433670 
1387.000000	63.454437 
1386.000000	63.470315 
1385.000000	63.479375 
1384.000000	63.480353 
1383.000000	63.472819 
1382.000000	63.456964 
1381.000000	63.433480 
1380.000000	63.403654 
1379.000000	63.369393 
1378.000000	63.333153 
1377.000000	63.297986 
1376.000000	63.267135 
1375.000000	63.243746 
1374.000000	63.230347 
1373.000000	63.228344 
1372.000000	63.237595 
1371.000000	63.256287 
1370.000000	63.281321 
1369.000000	63.308835 
1368.000000	63.334774 
1367.000000	63.355755 
1366.000000	63.369393 
1365.000000	63.374614 
1364.000000	63.371706 
1363.000000	63.361978 
1362.000000	63.347268 
1361.000000	63.329529 
1360.000000	63.310575 
1359.000000	63.292121 
1358.000000	63.275671 
1357.000000	63.262653 
1356.000000	63.254427 
1355.000000	63.252091 
1354.000000	63.256287 
1353.000000	63.267016 
1352.000000	63.283443 
1351.000000	63.303971 
1350.000000	63.326525 
1349.000000	63.348579 
1348.000000	63.368058 
1347.000000	63.383102 
1346.000000	63.392424 
1345.000000	63.395309 
1344.000000	63.391637 
1343.000000	63.381934 
1342.000000	63.366961 
1341.000000	63.348102 
1340.000000	63.327240 
1339.000000	63.306808 
1338.000000	63.289618 
1337.000000	63.278436 
1336.000000	63.275361 
1335.000000	63.281226 
1334.000000	63.295483 
1333.000000	63.315820 
1332.000000	63.338804 
1331.000000	63.360548 
1330.000000	63.377642 
1329.000000	63.388061 
1328.000000	63.391375 
1327.000000	63.388872 
1326.000000	63.382959 
1325.000000	63.376331 
1324.000000	63.371348 
1323.000000	63.369417 
1322.000000	63.370680 
1321.000000	63.374400 
1320.000000	63.379073 
1319.000000	63.383531 
1318.000000	63.386774 
1317.000000	63.388609 
1316.000000	63.389086 
1315.000000	63.388442 
1314.000000	63.386702 
1313.000000	63.383412 
1312.000000	63.377594 
1311.000000	63.368225 
1310.000000	63.354682 
1309.000000	63.337206 
1308.000000	63.316798 
1307.000000	63.295221 
1306.000000	63.274621 
1305.000000	63.257122 
1304.000000	63.244056 
1303.000000	63.235831 
1302.000000	63.231801 
1301.000000	63.230562 
1300.000000	63.230514 
1299.000000	63.230395 
1298.000000	63.229227 
1297.000000	63.226795 
1296.000000	63.223123 
1295.000000	63.218593 
1294.000000	63.213109 
1293.000000	63.206744 
1292.000000	63.199234 
1291.000000	63.190746 
1290.000000	63.181662 
1289.000000	63.173031 
1288.000000	63.166403 
1287.000000	63.163423 
1286.000000	63.165569 
1285.000000	63.173508 
1284.000000	63.187026 
1283.000000	63.204932 
1282.000000	63.225126 
1281.000000	63.244962 
1280.000000	63.261818 
1279.000000	63.273644 
1278.000000	63.279032 
1277.000000	63.277363 
1276.000000	63.268756 
1275.000000	63.253879 
1274.000000	63.234019 
1273.000000	63.210654 
1272.000000	63.185596 
1271.000000	63.160967 
1270.000000	63.138842 
1269.000000	63.121151 
1268.000000	63.109350 
1267.000000	63.104128 
1266.000000	63.105249 
1265.000000	63.111567 
1264.000000	63.121366 
1263.000000	63.132357 
1262.000000	63.142395 
1261.000000	63.149619 
1260.000000	63.153004 
1259.000000	63.152360 
1258.000000	63.148355 
1257.000000	63.142347 
1256.000000	63.136124 
1255.000000	63.131475 
1254.000000	63.129854 
1253.000000	63.132047 
1252.000000	63.138175 
1251.000000	63.147687 
1250.000000	63.159489 
1249.000000	63.172149 
1248.000000	63.183975 
1247.000000	63.193440 
1246.000000	63.199114 
1245.000000	63.200044 
1244.000000	63.195729 
1243.000000	63.186240 
1242.000000	63.172101 
1241.000000	63.154387 
1240.000000	63.134503 
1239.000000	63.114380 
1238.000000	63.095998 
1237.000000	63.081336 
1236.000000	63.071990 
1235.000000	63.069176 
1234.000000	63.073420 
1233.000000	63.084650 
1232.000000	63.102102 
1231.000000	63.124608 
1230.000000	63.150882 
1229.000000	63.179278 
1228.000000	63.208198 
1227.000000	63.236045 
1226.000000	63.261222 
1225.000000	63.282203 
1224.000000	63.297653 
1223.000000	63.306713 
1222.000000	63.309216 
1221.000000	63.305997 
1220.000000	63.298392 
1219.000000	63.288712 
1218.000000	63.279366 
1217.000000	63.272523 
1216.000000	63.269448 
1215.000000	63.270473 
1214.000000	63.274502 
1213.000000	63.279485 
1212.000000	63.282823 
1211.000000	63.282179 
1210.000000	63.275861 
1209.000000	63.263344 
1208.000000	63.245582 
1207.000000	63.224506 
1206.000000	63.202977 
1205.000000	63.183641 
1204.000000	63.168668 
1203.000000	63.159441 
1202.000000	63.155961 
1201.000000	63.157200 
1200.000000	63.161563 
1199.000000	63.167357 
1198.000000	63.172960 
1197.000000	63.177180 
1196.000000	63.179469 
1195.000000	63.180065 
1194.000000	63.179373 
1193.000000	63.177919 
1192.000000	63.176226 
1191.000000	63.174462 
1190.000000	63.172602 
1189.000000	63.170409 
1188.000000	63.167333 
1187.000000	63.162779 
1186.000000	63.156390 
1185.000000	63.147783 
1184.000000	63.136839 
1183.000000	63.123750 
1182.000000	63.108944 
1181.000000	63.093256 
1180.000000	63.077664 
1179.000000	63.063120 
1178.000000	63.050532 
1177.000000	63.040232 
1176.000000	63.031888 
1175.000000	63.024616 
1174.000000	63.017082 
1173.000000	63.007783 
1172.000000	62.995505 
1171.000000	62.979626 
1170.000000	62.960577 
1169.000000	62.939834 
1168.000000	62.919735 
1167.000000	62.902855 
1166.000000	62.891674 
1165.000000	62.888050 
1164.000000	62.892937 
1163.000000	62.905955 
1162.000000	62.925553 
1161.000000	62.949562 
1160.000000	62.975430 
1159.000000	63.000607 
1158.000000	63.023090 
1157.000000	63.041377 
1156.000000	63.054847 
1155.000000	63.063621 
1154.000000	63.068485 
1153.000000	63.070392 
1152.000000	63.070726 
1151.000000	63.070964 
1150.000000	63.072395 
1149.000000	63.075947 
1148.000000	63.082051 
1147.000000	63.090610 
1146.000000	63.100886 
1145.000000	63.111567 
1144.000000	63.121104 
1143.000000	63.127779 
1142.000000	63.130164 
1141.000000	63.127446 
1140.000000	63.119482 
1139.000000	63.106560 
1138.000000	63.089632 
1137.000000	63.069915 
1136.000000	63.048648 
1135.000000	63.027167 
1134.000000	63.006448 
1133.000000	62.987709 
1132.000000	62.972116 
1131.000000	62.961196 
1130.000000	62.956523 
1129.000000	62.959551 
1128.000000	62.971138 
1127.000000	62.991118 
1126.000000	63.017916 
1125.000000	63.048529 
1124.000000	63.078832 
1123.000000	63.104295 
1122.000000	63.120961 
1121.000000	63.126206 
1120.000000	63.119459 
1119.000000	63.102197 
1118.000000	63.077545 
1117.000000	63.049721 
1116.000000	63.022708 
1115.000000	62.999534 
1114.000000	62.981486 
1113.000000	62.968134 
1112.000000	62.957596 
1111.000000	62.947678 
1110.000000	62.936425 
1109.000000	62.922883 
1108.000000	62.907481 
1107.000000	62.891769 
1106.000000	62.878298 
1105.000000	62.869501 
1104.000000	62.867283 
1103.000000	62.872338 
1102.000000	62.884283 
1101.000000	62.901568 
1100.000000	62.921905 
1099.000000	62.942671 
1098.000000	62.961363 
1097.000000	62.976169 
1096.000000	62.986063 
1095.000000	62.990784 
1094.000000	62.990927 
1093.000000	62.987637 
1092.000000	62.982559 
1091.000000	62.977385 
1090.000000	62.973690 
1089.000000	62.972259 
1088.000000	62.973046 
1087.000000	62.974858 
1086.000000	62.975692 
1085.000000	62.973046 
1084.000000	62.964391 
1083.000000	62.948012 
1082.000000	62.923574 
1081.000000	62.892436 
1080.000000	62.857294 
1079.000000	62.821960 
1078.000000	62.790608 
1077.000000	62.767171 
1076.000000	62.754130 
1075.000000	62.752580 
1074.000000	62.761998 
1073.000000	62.780761 
1072.000000	62.806320 
1071.000000	62.836050 
1070.000000	62.867450 
1069.000000	62.898397 
1068.000000	62.927150 
1067.000000	62.952136 
1066.000000	62.971735 
1065.000000	62.984585 
1064.000000	62.989401 
1063.000000	62.985491 
1062.000000	62.972593 
1061.000000	62.951254 
1060.000000	62.922644 
1059.000000	62.888431 
1058.000000	62.851142 
1057.000000	62.813401 
1056.000000	62.778306 
1055.000000	62.748765 
1054.000000	62.728047 
1053.000000	62.718582 
1052.000000	62.722468 
1051.000000	62.740564 
1050.000000	62.772631 
1049.000000	62.816905 
1048.000000	62.870335 
1047.000000	62.928628 
1046.000000	62.987208 
1045.000000	63.041448 
1044.000000	63.087630 
1043.000000	63.123345 
1042.000000	63.147568 
1041.000000	63.160586 
1040.000000	63.163852 
1039.000000	63.159298 
1038.000000	63.149309 
1037.000000	63.136148 
1036.000000	63.121771 
1035.000000	63.107609 
1034.000000	63.094663 
1033.000000	63.083434 
1032.000000	63.073968 
1031.000000	63.066053 
1030.000000	63.059377 
1029.000000	63.053631 
1028.000000	63.048696 
1027.000000	63.044452 
1026.000000	63.040637 
1025.000000	63.036870 
1024.000000	63.032746 
1023.000000	63.027429 
1022.000000	63.019943 
1021.000000	63.009428 
1020.000000	62.995409 
1019.000000	62.978267 
1018.000000	62.959146 
1017.000000	62.940073 
1016.000000	62.923526 
1015.000000	62.911725 
1014.000000	62.906455 
1013.000000	62.907910 
1012.000000	62.914824 
1011.000000	62.924551 
1010.000000	62.933707 
1009.000000	62.938857 
1008.000000	62.937283 
1007.000000	62.927603 
1006.000000	62.910246 
1005.000000	62.887191 
1004.000000	62.861704 
1003.000000	62.837386 
1002.000000	62.817740 
1001.000000	62.805247 
1000.000000	62.801170 
999.000000	 62.805533 
998.000000	 62.817311 
997.000000	 62.834906 
996.000000	 62.856411 
995.000000	 62.880110 
994.000000	 62.904763 
993.000000	 62.929415 
992.000000	 62.953758 
991.000000	 62.977647 
990.000000	 63.001298 
989.000000	 63.024735 
988.000000	 63.047695 
987.000000	 63.069438 
986.000000	 63.088893 
985.000000	 63.104772 
984.000000	 63.115835 
983.000000	 63.121032 
982.000000	 63.120102 
981.000000	 63.113451 
980.000000	 63.102340 
979.000000	 63.088512 
978.000000	 63.074016 
977.000000	 63.060808 
976.000000	 63.050413 
975.000000	 63.043642 
974.000000	 63.040685 
973.000000	 63.040995 
972.000000	 63.043498 
971.000000	 63.046813 
970.000000	 63.049602 
969.000000	 63.050651 
968.000000	 63.048982 
967.000000	 63.043999 
966.000000	 63.035464 
965.000000	 63.023757 
964.000000	 63.009953 
963.000000	 62.995791 
962.000000	 62.983322 
961.000000	 62.974715 
960.000000	 62.971878 
959.000000	 62.975788 
958.000000	 62.986326 
957.000000	 63.002109 
956.000000	 63.020563 
955.000000	 63.038420 
954.000000	 63.052225 
953.000000	 63.059091 
952.000000	 63.057303 
951.000000	 63.046550 
950.000000	 63.028240 
949.000000	 63.005089 
948.000000	 62.980484 
947.000000	 62.958002 
946.000000	 62.940430 
945.000000	 62.929368 
944.000000	 62.924885 
943.000000	 62.925958 
942.000000	 62.930464 
941.000000	 62.935876 
940.000000	 62.940096 
939.000000	 62.941598 
938.000000	 62.940192 
937.000000	 62.936615 
936.000000	 62.932562 
935.000000	 62.929773 
934.000000	 62.930011 
933.000000	 62.934136 
932.000000	 62.942361 
931.000000	 62.954163 
930.000000	 62.968516 
929.000000	 62.984013 
928.000000	 62.999725 
927.000000	 63.014841 
926.000000	 63.028788 
925.000000	 63.040900 
924.000000	 63.050460 
923.000000	 63.056302 
922.000000	 63.057041 
921.000000	 63.051438 
920.000000	 63.038778 
919.000000	 63.019227 
918.000000	 62.994480 
917.000000	 62.967157 
916.000000	 62.940907 
915.000000	 62.919402 
914.000000	 62.905383 
913.000000	 62.900090 
912.000000	 62.902927 
911.000000	 62.911510 
910.000000	 62.922334 
909.000000	 62.931656 
908.000000	 62.936496 
907.000000	 62.935113 
906.000000	 62.927508 
905.000000	 62.915325 
904.000000	 62.901163 
903.000000	 62.887907 
902.000000	 62.877941 
901.000000	 62.872695 
900.000000	 62.872481 
899.000000	 62.876677 
898.000000	 62.883853 
897.000000	 62.892508 
896.000000	 62.901186 
895.000000	 62.908744 
894.000000	 62.914443 
893.000000	 62.917709 
892.000000	 62.918210 
891.000000	 62.915611 
890.000000	 62.909841 
889.000000	 62.901067 
888.000000	 62.889957 
887.000000	 62.877535 
886.000000	 62.865328 
885.000000	 62.855219 
884.000000	 62.849235 
883.000000	 62.848997 
882.000000	 62.855768 
881.000000	 62.869787 
880.000000	 62.890529 
879.000000	 62.916707 
878.000000	 62.946367 
877.000000	 62.977075 
876.000000	 63.006448 
875.000000	 63.032460 
874.000000	 63.053679 
873.000000	 63.069319 
872.000000	 63.079714 
871.000000	 63.085722 
870.000000	 63.088893 
869.000000	 63.090848 
868.000000	 63.092899 
867.000000	 63.095664 
866.000000	 63.099074 
865.000000	 63.102459 
864.000000	 63.105010 
863.000000	 63.105702 
862.000000	 63.104271 
861.000000	 63.100576 
860.000000	 63.095211 
859.000000	 63.088631 
858.000000	 63.081026 
857.000000	 63.072061 
856.000000	 63.061022 
855.000000	 63.046813 
854.000000	 63.028454 
853.000000	 63.005661 
852.000000	 62.979245 
851.000000	 62.951231 
850.000000	 62.924480 
849.000000	 62.901949 
848.000000	 62.885928 
847.000000	 62.877345 
846.000000	 62.875509 
845.000000	 62.878441 
844.000000	 62.883734 
843.000000	 62.888979 
842.000000	 62.892842 
841.000000	 62.895107 
840.000000	 62.896990 
839.000000	 62.900400 
838.000000	 62.907338 
837.000000	 62.919592 
836.000000	 62.937188 
835.000000	 62.958788 
834.000000	 62.981104 
833.000000	 62.999749 
832.000000	 63.009905 
831.000000	 63.007497 
830.000000	 62.990522 
829.000000	 62.959742 
828.000000	 62.919211 
827.000000	 62.875247 
826.000000	 62.835288 
825.000000	 62.806057 
824.000000	 62.792015 
823.000000	 62.794423 
822.000000	 62.811088 
821.000000	 62.837028 
820.000000	 62.866044 
819.000000	 62.892365 
818.000000	 62.912034 
817.000000	 62.923669 
816.000000	 62.928819 
815.000000	 62.930893 
814.000000	 62.933874 
813.000000	 62.940526 
812.000000	 62.951660 
811.000000	 62.964892 
810.000000	 62.975764 
809.000000	 62.978100 
808.000000	 62.966299 
807.000000	 62.936520 
806.000000	 62.888407 
805.000000	 62.825465 
804.000000	 62.754344 
803.000000	 62.683749 
802.000000	 62.622499 
801.000000	 62.577891 
800.000000	 62.554097 
799.000000	 62.552046 
798.000000	 62.569475 
797.000000	 62.602066 
796.000000	 62.644457 
795.000000	 62.691497 
794.000000	 62.739086 
793.000000	 62.784552 
792.000000	 62.826442 
791.000000	 62.864232 
790.000000	 62.897515 
789.000000	 62.925863 
788.000000	 62.947964 
787.000000	 62.962508 
786.000000	 62.967395 
785.000000	 62.961173 
784.000000	 62.942481 
783.000000	 62.911224 
782.000000	 62.868189 
781.000000	 62.815618 
780.000000	 62.756919 
779.000000	 62.696552 
778.000000	 62.639403 
777.000000	 62.590265 
776.000000	 62.553071 
775.000000	 62.530040 
774.000000	 62.521481 
773.000000	 62.525773 
772.000000	 62.539958 
771.000000	 62.560153 
770.000000	 62.582874 
769.000000	 62.605381 
768.000000	 62.626051 
767.000000	 62.644195 
766.000000	 62.659692 
765.000000	 62.672686 
764.000000	 62.683296 
763.000000	 62.691354 
762.000000	 62.696123 
761.000000	 62.696838 
760.000000	 62.693309 
759.000000	 62.685942 
758.000000	 62.676000 
757.000000	 62.665224 
756.000000	 62.655782 
755.000000	 62.649703 
754.000000	 62.648367 
753.000000	 62.652111 
752.000000	 62.660408 
751.000000	 62.671947 
750.000000	 62.685132 
749.000000	 62.698340 
748.000000	 62.709927 
747.000000	 62.719011 
746.000000	 62.725520 
745.000000	 62.730360 
744.000000	 62.734985 
743.000000	 62.741470 
742.000000	 62.751698 
741.000000	 62.766885 
740.000000	 62.786865 
739.000000	 62.809967 
738.000000	 62.832999 
737.000000	 62.852120 
736.000000	 62.863397 
735.000000	 62.863779 
734.000000	 62.851595 
733.000000	 62.827372 
732.000000	 62.793350 
731.000000	 62.753272 
730.000000	 62.711644 
729.000000	 62.672519 
728.000000	 62.639307 
727.000000	 62.614107 
726.000000	 62.597775 
725.000000	 62.590098 
724.000000	 62.590241 
723.000000	 62.597274 
722.000000	 62.609887 
721.000000	 62.626647 
720.000000	 62.645840 
719.000000	 62.665224 
718.000000	 62.682557 
717.000000	 62.695574 
716.000000	 62.702608 
715.000000	 62.702441 
714.000000	 62.694811 
713.000000	 62.680292 
712.000000	 62.660002 
711.000000	 62.635374 
710.000000	 62.608027 
709.000000	 62.579655 
708.000000	 62.551736 
707.000000	 62.525725 
706.000000	 62.503194 
705.000000	 62.485837 
704.000000	 62.475132 
703.000000	 62.472414 
702.000000	 62.478232 
701.000000	 62.492609 
700.000000	 62.514567 
699.000000	 62.542366 
698.000000	 62.573480 
697.000000	 62.605166 
696.000000	 62.634921 
695.000000	 62.660574 
694.000000	 62.680554 
693.000000	 62.693715 
692.000000	 62.699556 
691.000000	 62.697935 
690.000000	 62.689447 
689.000000	 62.674856 
688.000000	 62.655282 
687.000000	 62.632107 
686.000000	 62.606763 
685.000000	 62.580633 
684.000000	 62.554812 
683.000000	 62.529945 
682.000000	 62.506294 
681.000000	 62.483668 
680.000000	 62.462258 
679.000000	 62.441945 
678.000000	 62.423443 
677.000000	 62.407994 
676.000000	 62.397336 
675.000000	 62.393236 
674.000000	 62.397098 
673.000000	 62.409591 
672.000000	 62.430095 
671.000000	 62.456440 
670.000000	 62.484979 
669.000000	 62.511253 
668.000000	 62.530398 
667.000000	 62.538266 
666.000000	 62.531733 
665.000000	 62.509369 
664.000000	 62.471914 
663.000000	 62.422251 
662.000000	 62.364912 
661.000000	 62.305402 
660.000000	 62.249875 
659.000000	 62.204265 
658.000000	 62.173223 
657.000000	 62.159729 
656.000000	 62.164831 
655.000000	 62.187743 
654.000000	 62.225246 
653.000000	 62.272906 
652.000000	 62.325334 
651.000000	 62.377738 
650.000000	 62.426018 
649.000000	 62.468099 
648.000000	 62.503385 
647.000000	 62.533211 
646.000000	 62.560224 
645.000000	 62.587094 
644.000000	 62.615656 
643.000000	 62.645792 
642.000000	 62.676262 
641.000000	 62.703537 
640.000000	 62.722969 
639.000000	 62.729716 
638.000000	 62.720537 
637.000000	 62.693929 
636.000000	 62.650942 
635.000000	 62.594580 
634.000000	 62.529063 
633.000000	 62.458491 
632.000000	 62.385892 
631.000000	 62.312531 
630.000000	 62.238073 
629.000000	 62.161135 
628.000000	 62.080836 
627.000000	 61.997723 
626.000000	 61.914968 
625.000000	 61.838054 
624.000000	 61.774706 
623.000000	 61.732101 
622.000000	 61.716794 
621.000000	 61.731934 
620.000000	 61.777853 
619.000000	 61.849904 
618.000000	 61.941576 
617.000000	 62.045216 
616.000000	 62.153816 
615.000000	 62.261486 
614.000000	 62.363624 
613.000000	 62.456703 
612.000000	 62.537455 
611.000000	 62.602281 
610.000000	 62.647342 
609.000000	 62.668848 
608.000000	 62.664175 
607.000000	 62.632942 
606.000000	 62.577676 
605.000000	 62.503957 
604.000000	 62.420248 
603.000000	 62.336611 
602.000000	 62.262487 
601.000000	 62.205410 
600.000000	 62.170553 
599.000000	 62.159562 
598.000000	 62.170314 
597.000000	 62.197065 
596.000000	 62.232351 
595.000000	 62.267446 
594.000000	 62.293076 
593.000000	 62.301778 
592.000000	 62.287497 
591.000000	 62.249135 
590.000000	 62.190222 
589.000000	 62.119340 
588.000000	 62.048220 
587.000000	 61.989259 
586.000000	 61.953401 
585.000000	 61.945843 
584.000000	 61.964941 
583.000000	 62.002301 
582.000000	 62.045407 
581.000000	 62.080097 
580.000000	 62.094736 
579.000000	 62.083435 
578.000000	 62.048029 
577.000000	 61.998248 
576.000000	 61.949729 
575.000000	 61.919403 
574.000000	 61.921429 
573.000000	 61.964344 
572.000000	 62.047863 
571.000000	 62.163686 
570.000000	 62.295722 
569.000000	 62.424850 
568.000000	 62.531089 
567.000000	 62.598800 
566.000000	 62.618255 
565.000000	 62.587213 
564.000000	 62.510395 
563.000000	 62.398147 
562.000000	 62.263679 
561.000000	 62.121009 
560.000000	 61.981725 
559.000000	 61.854386 
558.000000	 61.743402 
557.000000	 61.650443 
556.000000	 61.575222 
555.000000	 61.517524 
554.000000	 61.479353 
553.000000	 61.465406 
552.000000	 61.484074 
551.000000	 61.544919 
550.000000	 61.656117 
549.000000	 61.819863 
548.000000	 62.029457 
547.000000	 62.266945 
546.000000	 62.504291 
545.000000	 62.707614 
544.000000	 62.843704 
543.000000	 62.887454 
542.000000	 62.828922 
541.000000	 62.675285 
540.000000	 62.450385 
539.000000	 62.189173 
538.000000	 61.931085 
537.000000	 61.711430 
536.000000	 61.556506 
535.000000	 61.476922 
534.000000	 61.467695 
533.000000	 61.511325 
532.000000	 61.585021 
531.000000	 61.665511 
530.000000	 61.734271 
529.000000	 61.782479 
528.000000	 61.810922 
527.000000	 61.828231 
526.000000	 61.845993 
525.000000	 61.872816 
524.000000	 61.910247 
523.000000	 61.953377 
522.000000	 61.992049 
521.000000	 62.013721 
520.000000	 62.008142 
519.000000	 61.972975 
518.000000	 61.914706 
517.000000	 61.847901 
516.000000	 61.790657 
515.000000	 61.760544 
514.000000	 61.767172 
513.000000	 61.811828 
512.000000	 61.881375 
511.000000	 61.954903 
510.000000	 62.001490 
509.000000	 61.989998 
508.000000	 61.892247 
507.000000	 61.691856 
506.000000	 61.386823 
505.000000	 60.990095 
504.000000	 60.531449 
503.000000	 60.051774 
502.000000	 59.600496 
501.000000	 59.226965 
500.000000	 58.975124 
499.000000	 58.875703 
498.000000	 58.944725 
497.000000	 59.180784 
496.000000	 59.563779 
495.000000	 60.057926 
494.000000	 60.616087 
493.000000	 61.186861 
492.000000	 61.718463 
491.000000	 62.167525 
490.000000	 62.502431 
489.000000	 62.707924 
488.000000	 62.785816 
487.000000	 62.752318 
486.000000	 62.634992 
485.000000	 62.465453 
484.000000	 62.278842 
483.000000	 62.103557 
482.000000	 61.962366 
481.000000	 61.865973 
480.000000	 61.817955 
479.000000	 61.811757 
478.000000	 61.836504 
477.000000	 61.877036 
476.000000	 61.918330 
475.000000	 61.946249 
474.000000	 61.949443 
473.000000	 61.920809 
472.000000	 61.857914 
471.000000	 61.762571 
470.000000	 61.640071 
469.000000	 61.499524 
468.000000	 61.352539 
467.000000	 61.210703 
466.000000	 61.085319 
465.000000	 60.985970 
464.000000	 60.920834 
463.000000	 60.896849 
462.000000	 60.918736 
461.000000	 60.986948 
460.000000	 61.096763 
459.000000	 61.239433 
458.000000	 61.400008 
457.000000	 61.557722 
456.000000	 61.689090 
455.000000	 61.770701 
454.000000	 61.785435 
453.000000	 61.727023 
452.000000	 61.601328 
451.000000	 61.424803 
450.000000	 61.222863 
449.000000	 61.025810 
448.000000	 60.859799 
447.000000	 60.742187 
446.000000	 60.677051 
445.000000	 60.656261 
444.000000	 60.665297 
443.000000	 60.689830 
442.000000	 60.720181 
441.000000	 60.755729 
440.000000	 60.805130 
439.000000	 60.882902 
438.000000	 61.003899 
437.000000	 61.176180 
436.000000	 61.393237 
435.000000	 61.635303 
434.000000	 61.873817 
433.000000	 62.078070 
432.000000	 62.219929 
431.000000	 62.286090 
430.000000	 62.279367 
429.000000	 62.223935 
428.000000	 62.162041 
427.000000	 62.141561 
426.000000	 62.203168 
425.000000	 62.369489 
424.000000	 62.642121 
423.000000	 62.992382 
422.000000	 63.367891 
421.000000	 63.703107 
420.000000	 63.936710 
419.000000	 64.017844 
418.000000	 63.918232 
417.000000	 63.639354 
416.000000	 63.214659 
415.000000	 62.695240 
414.000000	 62.145662 
413.000000	 61.640954 
412.000000	 61.257004 
411.000000	 61.051034 
410.000000	 61.059236 
409.000000	 61.305022 
408.000000	 61.783123 
407.000000	 62.465500 
406.000000	 63.287067 
405.000000	 64.153838 
404.000000	 64.947819 
403.000000	 65.537500 
402.000000	 65.809011 
401.000000	 65.702986 
400.000000	 65.209269 
399.000000	 64.374470 
398.000000	 63.281345 
397.000000	 62.033343 
396.000000	 60.732531 
395.000000	 59.472107 
394.000000	 58.307290 
393.000000	 57.252717 
392.000000	 56.302762 
391.000000	 55.440950 
390.000000	 54.635810 
389.000000	 53.846812 
388.000000	 52.989649 
387.000000	 51.963257 
386.000000	 50.672721 
385.000000	 49.071717 
384.000000	 47.184300 
383.000000	 45.122957 
382.000000	 43.072605 
381.000000	 41.253042 
380.000000	 39.879226 
379.000000	 39.082336 
378.000000	 38.897466 
377.000000	 39.196467 
376.000000	 39.727258 
375.000000	 40.135860 
374.000000	 39.980268 
373.000000	 38.958907 
372.000000	 36.900758 
371.000000	 34.043693 
370.000000	 30.999755 

