PE IR       SPECTRUM    SPECTRUM    ASCII       PEDS        1.60        
  -1
BZ6C26~1.ASC
17/04/07
20:07:11.00
17/04/07
20:07:11.00
tln
$BZ1503107-1_t0084$<tbV0>[-2.6,5.2,8.0,0.0,27,1,0]
370.000000
64









2002,4.07    
MIRTGS : RIGHTBACK : INTERNAL 2
MIR : ON : INTERNAL 2
OPTKBR

0.200000
8
8.000000
FILLER
RATIO
SPECTRUM
UNLOCKED 256

DOUBLE
64
COMBINED
1
0
0


1.000000
RATIO


1
0
TRUE
51149
0
LEFT NOT FITTED RIGHT NOT FITTED 0
NONE
NONE
15600
12.000000
4.427000
51148
TRUE
1 0 8 72 0 0 0 0 

15798.010000






#HDR
-1
-1
#GR
CM-1
%T
0.00002384185791015625
0.0
5000.000000
-1.000000
4631
8
69.169926
40.019321
#DATA
5000.000000	65.901637 
4999.000000	65.859675 
4998.000000	65.664124 
4997.000000	65.338373 
4996.000000	64.926815 
4995.000000	64.485645 
4994.000000	64.071011 
4993.000000	63.731193 
4992.000000	63.494038 
4991.000000	63.366270 
4990.000000	63.331222 
4989.000000	63.358116 
4988.000000	63.407278 
4987.000000	63.440561 
4986.000000	63.429689 
4985.000000	63.361144 
4984.000000	63.238263 
4983.000000	63.078284 
4982.000000	62.907838 
4981.000000	62.756180 
4980.000000	62.649583 
4979.000000	62.606549 
4978.000000	62.635302 
4977.000000	62.733840 
4976.000000	62.892818 
4975.000000	63.098502 
4974.000000	63.334631 
4973.000000	63.585782 
4972.000000	63.838696 
4971.000000	64.082670 
4970.000000	64.307284 
4969.000000	64.503526 
4968.000000	64.663290 
4967.000000	64.779686 
4966.000000	64.849257 
4965.000000	64.871788 
4964.000000	64.850544 
4963.000000	64.794945 
4962.000000	64.721202 
4961.000000	64.649820 
4960.000000	64.602279 
4959.000000	64.599061 
4958.000000	64.656233 
4957.000000	64.780616 
4956.000000	64.967489 
4955.000000	65.199899 
4954.000000	65.450596 
4953.000000	65.685915 
4952.000000	65.871405 
4951.000000	65.978336 
4950.000000	65.988779 
4949.000000	65.898466 
4948.000000	65.717840 
4947.000000	65.469980 
4946.000000	65.186381 
4945.000000	64.902210 
4944.000000	64.649796 
4943.000000	64.453840 
4942.000000	64.328837 
4941.000000	64.280056 
4940.000000	64.303183 
4939.000000	64.386010 
4938.000000	64.512968 
4937.000000	64.667844 
4936.000000	64.835929 
4935.000000	65.002989 
4934.000000	65.158534 
4933.000000	65.294432 
4932.000000	65.405464 
4931.000000	65.487909 
4930.000000	65.540671 
4929.000000	65.564584 
4928.000000	65.563297 
4927.000000	65.542340 
4926.000000	65.508747 
4925.000000	65.469241 
4924.000000	65.430116 
4923.000000	65.395140 
4922.000000	65.365815 
4921.000000	65.340662 
4920.000000	65.316152 
4919.000000	65.288138 
4918.000000	65.253376 
4917.000000	65.210509 
4916.000000	65.161442 
4915.000000	65.109896 
4914.000000	65.059947 
4913.000000	65.014958 
4912.000000	64.977216 
4911.000000	64.946341 
4910.000000	64.919352 
4909.000000	64.891552 
4908.000000	64.857959 
4907.000000	64.814996 
4906.000000	64.761972 
4905.000000	64.700889 
4904.000000	64.635753 
4903.000000	64.573478 
4902.000000	64.522457 
4901.000000	64.490342 
4900.000000	64.482402 
4899.000000	64.501476 
4898.000000	64.547157 
4897.000000	64.615440 
4896.000000	64.699864 
4895.000000	64.792370 
4894.000000	64.885234 
4893.000000	64.971494 
4892.000000	65.046954 
4891.000000	65.109777 
4890.000000	65.160679 
4889.000000	65.202760 
4888.000000	65.239071 
4887.000000	65.271902 
4886.000000	65.300798 
4885.000000	65.324091 
4884.000000	65.337491 
4883.000000	65.336489 
4882.000000	65.316581 
4881.000000	65.276122 
4880.000000	65.214872 
4879.000000	65.135145 
4878.000000	65.040946 
4877.000000	64.937591 
4876.000000	64.830946 
4875.000000	64.726877 
4874.000000	64.630818 
4873.000000	64.547204 
4872.000000	64.478564 
4871.000000	64.425683 
4870.000000	64.386987 
4869.000000	64.359951 
4868.000000	64.340972 
4867.000000	64.327573 
4866.000000	64.317727 
4865.000000	64.311623 
4864.000000	64.311099 
4863.000000	64.319372 
4862.000000	64.339184 
4861.000000	64.371848 
4860.000000	64.416313 
4859.000000	64.468741 
4858.000000	64.522433 
4857.000000	64.569711 
4856.000000	64.603781 
4855.000000	64.620113 
4854.000000	64.617753 
4853.000000	64.598894 
4852.000000	64.568209 
4851.000000	64.531731 
4850.000000	64.495348 
4849.000000	64.463996 
4848.000000	64.440917 
4847.000000	64.427900 
4846.000000	64.425611 
4845.000000	64.432930 
4844.000000	64.447522 
4843.000000	64.466476 
4842.000000	64.487218 
4841.000000	64.507484 
4840.000000	64.526224 
4839.000000	64.543843 
4838.000000	64.561843 
4837.000000	64.582061 
4836.000000	64.605689 
4835.000000	64.632844 
4834.000000	64.661312 
4833.000000	64.687180 
4832.000000	64.705276 
4831.000000	64.710330 
4830.000000	64.698743 
4829.000000	64.670085 
4828.000000	64.627575 
4827.000000	64.577507 
4826.000000	64.527988 
4825.000000	64.486837 
4824.000000	64.459919 
4823.000000	64.449644 
4822.000000	64.455342 
4821.000000	64.473915 
4820.000000	64.501166 
4819.000000	64.533138 
4818.000000	64.566540 
4817.000000	64.599394 
4816.000000	64.630579 
4815.000000	64.659547 
4814.000000	64.685869 
4813.000000	64.708876 
4812.000000	64.727854 
4811.000000	64.741587 
4810.000000	64.749264 
4809.000000	64.749860 
4808.000000	64.743161 
4807.000000	64.728927 
4806.000000	64.707159 
4805.000000	64.677929 
4804.000000	64.642095 
4803.000000	64.600944 
4802.000000	64.556574 
4801.000000	64.511895 
4800.000000	64.470672 
4799.000000	64.436435 
4798.000000	64.411759 
4797.000000	64.397811 
4796.000000	64.393877 
4795.000000	64.398026 
4794.000000	64.407658 
4793.000000	64.420223 
4792.000000	64.433670 
4791.000000	64.447236 
4790.000000	64.461302 
4789.000000	64.476060 
4788.000000	64.491605 
4787.000000	64.507412 
4786.000000	64.522624 
4785.000000	64.535570 
4784.000000	64.545059 
4783.000000	64.550828 
4782.000000	64.554381 
4781.000000	64.558672 
4780.000000	64.568090 
4779.000000	64.586830 
4778.000000	64.618706 
4777.000000	64.665627 
4776.000000	64.727258 
4775.000000	64.800906 
4774.000000	64.881920 
4773.000000	64.965176 
4772.000000	65.044522 
4771.000000	65.114068 
4770.000000	65.168118 
4769.000000	65.202093 
4768.000000	65.211868 
4767.000000	65.194225 
4766.000000	65.147423 
4765.000000	65.071702 
4764.000000	64.969944 
4763.000000	64.847946 
4762.000000	64.714288 
4761.000000	64.579844 
4760.000000	64.456033 
4759.000000	64.353704 
4758.000000	64.281129 
4757.000000	64.243078 
4756.000000	64.239668 
4755.000000	64.267253 
4754.000000	64.318513 
4753.000000	64.385056 
4752.000000	64.457893 
4751.000000	64.530158 
4750.000000	64.596438 
4749.000000	64.654755 
4748.000000	64.705157 
4747.000000	64.749526 
4746.000000	64.789772 
4745.000000	64.827227 
4744.000000	64.862179 
4743.000000	64.892959 
4742.000000	64.916634 
4741.000000	64.929485 
4740.000000	64.928674 
4739.000000	64.912486 
4738.000000	64.881563 
4737.000000	64.839172 
4736.000000	64.791083 
4735.000000	64.744949 
4734.000000	64.709019 
4733.000000	64.690136 
4732.000000	64.692854 
4731.000000	64.718770 
4730.000000	64.766025 
4729.000000	64.829397 
4728.000000	64.901161 
4727.000000	64.973139 
4726.000000	65.037608 
4725.000000	65.088915 
4724.000000	65.123653 
4723.000000	65.140986 
4722.000000	65.141844 
4721.000000	65.128612 
4720.000000	65.103650 
4719.000000	65.069055 
4718.000000	65.025782 
4717.000000	64.974594 
4716.000000	64.915990 
4715.000000	64.851260 
4714.000000	64.782357 
4713.000000	64.712619 
4712.000000	64.646005 
4711.000000	64.587211 
4710.000000	64.541339 
4709.000000	64.513421 
4708.000000	64.507365 
4707.000000	64.525246 
4706.000000	64.567041 
4705.000000	64.629793 
4704.000000	64.707779 
4703.000000	64.792585 
4702.000000	64.874148 
4701.000000	64.941954 
4700.000000	64.986538 
4699.000000	65.001034 
4698.000000	64.982128 
4697.000000	64.931344 
4696.000000	64.854526 
4695.000000	64.761948 
4694.000000	64.666914 
4693.000000	64.583492 
4692.000000	64.524435 
4691.000000	64.498615 
4690.000000	64.509677 
4689.000000	64.554929 
4688.000000	64.626264 
4687.000000	64.710974 
4686.000000	64.794421 
4685.000000	64.862632 
4684.000000	64.905047 
4683.000000	64.915823 
4682.000000	64.894795 
4681.000000	64.846920 
4680.000000	64.780974 
4679.000000	64.707255 
4678.000000	64.635586 
4677.000000	64.573931 
4676.000000	64.527368 
4675.000000	64.498734 
4674.000000	64.488315 
4673.000000	64.495086 
4672.000000	64.516568 
4671.000000	64.549422 
4670.000000	64.589762 
4669.000000	64.632344 
4668.000000	64.672541 
4667.000000	64.706254 
4666.000000	64.731240 
4665.000000	64.746880 
4664.000000	64.754462 
4663.000000	64.756417 
4662.000000	64.755868 
4661.000000	64.755964 
4660.000000	64.759039 
4659.000000	64.766263 
4658.000000	64.777803 
4657.000000	64.792752 
4656.000000	64.809560 
4655.000000	64.826202 
4654.000000	64.840459 
4653.000000	64.849781 
4652.000000	64.851641 
4651.000000	64.843964 
4650.000000	64.825320 
4649.000000	64.795637 
4648.000000	64.756226 
4647.000000	64.710044 
4646.000000	64.662122 
4645.000000	64.617705 
4644.000000	64.581227 
4643.000000	64.555454 
4642.000000	64.541077 
4641.000000	64.536786 
4640.000000	64.539837 
4639.000000	64.547181 
4638.000000	64.556217 
4637.000000	64.565300 
4636.000000	64.573788 
4635.000000	64.581632 
4634.000000	64.588689 
4633.000000	64.594674 
4632.000000	64.599132 
4631.000000	64.601635 
4630.000000	64.601802 
4629.000000	64.600157 
4628.000000	64.598250 
4627.000000	64.598417 
4626.000000	64.603662 
4625.000000	64.616560 
4624.000000	64.639043 
4623.000000	64.671301 
4622.000000	64.712548 
4621.000000	64.760684 
4620.000000	64.813470 
4619.000000	64.868521 
4618.000000	64.924168 
4617.000000	64.979338 
4616.000000	65.033459 
4615.000000	65.086078 
4614.000000	65.136408 
4613.000000	65.183043 
4612.000000	65.223979 
4611.000000	65.257263 
4610.000000	65.280628 
4609.000000	65.292263 
4608.000000	65.290951 
4607.000000	65.276575 
4606.000000	65.250205 
4605.000000	65.214157 
4604.000000	65.171504 
4603.000000	65.126013 
4602.000000	65.081810 
4601.000000	65.043282 
4600.000000	65.014052 
4599.000000	64.996480 
4598.000000	64.991641 
4597.000000	64.998555 
4596.000000	65.014266 
4595.000000	65.034294 
4594.000000	65.053200 
4593.000000	65.065741 
4592.000000	65.067553 
4591.000000	65.056514 
4590.000000	65.032744 
4589.000000	64.999341 
4588.000000	64.961051 
4587.000000	64.923977 
4586.000000	64.894318 
4585.000000	64.876914 
4584.000000	64.874553 
4583.000000	64.886832 
4582.000000	64.910340 
4581.000000	64.939117 
4580.000000	64.965915 
4579.000000	64.983105 
4578.000000	64.984416 
4577.000000	64.965653 
4576.000000	64.925670 
4575.000000	64.866471 
4574.000000	64.792656 
4573.000000	64.710807 
4572.000000	64.628481 
4571.000000	64.553284 
4570.000000	64.491844 
4569.000000	64.449024 
4568.000000	64.427542 
4567.000000	64.427495 
4566.000000	64.447045 
4565.000000	64.481902 
4564.000000	64.527249 
4563.000000	64.577698 
4562.000000	64.629101 
4561.000000	64.678072 
4560.000000	64.723396 
4559.000000	64.765357 
4558.000000	64.805626 
4557.000000	64.846301 
4556.000000	64.888954 
4555.000000	64.933896 
4554.000000	64.979839 
4553.000000	65.024185 
4552.000000	65.063452 
4551.000000	65.093851 
4550.000000	65.112733 
4549.000000	65.118789 
4548.000000	65.112257 
4547.000000	65.094542 
4546.000000	65.067839 
4545.000000	65.034770 
4544.000000	64.998340 
4543.000000	64.961385 
4542.000000	64.927053 
4541.000000	64.897942 
4540.000000	64.875698 
4539.000000	64.860939 
4538.000000	64.853572 
4537.000000	64.852857 
4536.000000	64.857888 
4535.000000	64.867758 
4534.000000	64.881634 
4533.000000	64.898729 
4532.000000	64.917731 
4531.000000	64.937257 
4530.000000	64.955139 
4529.000000	64.970159 
4528.000000	64.981961 
4527.000000	64.991927 
4526.000000	65.002799 
4525.000000	65.017700 
4524.000000	65.039014 
4523.000000	65.066885 
4522.000000	65.098667 
4521.000000	65.129017 
4520.000000	65.151000 
4519.000000	65.157747 
4518.000000	65.144562 
4517.000000	65.110540 
4516.000000	65.059590 
4515.000000	64.999914 
4514.000000	64.942264 
4513.000000	64.897608 
4512.000000	64.874267 
4511.000000	64.875507 
4510.000000	64.899134 
4509.000000	64.938354 
4508.000000	64.983582 
4507.000000	65.024828 
4506.000000	65.054631 
4505.000000	65.069866 
4504.000000	65.072178 
4503.000000	65.066623 
4502.000000	65.060925 
4501.000000	65.063047 
4500.000000	65.078759 
4499.000000	65.109753 
4498.000000	65.152835 
4497.000000	65.200734 
4496.000000	65.243983 
4495.000000	65.273618 
4494.000000	65.284729 
4493.000000	65.277433 
4492.000000	65.257287 
4491.000000	65.232515 
4490.000000	65.211653 
4489.000000	65.199613 
4488.000000	65.194535 
4487.000000	65.188860 
4486.000000	65.173840 
4485.000000	65.140962 
4484.000000	65.086531 
4483.000000	65.011096 
4482.000000	64.920115 
4481.000000	64.821577 
4480.000000	64.722204 
4479.000000	64.627933 
4478.000000	64.542937 
4477.000000	64.469170 
4476.000000	64.408159 
4475.000000	64.358329 
4474.000000	64.314150 
4473.000000	64.272093 
4472.000000	64.231824 
4471.000000	64.196681 
4470.000000	64.173030 
4469.000000	64.164900 
4468.000000	64.170885 
4467.000000	64.191341 
4466.000000	64.223504 
4465.000000	64.254355 
4464.000000	64.262652 
4463.000000	64.220952 
4462.000000	64.104557 
4461.000000	63.901448 
4460.000000	63.617038 
4459.000000	63.276338 
4458.000000	62.916445 
4457.000000	62.588787 
4456.000000	62.332844 
4455.000000	62.158203 
4454.000000	62.051463 
4453.000000	61.965537 
4452.000000	61.863803 
4451.000000	61.727166 
4450.000000	61.587309 
4449.000000	61.526656 
4448.000000	61.651611 
4447.000000	62.061095 
4446.000000	62.794852 
4445.000000	63.808822 
4444.000000	64.947295 
4443.000000	65.968203 
4442.000000	66.586160 
4441.000000	66.547656 
4440.000000	65.691733 
4439.000000	64.015102 
4438.000000	61.683535 
4437.000000	59.024167 
4436.000000	56.470632 
4435.000000	54.472923 
4434.000000	53.404998 
4433.000000	53.471589 
4432.000000	54.662370 
4431.000000	56.754374 
4430.000000	59.356880 
4429.000000	62.019777 
4428.000000	64.332079 
4427.000000	66.018748 
4426.000000	66.979765 
4425.000000	67.296528 
4424.000000	67.161440 
4423.000000	66.828012 
4422.000000	66.511845 
4421.000000	66.366815 
4420.000000	66.457629 
4419.000000	66.770434 
4418.000000	67.250895 
4417.000000	67.807507 
4416.000000	68.351054 
4415.000000	68.796277 
4414.000000	69.081234 
4413.000000	69.169926 
4412.000000	69.054961 
4411.000000	68.755793 
4410.000000	68.310308 
4409.000000	67.765617 
4408.000000	67.169117 
4407.000000	66.564679 
4406.000000	65.987992 
4405.000000	65.468239 
4404.000000	65.026807 
4403.000000	64.688515 
4402.000000	64.469122 
4401.000000	64.369392 
4400.000000	64.377021 
4399.000000	64.458966 
4398.000000	64.577984 
4397.000000	64.701128 
4396.000000	64.801931 
4395.000000	64.857363 
4394.000000	64.859962 
4393.000000	64.815950 
4392.000000	64.740633 
4391.000000	64.651250 
4390.000000	64.565777 
4389.000000	64.497828 
4388.000000	64.457845 
4387.000000	64.451241 
4386.000000	64.479207 
4385.000000	64.538311 
4384.000000	64.619493 
4383.000000	64.710021 
4382.000000	64.795494 
4381.000000	64.863300 
4380.000000	64.903664 
4379.000000	64.913558 
4378.000000	64.894819 
4377.000000	64.856624 
4376.000000	64.814782 
4375.000000	64.787149 
4374.000000	64.787983 
4373.000000	64.825844 
4372.000000	64.902663 
4371.000000	65.011572 
4370.000000	65.138554 
4369.000000	65.266108 
4368.000000	65.377974 
4367.000000	65.461635 
4366.000000	65.511035 
4365.000000	65.526056 
4364.000000	65.511322 
4363.000000	65.474319 
4362.000000	65.423083 
4361.000000	65.364336 
4360.000000	65.302586 
4359.000000	65.240645 
4358.000000	65.180158 
4357.000000	65.123629 
4356.000000	65.074777 
4355.000000	65.038228 
4354.000000	65.018892 
4353.000000	65.019750 
4352.000000	65.041351 
4351.000000	65.080833 
4350.000000	65.132427 
4349.000000	65.187692 
4348.000000	65.237975 
4347.000000	65.276122 
4346.000000	65.297532 
4345.000000	65.301203 
4344.000000	65.288829 
4343.000000	65.264129 
4342.000000	65.231323 
4341.000000	65.193986 
4340.000000	65.154528 
4339.000000	65.114426 
4338.000000	65.074229 
4337.000000	65.034580 
4336.000000	64.996480 
4335.000000	64.962029 
4334.000000	64.933276 
4333.000000	64.912199 
4332.000000	64.899992 
4331.000000	64.896774 
4330.000000	64.901399 
4329.000000	64.911580 
4328.000000	64.924144 
4327.000000	64.935827 
4326.000000	64.943957 
4325.000000	64.947295 
4324.000000	64.945983 
4323.000000	64.941835 
4322.000000	64.937710 
4321.000000	64.936542 
4320.000000	64.940547 
4319.000000	64.950418 
4318.000000	64.965128 
4317.000000	64.982366 
4316.000000	64.999294 
4315.000000	65.013313 
4314.000000	65.022873 
4313.000000	65.027713 
4312.000000	65.029096 
4311.000000	65.029335 
4310.000000	65.030956 
4309.000000	65.035676 
4308.000000	65.043544 
4307.000000	65.053367 
4306.000000	65.062785 
4305.000000	65.068650 
4304.000000	65.068125 
4303.000000	65.059590 
4302.000000	65.043187 
4301.000000	65.020608 
4300.000000	64.994907 
4299.000000	64.969515 
4298.000000	64.947867 
4297.000000	64.932966 
4296.000000	64.926433 
4295.000000	64.928507 
4294.000000	64.938044 
4293.000000	64.952921 
4292.000000	64.970421 
4291.000000	64.987444 
4290.000000	65.001201 
4289.000000	65.009522 
4288.000000	65.011596 
4287.000000	65.007710 
4286.000000	64.999890 
4285.000000	64.990997 
4284.000000	64.984703 
4283.000000	64.984583 
4282.000000	64.993953 
4281.000000	65.015244 
4280.000000	65.049290 
4279.000000	65.094923 
4278.000000	65.149164 
4277.000000	65.207409 
4276.000000	65.263986 
4275.000000	65.312743 
4274.000000	65.348052 
4273.000000	65.365290 
4272.000000	65.361833 
4271.000000	65.336942 
4270.000000	65.292072 
4269.000000	65.230488 
4268.000000	65.157198 
4267.000000	65.078616 
4266.000000	65.001893 
4265.000000	64.934277 
4264.000000	64.882564 
4263.000000	64.851856 
4262.000000	64.845228 
4261.000000	64.862418 
4260.000000	64.899706 
4259.000000	64.949989 
4258.000000	65.003919 
4257.000000	65.051007 
4256.000000	65.081644 
4255.000000	65.088844 
4254.000000	65.069651 
4253.000000	65.025949 
4252.000000	64.964008 
4251.000000	64.893198 
4250.000000	64.824080 
4249.000000	64.766144 
4248.000000	64.726066 
4247.000000	64.706826 
4246.000000	64.707303 
4245.000000	64.723134 
4244.000000	64.747786 
4243.000000	64.774608 
4242.000000	64.798045 
4241.000000	64.814209 
4240.000000	64.821743 
4239.000000	64.820837 
4238.000000	64.813280 
4237.000000	64.801096 
4236.000000	64.786267 
4235.000000	64.769768 
4234.000000	64.752340 
4233.000000	64.734792 
4232.000000	64.718484 
4231.000000	64.705133 
4230.000000	64.697289 
4229.000000	64.697694 
4228.000000	64.708590 
4227.000000	64.730596 
4226.000000	64.762306 
4225.000000	64.800071 
4224.000000	64.838743 
4223.000000	64.872598 
4222.000000	64.896392 
4221.000000	64.906454 
4220.000000	64.901232 
4219.000000	64.881634 
4218.000000	64.850687 
4217.000000	64.812898 
4216.000000	64.773201 
4215.000000	64.736247 
4214.000000	64.705634 
4213.000000	64.683675 
4212.000000	64.671611 
4211.000000	64.669537 
4210.000000	64.676856 
4209.000000	64.692616 
4208.000000	64.715266 
4207.000000	64.743280 
4206.000000	64.774847 
4205.000000	64.808368 
4204.000000	64.842462 
4203.000000	64.875817 
4202.000000	64.907145 
4201.000000	64.934706 
4200.000000	64.956665 
4199.000000	64.970827 
4198.000000	64.975166 
4197.000000	64.968347 
4196.000000	64.949941 
4195.000000	64.921164 
4194.000000	64.884519 
4193.000000	64.843344 
4192.000000	64.801168 
4191.000000	64.760947 
4190.000000	64.724564 
4189.000000	64.692449 
4188.000000	64.664483 
4187.000000	64.640021 
4186.000000	64.619421 
4185.000000	64.604163 
4184.000000	64.596843 
4183.000000	64.600706 
4182.000000	64.617943 
4181.000000	64.648294 
4180.000000	64.688587 
4179.000000	64.732408 
4178.000000	64.772081 
4177.000000	64.800095 
4176.000000	64.811539 
4175.000000	64.805245 
4174.000000	64.784622 
4173.000000	64.756822 
4172.000000	64.730358 
4171.000000	64.713001 
4170.000000	64.709568 
4169.000000	64.720964 
4168.000000	64.743971 
4167.000000	64.772367 
4166.000000	64.799308 
4165.000000	64.818835 
4164.000000	64.828157 
4163.000000	64.827489 
4162.000000	64.819216 
4161.000000	64.807057 
4160.000000	64.794373 
4159.000000	64.783668 
4158.000000	64.775633 
4157.000000	64.769840 
4156.000000	64.765977 
4155.000000	64.763689 
4154.000000	64.763474 
4153.000000	64.765930 
4152.000000	64.771723 
4151.000000	64.780569 
4150.000000	64.790821 
4149.000000	64.799356 
4148.000000	64.802169 
4147.000000	64.795327 
4146.000000	64.776086 
4145.000000	64.743947 
4144.000000	64.701080 
4143.000000	64.651775 
4142.000000	64.601898 
4141.000000	64.557433 
4140.000000	64.523959 
4139.000000	64.505529 
4138.000000	64.504480 
4137.000000	64.521265 
4136.000000	64.554715 
4135.000000	64.602470 
4134.000000	64.661335 
4133.000000	64.726901 
4132.000000	64.794516 
4131.000000	64.859509 
4130.000000	64.917802 
4129.000000	64.965987 
4128.000000	65.001845 
4127.000000	65.024161 
4126.000000	65.033197 
4125.000000	65.030527 
4124.000000	65.018916 
4123.000000	65.002107 
4122.000000	64.984345 
4121.000000	64.970088 
4120.000000	64.963555 
4119.000000	64.968180 
4118.000000	64.986228 
4117.000000	65.018177 
4116.000000	65.062785 
4115.000000	65.116572 
4114.000000	65.174436 
4113.000000	65.229940 
4112.000000	65.276241 
4111.000000	65.306997 
4110.000000	65.317559 
4109.000000	65.305805 
4108.000000	65.272521 
4107.000000	65.221309 
4106.000000	65.158009 
4105.000000	65.089941 
4104.000000	65.024662 
4103.000000	64.968633 
4102.000000	64.926409 
4101.000000	64.900064 
4100.000000	64.889621 
4099.000000	64.893078 
4098.000000	64.906907 
4097.000000	64.926981 
4096.000000	64.949560 
4095.000000	64.971446 
4094.000000	64.990139 
4093.000000	65.004086 
4092.000000	65.012311 
4091.000000	65.014743 
4090.000000	65.011596 
4089.000000	65.003776 
4088.000000	64.992618 
4087.000000	64.979934 
4086.000000	64.967560 
4085.000000	64.957165 
4084.000000	64.949727 
4083.000000	64.945554 
4082.000000	64.944028 
4081.000000	64.943933 
4080.000000	64.943456 
4079.000000	64.940953 
4078.000000	64.934968 
4077.000000	64.924287 
4076.000000	64.908361 
4075.000000	64.887118 
4074.000000	64.861011 
4073.000000	64.830684 
4072.000000	64.797377 
4071.000000	64.762926 
4070.000000	64.729690 
4069.000000	64.700365 
4068.000000	64.677548 
4067.000000	64.663386 
4066.000000	64.658951 
4065.000000	64.663982 
4064.000000	64.676380 
4063.000000	64.692831 
4062.000000	64.709687 
4061.000000	64.723968 
4060.000000	64.733958 
4059.000000	64.740014 
4058.000000	64.744043 
4057.000000	64.749431 
4056.000000	64.760017 
4055.000000	64.778971 
4054.000000	64.807987 
4053.000000	64.846706 
4052.000000	64.893078 
4051.000000	64.943265 
4050.000000	64.992904 
4049.000000	65.037298 
4048.000000	65.072870 
4047.000000	65.097117 
4046.000000	65.109157 
4045.000000	65.109395 
4044.000000	65.099525 
4043.000000	65.081930 
4042.000000	65.059351 
4041.000000	65.034317 
4040.000000	65.009164 
4039.000000	64.985036 
4038.000000	64.962387 
4037.000000	64.940690 
4036.000000	64.919304 
4035.000000	64.897608 
4034.000000	64.875674 
4033.000000	64.854502 
4032.000000	64.836144 
4031.000000	64.823222 
4030.000000	64.818644 
4029.000000	64.824175 
4028.000000	64.840197 
4027.000000	64.865374 
4026.000000	64.897060 
4025.000000	64.931130 
4024.000000	64.963388 
4023.000000	64.990282 
4022.000000	65.009713 
4021.000000	65.021181 
4020.000000	65.025615 
4019.000000	65.025162 
4018.000000	65.021991 
4017.000000	65.017580 
4016.000000	65.012669 
4015.000000	65.007257 
4014.000000	65.000915 
4013.000000	64.993309 
4012.000000	64.984560 
4011.000000	64.975643 
4010.000000	64.968299 
4009.000000	64.964723 
4008.000000	64.966630 
4007.000000	64.974641 
4006.000000	64.988183 
4005.000000	65.005111 
4004.000000	65.022373 
4003.000000	65.036392 
4002.000000	65.043973 
4001.000000	65.043234 
4000.000000	65.033769 
3999.000000	65.017175 
3998.000000	64.996290 
3997.000000	64.974784 
3996.000000	64.956235 
3995.000000	64.943337 
3994.000000	64.937424 
3993.000000	64.937949 
3992.000000	64.943170 
3991.000000	64.949941 
3990.000000	64.954638 
3989.000000	64.954137 
3988.000000	64.946746 
3987.000000	64.932584 
3986.000000	64.913249 
3985.000000	64.892196 
3984.000000	64.873504 
3983.000000	64.861464 
3982.000000	64.859175 
3981.000000	64.867806 
3980.000000	64.886093 
3979.000000	64.910745 
3978.000000	64.937138 
3977.000000	64.959812 
3976.000000	64.974188 
3975.000000	64.977478 
3974.000000	64.969491 
3973.000000	64.952707 
3972.000000	64.931821 
3971.000000	64.912486 
3970.000000	64.899873 
3969.000000	64.897608 
3968.000000	64.906358 
3967.000000	64.924001 
3966.000000	64.945292 
3965.000000	64.963674 
3964.000000	64.972090 
3963.000000	64.964914 
3962.000000	64.939260 
3961.000000	64.895772 
3960.000000	64.838767 
3959.000000	64.775156 
3958.000000	64.713883 
3957.000000	64.664149 
3956.000000	64.633941 
3955.000000	64.628624 
3954.000000	64.650225 
3953.000000	64.697241 
3952.000000	64.764928 
3951.000000	64.846158 
3950.000000	64.932203 
3949.000000	65.014266 
3948.000000	65.084457 
3947.000000	65.137219 
3946.000000	65.169334 
3945.000000	65.180563 
3944.000000	65.173172 
3943.000000	65.150952 
3942.000000	65.118694 
3941.000000	65.080404 
3940.000000	65.039873 
3939.000000	64.998841 
3938.000000	64.958071 
3937.000000	64.916944 
3936.000000	64.874935 
3935.000000	64.831399 
3934.000000	64.786458 
3933.000000	64.741253 
3932.000000	64.697647 
3931.000000	64.658045 
3930.000000	64.624929 
3929.000000	64.600467 
3928.000000	64.586138 
3927.000000	64.582943 
3926.000000	64.591288 
3925.000000	64.611077 
3924.000000	64.641690 
3923.000000	64.682173 
3922.000000	64.731240 
3921.000000	64.786672 
3920.000000	64.845752 
3919.000000	64.904856 
3918.000000	64.960145 
3917.000000	65.007662 
3916.000000	65.043950 
3915.000000	65.066766 
3914.000000	65.074872 
3913.000000	65.068769 
3912.000000	65.050292 
3911.000000	65.022301 
3910.000000	64.988446 
3909.000000	64.953041 
3908.000000	64.920330 
3907.000000	64.894270 
3906.000000	64.878010 
3905.000000	64.873909 
3904.000000	64.882230 
3903.000000	64.900779 
3902.000000	64.925169 
3901.000000	64.949560 
3900.000000	64.967060 
3899.000000	64.971733 
3898.000000	64.959788 
3897.000000	64.931321 
3896.000000	64.890480 
3895.000000	64.845466 
3894.000000	64.806318 
3893.000000	64.782929 
3892.000000	64.783215 
3891.000000	64.810371 
3890.000000	64.862036 
3889.000000	64.930534 
3888.000000	65.004754 
3887.000000	65.072441 
3886.000000	65.122652 
3885.000000	65.148496 
3884.000000	65.148258 
3883.000000	65.125918 
3882.000000	65.089130 
3881.000000	65.048551 
3880.000000	65.014815 
3879.000000	64.997005 
3878.000000	65.000772 
3877.000000	65.027880 
3876.000000	65.076422 
3875.000000	65.141582 
3874.000000	65.216612 
3873.000000	65.293717 
3872.000000	65.364837 
3871.000000	65.422391 
3870.000000	65.459990 
3869.000000	65.472841 
3868.000000	65.458512 
3867.000000	65.417432 
3866.000000	65.353107 
3865.000000	65.272259 
3864.000000	65.183758 
3863.000000	65.098094 
3862.000000	65.024971 
3861.000000	64.972591 
3860.000000	64.944982 
3859.000000	64.942026 
3858.000000	64.958715 
3857.000000	64.986586 
3856.000000	65.015101 
3855.000000	65.033698 
3854.000000	65.034580 
3853.000000	65.014171 
3852.000000	64.973950 
3851.000000	64.919710 
3850.000000	64.860272 
3849.000000	64.805126 
3848.000000	64.762663 
3847.000000	64.738273 
3846.000000	64.733767 
3845.000000	64.747405 
3844.000000	64.775061 
3843.000000	64.811420 
3842.000000	64.851522 
3841.000000	64.891695 
3840.000000	64.929366 
3839.000000	64.963126 
3838.000000	64.991879 
3837.000000	65.014648 
3836.000000	65.029835 
3835.000000	65.035724 
3834.000000	65.030741 
3833.000000	65.014219 
3832.000000	64.987540 
3831.000000	64.953756 
3830.000000	64.917469 
3829.000000	64.883708 
3828.000000	64.857411 
3827.000000	64.841771 
3826.000000	64.837574 
3825.000000	64.843130 
3824.000000	64.854931 
3823.000000	64.868664 
3822.000000	64.880466 
3821.000000	64.887976 
3820.000000	64.890670 
3819.000000	64.889550 
3818.000000	64.886736 
3817.000000	64.884543 
3816.000000	64.885091 
3815.000000	64.889478 
3814.000000	64.897990 
3813.000000	64.910435 
3812.000000	64.926028 
3811.000000	64.944100 
3810.000000	64.963603 
3809.000000	64.983344 
3808.000000	65.001654 
3807.000000	65.016508 
3806.000000	65.025925 
3805.000000	65.027952 
3804.000000	65.021538 
3803.000000	65.007233 
3802.000000	64.986991 
3801.000000	64.964270 
3800.000000	64.943122 
3799.000000	64.927506 
3798.000000	64.920234 
3797.000000	64.922261 
3796.000000	64.933037 
3795.000000	64.950680 
3794.000000	64.972639 
3793.000000	64.996218 
3792.000000	65.019297 
3791.000000	65.040755 
3790.000000	65.059995 
3789.000000	65.076994 
3788.000000	65.091991 
3787.000000	65.105175 
3786.000000	65.116739 
3785.000000	65.126442 
3784.000000	65.133976 
3783.000000	65.138554 
3782.000000	65.139698 
3781.000000	65.136861 
3780.000000	65.129923 
3779.000000	65.118932 
3778.000000	65.104556 
3777.000000	65.087699 
3776.000000	65.069842 
3775.000000	65.052103 
3774.000000	65.035796 
3773.000000	65.021204 
3772.000000	65.007328 
3771.000000	64.991950 
3770.000000	64.972186 
3769.000000	64.945077 
3768.000000	64.908552 
3767.000000	64.862346 
3766.000000	64.808630 
3765.000000	64.751887 
3764.000000	64.698529 
3763.000000	64.655423 
3762.000000	64.628791 
3761.000000	64.622831 
3760.000000	64.639163 
3759.000000	64.675927 
3758.000000	64.728569 
3757.000000	64.790439 
3756.000000	64.854240 
3755.000000	64.912819 
3754.000000	64.960908 
3753.000000	64.995431 
3752.000000	65.016317 
3751.000000	65.025424 
3750.000000	65.026593 
3749.000000	65.024495 
3748.000000	65.023660 
3747.000000	65.027642 
3746.000000	65.037989 
3745.000000	65.054297 
3744.000000	65.073871 
3743.000000	65.092825 
3742.000000	65.106606 
3741.000000	65.111112 
3740.000000	65.103912 
3739.000000	65.084958 
3738.000000	65.056586 
3737.000000	65.023279 
3736.000000	64.990925 
3735.000000	64.965438 
3734.000000	64.951586 
3733.000000	64.951562 
3732.000000	64.965057 
3731.000000	64.988875 
3730.000000	65.017771 
3729.000000	65.045499 
3728.000000	65.066051 
3727.000000	65.075397 
3726.000000	65.071892 
3725.000000	65.056467 
3724.000000	65.032029 
3723.000000	65.002703 
3722.000000	64.972877 
3721.000000	64.945960 
3720.000000	64.923620 
3719.000000	64.905834 
3718.000000	64.891529 
3717.000000	64.878988 
3716.000000	64.866781 
3715.000000	64.854598 
3714.000000	64.843297 
3713.000000	64.834785 
3712.000000	64.831590 
3711.000000	64.836049 
3710.000000	64.849710 
3709.000000	64.872884 
3708.000000	64.904451 
3707.000000	64.942169 
3706.000000	64.982748 
3705.000000	65.023088 
3704.000000	65.060591 
3703.000000	65.093088 
3702.000000	65.119528 
3701.000000	65.139627 
3700.000000	65.153765 
3699.000000	65.162968 
3698.000000	65.168142 
3697.000000	65.170073 
3696.000000	65.168881 
3695.000000	65.164446 
3694.000000	65.155959 
3693.000000	65.142679 
3692.000000	65.123963 
3691.000000	65.099883 
3690.000000	65.071606 
3689.000000	65.041279 
3688.000000	65.011858 
3687.000000	64.986586 
3686.000000	64.968490 
3685.000000	64.959859 
3684.000000	64.961957 
3683.000000	64.974832 
3682.000000	64.997434 
3681.000000	65.027880 
3680.000000	65.064358 
3679.000000	65.104842 
3678.000000	65.147352 
3677.000000	65.189719 
3676.000000	65.229606 
3675.000000	65.264201 
3674.000000	65.290355 
3673.000000	65.304780 
3672.000000	65.305185 
3671.000000	65.290212 
3670.000000	65.260601 
3669.000000	65.218758 
3668.000000	65.168666 
3667.000000	65.115070 
3666.000000	65.062832 
3665.000000	65.016126 
3664.000000	64.978122 
3663.000000	64.950823 
3662.000000	64.935016 
3661.000000	64.930629 
3660.000000	64.936947 
3659.000000	64.952754 
3658.000000	64.976263 
3657.000000	65.004873 
3656.000000	65.035152 
3655.000000	65.062785 
3654.000000	65.083193 
3653.000000	65.091896 
3652.000000	65.085697 
3651.000000	65.063333 
3650.000000	65.026426 
3649.000000	64.979481 
3648.000000	64.929342 
3647.000000	64.883828 
3646.000000	64.850282 
3645.000000	64.834260 
3644.000000	64.838075 
3643.000000	64.860248 
3642.000000	64.896035 
3641.000000	64.938306 
3640.000000	64.979171 
3639.000000	65.011668 
3638.000000	65.031123 
3637.000000	65.035629 
3636.000000	65.026569 
3635.000000	65.007615 
3634.000000	64.983749 
3633.000000	64.959812 
3632.000000	64.939832 
3631.000000	64.926409 
3630.000000	64.920878 
3629.000000	64.923310 
3628.000000	64.933180 
3627.000000	64.949536 
3626.000000	64.970970 
3625.000000	64.995765 
3624.000000	65.021681 
3623.000000	65.046119 
3622.000000	65.066123 
3621.000000	65.079212 
3620.000000	65.083813 
3619.000000	65.079522 
3618.000000	65.067386 
3617.000000	65.049791 
3616.000000	65.030193 
3615.000000	65.012073 
3614.000000	64.998626 
3613.000000	64.991974 
3612.000000	64.992761 
3611.000000	65.000391 
3610.000000	65.013265 
3609.000000	65.028953 
3608.000000	65.044808 
3607.000000	65.058183 
3606.000000	65.066957 
3605.000000	65.069484 
3604.000000	65.064835 
3603.000000	65.052890 
3602.000000	65.034389 
3601.000000	65.011334 
3600.000000	64.986538 
3599.000000	64.963340 
3598.000000	64.944744 
3597.000000	64.933562 
3596.000000	64.931344 
3595.000000	64.938259 
3594.000000	64.952778 
3593.000000	64.972090 
3592.000000	64.992189 
3591.000000	65.009021 
3590.000000	65.018725 
3589.000000	65.018391 
3588.000000	65.006566 
3587.000000	64.983439 
3586.000000	64.951014 
3585.000000	64.912366 
3584.000000	64.871430 
3583.000000	64.832115 
3582.000000	64.797902 
3581.000000	64.771485 
3580.000000	64.754414 
3579.000000	64.747214 
3578.000000	64.749383 
3577.000000	64.759945 
3576.000000	64.777612 
3575.000000	64.801263 
3574.000000	64.829921 
3573.000000	64.862871 
3572.000000	64.899563 
3571.000000	64.939284 
3570.000000	64.981126 
3569.000000	65.023303 
3568.000000	65.063405 
3567.000000	65.098118 
3566.000000	65.124225 
3565.000000	65.138578 
3564.000000	65.139198 
3563.000000	65.125322 
3562.000000	65.098476 
3561.000000	65.061736 
3560.000000	65.019869 
3559.000000	64.978027 
3558.000000	64.941358 
3557.000000	64.913392 
3556.000000	64.895987 
3555.000000	64.888763 
3554.000000	64.889669 
3553.000000	64.895534 
3552.000000	64.903044 
3551.000000	64.909696 
3550.000000	64.914250 
3549.000000	64.916586 
3548.000000	64.917397 
3547.000000	64.917731 
3546.000000	64.918565 
3545.000000	64.920592 
3544.000000	64.924025 
3543.000000	64.928770 
3542.000000	64.934468 
3541.000000	64.941072 
3540.000000	64.948534 
3539.000000	64.956974 
3538.000000	64.966249 
3537.000000	64.976239 
3536.000000	64.986419 
3535.000000	64.995884 
3534.000000	65.003275 
3533.000000	65.007090 
3532.000000	65.005970 
3531.000000	64.999008 
3530.000000	64.986228 
3529.000000	64.968729 
3528.000000	64.948773 
3527.000000	64.929509 
3526.000000	64.914679 
3525.000000	64.907789 
3524.000000	64.911556 
3523.000000	64.927196 
3522.000000	64.954304 
3521.000000	64.990448 
3520.000000	65.031719 
3519.000000	65.073037 
3518.000000	65.109157 
3517.000000	65.135383 
3516.000000	65.148496 
3515.000000	65.147352 
3514.000000	65.132737 
3513.000000	65.107488 
3512.000000	65.075778 
3511.000000	65.042400 
3510.000000	65.011835 
3509.000000	64.987349 
3508.000000	64.970970 
3507.000000	64.962768 
3506.000000	64.961242 
3505.000000	64.963793 
3504.000000	64.967370 
3503.000000	64.969253 
3502.000000	64.967441 
3501.000000	64.961051 
3500.000000	64.950251 
3499.000000	64.936065 
3498.000000	64.919996 
3497.000000	64.903736 
3496.000000	64.888811 
3495.000000	64.876580 
3494.000000	64.868092 
3493.000000	64.864230 
3492.000000	64.865636 
3491.000000	64.872670 
3490.000000	64.885520 
3489.000000	64.903521 
3488.000000	64.925670 
3487.000000	64.950633 
3486.000000	64.976644 
3485.000000	65.001940 
3484.000000	65.024995 
3483.000000	65.044903 
3482.000000	65.061187 
3481.000000	65.074157 
3480.000000	65.084171 
3479.000000	65.091443 
3478.000000	65.095758 
3477.000000	65.096950 
3476.000000	65.094757 
3475.000000	65.089058 
3474.000000	65.080237 
3473.000000	65.069437 
3472.000000	65.058040 
3471.000000	65.047669 
3470.000000	65.039300 
3469.000000	65.033388 
3468.000000	65.029454 
3467.000000	65.026521 
3466.000000	65.023279 
3465.000000	65.018653 
3464.000000	65.012216 
3463.000000	65.004301 
3462.000000	64.995861 
3461.000000	64.988374 
3460.000000	64.983010 
3459.000000	64.980602 
3458.000000	64.981055 
3457.000000	64.983940 
3456.000000	64.988470 
3455.000000	64.994096 
3454.000000	65.000700 
3453.000000	65.008544 
3452.000000	65.018439 
3451.000000	65.031027 
3450.000000	65.046501 
3449.000000	65.064501 
3448.000000	65.083909 
3447.000000	65.103125 
3446.000000	65.120434 
3445.000000	65.134000 
3444.000000	65.142464 
3443.000000	65.144896 
3442.000000	65.140914 
3441.000000	65.130448 
3440.000000	65.113806 
3439.000000	65.091443 
3438.000000	65.064358 
3437.000000	65.034008 
3436.000000	65.002512 
3435.000000	64.972567 
3434.000000	64.947080 
3433.000000	64.928698 
3432.000000	64.919328 
3431.000000	64.919543 
3430.000000	64.928460 
3429.000000	64.943909 
3428.000000	64.962720 
3427.000000	64.981293 
3426.000000	64.996504 
3425.000000	65.005755 
3424.000000	65.007829 
3423.000000	65.002536 
3422.000000	64.991021 
3421.000000	64.975380 
3420.000000	64.958286 
3419.000000	64.942359 
3418.000000	64.929890 
3417.000000	64.922523 
3416.000000	64.920830 
3415.000000	64.924287 
3414.000000	64.931464 
3413.000000	64.940094 
3412.000000	64.947605 
3411.000000	64.951729 
3410.000000	64.950799 
3409.000000	64.944362 
3408.000000	64.933156 
3407.000000	64.918994 
3406.000000	64.904046 
3405.000000	64.890551 
3404.000000	64.879989 
3403.000000	64.873075 
3402.000000	64.869523 
3401.000000	64.868521 
3400.000000	64.868998 
3399.000000	64.870095 
3398.000000	64.871144 
3397.000000	64.872145 
3396.000000	64.873361 
3395.000000	64.875173 
3394.000000	64.877820 
3393.000000	64.881086 
3392.000000	64.884233 
3391.000000	64.886236 
3390.000000	64.886188 
3389.000000	64.883613 
3388.000000	64.878892 
3387.000000	64.873218 
3386.000000	64.868474 
3385.000000	64.866852 
3384.000000	64.870333 
3383.000000	64.880061 
3382.000000	64.896059 
3381.000000	64.916849 
3380.000000	64.939713 
3379.000000	64.961075 
3378.000000	64.977431 
3377.000000	64.985895 
3376.000000	64.985227 
3375.000000	64.976048 
3374.000000	64.960908 
3373.000000	64.943695 
3372.000000	64.928555 
3371.000000	64.918828 
3370.000000	64.916181 
3369.000000	64.920234 
3368.000000	64.928793 
3367.000000	64.938592 
3366.000000	64.946436 
3365.000000	64.950132 
3364.000000	64.949274 
3363.000000	64.945173 
3362.000000	64.940476 
3361.000000	64.938068 
3360.000000	64.939999 
3359.000000	64.946722 
3358.000000	64.956808 
3357.000000	64.967346 
3356.000000	64.974975 
3355.000000	64.976763 
3354.000000	64.971399 
3353.000000	64.959526 
3352.000000	64.943528 
3351.000000	64.926695 
3350.000000	64.912319 
3349.000000	64.902710 
3348.000000	64.898705 
3347.000000	64.899563 
3346.000000	64.903259 
3345.000000	64.907193 
3344.000000	64.909195 
3343.000000	64.908051 
3342.000000	64.903616 
3341.000000	64.897012 
3340.000000	64.889955 
3339.000000	64.884305 
3338.000000	64.881539 
3337.000000	64.882588 
3336.000000	64.887619 
3335.000000	64.896273 
3334.000000	64.907860 
3333.000000	64.921545 
3332.000000	64.936399 
3331.000000	64.951539 
3330.000000	64.966106 
3329.000000	64.979195 
3328.000000	64.989924 
3327.000000	64.997410 
3326.000000	65.001058 
3325.000000	65.000438 
3324.000000	64.995431 
3323.000000	64.986300 
3322.000000	64.973473 
3321.000000	64.958000 
3320.000000	64.941072 
3319.000000	64.924120 
3318.000000	64.908647 
3317.000000	64.895915 
3316.000000	64.886856 
3315.000000	64.881920 
3314.000000	64.880871 
3313.000000	64.883136 
3312.000000	64.887714 
3311.000000	64.893388 
3310.000000	64.899230 
3309.000000	64.904761 
3308.000000	64.910221 
3307.000000	64.916324 
3306.000000	64.924073 
3305.000000	64.934325 
3304.000000	64.947438 
3303.000000	64.962816 
3302.000000	64.979052 
3301.000000	64.994001 
3300.000000	65.005302 
3299.000000	65.010833 
3298.000000	65.009379 
3297.000000	65.001010 
3296.000000	64.987134 
3295.000000	64.970183 
3294.000000	64.953064 
3293.000000	64.938354 
3292.000000	64.927911 
3291.000000	64.922094 
3290.000000	64.919948 
3289.000000	64.919137 
3288.000000	64.917159 
3287.000000	64.911532 
3286.000000	64.900875 
3285.000000	64.885163 
3284.000000	64.865827 
3283.000000	64.845371 
3282.000000	64.826703 
3281.000000	64.812445 
3280.000000	64.804100 
3279.000000	64.801812 
3278.000000	64.804506 
3277.000000	64.810085 
3276.000000	64.816236 
3275.000000	64.821052 
3274.000000	64.823627 
3273.000000	64.823961 
3272.000000	64.823031 
3271.000000	64.822101 
3270.000000	64.822340 
3269.000000	64.824223 
3268.000000	64.827585 
3267.000000	64.831614 
3266.000000	64.835309 
3265.000000	64.838075 
3264.000000	64.839816 
3263.000000	64.841365 
3262.000000	64.843964 
3261.000000	64.849042 
3260.000000	64.857625 
3259.000000	64.869689 
3258.000000	64.884305 
3257.000000	64.899539 
3256.000000	64.913153 
3255.000000	64.923214 
3254.000000	64.928650 
3253.000000	64.929652 
3252.000000	64.927172 
3251.000000	64.922881 
3250.000000	64.918470 
3249.000000	64.915370 
3248.000000	64.914178 
3247.000000	64.915060 
3246.000000	64.917683 
3245.000000	64.921784 
3244.000000	64.927268 
3243.000000	64.934420 
3242.000000	64.943766 
3241.000000	64.955711 
3240.000000	64.970374 
3239.000000	64.987063 
3238.000000	65.004396 
3237.000000	65.020108 
3236.000000	65.031719 
3235.000000	65.036487 
3234.000000	65.032696 
3233.000000	65.019345 
3232.000000	64.996838 
3231.000000	64.966845 
3230.000000	64.932012 
3229.000000	64.895534 
3228.000000	64.860796 
3227.000000	64.830923 
3226.000000	64.808249 
3225.000000	64.794063 
3224.000000	64.788484 
3223.000000	64.790439 
3222.000000	64.797949 
3221.000000	64.808607 
3220.000000	64.820122 
3219.000000	64.830207 
3218.000000	64.837455 
3217.000000	64.841032 
3216.000000	64.841222 
3215.000000	64.838624 
3214.000000	64.834809 
3213.000000	64.831447 
3212.000000	64.830350 
3211.000000	64.833140 
3210.000000	64.840626 
3209.000000	64.853000 
3208.000000	64.869332 
3207.000000	64.888072 
3206.000000	64.907145 
3205.000000	64.924550 
3204.000000	64.938926 
3203.000000	64.949631 
3202.000000	64.957189 
3201.000000	64.963006 
3200.000000	64.969015 
3199.000000	64.977049 
3198.000000	64.988112 
3197.000000	65.001964 
3196.000000	65.017127 
3195.000000	65.030980 
3194.000000	65.040588 
3193.000000	65.043115 
3192.000000	65.037107 
3191.000000	65.022492 
3190.000000	65.001082 
3189.000000	64.976000 
3188.000000	64.951109 
3187.000000	64.930272 
3186.000000	64.916324 
3185.000000	64.910864 
3184.000000	64.913725 
3183.000000	64.923501 
3182.000000	64.937829 
3181.000000	64.954161 
3180.000000	64.970231 
3179.000000	64.984440 
3178.000000	64.995861 
3177.000000	65.004348 
3176.000000	65.010070 
3175.000000	65.013480 
3174.000000	65.015077 
3173.000000	65.015244 
3172.000000	65.014195 
3171.000000	65.012073 
3170.000000	65.009045 
3169.000000	65.005183 
3168.000000	65.000510 
3167.000000	64.995312 
3166.000000	64.989948 
3165.000000	64.984846 
3164.000000	64.980387 
3163.000000	64.976954 
3162.000000	64.974641 
3161.000000	64.973258 
3160.000000	64.972352 
3159.000000	64.971232 
3158.000000	64.969205 
3157.000000	64.965867 
3156.000000	64.961290 
3155.000000	64.955878 
3154.000000	64.950823 
3153.000000	64.947628 
3152.000000	64.947938 
3151.000000	64.953041 
3150.000000	64.963507 
3149.000000	64.978933 
3148.000000	64.997744 
3147.000000	65.017461 
3146.000000	65.035009 
3145.000000	65.047359 
3144.000000	65.052175 
3143.000000	65.048336 
3142.000000	65.036249 
3141.000000	65.017437 
3140.000000	64.994287 
3139.000000	64.969301 
3138.000000	64.944696 
3137.000000	64.921998 
3136.000000	64.901804 
3135.000000	64.884090 
3134.000000	64.868617 
3133.000000	64.855074 
3132.000000	64.843535 
3131.000000	64.834475 
3130.000000	64.828562 
3129.000000	64.826679 
3128.000000	64.829373 
3127.000000	64.836835 
3126.000000	64.848494 
3125.000000	64.863562 
3124.000000	64.880967 
3123.000000	64.899730 
3122.000000	64.918875 
3121.000000	64.937448 
3120.000000	64.954590 
3119.000000	64.969325 
3118.000000	64.980435 
3117.000000	64.986896 
3116.000000	64.987945 
3115.000000	64.983415 
3114.000000	64.973950 
3113.000000	64.960980 
3112.000000	64.946532 
3111.000000	64.933037 
3110.000000	64.922690 
3109.000000	64.916825 
3108.000000	64.915752 
3107.000000	64.918947 
3106.000000	64.924955 
3105.000000	64.931964 
3104.000000	64.938020 
3103.000000	64.941716 
3102.000000	64.942097 
3101.000000	64.938735 
3100.000000	64.931440 
3099.000000	64.920306 
3098.000000	64.905548 
3097.000000	64.887428 
3096.000000	64.866566 
3095.000000	64.843916 
3094.000000	64.820933 
3093.000000	64.799499 
3092.000000	64.781570 
3091.000000	64.768958 
3090.000000	64.762735 
3089.000000	64.763545 
3088.000000	64.770841 
3087.000000	64.783358 
3086.000000	64.799642 
3085.000000	64.818191 
3084.000000	64.837837 
3083.000000	64.857935 
3082.000000	64.878273 
3081.000000	64.898848 
3080.000000	64.919638 
3079.000000	64.940452 
3078.000000	64.960670 
3077.000000	64.979386 
3076.000000	64.995861 
3075.000000	65.009212 
3074.000000	65.018820 
3073.000000	65.024352 
3072.000000	65.025877 
3071.000000	65.023541 
3070.000000	65.017604 
3069.000000	65.008187 
3068.000000	64.995455 
3067.000000	64.979577 
3066.000000	64.960932 
3065.000000	64.939904 
3064.000000	64.917230 
3063.000000	64.893484 
3062.000000	64.869451 
3061.000000	64.845752 
3060.000000	64.823079 
3059.000000	64.801979 
3058.000000	64.783048 
3057.000000	64.766860 
3056.000000	64.754247 
3055.000000	64.745712 
3054.000000	64.741873 
3053.000000	64.742660 
3052.000000	64.747977 
3051.000000	64.757323 
3050.000000	64.770150 
3049.000000	64.785575 
3048.000000	64.802885 
3047.000000	64.821624 
3046.000000	64.841175 
3045.000000	64.860820 
3044.000000	64.879226 
3043.000000	64.894604 
3042.000000	64.904642 
3041.000000	64.906978 
3040.000000	64.899849 
3039.000000	64.882898 
3038.000000	64.857482 
3037.000000	64.826869 
3036.000000	64.795684 
3035.000000	64.769148 
3034.000000	64.752101 
3033.000000	64.747810 
3032.000000	64.757323 
3031.000000	64.779162 
3030.000000	64.809942 
3029.000000	64.845085 
3028.000000	64.879918 
3027.000000	64.910531 
3026.000000	64.934468 
3025.000000	64.951086 
3024.000000	64.960789 
3023.000000	64.964914 
3022.000000	64.964699 
3021.000000	64.961242 
3020.000000	64.955019 
3019.000000	64.945983 
3018.000000	64.934062 
3017.000000	64.918994 
3016.000000	64.900994 
3015.000000	64.880490 
3014.000000	64.858150 
3013.000000	64.834690 
3012.000000	64.810991 
3011.000000	64.787936 
3010.000000	64.766454 
3009.000000	64.747571 
3008.000000	64.732551 
3007.000000	64.722657 
3006.000000	64.719200 
3005.000000	64.722847 
3004.000000	64.733815 
3003.000000	64.751076 
3002.000000	64.772987 
3001.000000	64.797163 
3000.000000	64.821219 
2999.000000	64.842915 
2998.000000	64.860653 
2997.000000	64.873886 
2996.000000	64.882469 
2995.000000	64.886903 
2994.000000	64.887404 
2993.000000	64.884042 
2992.000000	64.876317 
2991.000000	64.863467 
2990.000000	64.844965 
2989.000000	64.820981 
2988.000000	64.792919 
2987.000000	64.763498 
2986.000000	64.736580 
2985.000000	64.716482 
2984.000000	64.706945 
2983.000000	64.710330 
2982.000000	64.726734 
2981.000000	64.753770 
2980.000000	64.786863 
2979.000000	64.820146 
2978.000000	64.847302 
2977.000000	64.863038 
2976.000000	64.864087 
2975.000000	64.849996 
2974.000000	64.823055 
2973.000000	64.787983 
2972.000000	64.750885 
2971.000000	64.717769 
2970.000000	64.693760 
2969.000000	64.681792 
2968.000000	64.682507 
2967.000000	64.694070 
2966.000000	64.712834 
2965.000000	64.734268 
2964.000000	64.753985 
2963.000000	64.768528 
2962.000000	64.775657 
2961.000000	64.774942 
2960.000000	64.767169 
2959.000000	64.754128 
2958.000000	64.737963 
2957.000000	64.720940 
2956.000000	64.704823 
2955.000000	64.691162 
2954.000000	64.681029 
2953.000000	64.675116 
2952.000000	64.673829 
2951.000000	64.677262 
2950.000000	64.685082 
2949.000000	64.696264 
2948.000000	64.709424 
2947.000000	64.722633 
2946.000000	64.734172 
2945.000000	64.742469 
2944.000000	64.746856 
2943.000000	64.747643 
2942.000000	64.746189 
2941.000000	64.744758 
2940.000000	64.745879 
2939.000000	64.751601 
2938.000000	64.762902 
2937.000000	64.779615 
2936.000000	64.800047 
2935.000000	64.821457 
2934.000000	64.840531 
2933.000000	64.854097 
2932.000000	64.859771 
2931.000000	64.856219 
2930.000000	64.843320 
2929.000000	64.822125 
2928.000000	64.794540 
2927.000000	64.762949 
2926.000000	64.729976 
2925.000000	64.698004 
2924.000000	64.669013 
2923.000000	64.644479 
2922.000000	64.625382 
2921.000000	64.612293 
2920.000000	64.605474 
2919.000000	64.604783 
2918.000000	64.609742 
2917.000000	64.619517 
2916.000000	64.632892 
2915.000000	64.648509 
2914.000000	64.664530 
2913.000000	64.679527 
2912.000000	64.692378 
2911.000000	64.702606 
2910.000000	64.710330 
2909.000000	64.716005 
2908.000000	64.720225 
2907.000000	64.723443 
2906.000000	64.725852 
2905.000000	64.727091 
2904.000000	64.726781 
2903.000000	64.724445 
2902.000000	64.719796 
2901.000000	64.713048 
2900.000000	64.704966 
2899.000000	64.696550 
2898.000000	64.689016 
2897.000000	64.683508 
2896.000000	64.681053 
2895.000000	64.682269 
2894.000000	64.687132 
2893.000000	64.695119 
2892.000000	64.705204 
2891.000000	64.716172 
2890.000000	64.726781 
2889.000000	64.735817 
2888.000000	64.742517 
2887.000000	64.746737 
2886.000000	64.748740 
2885.000000	64.749217 
2884.000000	64.749050 
2883.000000	64.749312 
2882.000000	64.750862 
2881.000000	64.754223 
2880.000000	64.759254 
2879.000000	64.765357 
2878.000000	64.771318 
2877.000000	64.775657 
2876.000000	64.776635 
2875.000000	64.772820 
2874.000000	64.763212 
2873.000000	64.747595 
2872.000000	64.726567 
2871.000000	64.701581 
2870.000000	64.674901 
2869.000000	64.649081 
2868.000000	64.626741 
2867.000000	64.610028 
2866.000000	64.600372 
2865.000000	64.598250 
2864.000000	64.603233 
2863.000000	64.614057 
2862.000000	64.629101 
2861.000000	64.646697 
2860.000000	64.665365 
2859.000000	64.684033 
2858.000000	64.702129 
2857.000000	64.719533 
2856.000000	64.736247 
2855.000000	64.752221 
2854.000000	64.767313 
2853.000000	64.781188 
2852.000000	64.793372 
2851.000000	64.803457 
2850.000000	64.811205 
2849.000000	64.816689 
2848.000000	64.820361 
2847.000000	64.822769 
2846.000000	64.824414 
2845.000000	64.825797 
2844.000000	64.827013 
2843.000000	64.827847 
2842.000000	64.827847 
2841.000000	64.826631 
2840.000000	64.823913 
2839.000000	64.819550 
2838.000000	64.813709 
2837.000000	64.806818 
2836.000000	64.799547 
2835.000000	64.792680 
2834.000000	64.787077 
2833.000000	64.783430 
2832.000000	64.782357 
2831.000000	64.784288 
2830.000000	64.789414 
2829.000000	64.797544 
2828.000000	64.808082 
2827.000000	64.820122 
2826.000000	64.832472 
2825.000000	64.843773 
2824.000000	64.853000 
2823.000000	64.859628 
2822.000000	64.863920 
2821.000000	64.866757 
2820.000000	64.869570 
2819.000000	64.873886 
2818.000000	64.881014 
2817.000000	64.891505 
2816.000000	64.905071 
2815.000000	64.920377 
2814.000000	64.935636 
2813.000000	64.948415 
2812.000000	64.956355 
2811.000000	64.957451 
2810.000000	64.950609 
2809.000000	64.935731 
2808.000000	64.913892 
2807.000000	64.887022 
2806.000000	64.857792 
2805.000000	64.829134 
2804.000000	64.803934 
2803.000000	64.784550 
2802.000000	64.772439 
2801.000000	64.768099 
2800.000000	64.771175 
2799.000000	64.780306 
2798.000000	64.793562 
2797.000000	64.808845 
2796.000000	64.824223 
2795.000000	64.838004 
2794.000000	64.849090 
2793.000000	64.856624 
2792.000000	64.860177 
2791.000000	64.859509 
2790.000000	64.854669 
2789.000000	64.846515 
2788.000000	64.836454 
2787.000000	64.826512 
2786.000000	64.818882 
2785.000000	64.815807 
2784.000000	64.818477 
2783.000000	64.827132 
2782.000000	64.840626 
2781.000000	64.856791 
2780.000000	64.872813 
2779.000000	64.885735 
2778.000000	64.893174 
2777.000000	64.893698 
2776.000000	64.887261 
2775.000000	64.874982 
2774.000000	64.859199 
2773.000000	64.842796 
2772.000000	64.828896 
2771.000000	64.820146 
2770.000000	64.818310 
2769.000000	64.823794 
2768.000000	64.835596 
2767.000000	64.851474 
2766.000000	64.868450 
2765.000000	64.883232 
2764.000000	64.892911 
2763.000000	64.895534 
2762.000000	64.890694 
2761.000000	64.879608 
2760.000000	64.864778 
2759.000000	64.849400 
2758.000000	64.836502 
2757.000000	64.828014 
2756.000000	64.824604 
2755.000000	64.825201 
2754.000000	64.827680 
2753.000000	64.829015 
2752.000000	64.826631 
2751.000000	64.818644 
2750.000000	64.804387 
2749.000000	64.784812 
2748.000000	64.761567 
2747.000000	64.737224 
2746.000000	64.714336 
2745.000000	64.695000 
2744.000000	64.680647 
2743.000000	64.671730 
2742.000000	64.667987 
2741.000000	64.668607 
2740.000000	64.672493 
2739.000000	64.678335 
2738.000000	64.685249 
2737.000000	64.692282 
2736.000000	64.699077 
2735.000000	64.705657 
2734.000000	64.712595 
2733.000000	64.720678 
2732.000000	64.730811 
2731.000000	64.743781 
2730.000000	64.759731 
2729.000000	64.778304 
2728.000000	64.798331 
2727.000000	64.818120 
2726.000000	64.835691 
2725.000000	64.849424 
2724.000000	64.858245 
2723.000000	64.861869 
2722.000000	64.860868 
2721.000000	64.856600 
2720.000000	64.850568 
2719.000000	64.844226 
2718.000000	64.838504 
2717.000000	64.833855 
2716.000000	64.830040 
2715.000000	64.826321 
2714.000000	64.821958 
2713.000000	64.816451 
2712.000000	64.809560 
2711.000000	64.801216 
2710.000000	64.791584 
2709.000000	64.780950 
2708.000000	64.769268 
2707.000000	64.756488 
2706.000000	64.742326 
2705.000000	64.726734 
2704.000000	64.710068 
2703.000000	64.693307 
2702.000000	64.677762 
2701.000000	64.665079 
2700.000000	64.656853 
2699.000000	64.654207 
2698.000000	64.657378 
2697.000000	64.665794 
2696.000000	64.678311 
2695.000000	64.693522 
2694.000000	64.709854 
2693.000000	64.725947 
2692.000000	64.741039 
2691.000000	64.754819 
2690.000000	64.767336 
2689.000000	64.778947 
2688.000000	64.790153 
2687.000000	64.801406 
2686.000000	64.813137 
2685.000000	64.825344 
2684.000000	64.837813 
2683.000000	64.850187 
2682.000000	64.861774 
2681.000000	64.871811 
2680.000000	64.879369 
2679.000000	64.883732 
2678.000000	64.884281 
2677.000000	64.880824 
2676.000000	64.873290 
2675.000000	64.862012 
2674.000000	64.847230 
2673.000000	64.829111 
2672.000000	64.807629 
2671.000000	64.782714 
2670.000000	64.754486 
2669.000000	64.723396 
2668.000000	64.690780 
2667.000000	64.658594 
2666.000000	64.629578 
2665.000000	64.606595 
2664.000000	64.592194 
2663.000000	64.587926 
2662.000000	64.594149 
2661.000000	64.609789 
2660.000000	64.632558 
2659.000000	64.659237 
2658.000000	64.686274 
2657.000000	64.710426 
2656.000000	64.729070 
2655.000000	64.740514 
2654.000000	64.744043 
2653.000000	64.739966 
2652.000000	64.729142 
2651.000000	64.713072 
2650.000000	64.693689 
2649.000000	64.673185 
2648.000000	64.653921 
2647.000000	64.638018 
2646.000000	64.627432 
2645.000000	64.623379 
2644.000000	64.626240 
2643.000000	64.635276 
2642.000000	64.648628 
2641.000000	64.663720 
2640.000000	64.677739 
2639.000000	64.688324 
2638.000000	64.693975 
2637.000000	64.694523 
2636.000000	64.691257 
2635.000000	64.686417 
2634.000000	64.682817 
2633.000000	64.683032 
2632.000000	64.688658 
2631.000000	64.700031 
2630.000000	64.715957 
2629.000000	64.734125 
2628.000000	64.751482 
2627.000000	64.765238 
2626.000000	64.773058 
2625.000000	64.773845 
2624.000000	64.767718 
2623.000000	64.755821 
2622.000000	64.739966 
2621.000000	64.722275 
2620.000000	64.704751 
2619.000000	64.689064 
2618.000000	64.676308 
2617.000000	64.667129 
2616.000000	64.661526 
2615.000000	64.659404 
2614.000000	64.660120 
2613.000000	64.662837 
2612.000000	64.666604 
2611.000000	64.670419 
2610.000000	64.673399 
2609.000000	64.674878 
2608.000000	64.674687 
2607.000000	64.673137 
2606.000000	64.671039 
2605.000000	64.669394 
2604.000000	64.668989 
2603.000000	64.670538 
2602.000000	64.674067 
2601.000000	64.679384 
2600.000000	64.686298 
2599.000000	64.694786 
2598.000000	64.705228 
2597.000000	64.717817 
2596.000000	64.732670 
2595.000000	64.749145 
2594.000000	64.765787 
2593.000000	64.780235 
2592.000000	64.789819 
2591.000000	64.791893 
2590.000000	64.784979 
2589.000000	64.768886 
2588.000000	64.745068 
2587.000000	64.716291 
2586.000000	64.686441 
2585.000000	64.659428 
2584.000000	64.638447 
2583.000000	64.625334 
2582.000000	64.620494 
2581.000000	64.622664 
2580.000000	64.629650 
2579.000000	64.638710 
2578.000000	64.647412 
2577.000000	64.653849 
2576.000000	64.656996 
2575.000000	64.656710 
2574.000000	64.653563 
2573.000000	64.648604 
2572.000000	64.643192 
2571.000000	64.638686 
2570.000000	64.635968 
2569.000000	64.635682 
2568.000000	64.637732 
2567.000000	64.641523 
2566.000000	64.646291 
2565.000000	64.651107 
2564.000000	64.655256 
2563.000000	64.658284 
2562.000000	64.660120 
2561.000000	64.660882 
2560.000000	64.660835 
2559.000000	64.660167 
2558.000000	64.658975 
2557.000000	64.657139 
2556.000000	64.654517 
2555.000000	64.651083 
2554.000000	64.646863 
2553.000000	64.641952 
2552.000000	64.636611 
2551.000000	64.631366 
2550.000000	64.626646 
2549.000000	64.622712 
2548.000000	64.619445 
2547.000000	64.616584 
2546.000000	64.613699 
2545.000000	64.610481 
2544.000000	64.606690 
2543.000000	64.602279 
2542.000000	64.597415 
2541.000000	64.592528 
2540.000000	64.587974 
2539.000000	64.584207 
2538.000000	64.581584 
2537.000000	64.580416 
2536.000000	64.580869 
2535.000000	64.583158 
2534.000000	64.587187 
2533.000000	64.592885 
2532.000000	64.600205 
2531.000000	64.609193 
2530.000000	64.620137 
2529.000000	64.633536 
2528.000000	64.649963 
2527.000000	64.669847 
2526.000000	64.692926 
2525.000000	64.718341 
2524.000000	64.744377 
2523.000000	64.768528 
2522.000000	64.787721 
2521.000000	64.799141 
2520.000000	64.800572 
2519.000000	64.790940 
2518.000000	64.770507 
2517.000000	64.741063 
2516.000000	64.705634 
2515.000000	64.667677 
2514.000000	64.630889 
2513.000000	64.598250 
2512.000000	64.572143 
2511.000000	64.553928 
2510.000000	64.544248 
2509.000000	64.542984 
2508.000000	64.549517 
2507.000000	64.562964 
2506.000000	64.582085 
2505.000000	64.605331 
2504.000000	64.630913 
2503.000000	64.656901 
2502.000000	64.681315 
2501.000000	64.702320 
2500.000000	64.718532 
2499.000000	64.729118 
2498.000000	64.733910 
2497.000000	64.733362 
2496.000000	64.728426 
2495.000000	64.720296 
2494.000000	64.710426 
2493.000000	64.700055 
2492.000000	64.690542 
2491.000000	64.682912 
2490.000000	64.678168 
2489.000000	64.676904 
2488.000000	64.679265 
2487.000000	64.684653 
2486.000000	64.691948 
2485.000000	64.699482 
2484.000000	64.705371 
2483.000000	64.707803 
2482.000000	64.705705 
2481.000000	64.698696 
2480.000000	64.687490 
2479.000000	64.673447 
2478.000000	64.658594 
2477.000000	64.644789 
2476.000000	64.633536 
2475.000000	64.625406 
2474.000000	64.620065 
2473.000000	64.616394 
2472.000000	64.613127 
2471.000000	64.608883 
2470.000000	64.602804 
2469.000000	64.594745 
2468.000000	64.585280 
2467.000000	64.575552 
2466.000000	64.567065 
2465.000000	64.561486 
2464.000000	64.560294 
2463.000000	64.564561 
2462.000000	64.574646 
2461.000000	64.590120 
2460.000000	64.609718 
2459.000000	64.631366 
2458.000000	64.652776 
2457.000000	64.671540 
2456.000000	64.685702 
2455.000000	64.694070 
2454.000000	64.696431 
2453.000000	64.693713 
2452.000000	64.687538 
2451.000000	64.680004 
2450.000000	64.673066 
2449.000000	64.668083 
2448.000000	64.665484 
2447.000000	64.664912 
2446.000000	64.665222 
2445.000000	64.664912 
2444.000000	64.662647 
2443.000000	64.657664 
2442.000000	64.649891 
2441.000000	64.639925 
2440.000000	64.628887 
2439.000000	64.618158 
2438.000000	64.609241 
2437.000000	64.603447 
2436.000000	64.601635 
2435.000000	64.604091 
2434.000000	64.610719 
2433.000000	64.620780 
2432.000000	64.633131 
2431.000000	64.646196 
2430.000000	64.658474 
2429.000000	64.668583 
2428.000000	64.675474 
2427.000000	64.678621 
2426.000000	64.678311 
2425.000000	64.675426 
2424.000000	64.671349 
2423.000000	64.667654 
2422.000000	64.665865 
2421.000000	64.666891 
2420.000000	64.671158 
2419.000000	64.678192 
2418.000000	64.686751 
2417.000000	64.695382 
2416.000000	64.702463 
2415.000000	64.706707 
2414.000000	64.707303 
2413.000000	64.704036 
2412.000000	64.697337 
2411.000000	64.687967 
2410.000000	64.676785 
2409.000000	64.664554 
2408.000000	64.651823 
2407.000000	64.638924 
2406.000000	64.625811 
2405.000000	64.612555 
2404.000000	64.599108 
2403.000000	64.585638 
2402.000000	64.572262 
2401.000000	64.559149 
2400.000000	64.546489 
2399.000000	64.534378 
2398.000000	64.522957 
2397.000000	64.512348 
2396.000000	64.502859 
2395.000000	64.495110 
2394.000000	64.489841 
2393.000000	64.487838 
2392.000000	64.489865 
2391.000000	64.496326 
2390.000000	64.506936 
2389.000000	64.520788 
2388.000000	64.536261 
2387.000000	64.551472 
2386.000000	64.564418 
2385.000000	64.573550 
2384.000000	64.577913 
2383.000000	64.577579 
2382.000000	64.573407 
2381.000000	64.566993 
2380.000000	64.560031 
2379.000000	64.554071 
2378.000000	64.550280 
2377.000000	64.549231 
2376.000000	64.550781 
2375.000000	64.553999 
2374.000000	64.557981 
2373.000000	64.561343 
2372.000000	64.562702 
2371.000000	64.560794 
2370.000000	64.554786 
2369.000000	64.544296 
2368.000000	64.529514 
2367.000000	64.511346 
2366.000000	64.491367 
2365.000000	64.471602 
2364.000000	64.454221 
2363.000000	64.441132 
2362.000000	64.433813 
2361.000000	64.432811 
2360.000000	64.437961 
2359.000000	64.448213 
2358.000000	64.462161 
2357.000000	64.478302 
2356.000000	64.495325 
2355.000000	64.512372 
2354.000000	64.528870 
2353.000000	64.544606 
2352.000000	64.559268 
2351.000000	64.572358 
2350.000000	64.583039 
2349.000000	64.590573 
2348.000000	64.594173 
2347.000000	64.593577 
2346.000000	64.589118 
2345.000000	64.581775 
2344.000000	64.573264 
2343.000000	64.565467 
2342.000000	64.560174 
2341.000000	64.558768 
2340.000000	64.561796 
2339.000000	64.569020 
2338.000000	64.579391 
2337.000000	64.591240 
2336.000000	64.602828 
2335.000000	64.612460 
2334.000000	64.618897 
2333.000000	64.621424 
2332.000000	64.619922 
2331.000000	64.614796 
2330.000000	64.607000 
2329.000000	64.597558 
2328.000000	64.587640 
2327.000000	64.578247 
2326.000000	64.570021 
2325.000000	64.563179 
2324.000000	64.557528 
2323.000000	64.552474 
2322.000000	64.547395 
2321.000000	64.541673 
2320.000000	64.534711 
2319.000000	64.526271 
2318.000000	64.516305 
2317.000000	64.504933 
2316.000000	64.492511 
2315.000000	64.479589 
2314.000000	64.466619 
2313.000000	64.454269 
2312.000000	64.443182 
2311.000000	64.434123 
2310.000000	64.427876 
2309.000000	64.425182 
2308.000000	64.426469 
2307.000000	64.431858 
2306.000000	64.440989 
2305.000000	64.452981 
2304.000000	64.466476 
2303.000000	64.480090 
2302.000000	64.492583 
2301.000000	64.503026 
2300.000000	64.511132 
2299.000000	64.516973 
2298.000000	64.521050 
2297.000000	64.524245 
2296.000000	64.527106 
2295.000000	64.530158 
2294.000000	64.533329 
2293.000000	64.536428 
2292.000000	64.539003 
2291.000000	64.540505 
2290.000000	64.540433 
2289.000000	64.538693 
2288.000000	64.535474 
2287.000000	64.531278 
2286.000000	64.526915 
2285.000000	64.523315 
2284.000000	64.521288 
2283.000000	64.521503 
2282.000000	64.524221 
2281.000000	64.529323 
2280.000000	64.535999 
2279.000000	64.543104 
2278.000000	64.549136 
2277.000000	64.552664 
2276.000000	64.552712 
2275.000000	64.548850 
2274.000000	64.541459 
2273.000000	64.531564 
2272.000000	64.520788 
2271.000000	64.510798 
2270.000000	64.503026 
2269.000000	64.498519 
2268.000000	64.497852 
2267.000000	64.501118 
2266.000000	64.508008 
2265.000000	64.517736 
2264.000000	64.529299 
2263.000000	64.541506 
2262.000000	64.553022 
2261.000000	64.562416 
2260.000000	64.568305 
2259.000000	64.569640 
2258.000000	64.565825 
2257.000000	64.557075 
2256.000000	64.544272 
2255.000000	64.529037 
2254.000000	64.513397 
2253.000000	64.499497 
2252.000000	64.489126 
2251.000000	64.483332 
2250.000000	64.482426 
2249.000000	64.485907 
2248.000000	64.492607 
2247.000000	64.501190 
2246.000000	64.510226 
2245.000000	64.518308 
2244.000000	64.524388 
2243.000000	64.527583 
2242.000000	64.527535 
2241.000000	64.524269 
2240.000000	64.518284 
2239.000000	64.510607 
2238.000000	64.502644 
2237.000000	64.495968 
2236.000000	64.492130 
2235.000000	64.492392 
2234.000000	64.497256 
2233.000000	64.506578 
2232.000000	64.519262 
2231.000000	64.533448 
2230.000000	64.546751 
2229.000000	64.556741 
2228.000000	64.561271 
2227.000000	64.558959 
2226.000000	64.549326 
2225.000000	64.533114 
2224.000000	64.512062 
2223.000000	64.488625 
2222.000000	64.465665 
2221.000000	64.445948 
2220.000000	64.431905 
2219.000000	64.425134 
2218.000000	64.426255 
2217.000000	64.434790 
2216.000000	64.449334 
2215.000000	64.467740 
2214.000000	64.487695 
2213.000000	64.506697 
2212.000000	64.522695 
2211.000000	64.534020 
2210.000000	64.539599 
2209.000000	64.539122 
2208.000000	64.532804 
2207.000000	64.521527 
2206.000000	64.506602 
2205.000000	64.489746 
2204.000000	64.472842 
2203.000000	64.457488 
2202.000000	64.445018 
2201.000000	64.436149 
2200.000000	64.430975 
2199.000000	64.429044 
2198.000000	64.429640 
2197.000000	64.431977 
2196.000000	64.435243 
2195.000000	64.438867 
2194.000000	64.442396 
2193.000000	64.445567 
2192.000000	64.448165 
2191.000000	64.449930 
2190.000000	64.450407 
2189.000000	64.449238 
2188.000000	64.446067 
2187.000000	64.440679 
2186.000000	64.433288 
2185.000000	64.424419 
2184.000000	64.414906 
2183.000000	64.405751 
2182.000000	64.397788 
2181.000000	64.391684 
2180.000000	64.387607 
2179.000000	64.385414 
2178.000000	64.384460 
2177.000000	64.383959 
2176.000000	64.383077 
2175.000000	64.381074 
2174.000000	64.377570 
2173.000000	64.372658 
2172.000000	64.367032 
2171.000000	64.361834 
2170.000000	64.358401 
2169.000000	64.357972 
2168.000000	64.361357 
2167.000000	64.368724 
2166.000000	64.379382 
2165.000000	64.392113 
2164.000000	64.405298 
2163.000000	64.417648 
2162.000000	64.428186 
2161.000000	64.436912 
2160.000000	64.444303 
2159.000000	64.451384 
2158.000000	64.459300 
2157.000000	64.468574 
2156.000000	64.479160 
2155.000000	64.490079 
2154.000000	64.500021 
2153.000000	64.507365 
2152.000000	64.510941 
2151.000000	64.510297 
2150.000000	64.506006 
2149.000000	64.499044 
2148.000000	64.490652 
2147.000000	64.481735 
2146.000000	64.472556 
2145.000000	64.462661 
2144.000000	64.451122 
2143.000000	64.437031 
2142.000000	64.419889 
2141.000000	64.400005 
2140.000000	64.378547 
2139.000000	64.357447 
2138.000000	64.338874 
2137.000000	64.324712 
2136.000000	64.316034 
2135.000000	64.312863 
2134.000000	64.313912 
2133.000000	64.317202 
2132.000000	64.320540 
2131.000000	64.321684 
2130.000000	64.319276 
2129.000000	64.313030 
2128.000000	64.303755 
2127.000000	64.292907 
2126.000000	64.282369 
2125.000000	64.273977 
2124.000000	64.268994 
2123.000000	64.267897 
2122.000000	64.270448 
2121.000000	64.275860 
2120.000000	64.283156 
2119.000000	64.291381 
2118.000000	64.300060 
2117.000000	64.309287 
2116.000000	64.319682 
2115.000000	64.331936 
2114.000000	64.346599 
2113.000000	64.363622 
2112.000000	64.382553 
2111.000000	64.402008 
2110.000000	64.420175 
2109.000000	64.434933 
2108.000000	64.444589 
2107.000000	64.447855 
2106.000000	64.444327 
2105.000000	64.434242 
2104.000000	64.418745 
2103.000000	64.399623 
2102.000000	64.379048 
2101.000000	64.359116 
2100.000000	64.341831 
2099.000000	64.328336 
2098.000000	64.319300 
2097.000000	64.314365 
2096.000000	64.312529 
2095.000000	64.312314 
2094.000000	64.312076 
2093.000000	64.310288 
2092.000000	64.306068 
2091.000000	64.299273 
2090.000000	64.290618 
2089.000000	64.281511 
2088.000000	64.273595 
2087.000000	64.268660 
2086.000000	64.268016 
2085.000000	64.272165 
2084.000000	64.280772 
2083.000000	64.292931 
2082.000000	64.307093 
2081.000000	64.321446 
2080.000000	64.334273 
2079.000000	64.344096 
2078.000000	64.349794 
2077.000000	64.350748 
2076.000000	64.346909 
2075.000000	64.338803 
2074.000000	64.327383 
2073.000000	64.313840 
2072.000000	64.299559 
2071.000000	64.285755 
2070.000000	64.273309 
2069.000000	64.262747 
2068.000000	64.254093 
2067.000000	64.246964 
2066.000000	64.240860 
2065.000000	64.235377 
2064.000000	64.230442 
2063.000000	64.226436 
2062.000000	64.224052 
2061.000000	64.224195 
2060.000000	64.227461 
2059.000000	64.234089 
2058.000000	64.243507 
2057.000000	64.254713 
2056.000000	64.266252 
2055.000000	64.276695 
2054.000000	64.285087 
2053.000000	64.290976 
2052.000000	64.294528 
2051.000000	64.296126 
2050.000000	64.296364 
2049.000000	64.295554 
2048.000000	64.293599 
2047.000000	64.289975 
2046.000000	64.284110 
2045.000000	64.275479 
2044.000000	64.264225 
2043.000000	64.251065 
2042.000000	64.237546 
2041.000000	64.225196 
2040.000000	64.215421 
2039.000000	64.209055 
2038.000000	64.206075 
2037.000000	64.205718 
2036.000000	64.206719 
2035.000000	64.207792 
2034.000000	64.208173 
2033.000000	64.207601 
2032.000000	64.206647 
2031.000000	64.206242 
2030.000000	64.207363 
2029.000000	64.210629 
2028.000000	64.216160 
2027.000000	64.223194 
2026.000000	64.230513 
2025.000000	64.236831 
2024.000000	64.240837 
2023.000000	64.241766 
2022.000000	64.239501 
2021.000000	64.234733 
2020.000000	64.228510 
2019.000000	64.222121 
2018.000000	64.216971 
2017.000000	64.214229 
2016.000000	64.214849 
2015.000000	64.219498 
2014.000000	64.228463 
2013.000000	64.241695 
2012.000000	64.258694 
2011.000000	64.278578 
2010.000000	64.299893 
2009.000000	64.320611 
2008.000000	64.338564 
2007.000000	64.351534 
2006.000000	64.357733 
2005.000000	64.356040 
2004.000000	64.346337 
2003.000000	64.329290 
2002.000000	64.306688 
2001.000000	64.280700 
2000.000000	64.253592 
1999.000000	64.227485 
1998.000000	64.204001 
1997.000000	64.184284 
1996.000000	64.168787 
1995.000000	64.157605 
1994.000000	64.150452 
1993.000000	64.146876 
1992.000000	64.146399 
1991.000000	64.148592 
1990.000000	64.153218 
1989.000000	64.160180 
1988.000000	64.169454 
1987.000000	64.181065 
1986.000000	64.194798 
1985.000000	64.210414 
1984.000000	64.227390 
1983.000000	64.244818 
1982.000000	64.261627 
1981.000000	64.276504 
1980.000000	64.288020 
1979.000000	64.294934 
1978.000000	64.296364 
1977.000000	64.291930 
1976.000000	64.281845 
1975.000000	64.266991 
1974.000000	64.248919 
1973.000000	64.229583 
1972.000000	64.210987 
1971.000000	64.194893 
1970.000000	64.182543 
1969.000000	64.174723 
1968.000000	64.171409 
1967.000000	64.171648 
1966.000000	64.174199 
1965.000000	64.177489 
1964.000000	64.180612 
1963.000000	64.183044 
1962.000000	64.185357 
1961.000000	64.188504 
1960.000000	64.193868 
1959.000000	64.202451 
1958.000000	64.214539 
1957.000000	64.229178 
1956.000000	64.244508 
1955.000000	64.257931 
1954.000000	64.266562 
1953.000000	64.268064 
1952.000000	64.261031 
1951.000000	64.245533 
1950.000000	64.223146 
1949.000000	64.196681 
1948.000000	64.169692 
1947.000000	64.145970 
1946.000000	64.128947 
1945.000000	64.120936 
1944.000000	64.123153 
1943.000000	64.135169 
1942.000000	64.155507 
1941.000000	64.181423 
1940.000000	64.209556 
1939.000000	64.236330 
1938.000000	64.258503 
1937.000000	64.273643 
1936.000000	64.280486 
1935.000000	64.279198 
1934.000000	64.271044 
1933.000000	64.258265 
1932.000000	64.243412 
1931.000000	64.228940 
1930.000000	64.216637 
1929.000000	64.207530 
1928.000000	64.201951 
1927.000000	64.199447 
1926.000000	64.199376 
1925.000000	64.201116 
1924.000000	64.204096 
1923.000000	64.208030 
1922.000000	64.212989 
1921.000000	64.219021 
1920.000000	64.226365 
1919.000000	64.234781 
1918.000000	64.244008 
1917.000000	64.253401 
1916.000000	64.262056 
1915.000000	64.269256 
1914.000000	64.274382 
1913.000000	64.277338 
1912.000000	64.278149 
1911.000000	64.277386 
1910.000000	64.275336 
1909.000000	64.272165 
1908.000000	64.267587 
1907.000000	64.260864 
1906.000000	64.251232 
1905.000000	64.238214 
1904.000000	64.221811 
1903.000000	64.203000 
1902.000000	64.183521 
1901.000000	64.165759 
1900.000000	64.152264 
1899.000000	64.145231 
1898.000000	64.145803 
1897.000000	64.153838 
1896.000000	64.168024 
1895.000000	64.185976 
1894.000000	64.204835 
1893.000000	64.221739 
1892.000000	64.234280 
1891.000000	64.241051 
1890.000000	64.241528 
1889.000000	64.236259 
1888.000000	64.226293 
1887.000000	64.213180 
1886.000000	64.198780 
1885.000000	64.184761 
1884.000000	64.172720 
1883.000000	64.163899 
1882.000000	64.158987 
1881.000000	64.158082 
1880.000000	64.160728 
1879.000000	64.165759 
1878.000000	64.171719 
1877.000000	64.176821 
1876.000000	64.179491 
1875.000000	64.178609 
1874.000000	64.173865 
1873.000000	64.165830 
1872.000000	64.155912 
1871.000000	64.145946 
1870.000000	64.138054 
1869.000000	64.134073 
1868.000000	64.135098 
1867.000000	64.141273 
1866.000000	64.151811 
1865.000000	64.165091 
1864.000000	64.179110 
1863.000000	64.191675 
1862.000000	64.201021 
1861.000000	64.205980 
1860.000000	64.206099 
1859.000000	64.202094 
1858.000000	64.195275 
1857.000000	64.187264 
1856.000000	64.179706 
1855.000000	64.173889 
1854.000000	64.170384 
1853.000000	64.169049 
1852.000000	64.168930 
1851.000000	64.168763 
1850.000000	64.167141 
1849.000000	64.162898 
1848.000000	64.155387 
1847.000000	64.144539 
1846.000000	64.130878 
1845.000000	64.115643 
1844.000000	64.100408 
1843.000000	64.087104 
1842.000000	64.077472 
1841.000000	64.072990 
1840.000000	64.074635 
1839.000000	64.082670 
1838.000000	64.096570 
1837.000000	64.115190 
1836.000000	64.136695 
1835.000000	64.158964 
1834.000000	64.179801 
1833.000000	64.196991 
1832.000000	64.208722 
1831.000000	64.213585 
1830.000000	64.210844 
1829.000000	64.200425 
1828.000000	64.183020 
1827.000000	64.160180 
1826.000000	64.134216 
1825.000000	64.108109 
1824.000000	64.085268 
1823.000000	64.069032 
1822.000000	64.062166 
1821.000000	64.066290 
1820.000000	64.081430 
1819.000000	64.105892 
1818.000000	64.136362 
1817.000000	64.168715 
1816.000000	64.198327 
1815.000000	64.221286 
1814.000000	64.234828 
1813.000000	64.237928 
1812.000000	64.231300 
1811.000000	64.217042 
1810.000000	64.198064 
1809.000000	64.177656 
1808.000000	64.158511 
1807.000000	64.142584 
1806.000000	64.130735 
1805.000000	64.122939 
1804.000000	64.118194 
1803.000000	64.115333 
1802.000000	64.112949 
1801.000000	64.109873 
1800.000000	64.105367 
1799.000000	64.099049 
1798.000000	64.091181 
1797.000000	64.082384 
1796.000000	64.073848 
1795.000000	64.066863 
1794.000000	64.062643 
1793.000000	64.062285 
1792.000000	64.066362 
1791.000000	64.074730 
1790.000000	64.086508 
1789.000000	64.100027 
1788.000000	64.113068 
1787.000000	64.123392 
1786.000000	64.129352 
1785.000000	64.130043 
1784.000000	64.125442 
1783.000000	64.116501 
1782.000000	64.105010 
1781.000000	64.092993 
1780.000000	64.082312 
1779.000000	64.074349 
1778.000000	64.069747 
1777.000000	64.068436 
1776.000000	64.069914 
1775.000000	64.073276 
1774.000000	64.077520 
1773.000000	64.081835 
1772.000000	64.085626 
1771.000000	64.088726 
1770.000000	64.091157 
1769.000000	64.093184 
1768.000000	64.095163 
1767.000000	64.097380 
1766.000000	64.099812 
1765.000000	64.102387 
1764.000000	64.104557 
1763.000000	64.105558 
1762.000000	64.104127 
1761.000000	64.098930 
1760.000000	64.088535 
1759.000000	64.071702 
1758.000000	64.047431 
1757.000000	64.015507 
1756.000000	63.976502 
1755.000000	63.932180 
1754.000000	63.885116 
1753.000000	63.838648 
1752.000000	63.796377 
1751.000000	63.761615 
1750.000000	63.737082 
1749.000000	63.724279 
1748.000000	63.723301 
1747.000000	63.732767 
1746.000000	63.750195 
1745.000000	63.772344 
1744.000000	63.795828 
1743.000000	63.817596 
1742.000000	63.835358 
1741.000000	63.847875 
1740.000000	63.855051 
1739.000000	63.857793 
1738.000000	63.857650 
1737.000000	63.856434 
1736.000000	63.855910 
1735.000000	63.857316 
1734.000000	63.861250 
1733.000000	63.867640 
1732.000000	63.875699 
1731.000000	63.884139 
1730.000000	63.891696 
1729.000000	63.897180 
1728.000000	63.899660 
1727.000000	63.898754 
1726.000000	63.894867 
1725.000000	63.889098 
1724.000000	63.882637 
1723.000000	63.876962 
1722.000000	63.873553 
1721.000000	63.873457 
1720.000000	63.877081 
1719.000000	63.884139 
1718.000000	63.893747 
1717.000000	63.904571 
1716.000000	63.915085 
1715.000000	63.923597 
1714.000000	63.928771 
1713.000000	63.929796 
1712.000000	63.926410 
1711.000000	63.918828 
1710.000000	63.907766 
1709.000000	63.894391 
1708.000000	63.880181 
1707.000000	63.866591 
1706.000000	63.855099 
1705.000000	63.846969 
1704.000000	63.843250 
1703.000000	63.844490 
1702.000000	63.851046 
1701.000000	63.862705 
1700.000000	63.879108 
1699.000000	63.899230 
1698.000000	63.921809 
1697.000000	63.945269 
1696.000000	63.967823 
1695.000000	63.987755 
1694.000000	64.003491 
1693.000000	64.013671 
1692.000000	64.017653 
1691.000000	64.015507 
1690.000000	64.007759 
1689.000000	63.995480 
1688.000000	63.980054 
1687.000000	63.963079 
1686.000000	63.946104 
1685.000000	63.930606 
1684.000000	63.917613 
1683.000000	63.907575 
1682.000000	63.900518 
1681.000000	63.895893 
1680.000000	63.892769 
1679.000000	63.889861 
1678.000000	63.885712 
1677.000000	63.879275 
1676.000000	63.869738 
1675.000000	63.857030 
1674.000000	63.841819 
1673.000000	63.825345 
1672.000000	63.809275 
1671.000000	63.795804 
1670.000000	63.786983 
1669.000000	63.784861 
1668.000000	63.790559 
1667.000000	63.804578 
1666.000000	63.826584 
1665.000000	63.855171 
1664.000000	63.888072 
1663.000000	63.922333 
1662.000000	63.954448 
1661.000000	63.980889 
1660.000000	63.998723 
1659.000000	64.005851 
1658.000000	64.001488 
1657.000000	63.986611 
1656.000000	63.963556 
1655.000000	63.935756 
1654.000000	63.906979 
1653.000000	63.881182 
1652.000000	63.861322 
1651.000000	63.849091 
1650.000000	63.844442 
1649.000000	63.846158 
1648.000000	63.851618 
1647.000000	63.857769 
1646.000000	63.861393 
1645.000000	63.859868 
1644.000000	63.851499 
1643.000000	63.835835 
1642.000000	63.814067 
1641.000000	63.788008 
1640.000000	63.760781 
1639.000000	63.735842 
1638.000000	63.716745 
1637.000000	63.706350 
1636.000000	63.706302 
1635.000000	63.716888 
1634.000000	63.736653 
1633.000000	63.762664 
1632.000000	63.791251 
1631.000000	63.818645 
1630.000000	63.841700 
1629.000000	63.858604 
1628.000000	63.868999 
1627.000000	63.874244 
1626.000000	63.876771 
1625.000000	63.879442 
1624.000000	63.884973 
1623.000000	63.894867 
1622.000000	63.909745 
1621.000000	63.928294 
1620.000000	63.948106 
1619.000000	63.965392 
1618.000000	63.976740 
1617.000000	63.978838 
1616.000000	63.969635 
1615.000000	63.948416 
1614.000000	63.916254 
1613.000000	63.875484 
1612.000000	63.829445 
1611.000000	63.781905 
1610.000000	63.736605 
1609.000000	63.696765 
1608.000000	63.664889 
1607.000000	63.642549 
1606.000000	63.630604 
1605.000000	63.629126 
1604.000000	63.637638 
1603.000000	63.654994 
1602.000000	63.679456 
1601.000000	63.708591 
1600.000000	63.739776 
1599.000000	63.769817 
1598.000000	63.795852 
1597.000000	63.815736 
1596.000000	63.828706 
1595.000000	63.835191 
1594.000000	63.837122 
1593.000000	63.837218 
1592.000000	63.838410 
1591.000000	63.843488 
1590.000000	63.854074 
1589.000000	63.870477 
1588.000000	63.891506 
1587.000000	63.915109 
1586.000000	63.938403 
1585.000000	63.958549 
1584.000000	63.973116 
1583.000000	63.980555 
1582.000000	63.980412 
1581.000000	63.973236 
1580.000000	63.960504 
1579.000000	63.944292 
1578.000000	63.926601 
1577.000000	63.909196 
1576.000000	63.893365 
1575.000000	63.879728 
1574.000000	63.868355 
1573.000000	63.858699 
1572.000000	63.849782 
1571.000000	63.840579 
1570.000000	63.830280 
1569.000000	63.818645 
1568.000000	63.805627 
1567.000000	63.792133 
1566.000000	63.779640 
1565.000000	63.770389 
1564.000000	63.766145 
1563.000000	63.768124 
1562.000000	63.776588 
1561.000000	63.790249 
1560.000000	63.806676 
1559.000000	63.822484 
1558.000000	63.834238 
1557.000000	63.839197 
1556.000000	63.835930 
1555.000000	63.824653 
1554.000000	63.807177 
1553.000000	63.786578 
1552.000000	63.766407 
1551.000000	63.750100 
1550.000000	63.740396 
1549.000000	63.739013 
1548.000000	63.746237 
1547.000000	63.761281 
1546.000000	63.782072 
1545.000000	63.806128 
1544.000000	63.830447 
1543.000000	63.851785 
1542.000000	63.867139 
1541.000000	63.873958 
1540.000000	63.870787 
1539.000000	63.857293 
1538.000000	63.834691 
1537.000000	63.805603 
1536.000000	63.773727 
1535.000000	63.743066 
1534.000000	63.717508 
1533.000000	63.699936 
1532.000000	63.692069 
1531.000000	63.693976 
1530.000000	63.704562 
1529.000000	63.721585 
1528.000000	63.742184 
1527.000000	63.763308 
1526.000000	63.782024 
1525.000000	63.796067 
1524.000000	63.803768 
1523.000000	63.804602 
1522.000000	63.799023 
1521.000000	63.788461 
1520.000000	63.774919 
1519.000000	63.760781 
1518.000000	63.748478 
1517.000000	63.740181 
1516.000000	63.737320 
1515.000000	63.740491 
1514.000000	63.749337 
1513.000000	63.762593 
1512.000000	63.778471 
1511.000000	63.794851 
1510.000000	63.809609 
1509.000000	63.820958 
1508.000000	63.827753 
1507.000000	63.829517 
1506.000000	63.826370 
1505.000000	63.818931 
1504.000000	63.808012 
1503.000000	63.794565 
1502.000000	63.779568 
1501.000000	63.764023 
1500.000000	63.748884 
1499.000000	63.735079 
1498.000000	63.723611 
1497.000000	63.715362 
1496.000000	63.711118 
1495.000000	63.711333 
1494.000000	63.715887 
1493.000000	63.724327 
1492.000000	63.735747 
1491.000000	63.748860 
1490.000000	63.762307 
1489.000000	63.774704 
1488.000000	63.785028 
1487.000000	63.792729 
1486.000000	63.797616 
1485.000000	63.799834 
1484.000000	63.799905 
1483.000000	63.798332 
1482.000000	63.795423 
1481.000000	63.791489 
1480.000000	63.786435 
1479.000000	63.780069 
1478.000000	63.771986 
1477.000000	63.761973 
1476.000000	63.749742 
1475.000000	63.735413 
1474.000000	63.719272 
1473.000000	63.702058 
1472.000000	63.684630 
1471.000000	63.668107 
1470.000000	63.653588 
1469.000000	63.642072 
1468.000000	63.634300 
1467.000000	63.630890 
1466.000000	63.632035 
1465.000000	63.637614 
1464.000000	63.647079 
1463.000000	63.659453 
1462.000000	63.673520 
1461.000000	63.687729 
1460.000000	63.700318 
1459.000000	63.709545 
1458.000000	63.714003 
1457.000000	63.712787 
1456.000000	63.705730 
1455.000000	63.693332 
1454.000000	63.677120 
1453.000000	63.659048 
1452.000000	63.641333 
1451.000000	63.625955 
1450.000000	63.614296 
1449.000000	63.607025 
1448.000000	63.603949 
1447.000000	63.604450 
1446.000000	63.607597 
1445.000000	63.612794 
1444.000000	63.619804 
1443.000000	63.628888 
1442.000000	63.640546 
1441.000000	63.655090 
1440.000000	63.672351 
1439.000000	63.691449 
1438.000000	63.710618 
1437.000000	63.727545 
1436.000000	63.739800 
1435.000000	63.745474 
1434.000000	63.743519 
1433.000000	63.734126 
1432.000000	63.718581 
1431.000000	63.699126 
1430.000000	63.678240 
1429.000000	63.658285 
1428.000000	63.640832 
1427.000000	63.626623 
1426.000000	63.615441 
1425.000000	63.606643 
1424.000000	63.599610 
1423.000000	63.593959 
1422.000000	63.589930 
1421.000000	63.588190 
1420.000000	63.589525 
1419.000000	63.594365 
1418.000000	63.602447 
1417.000000	63.612747 
1416.000000	63.623499 
1415.000000	63.632512 
1414.000000	63.637948 
1413.000000	63.638544 
1412.000000	63.634157 
1411.000000	63.625788 
1410.000000	63.615036 
1409.000000	63.603782 
1408.000000	63.593816 
1407.000000	63.586258 
1406.000000	63.581299 
1405.000000	63.578486 
1404.000000	63.577079 
1403.000000	63.576269 
1402.000000	63.575792 
1401.000000	63.575649 
1400.000000	63.576340 
1399.000000	63.578724 
1398.000000	63.583374 
1397.000000	63.590741 
1396.000000	63.600635 
1395.000000	63.612341 
1394.000000	63.624954 
1393.000000	63.637399 
1392.000000	63.648581 
1391.000000	63.657665 
1390.000000	63.664031 
1389.000000	63.667225 
1388.000000	63.667035 
1387.000000	63.663220 
1386.000000	63.655662 
1385.000000	63.644242 
1384.000000	63.628888 
1383.000000	63.609600 
1382.000000	63.586926 
1381.000000	63.561677 
1380.000000	63.535118 
1379.000000	63.508844 
1378.000000	63.484907 
1377.000000	63.465476 
1376.000000	63.452601 
1375.000000	63.447761 
1374.000000	63.451766 
1373.000000	63.464379 
1372.000000	63.484215 
1371.000000	63.508892 
1370.000000	63.535261 
1369.000000	63.559961 
1368.000000	63.580060 
1367.000000	63.593411 
1366.000000	63.599133 
1365.000000	63.597655 
1364.000000	63.590526 
1363.000000	63.580083 
1362.000000	63.568973 
1361.000000	63.559508 
1360.000000	63.553261 
1359.000000	63.551068 
1358.000000	63.552713 
1357.000000	63.557291 
1356.000000	63.563656 
1355.000000	63.570547 
1354.000000	63.576722 
1353.000000	63.581180 
1352.000000	63.583135 
1351.000000	63.582158 
1350.000000	63.577771 
1349.000000	63.570189 
1348.000000	63.559508 
1347.000000	63.546681 
1346.000000	63.533163 
1345.000000	63.521122 
1344.000000	63.512873 
1343.000000	63.510775 
1342.000000	63.516592 
1341.000000	63.530969 
1340.000000	63.553285 
1339.000000	63.581466 
1338.000000	63.612365 
1337.000000	63.642239 
1336.000000	63.667440 
1335.000000	63.685083 
1334.000000	63.693666 
1333.000000	63.693284 
1332.000000	63.685441 
1331.000000	63.672900 
1330.000000	63.658833 
1329.000000	63.646292 
1328.000000	63.637328 
1327.000000	63.632798 
1326.000000	63.632082 
1325.000000	63.633441 
1324.000000	63.634109 
1323.000000	63.631319 
1322.000000	63.622736 
1321.000000	63.607072 
1320.000000	63.584733 
1319.000000	63.557744 
1318.000000	63.529586 
1317.000000	63.504362 
1316.000000	63.486027 
1315.000000	63.477540 
1314.000000	63.480067 
1313.000000	63.492846 
1312.000000	63.513422 
1311.000000	63.538193 
1310.000000	63.563394 
1309.000000	63.585424 
1308.000000	63.601660 
1307.000000	63.610625 
1306.000000	63.611674 
1305.000000	63.604807 
1304.000000	63.590478 
1303.000000	63.569378 
1302.000000	63.542389 
1301.000000	63.510489 
1300.000000	63.475251 
1299.000000	63.438487 
1298.000000	63.402676 
1297.000000	63.370490 
1296.000000	63.344335 
1295.000000	63.326096 
1294.000000	63.316488 
1293.000000	63.315176 
1292.000000	63.320636 
1291.000000	63.330817 
1290.000000	63.343214 
1289.000000	63.355541 
1288.000000	63.365817 
1287.000000	63.372945 
1286.000000	63.376545 
1285.000000	63.376736 
1284.000000	63.373970 
1283.000000	63.368964 
1282.000000	63.362383 
1281.000000	63.355016 
1280.000000	63.347363 
1279.000000	63.340067 
1278.000000	63.333797 
1277.000000	63.329505 
1276.000000	63.328194 
1275.000000	63.330769 
1274.000000	63.337683 
1273.000000	63.348627 
1272.000000	63.362383 
1271.000000	63.376808 
1270.000000	63.389515 
1269.000000	63.398003 
1268.000000	63.400316 
1267.000000	63.395738 
1266.000000	63.384771 
1265.000000	63.369083 
1264.000000	63.351392 
1263.000000	63.334774 
1262.000000	63.322210 
1261.000000	63.316035 
1260.000000	63.317537 
1259.000000	63.327002 
1258.000000	63.343548 
1257.000000	63.365602 
1256.000000	63.391017 
1255.000000	63.417434 
1254.000000	63.442587 
1253.000000	63.464307 
1252.000000	63.480925 
1251.000000	63.491225 
1250.000000	63.494682 
1249.000000	63.491487 
1248.000000	63.482594 
1247.000000	63.469290 
1246.000000	63.453125 
1245.000000	63.435435 
1244.000000	63.417458 
1243.000000	63.400077 
1242.000000	63.383674 
1241.000000	63.368463 
1240.000000	63.354730 
1239.000000	63.342690 
1238.000000	63.332605 
1237.000000	63.324737 
1236.000000	63.319134 
1235.000000	63.315868 
1234.000000	63.314771 
1233.000000	63.315677 
1232.000000	63.318324 
1231.000000	63.322639 
1230.000000	63.328623 
1229.000000	63.336300 
1228.000000	63.345551 
1227.000000	63.355922 
1226.000000	63.366556 
1225.000000	63.375902 
1224.000000	63.382291 
1223.000000	63.384318 
1222.000000	63.381361 
1221.000000	63.373637 
1220.000000	63.362574 
1219.000000	63.350582 
1218.000000	63.340711 
1217.000000	63.335919 
1216.000000	63.338446 
1215.000000	63.349485 
1214.000000	63.368725 
1213.000000	63.394761 
1212.000000	63.425207 
1211.000000	63.457059 
1210.000000	63.487434 
1209.000000	63.513898 
1208.000000	63.534593 
1207.000000	63.548398 
1206.000000	63.555026 
1205.000000	63.554811 
1204.000000	63.548874 
1203.000000	63.538837 
1202.000000	63.526797 
1201.000000	63.514804 
1200.000000	63.504576 
1199.000000	63.496851 
1198.000000	63.491296 
1197.000000	63.486576 
1196.000000	63.480567 
1195.000000	63.471055 
1194.000000	63.456439 
1193.000000	63.436317 
1192.000000	63.411664 
1191.000000	63.384699 
1190.000000	63.358616 
1189.000000	63.336586 
1188.000000	63.321018 
1187.000000	63.313102 
1186.000000	63.312220 
1185.000000	63.316631 
1184.000000	63.323664 
1183.000000	63.330578 
1182.000000	63.335227 
1181.000000	63.336396 
1180.000000	63.333988 
1179.000000	63.328814 
1178.000000	63.321900 
1177.000000	63.314318 
1176.000000	63.306784 
1175.000000	63.299465 
1174.000000	63.292098 
1173.000000	63.284206 
1172.000000	63.275265 
1171.000000	63.265204 
1170.000000	63.254404 
1169.000000	63.243675 
1168.000000	63.234233 
1167.000000	63.227295 
1166.000000	63.224005 
1165.000000	63.225197 
1164.000000	63.231158 
1163.000000	63.241577 
1162.000000	63.255453 
1161.000000	63.271331 
1160.000000	63.287305 
1159.000000	63.301420 
1158.000000	63.312149 
1157.000000	63.318562 
1156.000000	63.320827 
1155.000000	63.320088 
1154.000000	63.318228 
1153.000000	63.317370 
1152.000000	63.319492 
1151.000000	63.325977 
1150.000000	63.337016 
1149.000000	63.351821 
1148.000000	63.368630 
1147.000000	63.385200 
1146.000000	63.399386 
1145.000000	63.409233 
1144.000000	63.413858 
1143.000000	63.413095 
1142.000000	63.407588 
1141.000000	63.398385 
1140.000000	63.386607 
1139.000000	63.373327 
1138.000000	63.359451 
1137.000000	63.345432 
1136.000000	63.331723 
1135.000000	63.318467 
1134.000000	63.305735 
1133.000000	63.293719 
1132.000000	63.282418 
1131.000000	63.272047 
1130.000000	63.263154 
1129.000000	63.256573 
1128.000000	63.253188 
1127.000000	63.254117 
1126.000000	63.260364 
1125.000000	63.272500 
1124.000000	63.290357 
1123.000000	63.313055 
1122.000000	63.338875 
1121.000000	63.365626 
1120.000000	63.390827 
1119.000000	63.412046 
1118.000000	63.427352 
1117.000000	63.435769 
1116.000000	63.437247 
1115.000000	63.432502 
1114.000000	63.422918 
1113.000000	63.410115 
1112.000000	63.395547 
1111.000000	63.380575 
1110.000000	63.366007 
1109.000000	63.352513 
1108.000000	63.340258 
1107.000000	63.329172 
1106.000000	63.319015 
1105.000000	63.309717 
1104.000000	63.301181 
1103.000000	63.293266 
1102.000000	63.285994 
1101.000000	63.279223 
1100.000000	63.272643 
1099.000000	63.265705 
1098.000000	63.257670 
1097.000000	63.247776 
1096.000000	63.235735 
1095.000000	63.221812 
1094.000000	63.207077 
1093.000000	63.193225 
1092.000000	63.182520 
1091.000000	63.176941 
1090.000000	63.177847 
1089.000000	63.185405 
1088.000000	63.198423 
1087.000000	63.214588 
1086.000000	63.230776 
1085.000000	63.243842 
1084.000000	63.251352 
1083.000000	63.252377 
1082.000000	63.247585 
1081.000000	63.239359 
1080.000000	63.230991 
1079.000000	63.225984 
1078.000000	63.227272 
1077.000000	63.236308 
1076.000000	63.252878 
1075.000000	63.274931 
1074.000000	63.299274 
1073.000000	63.322019 
1072.000000	63.339710 
1071.000000	63.349866 
1070.000000	63.351440 
1069.000000	63.345003 
1068.000000	63.332557 
1067.000000	63.316917 
1066.000000	63.300943 
1065.000000	63.286948 
1064.000000	63.276243 
1063.000000	63.269138 
1062.000000	63.265132 
1061.000000	63.263106 
1060.000000	63.261985 
1059.000000	63.261055 
1058.000000	63.260221 
1057.000000	63.260054 
1056.000000	63.261580 
1055.000000	63.265538 
1054.000000	63.272309 
1053.000000	63.281393 
1052.000000	63.291597 
1051.000000	63.301038 
1050.000000	63.307595 
1049.000000	63.309621 
1048.000000	63.306164 
1047.000000	63.297343 
1046.000000	63.284039 
1045.000000	63.267779 
1044.000000	63.250255 
1043.000000	63.232707 
1042.000000	63.216304 
1041.000000	63.201856 
1040.000000	63.190078 
1039.000000	63.181853 
1038.000000	63.178205 
1037.000000	63.180112 
1036.000000	63.188409 
1035.000000	63.203215 
1034.000000	63.223481 
1033.000000	63.246583 
1032.000000	63.268852 
1031.000000	63.285779 
1030.000000	63.293170 
1029.000000	63.287830 
1028.000000	63.268375 
1027.000000	63.235688 
1026.000000	63.193249 
1025.000000	63.145995 
1024.000000	63.099789 
1023.000000	63.059639 
1022.000000	63.029193 
1021.000000	63.009524 
1020.000000	62.999343 
1019.000000	62.995672 
1018.000000	62.994670 
1017.000000	62.993168 
1016.000000	62.989282 
1015.000000	62.983345 
1014.000000	62.977623 
1013.000000	62.975811 
1012.000000	62.981963 
1011.000000	62.999463 
1010.000000	63.029599 
1009.000000	63.071537 
1008.000000	63.121771 
1007.000000	63.175010 
1006.000000	63.224720 
1005.000000	63.264584 
1004.000000	63.289427 
1003.000000	63.296318 
1002.000000	63.284945 
1001.000000	63.257551 
1000.000000	63.218450 
999.000000	 63.173341 
998.000000	 63.127899 
997.000000	 63.087368 
996.000000	 63.055276 
995.000000	 63.033318 
994.000000	 63.021063 
993.000000	 63.016939 
992.000000	 63.018822 
991.000000	 63.024520 
990.000000	 63.033080 
989.000000	 63.044476 
988.000000	 63.060021 
987.000000	 63.081431 
986.000000	 63.110280 
985.000000	 63.146853 
984.000000	 63.190007 
983.000000	 63.236618 
982.000000	 63.282084 
981.000000	 63.320899 
980.000000	 63.347792 
979.000000	 63.358569 
978.000000	 63.351202 
977.000000	 63.326406 
976.000000	 63.287472 
975.000000	 63.240003 
974.000000	 63.190770 
973.000000	 63.146615 
972.000000	 63.113546 
971.000000	 63.095521 
970.000000	 63.094186 
969.000000	 63.108372 
968.000000	 63.134860 
967.000000	 63.168954 
966.000000	 63.205289 
965.000000	 63.239026 
964.000000	 63.266396 
963.000000	 63.285326 
962.000000	 63.295364 
961.000000	 63.297247 
960.000000	 63.292741 
959.000000	 63.283753 
958.000000	 63.272047 
957.000000	 63.258957 
956.000000	 63.245320 
955.000000	 63.231682 
954.000000	 63.218426 
953.000000	 63.206076 
952.000000	 63.195204 
951.000000	 63.186407 
950.000000	 63.180375 
949.000000	 63.177585 
948.000000	 63.178300 
947.000000	 63.182282 
946.000000	 63.188695 
945.000000	 63.196015 
944.000000	 63.202428 
943.000000	 63.205909 
942.000000	 63.204669 
941.000000	 63.197541 
940.000000	 63.184189 
939.000000	 63.165307 
938.000000	 63.142728 
937.000000	 63.119149 
936.000000	 63.097524 
935.000000	 63.080525 
934.000000	 63.070249 
933.000000	 63.067746 
932.000000	 63.072705 
931.000000	 63.083505 
930.000000	 63.097834 
929.000000	 63.113212 
928.000000	 63.127279 
927.000000	 63.138628 
926.000000	 63.146615 
925.000000	 63.151741 
924.000000	 63.155388 
923.000000	 63.159465 
922.000000	 63.165974 
921.000000	 63.176417 
920.000000	 63.191890 
919.000000	 63.211965 
918.000000	 63.235068 
917.000000	 63.258099 
916.000000	 63.277530 
915.000000	 63.289642 
914.000000	 63.291811 
913.000000	 63.282775 
912.000000	 63.263368 
911.000000	 63.235998 
910.000000	 63.204455 
909.000000	 63.172936 
908.000000	 63.145112 
907.000000	 63.123273 
906.000000	 63.107967 
905.000000	 63.098096 
904.000000	 63.091754 
903.000000	 63.086771 
902.000000	 63.081669 
901.000000	 63.076019 
900.000000	 63.070726 
899.000000	 63.067603 
898.000000	 63.069033 
897.000000	 63.076663 
896.000000	 63.091325 
895.000000	 63.113045 
894.000000	 63.140678 
893.000000	 63.172531 
892.000000	 63.206028 
891.000000	 63.238716 
890.000000	 63.267636 
889.000000	 63.290119 
888.000000	 63.303589 
887.000000	 63.305783 
886.000000	 63.295388 
885.000000	 63.272213 
884.000000	 63.238072 
883.000000	 63.196730 
882.000000	 63.153529 
881.000000	 63.114523 
880.000000	 63.085436 
879.000000	 63.070464 
878.000000	 63.071274 
877.000000	 63.086557 
876.000000	 63.112545 
875.000000	 63.143682 
874.000000	 63.174080 
873.000000	 63.198590 
872.000000	 63.213467 
871.000000	 63.217020 
870.000000	 63.209080 
869.000000	 63.191175 
868.000000	 63.165640 
867.000000	 63.135504 
866.000000	 63.103961 
865.000000	 63.074231 
864.000000	 63.049817 
863.000000	 63.033628 
862.000000	 63.028120 
861.000000	 63.034129 
860.000000	 63.050746 
859.000000	 63.074803 
858.000000	 63.101315 
857.000000	 63.124585 
856.000000	 63.138914 
855.000000	 63.140392 
854.000000	 63.127851 
853.000000	 63.102960 
852.000000	 63.069701 
851.000000	 63.033628 
850.000000	 63.000464 
849.000000	 62.974977 
848.000000	 62.960076 
847.000000	 62.956523 
846.000000	 62.963008 
845.000000	 62.976956 
844.000000	 62.995195 
843.000000	 63.014554 
842.000000	 63.032341 
841.000000	 63.046526 
840.000000	 63.055992 
839.000000	 63.059782 
838.000000	 63.057851 
837.000000	 63.050198 
836.000000	 63.038134 
835.000000	 63.023495 
834.000000	 63.009524 
833.000000	 62.999868 
832.000000	 62.998580 
831.000000	 63.009262 
830.000000	 63.034296 
829.000000	 63.074231 
828.000000	 63.127088 
827.000000	 63.188719 
826.000000	 63.252711 
825.000000	 63.311648 
824.000000	 63.357877 
823.000000	 63.384985 
822.000000	 63.388490 
821.000000	 63.366961 
820.000000	 63.322019 
819.000000	 63.258528 
818.000000	 63.183617 
817.000000	 63.105726 
816.000000	 63.033580 
815.000000	 62.974596 
814.000000	 62.934064 
813.000000	 62.914514 
812.000000	 62.915444 
811.000000	 62.933731 
810.000000	 62.964391 
809.000000	 63.001537 
808.000000	 63.039112 
807.000000	 63.072133 
806.000000	 63.097190 
805.000000	 63.112568 
804.000000	 63.117694 
803.000000	 63.113403 
802.000000	 63.101196 
801.000000	 63.083028 
800.000000	 63.060951 
799.000000	 63.037419 
798.000000	 63.015007 
797.000000	 62.996363 
796.000000	 62.983703 
795.000000	 62.978267 
794.000000	 62.980008 
793.000000	 62.986969 
792.000000	 62.995719 
791.000000	 63.002133 
790.000000	 63.002538 
789.000000	 62.994790 
788.000000	 62.979483 
787.000000	 62.959647 
786.000000	 62.940549 
785.000000	 62.928605 
784.000000	 62.929177 
783.000000	 62.944889 
782.000000	 62.974381 
781.000000	 63.012599 
780.000000	 63.051295 
779.000000	 63.081216 
778.000000	 63.094019 
777.000000	 63.084578 
776.000000	 63.052201 
775.000000	 63.001012 
774.000000	 62.938785 
773.000000	 62.874937 
772.000000	 62.818527 
771.000000	 62.776160 
770.000000	 62.750864 
769.000000	 62.741947 
768.000000	 62.745428 
767.000000	 62.755823 
766.000000	 62.767696 
765.000000	 62.777233 
764.000000	 62.782621 
763.000000	 62.784504 
762.000000	 62.784767 
761.000000	 62.786078 
760.000000	 62.790751 
759.000000	 62.799978 
758.000000	 62.813568 
757.000000	 62.829923 
756.000000	 62.846922 
755.000000	 62.861871 
754.000000	 62.872767 
753.000000	 62.877869 
752.000000	 62.876272 
751.000000	 62.867617 
750.000000	 62.852096 
749.000000	 62.830471 
748.000000	 62.803959 
747.000000	 62.774372 
746.000000	 62.743902 
745.000000	 62.715291 
744.000000	 62.691378 
743.000000	 62.674975 
742.000000	 62.668275 
741.000000	 62.672472 
740.000000	 62.687492 
739.000000	 62.711882 
738.000000	 62.742924 
737.000000	 62.777161 
736.000000	 62.810564 
735.000000	 62.839221 
734.000000	 62.859773 
733.000000	 62.869811 
732.000000	 62.868452 
731.000000	 62.856245 
730.000000	 62.835192 
729.000000	 62.808561 
728.000000	 62.780165 
727.000000	 62.754154 
726.000000	 62.733650 
725.000000	 62.720465 
724.000000	 62.714505 
723.000000	 62.714195 
722.000000	 62.716865 
721.000000	 62.719511 
720.000000	 62.719798 
719.000000	 62.716507 
718.000000	 62.709665 
717.000000	 62.700319 
716.000000	 62.689685 
715.000000	 62.678599 
714.000000	 62.666749 
713.000000	 62.652659 
712.000000	 62.634229 
711.000000	 62.609648 
710.000000	 62.578368 
709.000000	 62.541675 
708.000000	 62.503027 
707.000000	 62.467765 
706.000000	 62.441635 
705.000000	 62.429666 
704.000000	 62.434220 
703.000000	 62.454962 
702.000000	 62.489223 
701.000000	 62.532663 
700.000000	 62.580108 
699.000000	 62.627100 
698.000000	 62.670922 
697.000000	 62.710571 
696.000000	 62.746286 
695.000000	 62.778854 
694.000000	 62.808513 
693.000000	 62.834715 
692.000000	 62.855958 
691.000000	 62.869882 
690.000000	 62.874245 
689.000000	 62.868118 
688.000000	 62.852835 
687.000000	 62.832522 
686.000000	 62.813377 
685.000000	 62.802577 
684.000000	 62.805938 
683.000000	 62.826704 
682.000000	 62.863802 
681.000000	 62.911891 
680.000000	 62.961888 
679.000000	 63.003563 
678.000000	 63.026666 
677.000000	 63.024353 
676.000000	 62.993073 
675.000000	 62.933444 
674.000000	 62.849473 
673.000000	 62.747073 
672.000000	 62.634086 
671.000000	 62.518787 
670.000000	 62.410140 
669.000000	 62.316083 
668.000000	 62.244582 
667.000000	 62.202787 
666.000000	 62.195849 
665.000000	 62.225794 
664.000000	 62.289881 
663.000000	 62.380123 
662.000000	 62.483668 
661.000000	 62.584733 
660.000000	 62.666487 
659.000000	 62.714385 
658.000000	 62.719058 
657.000000	 62.678241 
656.000000	 62.597346 
655.000000	 62.488198 
654.000000	 62.366676 
653.000000	 62.249207 
652.000000	 62.150311 
651.000000	 62.078976 
650.000000	 62.038969 
649.000000	 62.026858 
648.000000	 62.034440 
647.000000	 62.049531 
646.000000	 62.059259 
645.000000	 62.052536 
644.000000	 62.021017 
643.000000	 61.962723 
642.000000	 61.880540 
641.000000	 61.784291 
640.000000	 61.687135 
639.000000	 61.605882 
638.000000	 61.556982 
637.000000	 61.554384 
636.000000	 61.606359 
635.000000	 61.713433 
634.000000	 61.867618 
633.000000	 62.052226 
632.000000	 62.244415 
631.000000	 62.418746 
630.000000	 62.551975 
629.000000	 62.627530 
628.000000	 62.639069 
627.000000	 62.591028 
626.000000	 62.497854 
625.000000	 62.380552 
624.000000	 62.262082 
623.000000	 62.163305 
622.000000	 62.098479 
621.000000	 62.073445 
620.000000	 62.085747 
619.000000	 62.128210 
618.000000	 62.190723 
617.000000	 62.264037 
616.000000	 62.341094 
615.000000	 62.417817 
614.000000	 62.491989 
613.000000	 62.561345 
612.000000	 62.623119 
611.000000	 62.672591 
610.000000	 62.705588 
609.000000	 62.719368 
608.000000	 62.715339 
607.000000	 62.699198 
606.000000	 62.679243 
605.000000	 62.664222 
604.000000	 62.660336 
603.000000	 62.669277 
602.000000	 62.686872 
601.000000	 62.704443 
600.000000	 62.711286 
599.000000	 62.698602 
598.000000	 62.663483 
597.000000	 62.609958 
596.000000	 62.548637 
595.000000	 62.493467 
594.000000	 62.458014 
593.000000	 62.451243 
592.000000	 62.473559 
591.000000	 62.517738 
590.000000	 62.571120 
589.000000	 62.619209 
588.000000	 62.649703 
587.000000	 62.656044 
586.000000	 62.638664 
585.000000	 62.604737 
584.000000	 62.565350 
583.000000	 62.533140 
582.000000	 62.518358 
581.000000	 62.527751 
580.000000	 62.563037 
579.000000	 62.621951 
578.000000	 62.699270 
577.000000	 62.788581 
576.000000	 62.883567 
575.000000	 62.979722 
574.000000	 63.073611 
573.000000	 63.163089 
572.000000	 63.244724 
571.000000	 63.314294 
570.000000	 63.363933 
569.000000	 63.385963 
568.000000	 63.370084 
567.000000	 63.306617 
566.000000	 63.187551 
565.000000	 63.009643 
564.000000	 62.777781 
563.000000	 62.505698 
562.000000	 62.217330 
561.000000	 61.942625 
560.000000	 61.714935 
559.000000	 61.564683 
558.000000	 61.513924 
557.000000	 61.571097 
556.000000	 61.729431 
555.000000	 61.967301 
554.000000	 62.250900 
553.000000	 62.540102 
552.000000	 62.794089 
551.000000	 62.979054 
550.000000	 63.072252 
549.000000	 63.067150 
548.000000	 62.973713 
547.000000	 62.817001 
546.000000	 62.632298 
545.000000	 62.457799 
544.000000	 62.329316 
543.000000	 62.270426 
542.000000	 62.292027 
541.000000	 62.386035 
540.000000	 62.530088 
539.000000	 62.690281 
538.000000	 62.829780 
537.000000	 62.916636 
536.000000	 62.930178 
535.000000	 62.866449 
534.000000	 62.737059 
533.000000	 62.567615 
532.000000	 62.390184 
531.000000	 62.236738 
530.000000	 62.131905 
529.000000	 62.088036 
528.000000	 62.103819 
527.000000	 62.166643 
526.000000	 62.257194 
525.000000	 62.353610 
524.000000	 62.437152 
523.000000	 62.494492 
522.000000	 62.520360 
521.000000	 62.517094 
520.000000	 62.493681 
519.000000	 62.460947 
518.000000	 62.430381 
517.000000	 62.412095 
516.000000	 62.412929 
515.000000	 62.437915 
514.000000	 62.487363 
513.000000	 62.558627 
512.000000	 62.643814 
511.000000	 62.733459 
510.000000	 62.814354 
509.000000	 62.872195 
508.000000	 62.893390 
507.000000	 62.867259 
506.000000	 62.789940 
505.000000	 62.665748 
504.000000	 62.508058 
503.000000	 62.336850 
502.000000	 62.176513 
501.000000	 62.051010 
500.000000	 61.979079 
499.000000	 61.970639 
498.000000	 62.023425 
497.000000	 62.123942 
496.000000	 62.250304 
495.000000	 62.377834 
494.000000	 62.484478 
493.000000	 62.556409 
492.000000	 62.589335 
491.000000	 62.589669 
490.000000	 62.570977 
489.000000	 62.550354 
488.000000	 62.542891 
487.000000	 62.557482 
486.000000	 62.596035 
485.000000	 62.652063 
484.000000	 62.715101 
483.000000	 62.771439 
482.000000	 62.809705 
481.000000	 62.821316 
480.000000	 62.803411 
479.000000	 62.757182 
478.000000	 62.686586 
477.000000	 62.597656 
476.000000	 62.496829 
475.000000	 62.391042 
474.000000	 62.287068 
473.000000	 62.192344 
472.000000	 62.114524 
471.000000	 62.060022 
470.000000	 62.033081 
469.000000	 62.034630 
468.000000	 62.062382 
467.000000	 62.110161 
466.000000	 62.169885 
465.000000	 62.232422 
464.000000	 62.289667 
463.000000	 62.336277 
462.000000	 62.369608 
461.000000	 62.387871 
460.000000	 62.390804 
459.000000	 62.379026 
458.000000	 62.354493 
457.000000	 62.319064 
456.000000	 62.277221 
455.000000	 62.235641 
454.000000	 62.203621 
453.000000	 62.191605 
452.000000	 62.209200 
451.000000	 62.263727 
450.000000	 62.355566 
449.000000	 62.476825 
448.000000	 62.612843 
447.000000	 62.744903 
446.000000	 62.854456 
445.000000	 62.927460 
444.000000	 62.958288 
443.000000	 62.950563 
442.000000	 62.917923 
441.000000	 62.878799 
440.000000	 62.850880 
439.000000	 62.844395 
438.000000	 62.859368 
437.000000	 62.883853 
436.000000	 62.898874 
435.000000	 62.882590 
434.000000	 62.816548 
433.000000	 62.692356 
432.000000	 62.516927 
431.000000	 62.309527 
430.000000	 62.098622 
429.000000	 61.912131 
428.000000	 61.771249 
427.000000	 61.681699 
426.000000	 61.633491 
425.000000	 61.601543 
424.000000	 61.553287 
423.000000	 61.458492 
422.000000	 61.298179 
421.000000	 61.072683 
420.000000	 60.802340 
419.000000	 60.525846 
418.000000	 60.290312 
417.000000	 60.142016 
416.000000	 60.113286 
415.000000	 60.215830 
414.000000	 60.433459 
413.000000	 60.728073 
412.000000	 61.043787 
411.000000	 61.307024 
410.000000	 61.447620 
409.000000	 61.425447 
408.000000	 61.233377 
407.000000	 60.890913 
406.000000	 60.444545 
405.000000	 59.952354 
404.000000	 59.477019 
403.000000	 59.073948 
402.000000	 58.783054 
401.000000	 58.627200 
400.000000	 58.606290 
399.000000	 58.702373 
398.000000	 58.881568 
397.000000	 59.102034 
396.000000	 59.321784 
395.000000	 59.504032 
394.000000	 59.629058 
393.000000	 59.689426 
392.000000	 59.719491 
391.000000	 59.781312 
390.000000	 59.935235 
389.000000	 60.200786 
388.000000	 60.561847 
387.000000	 60.934996 
386.000000	 61.125397 
385.000000	 60.871720 
384.000000	 59.949994 
383.000000	 58.233118 
382.000000	 55.668616 
381.000000	 52.382493 
380.000000	 48.728275 
379.000000	 45.197343 
378.000000	 42.317128 
377.000000	 40.515899 
376.000000	 40.019321 
375.000000	 40.776610 
374.000000	 42.493295 
373.000000	 44.669008 
372.000000	 46.640443 
371.000000	 47.886657 
370.000000	 48.146009 

