PE IR       SPECTRUM    SPECTRUM    ASCII       PEDS        1.60        
  -1
BZ6C24~1.ASC
17/04/07
16:47:28.00
17/04/07
16:47:28.00
tln
$BZ1503107-1_t0044$<tbV0>[-13.0,-5.2,8.0,0.0,27,1,0]
370.000000
64









2002,4.07    
MIRTGS : RIGHTBACK : INTERNAL 2
MIR : ON : INTERNAL 2
OPTKBR

0.200000
8
8.000000
FILLER
RATIO
SPECTRUM
UNLOCKED 256

DOUBLE
64
COMBINED
1
0
0


1.000000
RATIO


1
0
TRUE
51149
0
LEFT NOT FITTED RIGHT NOT FITTED 0
NONE
NONE
15600
12.000000
4.427000
51148
TRUE
1 0 8 72 0 0 0 0 

15798.010000






#HDR
-1
-1
#GR
CM-1
%T
0.00002384185791015625
0.0
5000.000000
-1.000000
4631
8
71.033287
40.392160
#DATA
5000.000000	65.115165 
4999.000000	65.035414 
4998.000000	64.945197 
4997.000000	64.852237 
4996.000000	64.760065 
4995.000000	64.669919 
4994.000000	64.581513 
4993.000000	64.496016 
4992.000000	64.416718 
4991.000000	64.350104 
4990.000000	64.303469 
4989.000000	64.282798 
4988.000000	64.290618 
4987.000000	64.324164 
4986.000000	64.375662 
4985.000000	64.433217 
4984.000000	64.483952 
4983.000000	64.516735 
4982.000000	64.524841 
4981.000000	64.507126 
4980.000000	64.467620 
4979.000000	64.414024 
4978.000000	64.355635 
4977.000000	64.300727 
4976.000000	64.254140 
4975.000000	64.216494 
4974.000000	64.185380 
4973.000000	64.156413 
4972.000000	64.125347 
4971.000000	64.089703 
4970.000000	64.049553 
4969.000000	64.008045 
4968.000000	63.969850 
4967.000000	63.940668 
4966.000000	63.924837 
4965.000000	63.924908 
4964.000000	63.940262 
4963.000000	63.967871 
4962.000000	64.002895 
4961.000000	64.039325 
4960.000000	64.070868 
4959.000000	64.092397 
4958.000000	64.100885 
4957.000000	64.095807 
4956.000000	64.079332 
4955.000000	64.056324 
4954.000000	64.033627 
4953.000000	64.019203 
4952.000000	64.020538 
4951.000000	64.043498 
4950.000000	64.090991 
4949.000000	64.163064 
4948.000000	64.256119 
4947.000000	64.363384 
4946.000000	64.475369 
4945.000000	64.581537 
4944.000000	64.671301 
4943.000000	64.736080 
4942.000000	64.770030 
4941.000000	64.770579 
4940.000000	64.739418 
4939.000000	64.682173 
4938.000000	64.607954 
4937.000000	64.527916 
4936.000000	64.453768 
4935.000000	64.396429 
4934.000000	64.363884 
4933.000000	64.359974 
4932.000000	64.384245 
4931.000000	64.432382 
4930.000000	64.497780 
4929.000000	64.572525 
4928.000000	64.648938 
4927.000000	64.719891 
4926.000000	64.778828 
4925.000000	64.819526 
4924.000000	64.835619 
4923.000000	64.821076 
4922.000000	64.770817 
4921.000000	64.682745 
4920.000000	64.559245 
4919.000000	64.408802 
4918.000000	64.246129 
4917.000000	64.090323 
4916.000000	63.962221 
4915.000000	63.879704 
4914.000000	63.854146 
4913.000000	63.887643 
4912.000000	63.971424 
4911.000000	64.089274 
4910.000000	64.220285 
4909.000000	64.344835 
4908.000000	64.447927 
4907.000000	64.522671 
4906.000000	64.569926 
4905.000000	64.596939 
4904.000000	64.613747 
4903.000000	64.629817 
4902.000000	64.650750 
4901.000000	64.677309 
4900.000000	64.705538 
4899.000000	64.729356 
4898.000000	64.742684 
4897.000000	64.742398 
4896.000000	64.729213 
4895.000000	64.707827 
4894.000000	64.685702 
4893.000000	64.670133 
4892.000000	64.667201 
4891.000000	64.679837 
4890.000000	64.707660 
4889.000000	64.747834 
4888.000000	64.795875 
4887.000000	64.846777 
4886.000000	64.896559 
4885.000000	64.943051 
4884.000000	64.986038 
4883.000000	65.026855 
4882.000000	65.067267 
4881.000000	65.108633 
4880.000000	65.150094 
4879.000000	65.188670 
4878.000000	65.218806 
4877.000000	65.233755 
4876.000000	65.227079 
4875.000000	65.194725 
4874.000000	65.136265 
4873.000000	65.055513 
4872.000000	64.960098 
4871.000000	64.860177 
4870.000000	64.766430 
4869.000000	64.688110 
4868.000000	64.631533 
4867.000000	64.599418 
4866.000000	64.590430 
4865.000000	64.600539 
4864.000000	64.624357 
4863.000000	64.656591 
4862.000000	64.692616 
4861.000000	64.728879 
4860.000000	64.762020 
4859.000000	64.789390 
4858.000000	64.807558 
4857.000000	64.813876 
4856.000000	64.806509 
4855.000000	64.785766 
4854.000000	64.754176 
4853.000000	64.717268 
4852.000000	64.682888 
4851.000000	64.659476 
4850.000000	64.654064 
4849.000000	64.670896 
4848.000000	64.710116 
4847.000000	64.767289 
4846.000000	64.834237 
4845.000000	64.900445 
4844.000000	64.955496 
4843.000000	64.991211 
4842.000000	65.003299 
4841.000000	64.991569 
4840.000000	64.960122 
4839.000000	64.916205 
4838.000000	64.868664 
4837.000000	64.825868 
4836.000000	64.794206 
4835.000000	64.777946 
4834.000000	64.778041 
4833.000000	64.792633 
4832.000000	64.817261 
4831.000000	64.846467 
4830.000000	64.874124 
4829.000000	64.895033 
4828.000000	64.904928 
4827.000000	64.900779 
4826.000000	64.881062 
4825.000000	64.845657 
4824.000000	64.795923 
4823.000000	64.734649 
4822.000000	64.666008 
4821.000000	64.595198 
4820.000000	64.528584 
4819.000000	64.472913 
4818.000000	64.434480 
4817.000000	64.418244 
4816.000000	64.426207 
4815.000000	64.457488 
4814.000000	64.508080 
4813.000000	64.572024 
4812.000000	64.641380 
4811.000000	64.708948 
4810.000000	64.769363 
4809.000000	64.820098 
4808.000000	64.861822 
4807.000000	64.896702 
4806.000000	64.927458 
4805.000000	64.955043 
4804.000000	64.978885 
4803.000000	64.995384 
4802.000000	64.999318 
4801.000000	64.985346 
4800.000000	64.950537 
4799.000000	64.896011 
4798.000000	64.827942 
4797.000000	64.756751 
4796.000000	64.695143 
4795.000000	64.654898 
4794.000000	64.643764 
4793.000000	64.663171 
4792.000000	64.707422 
4791.000000	64.764642 
4790.000000	64.819407 
4789.000000	64.856314 
4788.000000	64.863967 
4787.000000	64.836835 
4786.000000	64.777302 
4785.000000	64.694309 
4784.000000	64.602136 
4783.000000	64.516687 
4782.000000	64.452672 
4781.000000	64.420509 
4780.000000	64.424610 
4779.000000	64.463424 
4778.000000	64.529371 
4777.000000	64.611291 
4776.000000	64.696240 
4775.000000	64.772057 
4774.000000	64.829564 
4773.000000	64.863371 
4772.000000	64.873242 
4771.000000	64.862990 
4770.000000	64.839887 
4769.000000	64.812469 
4768.000000	64.788746 
4767.000000	64.774298 
4766.000000	64.771389 
4765.000000	64.779114 
4764.000000	64.793753 
4763.000000	64.810633 
4762.000000	64.825606 
4761.000000	64.836478 
4760.000000	64.843583 
4759.000000	64.849495 
4758.000000	64.857625 
4757.000000	64.871335 
4756.000000	64.892816 
4755.000000	64.921998 
4754.000000	64.956283 
4753.000000	64.991593 
4752.000000	65.023183 
4751.000000	65.047144 
4750.000000	65.061974 
4749.000000	65.068554 
4748.000000	65.069723 
4747.000000	65.069389 
4746.000000	65.071439 
4745.000000	65.078163 
4744.000000	65.089845 
4743.000000	65.104413 
4742.000000	65.118265 
4741.000000	65.127158 
4740.000000	65.127491 
4739.000000	65.117549 
4738.000000	65.098190 
4737.000000	65.072512 
4736.000000	65.045142 
4735.000000	65.020918 
4734.000000	65.003204 
4733.000000	64.993023 
4732.000000	64.988446 
4731.000000	64.984679 
4730.000000	64.975786 
4729.000000	64.957094 
4728.000000	64.926552 
4727.000000	64.885282 
4726.000000	64.837908 
4725.000000	64.791297 
4724.000000	64.753222 
4723.000000	64.729595 
4722.000000	64.724302 
4721.000000	64.737963 
4720.000000	64.768815 
4719.000000	64.812779 
4718.000000	64.865779 
4717.000000	64.924550 
4716.000000	64.987349 
4715.000000	65.053534 
4714.000000	65.123295 
4713.000000	65.196251 
4712.000000	65.270781 
4711.000000	65.342926 
4710.000000	65.406942 
4709.000000	65.455293 
4708.000000	65.480828 
4707.000000	65.477156 
4706.000000	65.440392 
4705.000000	65.369772 
4704.000000	65.268468 
4703.000000	65.143370 
4702.000000	65.004253 
4701.000000	64.862895 
4700.000000	64.731502 
4699.000000	64.620685 
4698.000000	64.538311 
4697.000000	64.488077 
4696.000000	64.469170 
4695.000000	64.476895 
4694.000000	64.503383 
4693.000000	64.539718 
4692.000000	64.577150 
4691.000000	64.609146 
4690.000000	64.631795 
4689.000000	64.644622 
4688.000000	64.649510 
4687.000000	64.649820 
4686.000000	64.648842 
4685.000000	64.649033 
4684.000000	64.651203 
4683.000000	64.654707 
4682.000000	64.657473 
4681.000000	64.657402 
4680.000000	64.652466 
4679.000000	64.641427 
4678.000000	64.623999 
4677.000000	64.600896 
4676.000000	64.573693 
4675.000000	64.544224 
4674.000000	64.514660 
4673.000000	64.487409 
4672.000000	64.464569 
4671.000000	64.447426 
4670.000000	64.436483 
4669.000000	64.431500 
4668.000000	64.431595 
4667.000000	64.434671 
4666.000000	64.439225 
4665.000000	64.443755 
4664.000000	64.448857 
4663.000000	64.456582 
4662.000000	64.470791 
4661.000000	64.495778 
4660.000000	64.535498 
4659.000000	64.592289 
4658.000000	64.665365 
4657.000000	64.750504 
4656.000000	64.840960 
4655.000000	64.928579 
4654.000000	65.005517 
4653.000000	65.065979 
4652.000000	65.107393 
4651.000000	65.130472 
4650.000000	65.139222 
4649.000000	65.139055 
4648.000000	65.135669 
4647.000000	65.132880 
4646.000000	65.132761 
4645.000000	65.134406 
4644.000000	65.135526 
4643.000000	65.132236 
4642.000000	65.121579 
4641.000000	65.101218 
4640.000000	65.070724 
4639.000000	65.031099 
4638.000000	64.984464 
4637.000000	64.933562 
4636.000000	64.881229 
4635.000000	64.829921 
4634.000000	64.781212 
4633.000000	64.735960 
4632.000000	64.694786 
4631.000000	64.657402 
4630.000000	64.623355 
4629.000000	64.592432 
4628.000000	64.564943 
4627.000000	64.541506 
4626.000000	64.523410 
4625.000000	64.512300 
4624.000000	64.509963 
4623.000000	64.517664 
4622.000000	64.535570 
4621.000000	64.562559 
4620.000000	64.595675 
4619.000000	64.630508 
4618.000000	64.661669 
4617.000000	64.683699 
4616.000000	64.692330 
4615.000000	64.685511 
4614.000000	64.663624 
4613.000000	64.629554 
4612.000000	64.587903 
4611.000000	64.544224 
4610.000000	64.503240 
4609.000000	64.467930 
4608.000000	64.438724 
4607.000000	64.414024 
4606.000000	64.390420 
4605.000000	64.364194 
4604.000000	64.332556 
4603.000000	64.295411 
4602.000000	64.255499 
4601.000000	64.218521 
4600.000000	64.191675 
4599.000000	64.182233 
4598.000000	64.195322 
4597.000000	64.232540 
4596.000000	64.291214 
4595.000000	64.364624 
4594.000000	64.443182 
4593.000000	64.516544 
4592.000000	64.575576 
4591.000000	64.614224 
4590.000000	64.630341 
4589.000000	64.626264 
4588.000000	64.607238 
4587.000000	64.580607 
4586.000000	64.553952 
4585.000000	64.533448 
4584.000000	64.523339 
4583.000000	64.524841 
4582.000000	64.536809 
4581.000000	64.555931 
4580.000000	64.578199 
4579.000000	64.598751 
4578.000000	64.612817 
4577.000000	64.616298 
4576.000000	64.606547 
4575.000000	64.582443 
4574.000000	64.544701 
4573.000000	64.496302 
4572.000000	64.441895 
4571.000000	64.387321 
4570.000000	64.338278 
4569.000000	64.299488 
4568.000000	64.273595 
4567.000000	64.261126 
4566.000000	64.260149 
4565.000000	64.266729 
4564.000000	64.276123 
4563.000000	64.283514 
4562.000000	64.285755 
4561.000000	64.281296 
4560.000000	64.271330 
4559.000000	64.258909 
4558.000000	64.248657 
4557.000000	64.244890 
4556.000000	64.250659 
4555.000000	64.266633 
4554.000000	64.290976 
4553.000000	64.320111 
4552.000000	64.349794 
4551.000000	64.376258 
4550.000000	64.397740 
4549.000000	64.414620 
4548.000000	64.429068 
4547.000000	64.443755 
4546.000000	64.460468 
4545.000000	64.478945 
4544.000000	64.496016 
4543.000000	64.506196 
4542.000000	64.503264 
4541.000000	64.482283 
4540.000000	64.441561 
4539.000000	64.384007 
4538.000000	64.317107 
4537.000000	64.251923 
4536.000000	64.200639 
4535.000000	64.173746 
4534.000000	64.177322 
4533.000000	64.211821 
4532.000000	64.272022 
4531.000000	64.348459 
4530.000000	64.429306 
4529.000000	64.503598 
4528.000000	64.563632 
4527.000000	64.606261 
4526.000000	64.632415 
4525.000000	64.646530 
4524.000000	64.654588 
4523.000000	64.662289 
4522.000000	64.673304 
4521.000000	64.689087 
4520.000000	64.708638 
4519.000000	64.730024 
4518.000000	64.750480 
4517.000000	64.767885 
4516.000000	64.780330 
4515.000000	64.786839 
4514.000000	64.786529 
4513.000000	64.778423 
4512.000000	64.761066 
4511.000000	64.733242 
4510.000000	64.693880 
4509.000000	64.643025 
4508.000000	64.581823 
4507.000000	64.513325 
4506.000000	64.441251 
4505.000000	64.369821 
4504.000000	64.302635 
4503.000000	64.242053 
4502.000000	64.188838 
4501.000000	64.142417 
4500.000000	64.101243 
4499.000000	64.063501 
4498.000000	64.028310 
4497.000000	63.996028 
4496.000000	63.968110 
4495.000000	63.946819 
4494.000000	63.934683 
4493.000000	63.934016 
4492.000000	63.946008 
4491.000000	63.970470 
4490.000000	64.005470 
4489.000000	64.048051 
4488.000000	64.094543 
4487.000000	64.141345 
4486.000000	64.185285 
4485.000000	64.223957 
4484.000000	64.255619 
4483.000000	64.279508 
4482.000000	64.295458 
4481.000000	64.303874 
4480.000000	64.306163 
4479.000000	64.303231 
4478.000000	64.295077 
4477.000000	64.281439 
4476.000000	64.262247 
4475.000000	64.238166 
4474.000000	64.211034 
4473.000000	64.184427 
4472.000000	64.163851 
4471.000000	64.153218 
4470.000000	64.153671 
4469.000000	64.164519 
4468.000000	64.183712 
4467.000000	64.208674 
4466.000000	64.237070 
4465.000000	64.269709 
4464.000000	64.308738 
4463.000000	64.354085 
4462.000000	64.402985 
4461.000000	64.451241 
4460.000000	64.493155 
4459.000000	64.520096 
4458.000000	64.525699 
4457.000000	64.508461 
4456.000000	64.473176 
4455.000000	64.431929 
4454.000000	64.399528 
4453.000000	64.388346 
4452.000000	64.406085 
4451.000000	64.454436 
4450.000000	64.528179 
4449.000000	64.612698 
4448.000000	64.697718 
4447.000000	64.781332 
4446.000000	64.871931 
4445.000000	64.986538 
4444.000000	65.141916 
4443.000000	65.348601 
4442.000000	65.604639 
4441.000000	65.896534 
4440.000000	66.202950 
4439.000000	66.503977 
4438.000000	66.789031 
4437.000000	67.062520 
4436.000000	67.346215 
4435.000000	67.670154 
4434.000000	68.065023 
4433.000000	68.544387 
4432.000000	69.101834 
4431.000000	69.696450 
4430.000000	70.268344 
4429.000000	70.733547 
4428.000000	71.013069 
4427.000000	71.033287 
4426.000000	70.752739 
4425.000000	70.160341 
4424.000000	69.282460 
4423.000000	68.181681 
4422.000000	66.946291 
4421.000000	65.689492 
4420.000000	64.534306 
4419.000000	63.600945 
4418.000000	62.989211 
4417.000000	62.761902 
4416.000000	62.933611 
4415.000000	63.459944 
4414.000000	64.244532 
4413.000000	65.151429 
4412.000000	66.033482 
4411.000000	66.752767 
4410.000000	67.212533 
4409.000000	67.373633 
4408.000000	67.259049 
4407.000000	66.942524 
4406.000000	66.523861 
4405.000000	66.102766 
4404.000000	65.751194 
4403.000000	65.501904 
4402.000000	65.344095 
4401.000000	65.244364 
4400.000000	65.154385 
4399.000000	65.041828 
4398.000000	64.888978 
4397.000000	64.700341 
4396.000000	64.494299 
4395.000000	64.289665 
4394.000000	64.103984 
4393.000000	63.942694 
4392.000000	63.806438 
4391.000000	63.692378 
4390.000000	63.596653 
4389.000000	63.517117 
4388.000000	63.457846 
4387.000000	63.428378 
4386.000000	63.436865 
4385.000000	63.487744 
4384.000000	63.577723 
4383.000000	63.696455 
4382.000000	63.828802 
4381.000000	63.958501 
4380.000000	64.070057 
4379.000000	64.153289 
4378.000000	64.206743 
4377.000000	64.235949 
4376.000000	64.249277 
4375.000000	64.256548 
4374.000000	64.265179 
4373.000000	64.279532 
4372.000000	64.303565 
4371.000000	64.336228 
4370.000000	64.373207 
4369.000000	64.407348 
4368.000000	64.431929 
4367.000000	64.441084 
4366.000000	64.431476 
4365.000000	64.403700 
4364.000000	64.362359 
4363.000000	64.313936 
4362.000000	64.265227 
4361.000000	64.222550 
4360.000000	64.190721 
4359.000000	64.172577 
4358.000000	64.168787 
4357.000000	64.178538 
4356.000000	64.199471 
4355.000000	64.228343 
4354.000000	64.261198 
4353.000000	64.293122 
4352.000000	64.319491 
4351.000000	64.336585 
4350.000000	64.342546 
4349.000000	64.336800 
4348.000000	64.321351 
4347.000000	64.300227 
4346.000000	64.279127 
4345.000000	64.263772 
4344.000000	64.259386 
4343.000000	64.269495 
4342.000000	64.295482 
4341.000000	64.336442 
4340.000000	64.389228 
4339.000000	64.449119 
4338.000000	64.510512 
4337.000000	64.567971 
4336.000000	64.616107 
4335.000000	64.650225 
4334.000000	64.666867 
4333.000000	64.664030 
4332.000000	64.641284 
4331.000000	64.599943 
4330.000000	64.543485 
4329.000000	64.477062 
4328.000000	64.406776 
4327.000000	64.338827 
4326.000000	64.278912 
4325.000000	64.231157 
4324.000000	64.198112 
4323.000000	64.180469 
4322.000000	64.177131 
4321.000000	64.185762 
4320.000000	64.203238 
4319.000000	64.226341 
4318.000000	64.251470 
4317.000000	64.276146 
4316.000000	64.298033 
4315.000000	64.316487 
4314.000000	64.331316 
4313.000000	64.344215 
4312.000000	64.357995 
4311.000000	64.376521 
4310.000000	64.403629 
4309.000000	64.442586 
4308.000000	64.495110 
4307.000000	64.560413 
4306.000000	64.634776 
4305.000000	64.712142 
4304.000000	64.785003 
4303.000000	64.845728 
4302.000000	64.888119 
4301.000000	64.908504 
4300.000000	64.906716 
4299.000000	64.886283 
4298.000000	64.853429 
4297.000000	64.815878 
4296.000000	64.781498 
4295.000000	64.757108 
4294.000000	64.747309 
4293.000000	64.754128 
4292.000000	64.776659 
4291.000000	64.812421 
4290.000000	64.857125 
4289.000000	64.905786 
4288.000000	64.953041 
4287.000000	64.993715 
4286.000000	65.023136 
4285.000000	65.037465 
4284.000000	65.034008 
4283.000000	65.011501 
4282.000000	64.970684 
4281.000000	64.914488 
4280.000000	64.847731 
4279.000000	64.776635 
4278.000000	64.708185 
4277.000000	64.649319 
4276.000000	64.605545 
4275.000000	64.580059 
4274.000000	64.573478 
4273.000000	64.584040 
4272.000000	64.607644 
4271.000000	64.639496 
4270.000000	64.674544 
4269.000000	64.709043 
4268.000000	64.740252 
4267.000000	64.767265 
4266.000000	64.790105 
4265.000000	64.809918 
4264.000000	64.827799 
4263.000000	64.844918 
4262.000000	64.861941 
4261.000000	64.879202 
4260.000000	64.896869 
4259.000000	64.914393 
4258.000000	64.930891 
4257.000000	64.944529 
4256.000000	64.953017 
4255.000000	64.953613 
4254.000000	64.943742 
4253.000000	64.921712 
4252.000000	64.887619 
4251.000000	64.843940 
4250.000000	64.795708 
4249.000000	64.750075 
4248.000000	64.714837 
4247.000000	64.696741 
4246.000000	64.699721 
4245.000000	64.724111 
4244.000000	64.766049 
4243.000000	64.817714 
4242.000000	64.869475 
4241.000000	64.911842 
4240.000000	64.937615 
4239.000000	64.943242 
4238.000000	64.929771 
4237.000000	64.901900 
4236.000000	64.866995 
4235.000000	64.833092 
4234.000000	64.806962 
4233.000000	64.792656 
4232.000000	64.790916 
4231.000000	64.799690 
4230.000000	64.814758 
4229.000000	64.831519 
4228.000000	64.845776 
4227.000000	64.854955 
4226.000000	64.857959 
4225.000000	64.855217 
4224.000000	64.848113 
4223.000000	64.838552 
4222.000000	64.828419 
4221.000000	64.819574 
4220.000000	64.813470 
4219.000000	64.811706 
4218.000000	64.816188 
4217.000000	64.828848 
4216.000000	64.851212 
4215.000000	64.883852 
4214.000000	64.925956 
4213.000000	64.974904 
4212.000000	65.026426 
4211.000000	65.074968 
4210.000000	65.114569 
4209.000000	65.140223 
4208.000000	65.149259 
4207.000000	65.141510 
4206.000000	65.119671 
4205.000000	65.088224 
4204.000000	65.052676 
4203.000000	65.017938 
4202.000000	64.987540 
4201.000000	64.962768 
4200.000000	64.942812 
4199.000000	64.925813 
4198.000000	64.909720 
4197.000000	64.893794 
4196.000000	64.879179 
4195.000000	64.868736 
4194.000000	64.866471 
4193.000000	64.875912 
4192.000000	64.898872 
4191.000000	64.934420 
4190.000000	64.978814 
4189.000000	65.026044 
4188.000000	65.068960 
4187.000000	65.101170 
4186.000000	65.117764 
4185.000000	65.116882 
4184.000000	65.099263 
4183.000000	65.067839 
4182.000000	65.026950 
4181.000000	64.981269 
4180.000000	64.935064 
4179.000000	64.891505 
4178.000000	64.852929 
4177.000000	64.821076 
4176.000000	64.797425 
4175.000000	64.783263 
4174.000000	64.779639 
4173.000000	64.787101 
4172.000000	64.805316 
4171.000000	64.832878 
4170.000000	64.867830 
4169.000000	64.907789 
4168.000000	64.950489 
4167.000000	64.993691 
4166.000000	65.035390 
4165.000000	65.073466 
4164.000000	65.105795 
4163.000000	65.130281 
4162.000000	65.145230 
4161.000000	65.149402 
4160.000000	65.142846 
4159.000000	65.126442 
4158.000000	65.102267 
4157.000000	65.073156 
4156.000000	65.042400 
4155.000000	65.013456 
4154.000000	64.989590 
4153.000000	64.973545 
4152.000000	64.967465 
4151.000000	64.972066 
4150.000000	64.986538 
4149.000000	65.008330 
4148.000000	65.033793 
4147.000000	65.057730 
4146.000000	65.074443 
4145.000000	65.078806 
4144.000000	65.067505 
4143.000000	65.040016 
4142.000000	64.999032 
4141.000000	64.950275 
4140.000000	64.901018 
4139.000000	64.858889 
4138.000000	64.829802 
4137.000000	64.816379 
4136.000000	64.817571 
4135.000000	64.829635 
4134.000000	64.847183 
4133.000000	64.864301 
4132.000000	64.876914 
4131.000000	64.883375 
4130.000000	64.885234 
4129.000000	64.885640 
4128.000000	64.889359 
4127.000000	64.900541 
4126.000000	64.922285 
4125.000000	64.955401 
4124.000000	64.998722 
4123.000000	65.049266 
4122.000000	65.103125 
4121.000000	65.156626 
4120.000000	65.206170 
4119.000000	65.248942 
4118.000000	65.282630 
4117.000000	65.305614 
4116.000000	65.316891 
4115.000000	65.315747 
4114.000000	65.302419 
4113.000000	65.277338 
4112.000000	65.241885 
4111.000000	65.197372 
4110.000000	65.145945 
4109.000000	65.089511 
4108.000000	65.029978 
4107.000000	64.969038 
4106.000000	64.908456 
4105.000000	64.850234 
4104.000000	64.796376 
4103.000000	64.749073 
4102.000000	64.710378 
4101.000000	64.682197 
4100.000000	64.665365 
4099.000000	64.659976 
4098.000000	64.664649 
4097.000000	64.677619 
4096.000000	64.696621 
4095.000000	64.719724 
4094.000000	64.744949 
4093.000000	64.770698 
4092.000000	64.795494 
4091.000000	64.817547 
4090.000000	64.834666 
4089.000000	64.844751 
4088.000000	64.846110 
4087.000000	64.837789 
4086.000000	64.820170 
4085.000000	64.795446 
4084.000000	64.767336 
4083.000000	64.740586 
4082.000000	64.720201 
4081.000000	64.710211 
4080.000000	64.713478 
4079.000000	64.730930 
4078.000000	64.761710 
4077.000000	64.803767 
4076.000000	64.854049 
4075.000000	64.909505 
4074.000000	64.966702 
4073.000000	65.021848 
4072.000000	65.071058 
4071.000000	65.110468 
4070.000000	65.136694 
4069.000000	65.147233 
4068.000000	65.141320 
4067.000000	65.120506 
4066.000000	65.088438 
4065.000000	65.050363 
4064.000000	65.012073 
4063.000000	64.978623 
4062.000000	64.953494 
4061.000000	64.937829 
4060.000000	64.930391 
4059.000000	64.927983 
4058.000000	64.926767 
4057.000000	64.923214 
4056.000000	64.915060 
4055.000000	64.901661 
4054.000000	64.883708 
4053.000000	64.863014 
4052.000000	64.841127 
4051.000000	64.819669 
4050.000000	64.799475 
4049.000000	64.781332 
4048.000000	64.765596 
4047.000000	64.753365 
4046.000000	64.746403 
4045.000000	64.746880 
4044.000000	64.756679 
4043.000000	64.776730 
4042.000000	64.806365 
4041.000000	64.842915 
4040.000000	64.881539 
4039.000000	64.916110 
4038.000000	64.940333 
4037.000000	64.949345 
4036.000000	64.940762 
4035.000000	64.915418 
4034.000000	64.877367 
4033.000000	64.833092 
4032.000000	64.790225 
4031.000000	64.755797 
4030.000000	64.734649 
4029.000000	64.728927 
4028.000000	64.737582 
4027.000000	64.756822 
4026.000000	64.781141 
4025.000000	64.804553 
4024.000000	64.821910 
4023.000000	64.829730 
4022.000000	64.826512 
4021.000000	64.812636 
4020.000000	64.790368 
4019.000000	64.762544 
4018.000000	64.732861 
4017.000000	64.704751 
4016.000000	64.681696 
4015.000000	64.666867 
4014.000000	64.662861 
4013.000000	64.671444 
4012.000000	64.693069 
4011.000000	64.726567 
4010.000000	64.768910 
4009.000000	64.815473 
4008.000000	64.860892 
4007.000000	64.899921 
4006.000000	64.928436 
4005.000000	64.944195 
4004.000000	64.947295 
4003.000000	64.939928 
4002.000000	64.925861 
4001.000000	64.909553 
4000.000000	64.894938 
3999.000000	64.884734 
3998.000000	64.880371 
3997.000000	64.881515 
3996.000000	64.886903 
3995.000000	64.894223 
3994.000000	64.901423 
3993.000000	64.906382 
3992.000000	64.907503 
3991.000000	64.903569 
3990.000000	64.893794 
3989.000000	64.877915 
3988.000000	64.856386 
3987.000000	64.830613 
3986.000000	64.802885 
3985.000000	64.776229 
3984.000000	64.754056 
3983.000000	64.739632 
3982.000000	64.735507 
3981.000000	64.743137 
3980.000000	64.762496 
3979.000000	64.792013 
3978.000000	64.828705 
3977.000000	64.868688 
3976.000000	64.907836 
3975.000000	64.942145 
3974.000000	64.968609 
3973.000000	64.985346 
3972.000000	64.992070 
3971.000000	64.989757 
3970.000000	64.980411 
3969.000000	64.966773 
3968.000000	64.951467 
3967.000000	64.936900 
3966.000000	64.924454 
3965.000000	64.914679 
3964.000000	64.907026 
3963.000000	64.900302 
3962.000000	64.893221 
3961.000000	64.884996 
3960.000000	64.875626 
3959.000000	64.865899 
3958.000000	64.857316 
3957.000000	64.851498 
3956.000000	64.849758 
3955.000000	64.852714 
3954.000000	64.860153 
3953.000000	64.871001 
3952.000000	64.883923 
3951.000000	64.897370 
3950.000000	64.910030 
3949.000000	64.920997 
3948.000000	64.929890 
3947.000000	64.936470 
3946.000000	64.940810 
3945.000000	64.942526 
3944.000000	64.941048 
3943.000000	64.935302 
3942.000000	64.924407 
3941.000000	64.907646 
3940.000000	64.884948 
3939.000000	64.856886 
3938.000000	64.825081 
3937.000000	64.791917 
3936.000000	64.760279 
3935.000000	64.733076 
3934.000000	64.712738 
3933.000000	64.700794 
3932.000000	64.697504 
3931.000000	64.702081 
3930.000000	64.712572 
3929.000000	64.726424 
3928.000000	64.741086 
3927.000000	64.754867 
3926.000000	64.767265 
3925.000000	64.779114 
3924.000000	64.792418 
3923.000000	64.809489 
3922.000000	64.832043 
3921.000000	64.860725 
3920.000000	64.894104 
3919.000000	64.929032 
3918.000000	64.960956 
3917.000000	64.985013 
3916.000000	64.997053 
3915.000000	64.994835 
3914.000000	64.978671 
3913.000000	64.951634 
3912.000000	64.919042 
3911.000000	64.887714 
3910.000000	64.864110 
3909.000000	64.853310 
3908.000000	64.857244 
3907.000000	64.874386 
3906.000000	64.900088 
3905.000000	64.927792 
3904.000000	64.950513 
3903.000000	64.962553 
3902.000000	64.960885 
3901.000000	64.945912 
3900.000000	64.921331 
3899.000000	64.892840 
3898.000000	64.866876 
3897.000000	64.848637 
3896.000000	64.841365 
3895.000000	64.845323 
3894.000000	64.858245 
3893.000000	64.875817 
3892.000000	64.893460 
3891.000000	64.906978 
3890.000000	64.913558 
3889.000000	64.912295 
3888.000000	64.903616 
3887.000000	64.889144 
3886.000000	64.870882 
3885.000000	64.850878 
3884.000000	64.830875 
3883.000000	64.812302 
3882.000000	64.796590 
3881.000000	64.784979 
3880.000000	64.778494 
3879.000000	64.777779 
3878.000000	64.782905 
3877.000000	64.793229 
3876.000000	64.807534 
3875.000000	64.823865 
3874.000000	64.839935 
3873.000000	64.853692 
3872.000000	64.863562 
3871.000000	64.868664 
3870.000000	64.868950 
3869.000000	64.864921 
3868.000000	64.857602 
3867.000000	64.848136 
3866.000000	64.837765 
3865.000000	64.827346 
3864.000000	64.817714 
3863.000000	64.810013 
3862.000000	64.805769 
3861.000000	64.806914 
3860.000000	64.815568 
3859.000000	64.833450 
3858.000000	64.861440 
3857.000000	64.899110 
3856.000000	64.944148 
3855.000000	64.992380 
3854.000000	65.038061 
3853.000000	65.074896 
3852.000000	65.097045 
3851.000000	65.100526 
3850.000000	65.083909 
3849.000000	65.048742 
3848.000000	64.999628 
3847.000000	64.943361 
3846.000000	64.887642 
3845.000000	64.839935 
3844.000000	64.805960 
3843.000000	64.789223 
3842.000000	64.790868 
3841.000000	64.809703 
3840.000000	64.842844 
3839.000000	64.886212 
3838.000000	64.935493 
3837.000000	64.986515 
3836.000000	65.035414 
3835.000000	65.078973 
3834.000000	65.114212 
3833.000000	65.139079 
3832.000000	65.152263 
3831.000000	65.153503 
3830.000000	65.143680 
3829.000000	65.124917 
3828.000000	65.100550 
3827.000000	65.074539 
3826.000000	65.050840 
3825.000000	65.032768 
3824.000000	65.022492 
3823.000000	65.020990 
3822.000000	65.027737 
3821.000000	65.040898 
3820.000000	65.057444 
3819.000000	65.073680 
3818.000000	65.085673 
3817.000000	65.089774 
3816.000000	65.083146 
3815.000000	65.064454 
3814.000000	65.034413 
3813.000000	64.995718 
3812.000000	64.952993 
3811.000000	64.912104 
3810.000000	64.879202 
3809.000000	64.859485 
3808.000000	64.856600 
3807.000000	64.871644 
3806.000000	64.903473 
3805.000000	64.948439 
3804.000000	65.001630 
3803.000000	65.057969 
3802.000000	65.112996 
3801.000000	65.163373 
3800.000000	65.207028 
3799.000000	65.242934 
3798.000000	65.270614 
3797.000000	65.289831 
3796.000000	65.300226 
3795.000000	65.301465 
3794.000000	65.293550 
3793.000000	65.277051 
3792.000000	65.253233 
3791.000000	65.223836 
3790.000000	65.191245 
3789.000000	65.157890 
3788.000000	65.126228 
3787.000000	65.098524 
3786.000000	65.076327 
3785.000000	65.060496 
3784.000000	65.051436 
3783.000000	65.049171 
3782.000000	65.053081 
3781.000000	65.062284 
3780.000000	65.075397 
3779.000000	65.090990 
3778.000000	65.107131 
3777.000000	65.122270 
3776.000000	65.135049 
3775.000000	65.144801 
3774.000000	65.151286 
3773.000000	65.154933 
3772.000000	65.156340 
3771.000000	65.156030 
3770.000000	65.154314 
3769.000000	65.151143 
3768.000000	65.146255 
3767.000000	65.139198 
3766.000000	65.129470 
3765.000000	65.116548 
3764.000000	65.099930 
3763.000000	65.079307 
3762.000000	65.054464 
3761.000000	65.025329 
3760.000000	64.992094 
3759.000000	64.955329 
3758.000000	64.915823 
3757.000000	64.874720 
3756.000000	64.833450 
3755.000000	64.793419 
3754.000000	64.756107 
3753.000000	64.722537 
3752.000000	64.693975 
3751.000000	64.671254 
3750.000000	64.655709 
3749.000000	64.648532 
3748.000000	64.651083 
3747.000000	64.664602 
3746.000000	64.689230 
3745.000000	64.723467 
3744.000000	64.764118 
3743.000000	64.806699 
3742.000000	64.845824 
3741.000000	64.876317 
3740.000000	64.894771 
3739.000000	64.900016 
3738.000000	64.893460 
3737.000000	64.878606 
3736.000000	64.860415 
3735.000000	64.843606 
3734.000000	64.831662 
3733.000000	64.825510 
3732.000000	64.824104 
3731.000000	64.824414 
3730.000000	64.822697 
3729.000000	64.815950 
3728.000000	64.802432 
3727.000000	64.782977 
3726.000000	64.760375 
3725.000000	64.739322 
3724.000000	64.724683 
3723.000000	64.721155 
3722.000000	64.732003 
3721.000000	64.758777 
3720.000000	64.800977 
3719.000000	64.856195 
3718.000000	64.920568 
3717.000000	64.989256 
3716.000000	65.056991 
3715.000000	65.118718 
3714.000000	65.170049 
3713.000000	65.207767 
3712.000000	65.230083 
3711.000000	65.236973 
3710.000000	65.229940 
3709.000000	65.212106 
3708.000000	65.187358 
3707.000000	65.160226 
3706.000000	65.134382 
3705.000000	65.112829 
3704.000000	65.096449 
3703.000000	65.084362 
3702.000000	65.073752 
3701.000000	65.061235 
3700.000000	65.043425 
3699.000000	65.017867 
3698.000000	64.984107 
3697.000000	64.943695 
3696.000000	64.900350 
3695.000000	64.858794 
3694.000000	64.824080 
3693.000000	64.800190 
3692.000000	64.789295 
3691.000000	64.791417 
3690.000000	64.804506 
3689.000000	64.824843 
3688.000000	64.848351 
3687.000000	64.871478 
3686.000000	64.891576 
3685.000000	64.907360 
3684.000000	64.918780 
3683.000000	64.926719 
3682.000000	64.932012 
3681.000000	64.935636 
3680.000000	64.938282 
3679.000000	64.940524 
3678.000000	64.943218 
3677.000000	64.947175 
3676.000000	64.953589 
3675.000000	64.963626 
3674.000000	64.978337 
3673.000000	64.997982 
3672.000000	65.021824 
3671.000000	65.047907 
3670.000000	65.073490 
3669.000000	65.095257 
3668.000000	65.110063 
3667.000000	65.115523 
3666.000000	65.110707 
3665.000000	65.096068 
3664.000000	65.073466 
3663.000000	65.046048 
3662.000000	65.017747 
3661.000000	64.992761 
3660.000000	64.974856 
3659.000000	64.966893 
3658.000000	64.970374 
3657.000000	64.984941 
3656.000000	65.008258 
3655.000000	65.036439 
3654.000000	65.064477 
3653.000000	65.087342 
3652.000000	65.100955 
3651.000000	65.102934 
3650.000000	65.093135 
3649.000000	65.073537 
3648.000000	65.047407 
3647.000000	65.018844 
3646.000000	64.991521 
3645.000000	64.967966 
3644.000000	64.949178 
3643.000000	64.934825 
3642.000000	64.923858 
3641.000000	64.915442 
3640.000000	64.909505 
3639.000000	64.906716 
3638.000000	64.908623 
3637.000000	64.916992 
3636.000000	64.933013 
3635.000000	64.956140 
3634.000000	64.984703 
3633.000000	65.015983 
3632.000000	65.046668 
3631.000000	65.073871 
3630.000000	65.095758 
3629.000000	65.111994 
3628.000000	65.123701 
3627.000000	65.132999 
3626.000000	65.142345 
3625.000000	65.153861 
3624.000000	65.168881 
3623.000000	65.187668 
3622.000000	65.209460 
3621.000000	65.232825 
3620.000000	65.256190 
3619.000000	65.277862 
3618.000000	65.296578 
3617.000000	65.310978 
3616.000000	65.320134 
3615.000000	65.322947 
3614.000000	65.318346 
3613.000000	65.305352 
3612.000000	65.283441 
3611.000000	65.252661 
3610.000000	65.213942 
3609.000000	65.169000 
3608.000000	65.120220 
3607.000000	65.070486 
3606.000000	65.022921 
3605.000000	64.980387 
3604.000000	64.945101 
3603.000000	64.918684 
3602.000000	64.901947 
3601.000000	64.894843 
3600.000000	64.896917 
3599.000000	64.907288 
3598.000000	64.924860 
3597.000000	64.948010 
3596.000000	64.974975 
3595.000000	65.003514 
3594.000000	65.031266 
3593.000000	65.055656 
3592.000000	65.074372 
3591.000000	65.085840 
3590.000000	65.089058 
3589.000000	65.084290 
3588.000000	65.072083 
3587.000000	65.053868 
3586.000000	65.030837 
3585.000000	65.004205 
3584.000000	64.974737 
3583.000000	64.942908 
3582.000000	64.909458 
3581.000000	64.875316 
3580.000000	64.842486 
3579.000000	64.813685 
3578.000000	64.792132 
3577.000000	64.781141 
3576.000000	64.782977 
3575.000000	64.798355 
3574.000000	64.826083 
3573.000000	64.862918 
3572.000000	64.904141 
3571.000000	64.944529 
3570.000000	64.979124 
3569.000000	65.004611 
3568.000000	65.019249 
3567.000000	65.023374 
3566.000000	65.018868 
3565.000000	65.008473 
3564.000000	64.995145 
3563.000000	64.981245 
3562.000000	64.968562 
3561.000000	64.957737 
3560.000000	64.948844 
3559.000000	64.941310 
3558.000000	64.934706 
3557.000000	64.928317 
3556.000000	64.921498 
3555.000000	64.913630 
3554.000000	64.904284 
3553.000000	64.893007 
3552.000000	64.879512 
3551.000000	64.863848 
3550.000000	64.846754 
3549.000000	64.829301 
3548.000000	64.812779 
3547.000000	64.798593 
3546.000000	64.787769 
3545.000000	64.780664 
3544.000000	64.777112 
3543.000000	64.776110 
3542.000000	64.776611 
3541.000000	64.777898 
3540.000000	64.779996 
3539.000000	64.783382 
3538.000000	64.789223 
3537.000000	64.798688 
3536.000000	64.812707 
3535.000000	64.831018 
3534.000000	64.852762 
3533.000000	64.876103 
3532.000000	64.899206 
3531.000000	64.920616 
3530.000000	64.939594 
3529.000000	64.956426 
3528.000000	64.972233 
3527.000000	64.988541 
3526.000000	65.006685 
3525.000000	65.027117 
3524.000000	65.049290 
3523.000000	65.071558 
3522.000000	65.091490 
3521.000000	65.106177 
3520.000000	65.113329 
3519.000000	65.111446 
3518.000000	65.100097 
3517.000000	65.079975 
3516.000000	65.052580 
3515.000000	65.020036 
3514.000000	64.984726 
3513.000000	64.949011 
3512.000000	64.915108 
3511.000000	64.884805 
3510.000000	64.859819 
3509.000000	64.841604 
3508.000000	64.830780 
3507.000000	64.827775 
3506.000000	64.832139 
3505.000000	64.843153 
3504.000000	64.859294 
3503.000000	64.878964 
3502.000000	64.900636 
3501.000000	64.923405 
3500.000000	64.946627 
3499.000000	64.970278 
3498.000000	64.994502 
3497.000000	65.019369 
3496.000000	65.044450 
3495.000000	65.068411 
3494.000000	65.088987 
3493.000000	65.103483 
3492.000000	65.109133 
3491.000000	65.103793 
3490.000000	65.086388 
3489.000000	65.057539 
3488.000000	65.019083 
3487.000000	64.974117 
3486.000000	64.926123 
3485.000000	64.878559 
3484.000000	64.834308 
3483.000000	64.795303 
3482.000000	64.762711 
3481.000000	64.736962 
3480.000000	64.718198 
3479.000000	64.706230 
3478.000000	64.700984 
3477.000000	64.702200 
3476.000000	64.709925 
3475.000000	64.723801 
3474.000000	64.743351 
3473.000000	64.767384 
3472.000000	64.794540 
3471.000000	64.823246 
3470.000000	64.851856 
3469.000000	64.878559 
3468.000000	64.901924 
3467.000000	64.920926 
3466.000000	64.934945 
3465.000000	64.943742 
3464.000000	64.947605 
3463.000000	64.947104 
3462.000000	64.943289 
3461.000000	64.937257 
3460.000000	64.930248 
3459.000000	64.923357 
3458.000000	64.917635 
3457.000000	64.913988 
3456.000000	64.912867 
3455.000000	64.914584 
3454.000000	64.919257 
3453.000000	64.926695 
3452.000000	64.936208 
3451.000000	64.946579 
3450.000000	64.956402 
3449.000000	64.963746 
3448.000000	64.966678 
3447.000000	64.963459 
3446.000000	64.952993 
3445.000000	64.935016 
3444.000000	64.910483 
3443.000000	64.881491 
3442.000000	64.851164 
3441.000000	64.822912 
3440.000000	64.799904 
3439.000000	64.784455 
3438.000000	64.777517 
3437.000000	64.778208 
3436.000000	64.784359 
3435.000000	64.792752 
3434.000000	64.799976 
3433.000000	64.803147 
3432.000000	64.800953 
3431.000000	64.793491 
3430.000000	64.782643 
3429.000000	64.771318 
3428.000000	64.762616 
3427.000000	64.759159 
3426.000000	64.762067 
3425.000000	64.770722 
3424.000000	64.782834 
3423.000000	64.795088 
3422.000000	64.804244 
3421.000000	64.807891 
3420.000000	64.805436 
3419.000000	64.798092 
3418.000000	64.789009 
3417.000000	64.782381 
3416.000000	64.782428 
3415.000000	64.792299 
3414.000000	64.813542 
3413.000000	64.845418 
3412.000000	64.885640 
3411.000000	64.930510 
3410.000000	64.976024 
3409.000000	65.018510 
3408.000000	65.055418 
3407.000000	65.085339 
3406.000000	65.107846 
3405.000000	65.123271 
3404.000000	65.132212 
3403.000000	65.135550 
3402.000000	65.134429 
3401.000000	65.129995 
3400.000000	65.124011 
3399.000000	65.117931 
3398.000000	65.113496 
3397.000000	65.111804 
3396.000000	65.113282 
3395.000000	65.117311 
3394.000000	65.122532 
3393.000000	65.126919 
3392.000000	65.128374 
3391.000000	65.125536 
3390.000000	65.118122 
3389.000000	65.107035 
3388.000000	65.094161 
3387.000000	65.081858 
3386.000000	65.072464 
3385.000000	65.067338 
3384.000000	65.066838 
3383.000000	65.070486 
3382.000000	65.077352 
3381.000000	65.086293 
3380.000000	65.096187 
3379.000000	65.106701 
3378.000000	65.117597 
3377.000000	65.128660 
3376.000000	65.139460 
3375.000000	65.148997 
3374.000000	65.155935 
3373.000000	65.158748 
3372.000000	65.156102 
3371.000000	65.147113 
3370.000000	65.131783 
3369.000000	65.111374 
3368.000000	65.087914 
3367.000000	65.064024 
3366.000000	65.042471 
3365.000000	65.025568 
3364.000000	65.015006 
3363.000000	65.011453 
3362.000000	65.014624 
3361.000000	65.023183 
3360.000000	65.034985 
3359.000000	65.047287 
3358.000000	65.056896 
3357.000000	65.060949 
3356.000000	65.057229 
3355.000000	65.044832 
3354.000000	65.024185 
3353.000000	64.997506 
3352.000000	64.968276 
3351.000000	64.940977 
3350.000000	64.919972 
3349.000000	64.909005 
3348.000000	64.910578 
3347.000000	64.925551 
3346.000000	64.952731 
3345.000000	64.989447 
3344.000000	65.032076 
3343.000000	65.076684 
3342.000000	65.119528 
3341.000000	65.157675 
3340.000000	65.189123 
3339.000000	65.212774 
3338.000000	65.228390 
3337.000000	65.236234 
3336.000000	65.236759 
3335.000000	65.230584 
3334.000000	65.218496 
3333.000000	65.201568 
3332.000000	65.180873 
3331.000000	65.157961 
3330.000000	65.134382 
3329.000000	65.111446 
3328.000000	65.089869 
3327.000000	65.069842 
3326.000000	65.051054 
3325.000000	65.032720 
3324.000000	65.014052 
3323.000000	64.994502 
3322.000000	64.973950 
3321.000000	64.952540 
3320.000000	64.931011 
3319.000000	64.910078 
3318.000000	64.890694 
3317.000000	64.873886 
3316.000000	64.860701 
3315.000000	64.851856 
3314.000000	64.847850 
3313.000000	64.848852 
3312.000000	64.854526 
3311.000000	64.863705 
3310.000000	64.874720 
3309.000000	64.885425 
3308.000000	64.893889 
3307.000000	64.898467 
3306.000000	64.898419 
3305.000000	64.894008 
3304.000000	64.886784 
3303.000000	64.879059 
3302.000000	64.873409 
3301.000000	64.872026 
3300.000000	64.876246 
3299.000000	64.885878 
3298.000000	64.899444 
3297.000000	64.914107 
3296.000000	64.926862 
3295.000000	64.934635 
3294.000000	64.935350 
3293.000000	64.928150 
3292.000000	64.913392 
3291.000000	64.892816 
3290.000000	64.868426 
3289.000000	64.842605 
3288.000000	64.817428 
3287.000000	64.794778 
3286.000000	64.776086 
3285.000000	64.762759 
3284.000000	64.756250 
3283.000000	64.757990 
3282.000000	64.769172 
3281.000000	64.790415 
3280.000000	64.821290 
3279.000000	64.860129 
3278.000000	64.903998 
3277.000000	64.949011 
3276.000000	64.990997 
3275.000000	65.026378 
3274.000000	65.052580 
3273.000000	65.068793 
3272.000000	65.075540 
3271.000000	65.074706 
3270.000000	65.068483 
3269.000000	65.059232 
3268.000000	65.048432 
3267.000000	65.037226 
3266.000000	65.025854 
3265.000000	65.014410 
3264.000000	65.002846 
3263.000000	64.991664 
3262.000000	64.981794 
3261.000000	64.974331 
3260.000000	64.970397 
3259.000000	64.970612 
3258.000000	64.975142 
3257.000000	64.983439 
3256.000000	64.994549 
3255.000000	65.007090 
3254.000000	65.020060 
3253.000000	65.032696 
3252.000000	65.044736 
3251.000000	65.056204 
3250.000000	65.067100 
3249.000000	65.077328 
3248.000000	65.086531 
3247.000000	65.093970 
3246.000000	65.098690 
3245.000000	65.099430 
3244.000000	65.095233 
3243.000000	65.085363 
3242.000000	65.069484 
3241.000000	65.047812 
3240.000000	65.021038 
3239.000000	64.990544 
3238.000000	64.958024 
3237.000000	64.925694 
3236.000000	64.895820 
3235.000000	64.870643 
3234.000000	64.852142 
3233.000000	64.841938 
3232.000000	64.840984 
3231.000000	64.849352 
3230.000000	64.866185 
3229.000000	64.889740 
3228.000000	64.917612 
3227.000000	64.946889 
3226.000000	64.974451 
3225.000000	64.997529 
3224.000000	65.014100 
3223.000000	65.022969 
3222.000000	65.023899 
3221.000000	65.017533 
3220.000000	65.005540 
3219.000000	64.989995 
3218.000000	64.973187 
3217.000000	64.957499 
3216.000000	64.944839 
3215.000000	64.936685 
3214.000000	64.933919 
3213.000000	64.936566 
3212.000000	64.944028 
3211.000000	64.955258 
3210.000000	64.968729 
3209.000000	64.982676 
3208.000000	64.995312 
3207.000000	65.005397 
3206.000000	65.011930 
3205.000000	65.014290 
3204.000000	65.012288 
3203.000000	65.006184 
3202.000000	64.996337 
3201.000000	64.983129 
3200.000000	64.966964 
3199.000000	64.948296 
3198.000000	64.927744 
3197.000000	64.906239 
3196.000000	64.884972 
3195.000000	64.865303 
3194.000000	64.848780 
3193.000000	64.836716 
3192.000000	64.829850 
3191.000000	64.828276 
3190.000000	64.831399 
3189.000000	64.838242 
3188.000000	64.847445 
3187.000000	64.857816 
3186.000000	64.868783 
3185.000000	64.880371 
3184.000000	64.893174 
3183.000000	64.908242 
3182.000000	64.926600 
3181.000000	64.948749 
3180.000000	64.974141 
3179.000000	65.001177 
3178.000000	65.027308 
3177.000000	65.049219 
3176.000000	65.063953 
3175.000000	65.069246 
3174.000000	65.064191 
3173.000000	65.049672 
3172.000000	65.028262 
3171.000000	65.003585 
3170.000000	64.979648 
3169.000000	64.960050 
3168.000000	64.947247 
3167.000000	64.942240 
3166.000000	64.944362 
3165.000000	64.951944 
3164.000000	64.962363 
3163.000000	64.972925 
3162.000000	64.981198 
3161.000000	64.985775 
3160.000000	64.986109 
3159.000000	64.982342 
3158.000000	64.975190 
3157.000000	64.965534 
3156.000000	64.954209 
3155.000000	64.941740 
3154.000000	64.928531 
3153.000000	64.914751 
3152.000000	64.900827 
3151.000000	64.887642 
3150.000000	64.876484 
3149.000000	64.868831 
3148.000000	64.866065 
3147.000000	64.868950 
3146.000000	64.877080 
3145.000000	64.888811 
3144.000000	64.901304 
3143.000000	64.910912 
3142.000000	64.913916 
3141.000000	64.907884 
3140.000000	64.892315 
3139.000000	64.869260 
3138.000000	64.843082 
3137.000000	64.819741 
3136.000000	64.805412 
3135.000000	64.805173 
3134.000000	64.821529 
3133.000000	64.853739 
3132.000000	64.898085 
3131.000000	64.948439 
3130.000000	64.997744 
3129.000000	65.039324 
3128.000000	65.068364 
3127.000000	65.082645 
3126.000000	65.082836 
3125.000000	65.072202 
3124.000000	65.055274 
3123.000000	65.037035 
3122.000000	65.021920 
3121.000000	65.012860 
3120.000000	65.011239 
3119.000000	65.016865 
3118.000000	65.028357 
3117.000000	65.043330 
3116.000000	65.058970 
3115.000000	65.072464 
3114.000000	65.081357 
3113.000000	65.083742 
3112.000000	65.078687 
3111.000000	65.066003 
3110.000000	65.046501 
3109.000000	65.021824 
3108.000000	64.994215 
3107.000000	64.966320 
3106.000000	64.940762 
3105.000000	64.920139 
3104.000000	64.906716 
3103.000000	64.902043 
3102.000000	64.906835 
3101.000000	64.920759 
3100.000000	64.942407 
3099.000000	64.968991 
3098.000000	64.997053 
3097.000000	65.022635 
3096.000000	65.041971 
3095.000000	65.051984 
3094.000000	65.051245 
3093.000000	65.040183 
3092.000000	65.021133 
3091.000000	64.997982 
3090.000000	64.975094 
3089.000000	64.956259 
3088.000000	64.944100 
3087.000000	64.939188 
3086.000000	64.940214 
3085.000000	64.944100 
3084.000000	64.947056 
3083.000000	64.945650 
3082.000000	64.937472 
3081.000000	64.921951 
3080.000000	64.900135 
3079.000000	64.874744 
3078.000000	64.849090 
3077.000000	64.826750 
3076.000000	64.810395 
3075.000000	64.801788 
3074.000000	64.801383 
3073.000000	64.808535 
3072.000000	64.821887 
3071.000000	64.839696 
3070.000000	64.860129 
3069.000000	64.881539 
3068.000000	64.902400 
3067.000000	64.921641 
3066.000000	64.938521 
3065.000000	64.952731 
3064.000000	64.964270 
3063.000000	64.973378 
3062.000000	64.980506 
3061.000000	64.986228 
3060.000000	64.990973 
3059.000000	64.994978 
3058.000000	64.998102 
3057.000000	64.999938 
3056.000000	64.999914 
3055.000000	64.997315 
3054.000000	64.991569 
3053.000000	64.982557 
3052.000000	64.970493 
3051.000000	64.955902 
3050.000000	64.939737 
3049.000000	64.923024 
3048.000000	64.906930 
3047.000000	64.892268 
3046.000000	64.879727 
3045.000000	64.869737 
3044.000000	64.862346 
3043.000000	64.857244 
3042.000000	64.854025 
3041.000000	64.852118 
3040.000000	64.851164 
3039.000000	64.850926 
3038.000000	64.851474 
3037.000000	64.852833 
3036.000000	64.855051 
3035.000000	64.857888 
3034.000000	64.860582 
3033.000000	64.861989 
3032.000000	64.860630 
3031.000000	64.855051 
3030.000000	64.844250 
3029.000000	64.828181 
3028.000000	64.807868 
3027.000000	64.785623 
3026.000000	64.764451 
3025.000000	64.747905 
3024.000000	64.739012 
3023.000000	64.739966 
3022.000000	64.751315 
3021.000000	64.772009 
3020.000000	64.799308 
3019.000000	64.829587 
3018.000000	64.859008 
3017.000000	64.884305 
3016.000000	64.903259 
3015.000000	64.915347 
3014.000000	64.921331 
3013.000000	64.923310 
3012.000000	64.923787 
3011.000000	64.925217 
3010.000000	64.929342 
3009.000000	64.936971 
3008.000000	64.947700 
3007.000000	64.960336 
3006.000000	64.972901 
3005.000000	64.983224 
3004.000000	64.989185 
3003.000000	64.989233 
3002.000000	64.982366 
3001.000000	64.968609 
3000.000000	64.948797 
2999.000000	64.924192 
2998.000000	64.896941 
2997.000000	64.869117 
2996.000000	64.843153 
2995.000000	64.821052 
2994.000000	64.804315 
2993.000000	64.793777 
2992.000000	64.789557 
2991.000000	64.791059 
2990.000000	64.797091 
2989.000000	64.805960 
2988.000000	64.815759 
2987.000000	64.824700 
2986.000000	64.831233 
2985.000000	64.834332 
2984.000000	64.833617 
2983.000000	64.829349 
2982.000000	64.822340 
2981.000000	64.813446 
2980.000000	64.803862 
2979.000000	64.794349 
2978.000000	64.785075 
2977.000000	64.775419 
2976.000000	64.764261 
2975.000000	64.749979 
2974.000000	64.731073 
2973.000000	64.706492 
2972.000000	64.676070 
2971.000000	64.641141 
2970.000000	64.604187 
2969.000000	64.568805 
2968.000000	64.538955 
2967.000000	64.518427 
2966.000000	64.509892 
2965.000000	64.514708 
2964.000000	64.532256 
2963.000000	64.560604 
2962.000000	64.596533 
2961.000000	64.636731 
2960.000000	64.677834 
2959.000000	64.717268 
2958.000000	64.753198 
2957.000000	64.784693 
2956.000000	64.811420 
2955.000000	64.833378 
2954.000000	64.850592 
2953.000000	64.863204 
2952.000000	64.871311 
2951.000000	64.875030 
2950.000000	64.874482 
2949.000000	64.870405 
2948.000000	64.863562 
2947.000000	64.854955 
2946.000000	64.845538 
2945.000000	64.836263 
2944.000000	64.827561 
2943.000000	64.819431 
2942.000000	64.811420 
2941.000000	64.802908 
2940.000000	64.793229 
2939.000000	64.781713 
2938.000000	64.768242 
2937.000000	64.753103 
2936.000000	64.737319 
2935.000000	64.722180 
2934.000000	64.709305 
2933.000000	64.700317 
2932.000000	64.696311 
2931.000000	64.697647 
2930.000000	64.703941 
2929.000000	64.713788 
2928.000000	64.725494 
2927.000000	64.737367 
2926.000000	64.747858 
2925.000000	64.755868 
2924.000000	64.760947 
2923.000000	64.763116 
2922.000000	64.762735 
2921.000000	64.760303 
2920.000000	64.756464 
2919.000000	64.751744 
2918.000000	64.746761 
2917.000000	64.741849 
2916.000000	64.737176 
2915.000000	64.732789 
2914.000000	64.728546 
2913.000000	64.724421 
2912.000000	64.720416 
2911.000000	64.717006 
2910.000000	64.714813 
2909.000000	64.714980 
2908.000000	64.718437 
2907.000000	64.726233 
2906.000000	64.738893 
2905.000000	64.756298 
2904.000000	64.777493 
2903.000000	64.800858 
2902.000000	64.824223 
2901.000000	64.844894 
2900.000000	64.860296 
2899.000000	64.868283 
2898.000000	64.867568 
2897.000000	64.858055 
2896.000000	64.840841 
2895.000000	64.818167 
2894.000000	64.792871 
2893.000000	64.768004 
2892.000000	64.746069 
2891.000000	64.728713 
2890.000000	64.716529 
2889.000000	64.708876 
2888.000000	64.704442 
2887.000000	64.701581 
2886.000000	64.698863 
2885.000000	64.695382 
2884.000000	64.691376 
2883.000000	64.687800 
2882.000000	64.686512 
2881.000000	64.689588 
2880.000000	64.698886 
2879.000000	64.715433 
2878.000000	64.739131 
2877.000000	64.768815 
2876.000000	64.802265 
2875.000000	64.836668 
2874.000000	64.868998 
2873.000000	64.896655 
2872.000000	64.917778 
2871.000000	64.931511 
2870.000000	64.938330 
2869.000000	64.939546 
2868.000000	64.937186 
2867.000000	64.933371 
2866.000000	64.930009 
2865.000000	64.928245 
2864.000000	64.928698 
2863.000000	64.931130 
2862.000000	64.935064 
2861.000000	64.939594 
2860.000000	64.944148 
2859.000000	64.948225 
2858.000000	64.951443 
2857.000000	64.953422 
2856.000000	64.953804 
2855.000000	64.952135 
2854.000000	64.947915 
2853.000000	64.940834 
2852.000000	64.930868 
2851.000000	64.918541 
2850.000000	64.904904 
2849.000000	64.891409 
2848.000000	64.879488 
2847.000000	64.870309 
2846.000000	64.864349 
2845.000000	64.861297 
2844.000000	64.860057 
2843.000000	64.859199 
2842.000000	64.857339 
2841.000000	64.853382 
2840.000000	64.846849 
2839.000000	64.837837 
2838.000000	64.827251 
2837.000000	64.816069 
2836.000000	64.805650 
2835.000000	64.797234 
2834.000000	64.792037 
2833.000000	64.791083 
2832.000000	64.794969 
2831.000000	64.803910 
2830.000000	64.817404 
2829.000000	64.834356 
2828.000000	64.852929 
2827.000000	64.870762 
2826.000000	64.885425 
2825.000000	64.894843 
2824.000000	64.897918 
2823.000000	64.894890 
2822.000000	64.887428 
2821.000000	64.878106 
2820.000000	64.869999 
2819.000000	64.865756 
2818.000000	64.866900 
2817.000000	64.873409 
2816.000000	64.884090 
2815.000000	64.896678 
2814.000000	64.908909 
2813.000000	64.918875 
2812.000000	64.925742 
2811.000000	64.929723 
2810.000000	64.932060 
2809.000000	64.934325 
2808.000000	64.937949 
2807.000000	64.943838 
2806.000000	64.952111 
2805.000000	64.962077 
2804.000000	64.972782 
2803.000000	64.983177 
2802.000000	64.992642 
2801.000000	65.000939 
2800.000000	65.008163 
2799.000000	65.014457 
2798.000000	65.019798 
2797.000000	65.023779 
2796.000000	65.025782 
2795.000000	65.024948 
2794.000000	65.020513 
2793.000000	65.012001 
2792.000000	64.999437 
2791.000000	64.983296 
2790.000000	64.964556 
2789.000000	64.944362 
2788.000000	64.924025 
2787.000000	64.904737 
2786.000000	64.887881 
2785.000000	64.874696 
2784.000000	64.866566 
2783.000000	64.864683 
2782.000000	64.869785 
2781.000000	64.882111 
2780.000000	64.901113 
2779.000000	64.925312 
2778.000000	64.952373 
2777.000000	64.979410 
2776.000000	65.003514 
2775.000000	65.022230 
2774.000000	65.034031 
2773.000000	65.038466 
2772.000000	65.035939 
2771.000000	65.027761 
2770.000000	65.015649 
2769.000000	65.001225 
2768.000000	64.985942 
2767.000000	64.970707 
2766.000000	64.956355 
2765.000000	64.943552 
2764.000000	64.933276 
2763.000000	64.926362 
2762.000000	64.923620 
2761.000000	64.925432 
2760.000000	64.931344 
2759.000000	64.940285 
2758.000000	64.950346 
2757.000000	64.959502 
2756.000000	64.965796 
2755.000000	64.968276 
2754.000000	64.966917 
2753.000000	64.962840 
2752.000000	64.958214 
2751.000000	64.955568 
2750.000000	64.957237 
2749.000000	64.964485 
2748.000000	64.977335 
2747.000000	64.994215 
2746.000000	65.012454 
2745.000000	65.028619 
2744.000000	65.039229 
2743.000000	65.041637 
2742.000000	65.034484 
2741.000000	65.018010 
2740.000000	64.993929 
2739.000000	64.964938 
2738.000000	64.934420 
2737.000000	64.905738 
2736.000000	64.881682 
2735.000000	64.864039 
2734.000000	64.853501 
2733.000000	64.849781 
2732.000000	64.851880 
2731.000000	64.858388 
2730.000000	64.867925 
2729.000000	64.879274 
2728.000000	64.891886 
2727.000000	64.905428 
2726.000000	64.920067 
2725.000000	64.935779 
2724.000000	64.952397 
2723.000000	64.969420 
2722.000000	64.985680 
2721.000000	64.999747 
2720.000000	65.009832 
2719.000000	65.014386 
2718.000000	65.012407 
2717.000000	65.003800 
2716.000000	64.989328 
2715.000000	64.970731 
2714.000000	64.950251 
2713.000000	64.930367 
2712.000000	64.913225 
2711.000000	64.900326 
2710.000000	64.892292 
2709.000000	64.888882 
2708.000000	64.889121 
2707.000000	64.891791 
2706.000000	64.895796 
2705.000000	64.900374 
2704.000000	64.905357 
2703.000000	64.910888 
2702.000000	64.917373 
2701.000000	64.925050 
2700.000000	64.933681 
2699.000000	64.942598 
2698.000000	64.950370 
2697.000000	64.955544 
2696.000000	64.956855 
2695.000000	64.953780 
2694.000000	64.946603 
2693.000000	64.936757 
2692.000000	64.926528 
2691.000000	64.918589 
2690.000000	64.915299 
2689.000000	64.918279 
2688.000000	64.927887 
2687.000000	64.943099 
2686.000000	64.961743 
2685.000000	64.980936 
2684.000000	64.997625 
2683.000000	65.009355 
2682.000000	65.014648 
2681.000000	65.013051 
2680.000000	65.005111 
2679.000000	64.992308 
2678.000000	64.976310 
2677.000000	64.959049 
2676.000000	64.941978 
2675.000000	64.926338 
2674.000000	64.912676 
2673.000000	64.901304 
2672.000000	64.892077 
2671.000000	64.884781 
2670.000000	64.879155 
2669.000000	64.874768 
2668.000000	64.871382 
2667.000000	64.868783 
2666.000000	64.866924 
2665.000000	64.866018 
2664.000000	64.866495 
2663.000000	64.868712 
2662.000000	64.873051 
2661.000000	64.879679 
2660.000000	64.888358 
2659.000000	64.898562 
2658.000000	64.909386 
2657.000000	64.919829 
2656.000000	64.928841 
2655.000000	64.935636 
2654.000000	64.939880 
2653.000000	64.941477 
2652.000000	64.940667 
2651.000000	64.937901 
2650.000000	64.933991 
2649.000000	64.929676 
2648.000000	64.925837 
2647.000000	64.923214 
2646.000000	64.922618 
2645.000000	64.924454 
2644.000000	64.929056 
2643.000000	64.936017 
2642.000000	64.944314 
2641.000000	64.952278 
2640.000000	64.957857 
2639.000000	64.959049 
2638.000000	64.954423 
2637.000000	64.943742 
2636.000000	64.927983 
2635.000000	64.909410 
2634.000000	64.891242 
2633.000000	64.876890 
2632.000000	64.869236 
2631.000000	64.869976 
2630.000000	64.879083 
2629.000000	64.894962 
2628.000000	64.914488 
2627.000000	64.933848 
2626.000000	64.949250 
2625.000000	64.957380 
2624.000000	64.956259 
2623.000000	64.945411 
2622.000000	64.925956 
2621.000000	64.900088 
2620.000000	64.870929 
2619.000000	64.841818 
2618.000000	64.815926 
2617.000000	64.795851 
2616.000000	64.783191 
2615.000000	64.778542 
2614.000000	64.781188 
2613.000000	64.789366 
2612.000000	64.800643 
2611.000000	64.812040 
2610.000000	64.820837 
2609.000000	64.824819 
2608.000000	64.823007 
2607.000000	64.815783 
2606.000000	64.804744 
2605.000000	64.792346 
2604.000000	64.781212 
2603.000000	64.773488 
2602.000000	64.770388 
2601.000000	64.771652 
2600.000000	64.775872 
2599.000000	64.780879 
2598.000000	64.784264 
2597.000000	64.784479 
2596.000000	64.780926 
2595.000000	64.774417 
2594.000000	64.766645 
2593.000000	64.760065 
2592.000000	64.756608 
2591.000000	64.757657 
2590.000000	64.763331 
2589.000000	64.772558 
2588.000000	64.783358 
2587.000000	64.793539 
2586.000000	64.801406 
2585.000000	64.806032 
2584.000000	64.807724 
2583.000000	64.807653 
2582.000000	64.807534 
2581.000000	64.808964 
2580.000000	64.812946 
2579.000000	64.819526 
2578.000000	64.827752 
2577.000000	64.836168 
2576.000000	64.843249 
2575.000000	64.848089 
2574.000000	64.850687 
2573.000000	64.851832 
2572.000000	64.853119 
2571.000000	64.856314 
2570.000000	64.863157 
2569.000000	64.874410 
2568.000000	64.889788 
2567.000000	64.908123 
2566.000000	64.927148 
2565.000000	64.944314 
2564.000000	64.956998 
2563.000000	64.963316 
2562.000000	64.962244 
2561.000000	64.953875 
2560.000000	64.939236 
2559.000000	64.920091 
2558.000000	64.898371 
2557.000000	64.875912 
2556.000000	64.853763 
2555.000000	64.832425 
2554.000000	64.811658 
2553.000000	64.791154 
2552.000000	64.770650 
2551.000000	64.750313 
2550.000000	64.731240 
2549.000000	64.715433 
2548.000000	64.705228 
2547.000000	64.702796 
2546.000000	64.709353 
2545.000000	64.724969 
2544.000000	64.747881 
2543.000000	64.775204 
2542.000000	64.803338 
2541.000000	64.828944 
2540.000000	64.849567 
2539.000000	64.864206 
2538.000000	64.873027 
2537.000000	64.877223 
2536.000000	64.878439 
2535.000000	64.878201 
2534.000000	64.877557 
2533.000000	64.876770 
2532.000000	64.875626 
2531.000000	64.873433 
2530.000000	64.869523 
2529.000000	64.863371 
2528.000000	64.854884 
2527.000000	64.844131 
2526.000000	64.831352 
2525.000000	64.816784 
2524.000000	64.800667 
2523.000000	64.783287 
2522.000000	64.765238 
2521.000000	64.747500 
2520.000000	64.731597 
2519.000000	64.719295 
2518.000000	64.712524 
2517.000000	64.712834 
2516.000000	64.721179 
2515.000000	64.737486 
2514.000000	64.760804 
2513.000000	64.789152 
2512.000000	64.819788 
2511.000000	64.849781 
2510.000000	64.876341 
2509.000000	64.897108 
2508.000000	64.910817 
2507.000000	64.917230 
2506.000000	64.917349 
2505.000000	64.912962 
2504.000000	64.906263 
2503.000000	64.899516 
2502.000000	64.894175 
2501.000000	64.891099 
2500.000000	64.889955 
2499.000000	64.889693 
2498.000000	64.888691 
2497.000000	64.885377 
2496.000000	64.878869 
2495.000000	64.869403 
2494.000000	64.858150 
2493.000000	64.847230 
2492.000000	64.838814 
2491.000000	64.834737 
2490.000000	64.835715 
2489.000000	64.841341 
2488.000000	64.850187 
2487.000000	64.860129 
2486.000000	64.869046 
2485.000000	64.875197 
2484.000000	64.877843 
2483.000000	64.877176 
2482.000000	64.873957 
2481.000000	64.869546 
2480.000000	64.865326 
2479.000000	64.862227 
2478.000000	64.860558 
2477.000000	64.859819 
2476.000000	64.859271 
2475.000000	64.857745 
2474.000000	64.854335 
2473.000000	64.848470 
2472.000000	64.840340 
2471.000000	64.830684 
2470.000000	64.820766 
2469.000000	64.812016 
2468.000000	64.805865 
2467.000000	64.803314 
2466.000000	64.804720 
2465.000000	64.809560 
2464.000000	64.816427 
2463.000000	64.823436 
2462.000000	64.828658 
2461.000000	64.830398 
2460.000000	64.827752 
2459.000000	64.820790 
2458.000000	64.810681 
2457.000000	64.799356 
2456.000000	64.789152 
2455.000000	64.782071 
2454.000000	64.779496 
2453.000000	64.781832 
2452.000000	64.788460 
2451.000000	64.797735 
2450.000000	64.807581 
2449.000000	64.815950 
2448.000000	64.821314 
2447.000000	64.822912 
2446.000000	64.821004 
2445.000000	64.816474 
2444.000000	64.810776 
2443.000000	64.805316 
2442.000000	64.801406 
2441.000000	64.799880 
2440.000000	64.801049 
2439.000000	64.804863 
2438.000000	64.810752 
2437.000000	64.817953 
2436.000000	64.825654 
2435.000000	64.833092 
2434.000000	64.839529 
2433.000000	64.844131 
2432.000000	64.846396 
2431.000000	64.845681 
2430.000000	64.841532 
2429.000000	64.833664 
2428.000000	64.822077 
2427.000000	64.807319 
2426.000000	64.789986 
2425.000000	64.771389 
2424.000000	64.753127 
2423.000000	64.736962 
2422.000000	64.724516 
2421.000000	64.716839 
2420.000000	64.714503 
2419.000000	64.717149 
2418.000000	64.723563 
2417.000000	64.731907 
2416.000000	64.739823 
2415.000000	64.745211 
2414.000000	64.746689 
2413.000000	64.743614 
2412.000000	64.736509 
2411.000000	64.726710 
2410.000000	64.716243 
2409.000000	64.707136 
2408.000000	64.700961 
2407.000000	64.698648 
2406.000000	64.700245 
2405.000000	64.704966 
2404.000000	64.711713 
2403.000000	64.719390 
2402.000000	64.727473 
2401.000000	64.735984 
2400.000000	64.745688 
2399.000000	64.757680 
2398.000000	64.773154 
2397.000000	64.792728 
2396.000000	64.816308 
2395.000000	64.842844 
2394.000000	64.870500 
2393.000000	64.896941 
2392.000000	64.919471 
2391.000000	64.935684 
2390.000000	64.943718 
2389.000000	64.942693 
2388.000000	64.932584 
2387.000000	64.914369 
2386.000000	64.889788 
2385.000000	64.861154 
2384.000000	64.830875 
2383.000000	64.801096 
2382.000000	64.773726 
2381.000000	64.750075 
2380.000000	64.730978 
2379.000000	64.716768 
2378.000000	64.707469 
2377.000000	64.702844 
2376.000000	64.702343 
2375.000000	64.705371 
2374.000000	64.711046 
2373.000000	64.718413 
2372.000000	64.726352 
2371.000000	64.733839 
2370.000000	64.739751 
2369.000000	64.743304 
2368.000000	64.744210 
2367.000000	64.742588 
2366.000000	64.739012 
2365.000000	64.734482 
2364.000000	64.730405 
2363.000000	64.728236 
2362.000000	64.729189 
2361.000000	64.734244 
2360.000000	64.743828 
2359.000000	64.757895 
2358.000000	64.775729 
2357.000000	64.796280 
2356.000000	64.818096 
2355.000000	64.839601 
2354.000000	64.859366 
2353.000000	64.876198 
2352.000000	64.889311 
2351.000000	64.898514 
2350.000000	64.904165 
2349.000000	64.906978 
2348.000000	64.907789 
2347.000000	64.907550 
2346.000000	64.906978 
2345.000000	64.906430 
2344.000000	64.905762 
2343.000000	64.904642 
2342.000000	64.902496 
2341.000000	64.898943 
2340.000000	64.893841 
2339.000000	64.887404 
2338.000000	64.880323 
2337.000000	64.873552 
2336.000000	64.868164 
2335.000000	64.865064 
2334.000000	64.864754 
2333.000000	64.867281 
2332.000000	64.872121 
2331.000000	64.878201 
2330.000000	64.884185 
2329.000000	64.888620 
2328.000000	64.890003 
2327.000000	64.887213 
2326.000000	64.879608 
2325.000000	64.867353 
2324.000000	64.851236 
2323.000000	64.832615 
2322.000000	64.813470 
2321.000000	64.795804 
2320.000000	64.781570 
2319.000000	64.772152 
2318.000000	64.767980 
2317.000000	64.768671 
2316.000000	64.772844 
2315.000000	64.778804 
2314.000000	64.784717 
2313.000000	64.789152 
2312.000000	64.791488 
2311.000000	64.792156 
2310.000000	64.792203 
2309.000000	64.793348 
2308.000000	64.796972 
2307.000000	64.803814 
2306.000000	64.813327 
2305.000000	64.823913 
2304.000000	64.833092 
2303.000000	64.838027 
2302.000000	64.836287 
2301.000000	64.826560 
2300.000000	64.809226 
2299.000000	64.786362 
2298.000000	64.761495 
2297.000000	64.738583 
2296.000000	64.721536 
2295.000000	64.713120 
2294.000000	64.714431 
2293.000000	64.724683 
2292.000000	64.741420 
2291.000000	64.761137 
2290.000000	64.780068 
2289.000000	64.795041 
2288.000000	64.804100 
2287.000000	64.806723 
2286.000000	64.804005 
2285.000000	64.797925 
2284.000000	64.791035 
2283.000000	64.785695 
2282.000000	64.783811 
2281.000000	64.786386 
2280.000000	64.793586 
2279.000000	64.804887 
2278.000000	64.819216 
2277.000000	64.835214 
2276.000000	64.851117 
2275.000000	64.865231 
2274.000000	64.875602 
2273.000000	64.880633 
2272.000000	64.879035 
2271.000000	64.870262 
2270.000000	64.854645 
2269.000000	64.833521 
2268.000000	64.809107 
2267.000000	64.784073 
2266.000000	64.761233 
2265.000000	64.742922 
2264.000000	64.730548 
2263.000000	64.724397 
2262.000000	64.723730 
2261.000000	64.727067 
2260.000000	64.732766 
2259.000000	64.739251 
2258.000000	64.745593 
2257.000000	64.751458 
2256.000000	64.757084 
2255.000000	64.762949 
2254.000000	64.769434 
2253.000000	64.776468 
2252.000000	64.783430 
2251.000000	64.789319 
2250.000000	64.792776 
2249.000000	64.792585 
2248.000000	64.787769 
2247.000000	64.778041 
2246.000000	64.763760 
2245.000000	64.746093 
2244.000000	64.726734 
2243.000000	64.707660 
2242.000000	64.690756 
2241.000000	64.677643 
2240.000000	64.669537 
2239.000000	64.666891 
2238.000000	64.669728 
2237.000000	64.677357 
2236.000000	64.688825 
2235.000000	64.702773 
2234.000000	64.717841 
2233.000000	64.732551 
2232.000000	64.745688 
2231.000000	64.756274 
2230.000000	64.763712 
2229.000000	64.767789 
2228.000000	64.768505 
2227.000000	64.766335 
2226.000000	64.761948 
2225.000000	64.756011 
2224.000000	64.749217 
2223.000000	64.742159 
2222.000000	64.735150 
2221.000000	64.728331 
2220.000000	64.721608 
2219.000000	64.714884 
2218.000000	64.708113 
2217.000000	64.701318 
2216.000000	64.694786 
2215.000000	64.688992 
2214.000000	64.684128 
2213.000000	64.680504 
2212.000000	64.678215 
2211.000000	64.677357 
2210.000000	64.677667 
2209.000000	64.679074 
2208.000000	64.681625 
2207.000000	64.685654 
2206.000000	64.691734 
2205.000000	64.700508 
2204.000000	64.712357 
2203.000000	64.727449 
2202.000000	64.745545 
2201.000000	64.765667 
2200.000000	64.786434 
2199.000000	64.806222 
2198.000000	64.823508 
2197.000000	64.837002 
2196.000000	64.845871 
2195.000000	64.849877 
2194.000000	64.849305 
2193.000000	64.844822 
2192.000000	64.837336 
2191.000000	64.828133 
2190.000000	64.818596 
2189.000000	64.810252 
2188.000000	64.804649 
2187.000000	64.803171 
2186.000000	64.806795 
2185.000000	64.815974 
2184.000000	64.830160 
2183.000000	64.847874 
2182.000000	64.866638 
2181.000000	64.883422 
2180.000000	64.895129 
2179.000000	64.899277 
2178.000000	64.894437 
2177.000000	64.880728 
2176.000000	64.859676 
2175.000000	64.834165 
2174.000000	64.807677 
2173.000000	64.783573 
2172.000000	64.764332 
2171.000000	64.751195 
2170.000000	64.744043 
2169.000000	64.741373 
2168.000000	64.741063 
2167.000000	64.740705 
2166.000000	64.738345 
2165.000000	64.732885 
2164.000000	64.724206 
2163.000000	64.713406 
2162.000000	64.701962 
2161.000000	64.691805 
2160.000000	64.684557 
2159.000000	64.681434 
2158.000000	64.682841 
2157.000000	64.688229 
2156.000000	64.696383 
2155.000000	64.705371 
2154.000000	64.713263 
2153.000000	64.718127 
2152.000000	64.718604 
2151.000000	64.713978 
2150.000000	64.704394 
2149.000000	64.690828 
2148.000000	64.675116 
2147.000000	64.659428 
2146.000000	64.645934 
2145.000000	64.636516 
2144.000000	64.632201 
2143.000000	64.633393 
2142.000000	64.639520 
2141.000000	64.649605 
2140.000000	64.662170 
2139.000000	64.675688 
2138.000000	64.688634 
2137.000000	64.699411 
2136.000000	64.706563 
2135.000000	64.708757 
2134.000000	64.705181 
2133.000000	64.695596 
2132.000000	64.680743 
2131.000000	64.662265 
2130.000000	64.642667 
2129.000000	64.624738 
2128.000000	64.610886 
2127.000000	64.602899 
2126.000000	64.601254 
2125.000000	64.604997 
2124.000000	64.612030 
2123.000000	64.619565 
2122.000000	64.624786 
2121.000000	64.625597 
2120.000000	64.621090 
2119.000000	64.611482 
2118.000000	64.597988 
2117.000000	64.582252 
2116.000000	64.565825 
2115.000000	64.549875 
2114.000000	64.534974 
2113.000000	64.521360 
2112.000000	64.508986 
2111.000000	64.498162 
2110.000000	64.489412 
2109.000000	64.483809 
2108.000000	64.482450 
2107.000000	64.486479 
2106.000000	64.496564 
2105.000000	64.512777 
2104.000000	64.534235 
2103.000000	64.559459 
2102.000000	64.586377 
2101.000000	64.612889 
2100.000000	64.637160 
2099.000000	64.657974 
2098.000000	64.674639 
2097.000000	64.687275 
2096.000000	64.696478 
2095.000000	64.703202 
2094.000000	64.708399 
2093.000000	64.712786 
2092.000000	64.716720 
2091.000000	64.719796 
2090.000000	64.721012 
2089.000000	64.719057 
2088.000000	64.712595 
2087.000000	64.700770 
2086.000000	64.683532 
2085.000000	64.662027 
2084.000000	64.638185 
2083.000000	64.614343 
2082.000000	64.592647 
2081.000000	64.574837 
2080.000000	64.561748 
2079.000000	64.553380 
2078.000000	64.549183 
2077.000000	64.548373 
2076.000000	64.550137 
2075.000000	64.553880 
2074.000000	64.559412 
2073.000000	64.566397 
2072.000000	64.574575 
2071.000000	64.583420 
2070.000000	64.592123 
2069.000000	64.599418 
2068.000000	64.604067 
2067.000000	64.605140 
2066.000000	64.602136 
2065.000000	64.595341 
2064.000000	64.585804 
2063.000000	64.575338 
2062.000000	64.566016 
2061.000000	64.559864 
2060.000000	64.558339 
2059.000000	64.562177 
2058.000000	64.571285 
2057.000000	64.584803 
2056.000000	64.601302 
2055.000000	64.619064 
2054.000000	64.636516 
2053.000000	64.652323 
2052.000000	64.665246 
2051.000000	64.674592 
2050.000000	64.679956 
2049.000000	64.681339 
2048.000000	64.679145 
2047.000000	64.674162 
2046.000000	64.667606 
2045.000000	64.660644 
2044.000000	64.654517 
2043.000000	64.650034 
2042.000000	64.647388 
2041.000000	64.646077 
2040.000000	64.645338 
2039.000000	64.643955 
2038.000000	64.641022 
2037.000000	64.636182 
2036.000000	64.630007 
2035.000000	64.623904 
2034.000000	64.619874 
2033.000000	64.619946 
2032.000000	64.625573 
2031.000000	64.637184 
2030.000000	64.654016 
2029.000000	64.674115 
2028.000000	64.694809 
2027.000000	64.713406 
2026.000000	64.727735 
2025.000000	64.736700 
2024.000000	64.740395 
2023.000000	64.739990 
2022.000000	64.737224 
2021.000000	64.733958 
2020.000000	64.731454 
2019.000000	64.730238 
2018.000000	64.729762 
2017.000000	64.728951 
2016.000000	64.726519 
2015.000000	64.721584 
2014.000000	64.714217 
2013.000000	64.705467 
2012.000000	64.697265 
2011.000000	64.691972 
2010.000000	64.691805 
2009.000000	64.697933 
2008.000000	64.710235 
2007.000000	64.727210 
2006.000000	64.746165 
2005.000000	64.763951 
2004.000000	64.777469 
2003.000000	64.784383 
2002.000000	64.783477 
2001.000000	64.774894 
2000.000000	64.759874 
1999.000000	64.740490 
1998.000000	64.719223 
1997.000000	64.698219 
1996.000000	64.679360 
1995.000000	64.663624 
1994.000000	64.651656 
1993.000000	64.643359 
1992.000000	64.638400 
1991.000000	64.636158 
1990.000000	64.636039 
1989.000000	64.637351 
1988.000000	64.639496 
1987.000000	64.642071 
1986.000000	64.644765 
1985.000000	64.647340 
1984.000000	64.649653 
1983.000000	64.651536 
1982.000000	64.652681 
1981.000000	64.652800 
1980.000000	64.651513 
1979.000000	64.648795 
1978.000000	64.644813 
1977.000000	64.640259 
1976.000000	64.636015 
1975.000000	64.633297 
1974.000000	64.633274 
1973.000000	64.636588 
1972.000000	64.643597 
1971.000000	64.653778 
1970.000000	64.666271 
1969.000000	64.679813 
1968.000000	64.693093 
1967.000000	64.705133 
1966.000000	64.715313 
1965.000000	64.723563 
1964.000000	64.729952 
1963.000000	64.734673 
1962.000000	64.737820 
1961.000000	64.739274 
1960.000000	64.738988 
1959.000000	64.737176 
1958.000000	64.734220 
1957.000000	64.730930 
1956.000000	64.727997 
1955.000000	64.725852 
1954.000000	64.724302 
1953.000000	64.722537 
1952.000000	64.719295 
1951.000000	64.713263 
1950.000000	64.703369 
1949.000000	64.689373 
1948.000000	64.672255 
1947.000000	64.653897 
1946.000000	64.636802 
1945.000000	64.623451 
1944.000000	64.615607 
1943.000000	64.613866 
1942.000000	64.617419 
1941.000000	64.624261 
1940.000000	64.631819 
1939.000000	64.637517 
1938.000000	64.639496 
1937.000000	64.637088 
1936.000000	64.630746 
1935.000000	64.622044 
1934.000000	64.612865 
1933.000000	64.605379 
1932.000000	64.601349 
1931.000000	64.601922 
1930.000000	64.607381 
1929.000000	64.617133 
1928.000000	64.629864 
1927.000000	64.643692 
1926.000000	64.656591 
1925.000000	64.666533 
1924.000000	64.672017 
1923.000000	64.672183 
1922.000000	64.666914 
1921.000000	64.656925 
1920.000000	64.643454 
1919.000000	64.628505 
1918.000000	64.614152 
1917.000000	64.602398 
1916.000000	64.594936 
1915.000000	64.592838 
1914.000000	64.596390 
1913.000000	64.604973 
1912.000000	64.617395 
1911.000000	64.631843 
1910.000000	64.646315 
1909.000000	64.659023 
1908.000000	64.668488 
1907.000000	64.673781 
1906.000000	64.674568 
1905.000000	64.670944 
1904.000000	64.663386 
1903.000000	64.652466 
1902.000000	64.638686 
1901.000000	64.622330 
1900.000000	64.603662 
1899.000000	64.583086 
1898.000000	64.561152 
1897.000000	64.538979 
1896.000000	64.517951 
1895.000000	64.500117 
1894.000000	64.487719 
1893.000000	64.482903 
1892.000000	64.487028 
1891.000000	64.500331 
1890.000000	64.521408 
1889.000000	64.547467 
1888.000000	64.574575 
1887.000000	64.598417 
1886.000000	64.614892 
1885.000000	64.621400 
1884.000000	64.617061 
1883.000000	64.603137 
1882.000000	64.582324 
1881.000000	64.558553 
1880.000000	64.535975 
1879.000000	64.518141 
1878.000000	64.507484 
1877.000000	64.505100 
1876.000000	64.510893 
1875.000000	64.523792 
1874.000000	64.542198 
1873.000000	64.564299 
1872.000000	64.588308 
1871.000000	64.612364 
1870.000000	64.634466 
1869.000000	64.652395 
1868.000000	64.664053 
1867.000000	64.667892 
1866.000000	64.663028 
1865.000000	64.649939 
1864.000000	64.630293 
1863.000000	64.606952 
1862.000000	64.583396 
1861.000000	64.563250 
1860.000000	64.549493 
1859.000000	64.543986 
1858.000000	64.547061 
1857.000000	64.557623 
1856.000000	64.573645 
1855.000000	64.592504 
1854.000000	64.611697 
1853.000000	64.629077 
1852.000000	64.643239 
1851.000000	64.653563 
1850.000000	64.660120 
1849.000000	64.663386 
1848.000000	64.664196 
1847.000000	64.663386 
1846.000000	64.661860 
1845.000000	64.660215 
1844.000000	64.658522 
1843.000000	64.656448 
1842.000000	64.653062 
1841.000000	64.647293 
1840.000000	64.638161 
1839.000000	64.625000 
1838.000000	64.608120 
1837.000000	64.588594 
1836.000000	64.568161 
1835.000000	64.548993 
1834.000000	64.533257 
1833.000000	64.522504 
1832.000000	64.517378 
1831.000000	64.517378 
1830.000000	64.521098 
1829.000000	64.526581 
1828.000000	64.531755 
1827.000000	64.534974 
1826.000000	64.535379 
1825.000000	64.533090 
1824.000000	64.529085 
1823.000000	64.524674 
1822.000000	64.521193 
1821.000000	64.519786 
1820.000000	64.520931 
1819.000000	64.524435 
1818.000000	64.529418 
1817.000000	64.534544 
1816.000000	64.538455 
1815.000000	64.539837 
1814.000000	64.538264 
1813.000000	64.534020 
1812.000000	64.528417 
1811.000000	64.523506 
1810.000000	64.521265 
1809.000000	64.523673 
1808.000000	64.531660 
1807.000000	64.545154 
1806.000000	64.562630 
1805.000000	64.581513 
1804.000000	64.598727 
1803.000000	64.611387 
1802.000000	64.617371 
1801.000000	64.615726 
1800.000000	64.606785 
1799.000000	64.592099 
1798.000000	64.573884 
1797.000000	64.554429 
1796.000000	64.535593 
1795.000000	64.518499 
1794.000000	64.503765 
1793.000000	64.491486 
1792.000000	64.481568 
1791.000000	64.473772 
1790.000000	64.468050 
1789.000000	64.464282 
1788.000000	64.462018 
1787.000000	64.460659 
1786.000000	64.459300 
1785.000000	64.457154 
1784.000000	64.453625 
1783.000000	64.448714 
1782.000000	64.443063 
1781.000000	64.438128 
1780.000000	64.435672 
1779.000000	64.437508 
1778.000000	64.444780 
1777.000000	64.457607 
1776.000000	64.474844 
1775.000000	64.494204 
1774.000000	64.512968 
1773.000000	64.528107 
1772.000000	64.537239 
1771.000000	64.538812 
1770.000000	64.532732 
1769.000000	64.519810 
1768.000000	64.501619 
1767.000000	64.479899 
1766.000000	64.456272 
1765.000000	64.431905 
1764.000000	64.407610 
1763.000000	64.383649 
1762.000000	64.360189 
1761.000000	64.337563 
1760.000000	64.316654 
1759.000000	64.298629 
1758.000000	64.285039 
1757.000000	64.277338 
1756.000000	64.276719 
1755.000000	64.283466 
1754.000000	64.296722 
1753.000000	64.314579 
1752.000000	64.333963 
1751.000000	64.351105 
1750.000000	64.362049 
1749.000000	64.363479 
1748.000000	64.353251 
1747.000000	64.330577 
1746.000000	64.296507 
1745.000000	64.253759 
1744.000000	64.206290 
1743.000000	64.158463 
1742.000000	64.114546 
1741.000000	64.077782 
1740.000000	64.050054 
1739.000000	64.031672 
1738.000000	64.021611 
1737.000000	64.017939 
1736.000000	64.018297 
1735.000000	64.020681 
1734.000000	64.023661 
1733.000000	64.026808 
1732.000000	64.030051 
1731.000000	64.034152 
1730.000000	64.039540 
1729.000000	64.046883 
1728.000000	64.056110 
1727.000000	64.067316 
1726.000000	64.080357 
1725.000000	64.095020 
1724.000000	64.111185 
1723.000000	64.128661 
1722.000000	64.147233 
1721.000000	64.166355 
1720.000000	64.185047 
1719.000000	64.201927 
1718.000000	64.215517 
1717.000000	64.224600 
1716.000000	64.228701 
1715.000000	64.228248 
1714.000000	64.224815 
1713.000000	64.220476 
1712.000000	64.217519 
1711.000000	64.218020 
1710.000000	64.223289 
1709.000000	64.233684 
1708.000000	64.248204 
1707.000000	64.265418 
1706.000000	64.283323 
1705.000000	64.299941 
1704.000000	64.313840 
1703.000000	64.324069 
1702.000000	64.330649 
1701.000000	64.334344 
1700.000000	64.336538 
1699.000000	64.338755 
1698.000000	64.342474 
1697.000000	64.349007 
1696.000000	64.358901 
1695.000000	64.372181 
1694.000000	64.387679 
1693.000000	64.403820 
1692.000000	64.418387 
1691.000000	64.429163 
1690.000000	64.434337 
1689.000000	64.432954 
1688.000000	64.425230 
1687.000000	64.412403 
1686.000000	64.396500 
1685.000000	64.380025 
1684.000000	64.365220 
1683.000000	64.353799 
1682.000000	64.346861 
1681.000000	64.344596 
1680.000000	64.346742 
1679.000000	64.352560 
1678.000000	64.361095 
1677.000000	64.371347 
1676.000000	64.382219 
1675.000000	64.392566 
1674.000000	64.401245 
1673.000000	64.407181 
1672.000000	64.409327 
1671.000000	64.407062 
1670.000000	64.400482 
1669.000000	64.390230 
1668.000000	64.377808 
1667.000000	64.364981 
1666.000000	64.353632 
1665.000000	64.345145 
1664.000000	64.340329 
1663.000000	64.339184 
1662.000000	64.341044 
1661.000000	64.344835 
1660.000000	64.349412 
1659.000000	64.353919 
1658.000000	64.357948 
1657.000000	64.361500 
1656.000000	64.364862 
1655.000000	64.368462 
1654.000000	64.372396 
1653.000000	64.376497 
1652.000000	64.380121 
1651.000000	64.382219 
1650.000000	64.381766 
1649.000000	64.377832 
1648.000000	64.370083 
1647.000000	64.358806 
1646.000000	64.345192 
1645.000000	64.330959 
1644.000000	64.318132 
1643.000000	64.308619 
1642.000000	64.303684 
1641.000000	64.303922 
1640.000000	64.308929 
1639.000000	64.317250 
1638.000000	64.326858 
1637.000000	64.335465 
1636.000000	64.340925 
1635.000000	64.341640 
1634.000000	64.336895 
1633.000000	64.326906 
1632.000000	64.312481 
1631.000000	64.294934 
1630.000000	64.275717 
1629.000000	64.256358 
1628.000000	64.238047 
1627.000000	64.221882 
1626.000000	64.208722 
1625.000000	64.199066 
1624.000000	64.193129 
1623.000000	64.190745 
1622.000000	64.191532 
1621.000000	64.194846 
1620.000000	64.199900 
1619.000000	64.206266 
1618.000000	64.213442 
1617.000000	64.221692 
1616.000000	64.231371 
1615.000000	64.243221 
1614.000000	64.257812 
1613.000000	64.275288 
1612.000000	64.295053 
1611.000000	64.315915 
1610.000000	64.336013 
1609.000000	64.353227 
1608.000000	64.365744 
1607.000000	64.372324 
1606.000000	64.372658 
1605.000000	64.367294 
1604.000000	64.357590 
1603.000000	64.345407 
1602.000000	64.332771 
1601.000000	64.321517 
1600.000000	64.312958 
1599.000000	64.308023 
1598.000000	64.307045 
1597.000000	64.309811 
1596.000000	64.315414 
1595.000000	64.322924 
1594.000000	64.330983 
1593.000000	64.338111 
1592.000000	64.342832 
1591.000000	64.344024 
1590.000000	64.341044 
1589.000000	64.333891 
1588.000000	64.323258 
1587.000000	64.310288 
1586.000000	64.296245 
1585.000000	64.282417 
1584.000000	64.269495 
1583.000000	64.257597 
1582.000000	64.246702 
1581.000000	64.236831 
1580.000000	64.228320 
1579.000000	64.221763 
1578.000000	64.218187 
1577.000000	64.218926 
1576.000000	64.224863 
1575.000000	64.236283 
1574.000000	64.252758 
1573.000000	64.273095 
1572.000000	64.295530 
1571.000000	64.318108 
1570.000000	64.338898 
1569.000000	64.356541 
1568.000000	64.370369 
1567.000000	64.380550 
1566.000000	64.387798 
1565.000000	64.393210 
1564.000000	64.398217 
1563.000000	64.403629 
1562.000000	64.409780 
1561.000000	64.416027 
1560.000000	64.421463 
1559.000000	64.424085 
1558.000000	64.421844 
1557.000000	64.412593 
1556.000000	64.394950 
1555.000000	64.368152 
1554.000000	64.332532 
1553.000000	64.289498 
1552.000000	64.241671 
1551.000000	64.192366 
1550.000000	64.145231 
1549.000000	64.103746 
1548.000000	64.070916 
1547.000000	64.048624 
1546.000000	64.037728 
1545.000000	64.037489 
1544.000000	64.046454 
1543.000000	64.062166 
1542.000000	64.082336 
1541.000000	64.104318 
1540.000000	64.126396 
1539.000000	64.147305 
1538.000000	64.166927 
1537.000000	64.185333 
1536.000000	64.203262 
1535.000000	64.221501 
1534.000000	64.240741 
1533.000000	64.261436 
1532.000000	64.283418 
1531.000000	64.305830 
1530.000000	64.327597 
1529.000000	64.347410 
1528.000000	64.364266 
1527.000000	64.377474 
1526.000000	64.387202 
1525.000000	64.394259 
1524.000000	64.399838 
1523.000000	64.405250 
1522.000000	64.411473 
1521.000000	64.418983 
1520.000000	64.427471 
1519.000000	64.435744 
1518.000000	64.442467 
1517.000000	64.446043 
1516.000000	64.445233 
1515.000000	64.439439 
1514.000000	64.428925 
1513.000000	64.414620 
1512.000000	64.398336 
1511.000000	64.382195 
1510.000000	64.368152 
1509.000000	64.357805 
1508.000000	64.352369 
1507.000000	64.352202 
1506.000000	64.356899 
1505.000000	64.365530 
1504.000000	64.376807 
1503.000000	64.389395 
1502.000000	64.401841 
1501.000000	64.413046 
1500.000000	64.422273 
1499.000000	64.429187 
1498.000000	64.433550 
1497.000000	64.435505 
1496.000000	64.435291 
1495.000000	64.433097 
1494.000000	64.429163 
1493.000000	64.423727 
1492.000000	64.416885 
1491.000000	64.408826 
1490.000000	64.399671 
1489.000000	64.389538 
1488.000000	64.378547 
1487.000000	64.366888 
1486.000000	64.354753 
1485.000000	64.342451 
1484.000000	64.330339 
1483.000000	64.318966 
1482.000000	64.308738 
1481.000000	64.300131 
1480.000000	64.293313 
1479.000000	64.288306 
1478.000000	64.284706 
1477.000000	64.281892 
1476.000000	64.279150 
1475.000000	64.275646 
1474.000000	64.270615 
1473.000000	64.263534 
1472.000000	64.254236 
1471.000000	64.243102 
1470.000000	64.230871 
1469.000000	64.218592 
1468.000000	64.207506 
1467.000000	64.198970 
1466.000000	64.193964 
1465.000000	64.193153 
1464.000000	64.196515 
1463.000000	64.203643 
1462.000000	64.213585 
1461.000000	64.225101 
1460.000000	64.236736 
1459.000000	64.247202 
1458.000000	64.255261 
1457.000000	64.259910 
1456.000000	64.260387 
1455.000000	64.256191 
1454.000000	64.246940 
1453.000000	64.232587 
1452.000000	64.213395 
1451.000000	64.190268 
1450.000000	64.164614 
1449.000000	64.138746 
1448.000000	64.115500 
1447.000000	64.098095 
1446.000000	64.089608 
1445.000000	64.092326 
1444.000000	64.107346 
1443.000000	64.134263 
1442.000000	64.170908 
1441.000000	64.213562 
1440.000000	64.257407 
1439.000000	64.297389 
1438.000000	64.329099 
1437.000000	64.349341 
1436.000000	64.356803 
1435.000000	64.352107 
1434.000000	64.337730 
1433.000000	64.317417 
1432.000000	64.295148 
1431.000000	64.274621 
1430.000000	64.258265 
1429.000000	64.247345 
1428.000000	64.241552 
1427.000000	64.239573 
1426.000000	64.239478 
1425.000000	64.239573 
1424.000000	64.238810 
1423.000000	64.236974 
1422.000000	64.234614 
1421.000000	64.232730 
1420.000000	64.232230 
1419.000000	64.233398 
1418.000000	64.235758 
1417.000000	64.238023 
1416.000000	64.238476 
1415.000000	64.235186 
1414.000000	64.226889 
1413.000000	64.213109 
1412.000000	64.194560 
1411.000000	64.172911 
1410.000000	64.150285 
1409.000000	64.128947 
1408.000000	64.110875 
1407.000000	64.097690 
1406.000000	64.089941 
1405.000000	64.087653 
1404.000000	64.090347 
1403.000000	64.097285 
1402.000000	64.107704 
1401.000000	64.120841 
1400.000000	64.135646 
1399.000000	64.151144 
1398.000000	64.165997 
1397.000000	64.178943 
1396.000000	64.188742 
1395.000000	64.194679 
1394.000000	64.196705 
1393.000000	64.195418 
1392.000000	64.192128 
1391.000000	64.188408 
1390.000000	64.185714 
1389.000000	64.184951 
1388.000000	64.186120 
1387.000000	64.188313 
1386.000000	64.189839 
1385.000000	64.188504 
1384.000000	64.182424 
1383.000000	64.170408 
1382.000000	64.152693 
1381.000000	64.130806 
1380.000000	64.107608 
1379.000000	64.086580 
1378.000000	64.071130 
1377.000000	64.063763 
1376.000000	64.065551 
1375.000000	64.075922 
1374.000000	64.092731 
1373.000000	64.112854 
1372.000000	64.133048 
1371.000000	64.150404 
1370.000000	64.163136 
1369.000000	64.170598 
1368.000000	64.173293 
1367.000000	64.172315 
1366.000000	64.169096 
1365.000000	64.164590 
1364.000000	64.159345 
1363.000000	64.153409 
1362.000000	64.146542 
1361.000000	64.138793 
1360.000000	64.130568 
1359.000000	64.122796 
1358.000000	64.116573 
1357.000000	64.112877 
1356.000000	64.112234 
1355.000000	64.114475 
1354.000000	64.118766 
1353.000000	64.123821 
1352.000000	64.128065 
1351.000000	64.130234 
1350.000000	64.129328 
1349.000000	64.125156 
1348.000000	64.118099 
1347.000000	64.109301 
1346.000000	64.100289 
1345.000000	64.093112 
1344.000000	64.089679 
1343.000000	64.091730 
1342.000000	64.100456 
1341.000000	64.115929 
1340.000000	64.137196 
1339.000000	64.162135 
1338.000000	64.187788 
1337.000000	64.210724 
1336.000000	64.227771 
1335.000000	64.236760 
1334.000000	64.236998 
1333.000000	64.229607 
1332.000000	64.217162 
1331.000000	64.203166 
1330.000000	64.191079 
1329.000000	64.183473 
1328.000000	64.181351 
1327.000000	64.184308 
1326.000000	64.190220 
1325.000000	64.196515 
1324.000000	64.200496 
1323.000000	64.200472 
1322.000000	64.196085 
1321.000000	64.188241 
1320.000000	64.178681 
1319.000000	64.169335 
1318.000000	64.161610 
1317.000000	64.155840 
1316.000000	64.151453 
1315.000000	64.147186 
1314.000000	64.141726 
1313.000000	64.134263 
1312.000000	64.124941 
1311.000000	64.114928 
1310.000000	64.106059 
1309.000000	64.100217 
1308.000000	64.098715 
1307.000000	64.101934 
1306.000000	64.108872 
1305.000000	64.117431 
1304.000000	64.125132 
1303.000000	64.129495 
1302.000000	64.128780 
1301.000000	64.122319 
1300.000000	64.110755 
1299.000000	64.095830 
1298.000000	64.079928 
1297.000000	64.065814 
1296.000000	64.055728 
1295.000000	64.051365 
1294.000000	64.053511 
1293.000000	64.061808 
1292.000000	64.074921 
1291.000000	64.090490 
1290.000000	64.105772 
1289.000000	64.117836 
1288.000000	64.124083 
1287.000000	64.122867 
1286.000000	64.113879 
1285.000000	64.098215 
1284.000000	64.078164 
1283.000000	64.056968 
1282.000000	64.038014 
1281.000000	64.024114 
1280.000000	64.016675 
1279.000000	64.015483 
1278.000000	64.018678 
1277.000000	64.023399 
1276.000000	64.026784 
1275.000000	64.026355 
1274.000000	64.021205 
1273.000000	64.012026 
1272.000000	64.000868 
1271.000000	63.990569 
1270.000000	63.983893 
1269.000000	63.982844 
1268.000000	63.987946 
1267.000000	63.998413 
1266.000000	64.012098 
1265.000000	64.026355 
1264.000000	64.038753 
1263.000000	64.047670 
1262.000000	64.052867 
1261.000000	64.055418 
1260.000000	64.057302 
1259.000000	64.060711 
1258.000000	64.067292 
1257.000000	64.077615 
1256.000000	64.090871 
1255.000000	64.105081 
1254.000000	64.117431 
1253.000000	64.125132 
1252.000000	64.126062 
1251.000000	64.119410 
1250.000000	64.105725 
1249.000000	64.086508 
1248.000000	64.064288 
1247.000000	64.041614 
1246.000000	64.020824 
1245.000000	64.003324 
1244.000000	63.989734 
1243.000000	63.979506 
1242.000000	63.971710 
1241.000000	63.964891 
1240.000000	63.957715 
1239.000000	63.949275 
1238.000000	63.939166 
1237.000000	63.927817 
1236.000000	63.916015 
1235.000000	63.905072 
1234.000000	63.896179 
1233.000000	63.890504 
1232.000000	63.888692 
1231.000000	63.890910 
1230.000000	63.896918 
1229.000000	63.906097 
1228.000000	63.917636 
1227.000000	63.930606 
1226.000000	63.944435 
1225.000000	63.958644 
1224.000000	63.972997 
1223.000000	63.987255 
1222.000000	64.001131 
1221.000000	64.014124 
1220.000000	64.025354 
1219.000000	64.033842 
1218.000000	64.038634 
1217.000000	64.039015 
1216.000000	64.034557 
1215.000000	64.025449 
1214.000000	64.012241 
1213.000000	63.996243 
1212.000000	63.979029 
1211.000000	63.962483 
1210.000000	63.948202 
1209.000000	63.937664 
1208.000000	63.931369 
1207.000000	63.929152 
1206.000000	63.929843 
1205.000000	63.931751 
1204.000000	63.933062 
1203.000000	63.932275 
1202.000000	63.928532 
1201.000000	63.921880 
1200.000000	63.912940 
1199.000000	63.902831 
1198.000000	63.892602 
1197.000000	63.882899 
1196.000000	63.873910 
1195.000000	63.865351 
1194.000000	63.856744 
1193.000000	63.847756 
1192.000000	63.838386 
1191.000000	63.829302 
1190.000000	63.821554 
1189.000000	63.816618 
1188.000000	63.815712 
1187.000000	63.819742 
1186.000000	63.828682 
1185.000000	63.841843 
1184.000000	63.857722 
1183.000000	63.874530 
1182.000000	63.890504 
1181.000000	63.904094 
1180.000000	63.914322 
1179.000000	63.920497 
1178.000000	63.922524 
1177.000000	63.920640 
1176.000000	63.915276 
1175.000000	63.906931 
1174.000000	63.896298 
1173.000000	63.883829 
1172.000000	63.870048 
1171.000000	63.855528 
1170.000000	63.841104 
1169.000000	63.828086 
1168.000000	63.818192 
1167.000000	63.813495 
1166.000000	63.815450 
1165.000000	63.824605 
1164.000000	63.840174 
1163.000000	63.859796 
1162.000000	63.880276 
1161.000000	63.898110 
1160.000000	63.910365 
1159.000000	63.915443 
1158.000000	63.913035 
1157.000000	63.904094 
1156.000000	63.890409 
1155.000000	63.874125 
1154.000000	63.857555 
1153.000000	63.842630 
1152.000000	63.831067 
1151.000000	63.824295 
1150.000000	63.822865 
1149.000000	63.826656 
1148.000000	63.834524 
1147.000000	63.844466 
1146.000000	63.853740 
1145.000000	63.859391 
1144.000000	63.858771 
1143.000000	63.850307 
1142.000000	63.833713 
1141.000000	63.810348 
1140.000000	63.783073 
1139.000000	63.755297 
1138.000000	63.730335 
1137.000000	63.710522 
1136.000000	63.696861 
1135.000000	63.688802 
1134.000000	63.684487 
1133.000000	63.682007 
1132.000000	63.679409 
1131.000000	63.676118 
1130.000000	63.672804 
1129.000000	63.671469 
1128.000000	63.674330 
1127.000000	63.683843 
1126.000000	63.701462 
1125.000000	63.727545 
1124.000000	63.760709 
1123.000000	63.798403 
1122.000000	63.837313 
1121.000000	63.874125 
1120.000000	63.906097 
1119.000000	63.931560 
1118.000000	63.950157 
1117.000000	63.962721 
1116.000000	63.970756 
1115.000000	63.976049 
1114.000000	63.980197 
1113.000000	63.984370 
1112.000000	63.989257 
1111.000000	63.995361 
1110.000000	64.002895 
1109.000000	64.012432 
1108.000000	64.023852 
1107.000000	64.036941 
1106.000000	64.050602 
1105.000000	64.063286 
1104.000000	64.073038 
1103.000000	64.077901 
1102.000000	64.076375 
1101.000000	64.068007 
1100.000000	64.052820 
1099.000000	64.031624 
1098.000000	64.005494 
1097.000000	63.975572 
1096.000000	63.942933 
1095.000000	63.908743 
1094.000000	63.874220 
1093.000000	63.840913 
1092.000000	63.810753 
1091.000000	63.786005 
1090.000000	63.768672 
1089.000000	63.760280 
1088.000000	63.761258 
1087.000000	63.771224 
1086.000000	63.788080 
1085.000000	63.808941 
1084.000000	63.830280 
1083.000000	63.848781 
1082.000000	63.861799 
1081.000000	63.867998 
1080.000000	63.867449 
1079.000000	63.861632 
1078.000000	63.852787 
1077.000000	63.844013 
1076.000000	63.838171 
1075.000000	63.837742 
1074.000000	63.844251 
1073.000000	63.858056 
1072.000000	63.878417 
1071.000000	63.903570 
1070.000000	63.931035 
1069.000000	63.957834 
1068.000000	63.980889 
1067.000000	63.997793 
1066.000000	64.006972 
1065.000000	64.007830 
1064.000000	64.000940 
1063.000000	63.988041 
1062.000000	63.971638 
1061.000000	63.954615 
1060.000000	63.939476 
1059.000000	63.928198 
1058.000000	63.921689 
1057.000000	63.919711 
1056.000000	63.921189 
1055.000000	63.924169 
1054.000000	63.926768 
1053.000000	63.927245 
1052.000000	63.924622 
1051.000000	63.918542 
1050.000000	63.909459 
1049.000000	63.898158 
1048.000000	63.885903 
1047.000000	63.873696 
1046.000000	63.862609 
1045.000000	63.853263 
1044.000000	63.846254 
1043.000000	63.842058 
1042.000000	63.841438 
1041.000000	63.845205 
1040.000000	63.854002 
1039.000000	63.868141 
1038.000000	63.887405 
1037.000000	63.910937 
1036.000000	63.936996 
1035.000000	63.962984 
1034.000000	63.986325 
1033.000000	64.004611 
1032.000000	64.016056 
1031.000000	64.019727 
1030.000000	64.015698 
1029.000000	64.004945 
1028.000000	63.989257 
1027.000000	63.970851 
1026.000000	63.951945 
1025.000000	63.934755 
1024.000000	63.921141 
1023.000000	63.912844 
1022.000000	63.910913 
1021.000000	63.915944 
1020.000000	63.927936 
1019.000000	63.946294 
1018.000000	63.969850 
1017.000000	63.996958 
1016.000000	64.025592 
1015.000000	64.053344 
1014.000000	64.077734 
1013.000000	64.096426 
1012.000000	64.107465 
1011.000000	64.109253 
1010.000000	64.100742 
1009.000000	64.081764 
1008.000000	64.052939 
1007.000000	64.016079 
1006.000000	63.973951 
1005.000000	63.930106 
1004.000000	63.888597 
1003.000000	63.853263 
1002.000000	63.827371 
1001.000000	63.812971 
1000.000000	63.810563 
999.000000	 63.819098 
998.000000	 63.836407 
997.000000	 63.859176 
996.000000	 63.883852 
995.000000	 63.907027 
994.000000	 63.926029 
993.000000	 63.939070 
992.000000	 63.945794 
991.000000	 63.946914 
990.000000	 63.944244 
989.000000	 63.940215 
988.000000	 63.937354 
987.000000	 63.938021 
986.000000	 63.943696 
985.000000	 63.954830 
984.000000	 63.970470 
983.000000	 63.988828 
982.000000	 64.007091 
981.000000	 64.022397 
980.000000	 64.032530 
979.000000	 64.036488 
978.000000	 64.034581 
977.000000	 64.028573 
976.000000	 64.021134 
975.000000	 64.015150 
974.000000	 64.012956 
973.000000	 64.015793 
972.000000	 64.023423 
971.000000	 64.034366 
970.000000	 64.046311 
969.000000	 64.056801 
968.000000	 64.064168 
967.000000	 64.067864 
966.000000	 64.068603 
965.000000	 64.068078 
964.000000	 64.068198 
963.000000	 64.070582 
962.000000	 64.075970 
961.000000	 64.084243 
960.000000	 64.094376 
959.000000	 64.104986 
958.000000	 64.114737 
957.000000	 64.122462 
956.000000	 64.127397 
955.000000	 64.129066 
954.000000	 64.127278 
953.000000	 64.121985 
952.000000	 64.113163 
951.000000	 64.100933 
950.000000	 64.085245 
949.000000	 64.066481 
948.000000	 64.044952 
947.000000	 64.021301 
946.000000	 63.996362 
945.000000	 63.971090 
944.000000	 63.946700 
943.000000	 63.924312 
942.000000	 63.905644 
941.000000	 63.892221 
940.000000	 63.885855 
939.000000	 63.887786 
938.000000	 63.898754 
937.000000	 63.918519 
936.000000	 63.945674 
935.000000	 63.977599 
934.000000	 64.010930 
933.000000	 64.042210 
932.000000	 64.068388 
931.000000	 64.087486 
930.000000	 64.098858 
929.000000	 64.102959 
928.000000	 64.101290 
927.000000	 64.095664 
926.000000	 64.087843 
925.000000	 64.079093 
924.000000	 64.070200 
923.000000	 64.061379 
922.000000	 64.052605 
921.000000	 64.043736 
920.000000	 64.034962 
919.000000	 64.026570 
918.000000	 64.019107 
917.000000	 64.012765 
916.000000	 64.007449 
915.000000	 64.002490 
914.000000	 63.996720 
913.000000	 63.988828 
912.000000	 63.977789 
911.000000	 63.963484 
910.000000	 63.946747 
909.000000	 63.929462 
908.000000	 63.914227 
907.000000	 63.903641 
906.000000	 63.899874 
905.000000	 63.903808 
904.000000	 63.914775 
903.000000	 63.931226 
902.000000	 63.951015 
901.000000	 63.972139 
900.000000	 63.992905 
899.000000	 64.012336 
898.000000	 64.030146 
897.000000	 64.046287 
896.000000	 64.060711 
895.000000	 64.072728 
894.000000	 64.081025 
893.000000	 64.083981 
892.000000	 64.080047 
891.000000	 64.068341 
890.000000	 64.049148 
889.000000	 64.024257 
888.000000	 63.996863 
887.000000	 63.970994 
886.000000	 63.950848 
885.000000	 63.939929 
884.000000	 63.940000 
883.000000	 63.950800 
882.000000	 63.969635 
881.000000	 63.992238 
880.000000	 64.013075 
879.000000	 64.026713 
878.000000	 64.028930 
877.000000	 64.017772 
876.000000	 63.994216 
875.000000	 63.961863 
874.000000	 63.926625 
873.000000	 63.895273 
872.000000	 63.873863 
871.000000	 63.866209 
870.000000	 63.873291 
869.000000	 63.892626 
868.000000	 63.919210 
867.000000	 63.946604 
866.000000	 63.968515 
865.000000	 63.980126 
864.000000	 63.979434 
863.000000	 63.967609 
862.000000	 63.948035 
861.000000	 63.925957 
860.000000	 63.906693 
859.000000	 63.894772 
858.000000	 63.892555 
857.000000	 63.900136 
856.000000	 63.915681 
855.000000	 63.935995 
854.000000	 63.957762 
853.000000	 63.978314 
852.000000	 63.996315 
851.000000	 64.012026 
850.000000	 64.026713 
849.000000	 64.042472 
848.000000	 64.061427 
847.000000	 64.084887 
846.000000	 64.113044 
845.000000	 64.144802 
844.000000	 64.177751 
843.000000	 64.209222 
842.000000	 64.235901 
841.000000	 64.254856 
840.000000	 64.263343 
839.000000	 64.259743 
838.000000	 64.243483 
837.000000	 64.215183 
836.000000	 64.176487 
835.000000	 64.130091 
834.000000	 64.079332 
833.000000	 64.028191 
832.000000	 63.980484 
831.000000	 63.939547 
830.000000	 63.907790 
829.000000	 63.886284 
828.000000	 63.874745 
827.000000	 63.871598 
826.000000	 63.874387 
825.000000	 63.880228 
824.000000	 63.886284 
823.000000	 63.890242 
822.000000	 63.891100 
821.000000	 63.889193 
820.000000	 63.886070 
819.000000	 63.884043 
818.000000	 63.885855 
817.000000	 63.894200 
816.000000	 63.910794 
815.000000	 63.935804 
814.000000	 63.968086 
813.000000	 64.004969 
812.000000	 64.042520 
811.000000	 64.076209 
810.000000	 64.101719 
809.000000	 64.115738 
808.000000	 64.116597 
807.000000	 64.104723 
806.000000	 64.082551 
805.000000	 64.054250 
804.000000	 64.025187 
803.000000	 64.000296 
802.000000	 63.983225 
801.000000	 63.975429 
800.000000	 63.976407 
799.000000	 63.983368 
798.000000	 63.992381 
797.000000	 63.999199 
796.000000	 64.000511 
795.000000	 63.994503 
794.000000	 63.981032 
793.000000	 63.961458 
792.000000	 63.938093 
791.000000	 63.913202 
790.000000	 63.888716 
789.000000	 63.865613 
788.000000	 63.843822 
787.000000	 63.822746 
786.000000	 63.801574 
785.000000	 63.779926 
784.000000	 63.758444 
783.000000	 63.738751 
782.000000	 63.723492 
781.000000	 63.715171 
780.000000	 63.715863 
779.000000	 63.726329 
778.000000	 63.746070 
777.000000	 63.772630 
776.000000	 63.802933 
775.000000	 63.833498 
774.000000	 63.861370 
773.000000	 63.884496 
772.000000	 63.901710 
771.000000	 63.912773 
770.000000	 63.917970 
769.000000	 63.917684 
768.000000	 63.912224 
767.000000	 63.901853 
766.000000	 63.887166 
765.000000	 63.869118 
764.000000	 63.849639 
763.000000	 63.831090 
762.000000	 63.816118 
761.000000	 63.807058 
760.000000	 63.804817 
759.000000	 63.808822 
758.000000	 63.816714 
757.000000	 63.825368 
756.000000	 63.831663 
755.000000	 63.833403 
754.000000	 63.830256 
753.000000	 63.823294 
752.000000	 63.814449 
751.000000	 63.805770 
750.000000	 63.798904 
749.000000	 63.794136 
748.000000	 63.790249 
747.000000	 63.785052 
746.000000	 63.776087 
745.000000	 63.761496 
744.000000	 63.740944 
743.000000	 63.715457 
742.000000	 63.687252 
741.000000	 63.659381 
740.000000	 63.635230 
739.000000	 63.617396 
738.000000	 63.607263 
737.000000	 63.605427 
736.000000	 63.611412 
735.000000	 63.623619 
734.000000	 63.639664 
733.000000	 63.656210 
732.000000	 63.670158 
731.000000	 63.678097 
730.000000	 63.678765 
729.000000	 63.672518 
728.000000	 63.663172 
727.000000	 63.657140 
726.000000	 63.662385 
725.000000	 63.686537 
724.000000	 63.734197 
723.000000	 63.805961 
722.000000	 63.896369 
721.000000	 63.995003 
720.000000	 64.087867 
719.000000	 64.160466 
718.000000	 64.200997 
717.000000	 64.203071 
716.000000	 64.167237 
715.000000	 64.100432 
714.000000	 64.013957 
713.000000	 63.920354 
712.000000	 63.830518 
711.000000	 63.751459 
710.000000	 63.685297 
709.000000	 63.629961 
708.000000	 63.581013 
707.000000	 63.534188 
706.000000	 63.487529 
705.000000	 63.443088 
704.000000	 63.405275 
703.000000	 63.381314 
702.000000	 63.377809 
701.000000	 63.400125 
700.000000	 63.449406 
699.000000	 63.522839 
698.000000	 63.613414 
697.000000	 63.711214 
696.000000	 63.805270 
695.000000	 63.885068 
694.000000	 63.942575 
693.000000	 63.972830 
692.000000	 63.974118 
691.000000	 63.949108 
690.000000	 63.903903 
689.000000	 63.847637 
688.000000	 63.790607 
687.000000	 63.742804 
686.000000	 63.711786 
685.000000	 63.701629 
684.000000	 63.711595 
683.000000	 63.735127 
682.000000	 63.761329 
681.000000	 63.777136 
680.000000	 63.771033 
679.000000	 63.735055 
678.000000	 63.668465 
677.000000	 63.577699 
676.000000	 63.476300 
675.000000	 63.382124 
674.000000	 63.312911 
673.000000	 63.282680 
672.000000	 63.297295 
671.000000	 63.353681 
670.000000	 63.439178 
669.000000	 63.534617 
668.000000	 63.618397 
667.000000	 63.671660 
666.000000	 63.682389 
665.000000	 63.647413 
664.000000	 63.574218 
663.000000	 63.478326 
662.000000	 63.380479 
661.000000	 63.301563 
660.000000	 63.259387 
659.000000	 63.264417 
658.000000	 63.319253 
657.000000	 63.417458 
656.000000	 63.544368 
655.000000	 63.679695 
654.000000	 63.802385 
653.000000	 63.894295 
652.000000	 63.942384 
651.000000	 63.941669 
650.000000	 63.895583 
649.000000	 63.814258 
648.000000	 63.711833 
647.000000	 63.602685 
646.000000	 63.499236 
645.000000	 63.408803 
644.000000	 63.334012 
643.000000	 63.272905 
642.000000	 63.221955 
641.000000	 63.177204 
640.000000	 63.136625 
639.000000	 63.100552 
638.000000	 63.071179 
637.000000	 63.051819 
636.000000	 63.045406 
635.000000	 63.053107 
634.000000	 63.073754 
633.000000	 63.105797 
632.000000	 63.148570 
631.000000	 63.203692 
630.000000	 63.275265 
629.000000	 63.369560 
628.000000	 63.492321 
627.000000	 63.646674 
626.000000	 63.829970 
625.000000	 64.032840 
624.000000	 64.239120 
623.000000	 64.428162 
622.000000	 64.578342 
621.000000	 64.672684 
620.000000	 64.701700 
619.000000	 64.666461 
618.000000	 64.577484 
617.000000	 64.453554 
616.000000	 64.316511 
615.000000	 64.188265 
614.000000	 64.084672 
613.000000	 64.013791 
612.000000	 63.975119 
611.000000	 63.962340 
610.000000	 63.964915 
609.000000	 63.972115 
608.000000	 63.975763 
607.000000	 63.972234 
606.000000	 63.962364 
605.000000	 63.950419 
604.000000	 63.941788 
603.000000	 63.940930 
602.000000	 63.949704 
601.000000	 63.966608 
600.000000	 63.987421 
599.000000	 64.005732 
598.000000	 64.015507 
597.000000	 64.011693 
596.000000	 63.991045 
595.000000	 63.952612 
594.000000	 63.897991 
593.000000	 63.830900 
592.000000	 63.755536 
591.000000	 63.677430 
590.000000	 63.602352 
589.000000	 63.536858 
588.000000	 63.487029 
587.000000	 63.458466 
586.000000	 63.455128 
585.000000	 63.478922 
584.000000	 63.528966 
583.000000	 63.600850 
582.000000	 63.686513 
581.000000	 63.776469 
580.000000	 63.861274 
579.000000	 63.934302 
578.000000	 63.992834 
577.000000	 64.038348 
576.000000	 64.075183 
575.000000	 64.108920 
574.000000	 64.143466 
573.000000	 64.179539 
572.000000	 64.213609 
571.000000	 64.239263 
570.000000	 64.249038 
569.000000	 64.237403 
568.000000	 64.202713 
567.000000	 64.149522 
566.000000	 64.087271 
565.000000	 64.028286 
564.000000	 63.985300 
563.000000	 63.967847 
562.000000	 63.980960 
561.000000	 64.023184 
560.000000	 64.089059 
559.000000	 64.170861 
558.000000	 64.260506 
557.000000	 64.352130 
556.000000	 64.440155 
555.000000	 64.519166 
554.000000	 64.582824 
553.000000	 64.623832 
552.000000	 64.635896 
551.000000	 64.614534 
550.000000	 64.559745 
549.000000	 64.475917 
548.000000	 64.371991 
547.000000	 64.259290 
546.000000	 64.148831 
545.000000	 64.048957 
544.000000	 63.965010 
543.000000	 63.897418 
542.000000	 63.843941 
541.000000	 63.799142 
540.000000	 63.756418 
539.000000	 63.709712 
538.000000	 63.653898 
537.000000	 63.587951 
536.000000	 63.513493 
535.000000	 63.436841 
534.000000	 63.366007 
533.000000	 63.311147 
532.000000	 63.281393 
531.000000	 63.283944 
530.000000	 63.321852 
529.000000	 63.393950 
528.000000	 63.494420 
527.000000	 63.612866 
526.000000	 63.735723 
525.000000	 63.847923 
524.000000	 63.935661 
523.000000	 63.987779 
522.000000	 63.998270 
521.000000	 63.967275 
520.000000	 63.901543 
519.000000	 63.813638 
518.000000	 63.719654 
517.000000	 63.635754 
516.000000	 63.575410 
515.000000	 63.548278 
514.000000	 63.557958 
513.000000	 63.601398 
512.000000	 63.670563 
511.000000	 63.755559 
510.000000	 63.845634 
509.000000	 63.930988 
508.000000	 64.004087 
507.000000	 64.059662 
506.000000	 64.095401 
505.000000	 64.111304 
504.000000	 64.108252 
503.000000	 64.087271 
502.000000	 64.049243 
501.000000	 63.995289 
500.000000	 63.926935 
499.000000	 63.846993 
498.000000	 63.760781 
497.000000	 63.676261 
496.000000	 63.602614 
495.000000	 63.549208 
494.000000	 63.523793 
493.000000	 63.531851 
492.000000	 63.573098 
491.000000	 63.644433 
490.000000	 63.740968 
489.000000	 63.858437 
488.000000	 63.993382 
487.000000	 64.143466 
486.000000	 64.306998 
485.000000	 64.479660 
484.000000	 64.655303 
483.000000	 64.821600 
482.000000	 64.961576 
481.000000	 65.054750 
480.000000	 65.082907 
479.000000	 65.032505 
478.000000	 64.899563 
477.000000	 64.691352 
476.000000	 64.427423 
475.000000	 64.135432 
474.000000	 63.847088 
473.000000	 63.591289 
472.000000	 63.388752 
471.000000	 63.250231 
470.000000	 63.174772 
469.000000	 63.150262 
468.000000	 63.156747 
467.000000	 63.170409 
466.000000	 63.169646 
465.000000	 63.136863 
464.000000	 63.064646 
463.000000	 62.953829 
462.000000	 62.817072 
461.000000	 62.673187 
460.000000	 62.546634 
459.000000	 62.460231 
458.000000	 62.433171 
457.000000	 62.474870 
456.000000	 62.585973 
455.000000	 62.758350 
454.000000	 62.977194 
453.000000	 63.223314 
452.000000	 63.476157 
451.000000	 63.716983 
450.000000	 63.928627 
449.000000	 64.097428 
448.000000	 64.209628 
447.000000	 64.252138 
446.000000	 64.213204 
445.000000	 64.085626 
444.000000	 63.866114 
443.000000	 63.559508 
442.000000	 63.184928 
441.000000	 62.776017 
440.000000	 62.375140 
439.000000	 62.028741 
438.000000	 61.782336 
437.000000	 61.670160 
436.000000	 61.707305 
435.000000	 61.885523 
434.000000	 62.171840 
433.000000	 62.516283 
432.000000	 62.861776 
431.000000	 63.156032 
430.000000	 63.356876 
429.000000	 63.444733 
428.000000	 63.422131 
427.000000	 63.313937 
426.000000	 63.157701 
425.000000	 62.996006 
424.000000	 62.866091 
423.000000	 62.792539 
422.000000	 62.782692 
421.000000	 62.833786 
420.000000	 62.939262 
419.000000	 63.091373 
418.000000	 63.285851 
417.000000	 63.527655 
416.000000	 63.830113 
415.000000	 64.205431 
414.000000	 64.657998 
413.000000	 65.191292 
412.000000	 65.793633 
411.000000	 66.430354 
410.000000	 67.041277 
409.000000	 67.559146 
408.000000	 67.910790 
407.000000	 68.031954 
406.000000	 67.881894 
405.000000	 67.451906 
404.000000	 66.777157 
403.000000	 65.940785 
402.000000	 65.054583 
401.000000	 64.244723 
400.000000	 63.615345 
399.000000	 63.241648 
398.000000	 63.128352 
397.000000	 63.205409 
396.000000	 63.357448 
395.000000	 63.462281 
394.000000	 63.409495 
393.000000	 63.126134 
392.000000	 62.605404 
391.000000	 61.896109 
390.000000	 61.090183 
389.000000	 60.281682 
388.000000	 59.478759 
387.000000	 58.596587 
386.000000	 57.506394 
385.000000	 56.073641 
384.000000	 54.184412 
383.000000	 51.821422 
382.000000	 49.096894 
381.000000	 46.264672 
380.000000	 43.649435 
379.000000	 41.611003 
378.000000	 40.460991 
377.000000	 40.392160 
376.000000	 41.401457 
375.000000	 43.324542 
374.000000	 45.797491 
373.000000	 48.465633 
372.000000	 51.001191 
371.000000	 53.322958 
370.000000	 55.588006 

