PE IR       SPECTRUM    SPECTRUM    ASCII       PEDS        1.60        
  -1
BZ6C21~1.ASC
17/04/07
18:27:27.00
17/04/07
18:27:27.00
tln
$BZ1503107-1_t0064$<tbV0>[-7.8,0.0,8.0,0.0,27,1,0]
370.000000
64









2002,4.07    
MIRTGS : RIGHTBACK : INTERNAL 2
MIR : ON : INTERNAL 2
OPTKBR

0.200000
8
8.000000
FILLER
RATIO
SPECTRUM
UNLOCKED 256

DOUBLE
64
COMBINED
1
0
0


1.000000
RATIO


1
0
TRUE
51149
0
LEFT NOT FITTED RIGHT NOT FITTED 0
NONE
NONE
15600
12.000000
4.427000
51148
TRUE
1 0 8 72 0 0 0 0 

15798.010000






#HDR
-1
-1
#GR
CM-1
%T
0.00002384185791015625
0.0
5000.000000
-1.000000
4631
8
70.624256
47.536826
#DATA
5000.000000	65.002560 
4999.000000	65.080928 
4998.000000	65.146994 
4997.000000	65.196061 
4996.000000	65.225720 
4995.000000	65.235567 
4994.000000	65.228080 
4993.000000	65.208911 
4992.000000	65.185141 
4991.000000	65.164899 
4990.000000	65.154170 
4989.000000	65.155625 
4988.000000	65.168499 
4987.000000	65.189957 
4986.000000	65.215134 
4985.000000	65.238714 
4984.000000	65.256881 
4983.000000	65.268278 
4982.000000	65.272903 
4981.000000	65.271329 
4980.000000	65.262460 
4979.000000	65.243387 
4978.000000	65.209770 
4977.000000	65.157699 
4976.000000	65.085983 
4975.000000	64.997506 
4974.000000	64.901041 
4973.000000	64.808583 
4972.000000	64.732623 
4971.000000	64.682817 
4970.000000	64.663076 
4969.000000	64.670968 
4968.000000	64.698457 
4967.000000	64.734292 
4966.000000	64.767789 
4965.000000	64.790129 
4964.000000	64.796185 
4963.000000	64.784145 
4962.000000	64.754843 
4961.000000	64.710688 
4960.000000	64.653921 
4959.000000	64.587211 
4958.000000	64.513301 
4957.000000	64.436793 
4956.000000	64.364099 
4955.000000	64.303207 
4954.000000	64.261937 
4953.000000	64.245438 
4952.000000	64.254665 
4951.000000	64.283823 
4950.000000	64.323043 
4949.000000	64.360141 
4948.000000	64.385676 
4947.000000	64.395427 
4946.000000	64.393210 
4945.000000	64.388775 
4944.000000	64.396786 
4943.000000	64.431405 
4942.000000	64.503407 
4941.000000	64.616131 
4940.000000	64.764404 
4939.000000	64.935898 
4938.000000	65.112566 
4937.000000	65.275526 
4936.000000	65.407586 
4935.000000	65.497541 
4934.000000	65.540456 
4933.000000	65.538334 
4932.000000	65.497994 
4931.000000	65.429067 
4930.000000	65.341305 
4929.000000	65.243101 
4928.000000	65.140891 
4927.000000	65.039205 
4926.000000	64.940404 
4925.000000	64.846324 
4924.000000	64.758896 
4923.000000	64.682030 
4922.000000	64.621448 
4921.000000	64.584445 
4920.000000	64.577865 
4919.000000	64.606165 
4918.000000	64.669203 
4917.000000	64.761161 
4916.000000	64.869856 
4915.000000	64.979410 
4914.000000	65.073204 
4913.000000	65.137314 
4912.000000	65.163421 
4911.000000	65.150547 
4910.000000	65.104889 
4909.000000	65.037894 
4908.000000	64.962959 
4907.000000	64.892673 
4906.000000	64.836192 
4905.000000	64.797806 
4904.000000	64.776968 
4903.000000	64.770793 
4902.000000	64.776110 
4901.000000	64.790892 
4900.000000	64.814829 
4899.000000	64.847874 
4898.000000	64.889240 
4897.000000	64.935541 
4896.000000	64.980912 
4895.000000	65.017628 
4894.000000	65.038061 
4893.000000	65.037322 
4892.000000	65.014410 
4891.000000	64.972448 
4890.000000	64.918518 
4889.000000	64.861750 
4888.000000	64.811658 
4887.000000	64.775776 
4886.000000	64.758157 
4885.000000	64.759302 
4884.000000	64.775753 
4883.000000	64.801931 
4882.000000	64.831113 
4881.000000	64.857244 
4880.000000	64.876103 
4879.000000	64.885687 
4878.000000	64.886641 
4877.000000	64.881229 
4876.000000	64.872431 
4875.000000	64.862513 
4874.000000	64.852571 
4873.000000	64.841961 
4872.000000	64.827942 
4871.000000	64.806747 
4870.000000	64.774322 
4869.000000	64.728498 
4868.000000	64.670419 
4867.000000	64.605259 
4866.000000	64.541554 
4865.000000	64.489626 
4864.000000	64.458942 
4863.000000	64.455962 
4862.000000	64.481639 
4861.000000	64.531707 
4860.000000	64.597034 
4859.000000	64.666676 
4858.000000	64.729690 
4857.000000	64.779138 
4856.000000	64.812755 
4855.000000	64.833736 
4854.000000	64.848899 
4853.000000	64.866566 
4852.000000	64.893865 
4851.000000	64.933991 
4850.000000	64.985084 
4849.000000	65.040850 
4848.000000	65.092229 
4847.000000	65.129637 
4846.000000	65.145444 
4845.000000	65.135717 
4844.000000	65.100955 
4843.000000	65.045475 
4842.000000	64.976692 
4841.000000	64.903187 
4840.000000	64.833426 
4839.000000	64.774703 
4838.000000	64.732098 
4837.000000	64.708614 
4836.000000	64.704489 
4835.000000	64.718317 
4834.000000	64.746141 
4833.000000	64.782428 
4832.000000	64.819884 
4831.000000	64.850664 
4830.000000	64.867258 
4829.000000	64.863300 
4828.000000	64.835238 
4827.000000	64.782977 
4826.000000	64.710164 
4825.000000	64.623522 
4824.000000	64.531588 
4823.000000	64.443302 
4822.000000	64.365983 
4821.000000	64.304351 
4820.000000	64.259719 
4819.000000	64.230656 
4818.000000	64.213681 
4817.000000	64.204931 
4816.000000	64.200901 
4815.000000	64.199757 
4814.000000	64.200878 
4813.000000	64.205074 
4812.000000	64.213156 
4811.000000	64.225935 
4810.000000	64.242315 
4809.000000	64.260697 
4808.000000	64.278793 
4807.000000	64.294958 
4806.000000	64.308309 
4805.000000	64.320063 
4804.000000	64.332890 
4803.000000	64.351224 
4802.000000	64.379763 
4801.000000	64.422440 
4800.000000	64.480900 
4799.000000	64.554262 
4798.000000	64.638924 
4797.000000	64.728832 
4796.000000	64.816546 
4795.000000	64.894223 
4794.000000	64.954924 
4793.000000	64.993953 
4792.000000	65.009737 
4791.000000	65.003752 
4790.000000	64.980649 
4789.000000	64.947891 
4788.000000	64.914274 
4787.000000	64.888572 
4786.000000	64.877796 
4785.000000	64.886498 
4784.000000	64.915704 
4783.000000	64.963388 
4782.000000	65.024375 
4781.000000	65.091609 
4780.000000	65.156984 
4779.000000	65.213346 
4778.000000	65.254664 
4777.000000	65.277314 
4776.000000	65.279626 
4775.000000	65.262103 
4774.000000	65.226888 
4773.000000	65.177512 
4772.000000	65.118050 
4771.000000	65.052890 
4770.000000	64.986324 
4769.000000	64.922523 
4768.000000	64.864945 
4767.000000	64.816427 
4766.000000	64.778709 
4765.000000	64.752674 
4764.000000	64.738941 
4763.000000	64.737987 
4762.000000	64.749836 
4761.000000	64.773559 
4760.000000	64.807415 
4759.000000	64.848113 
4758.000000	64.890646 
4757.000000	64.928627 
4756.000000	64.955115 
4755.000000	64.964318 
4754.000000	64.952278 
4753.000000	64.919042 
4752.000000	64.868664 
4751.000000	64.809608 
4750.000000	64.752745 
4749.000000	64.709877 
4748.000000	64.691352 
4747.000000	64.703416 
4746.000000	64.746975 
4745.000000	64.817118 
4744.000000	64.904260 
4743.000000	64.995861 
4742.000000	65.079212 
4741.000000	65.143561 
4740.000000	65.181851 
4739.000000	65.192008 
4738.000000	65.176701 
4737.000000	65.142250 
4736.000000	65.096449 
4735.000000	65.047574 
4734.000000	65.001893 
4733.000000	64.963006 
4732.000000	64.931106 
4731.000000	64.904189 
4730.000000	64.878916 
4729.000000	64.852046 
4728.000000	64.821434 
4727.000000	64.786958 
4726.000000	64.750504 
4725.000000	64.715147 
4724.000000	64.684486 
4723.000000	64.661288 
4722.000000	64.647102 
4721.000000	64.641380 
4720.000000	64.642095 
4719.000000	64.646387 
4718.000000	64.651560 
4717.000000	64.655637 
4716.000000	64.658045 
4715.000000	64.659380 
4714.000000	64.661026 
4713.000000	64.664387 
4712.000000	64.670062 
4711.000000	64.677500 
4710.000000	64.685487 
4709.000000	64.692473 
4708.000000	64.697122 
4707.000000	64.698934 
4706.000000	64.698815 
4705.000000	64.699077 
4704.000000	64.702439 
4703.000000	64.711952 
4702.000000	64.729428 
4701.000000	64.756107 
4700.000000	64.791560 
4699.000000	64.834856 
4698.000000	64.884495 
4697.000000	64.938926 
4696.000000	64.996862 
4695.000000	65.056777 
4694.000000	65.116572 
4693.000000	65.173292 
4692.000000	65.223312 
4691.000000	65.262556 
4690.000000	65.287232 
4689.000000	65.295410 
4688.000000	65.287566 
4687.000000	65.266919 
4686.000000	65.238785 
4685.000000	65.209388 
4684.000000	65.184402 
4683.000000	65.167069 
4682.000000	65.157389 
4681.000000	65.151977 
4680.000000	65.144896 
4679.000000	65.129685 
4678.000000	65.101265 
4677.000000	65.057682 
4676.000000	65.000867 
4675.000000	64.936304 
4674.000000	64.871764 
4673.000000	64.815044 
4672.000000	64.772295 
4671.000000	64.746260 
4670.000000	64.736390 
4669.000000	64.738512 
4668.000000	64.747309 
4667.000000	64.757800 
4666.000000	64.767241 
4665.000000	64.775228 
4664.000000	64.784479 
4663.000000	64.799284 
4662.000000	64.824128 
4661.000000	64.861512 
4660.000000	64.910769 
4659.000000	64.967203 
4658.000000	65.023279 
4657.000000	65.070033 
4656.000000	65.099120 
4655.000000	65.104746 
4654.000000	65.085124 
4653.000000	65.042948 
4652.000000	64.984488 
4651.000000	64.918637 
4650.000000	64.854574 
4649.000000	64.800214 
4648.000000	64.761495 
4647.000000	64.740848 
4646.000000	64.737987 
4645.000000	64.749526 
4644.000000	64.770269 
4643.000000	64.793896 
4642.000000	64.814043 
4641.000000	64.825868 
4640.000000	64.825844 
4639.000000	64.813828 
4638.000000	64.792227 
4637.000000	64.766955 
4636.000000	64.745593 
4635.000000	64.736461 
4634.000000	64.746546 
4633.000000	64.779353 
4632.000000	64.833641 
4631.000000	64.903020 
4630.000000	64.977025 
4629.000000	65.043044 
4628.000000	65.088844 
4627.000000	65.105438 
4626.000000	65.088701 
4625.000000	65.040326 
4624.000000	64.966726 
4623.000000	64.877748 
4622.000000	64.784073 
4621.000000	64.695215 
4620.000000	64.617705 
4619.000000	64.555406 
4618.000000	64.509129 
4617.000000	64.477658 
4616.000000	64.459085 
4615.000000	64.451813 
4614.000000	64.455318 
4613.000000	64.469265 
4612.000000	64.494037 
4611.000000	64.528751 
4610.000000	64.572525 
4609.000000	64.623308 
4608.000000	64.678859 
4607.000000	64.736580 
4606.000000	64.793896 
4605.000000	64.848279 
4604.000000	64.897298 
4603.000000	64.938735 
4602.000000	64.970755 
4601.000000	64.991903 
4600.000000	65.001630 
4599.000000	65.000200 
4598.000000	64.989256 
4597.000000	64.971446 
4596.000000	64.950561 
4595.000000	64.930653 
4594.000000	64.915871 
4593.000000	64.909243 
4592.000000	64.912986 
4591.000000	64.927291 
4590.000000	64.950370 
4589.000000	64.978885 
4588.000000	65.008854 
4587.000000	65.036249 
4586.000000	65.057373 
4585.000000	65.070152 
4584.000000	65.074324 
4583.000000	65.071892 
4582.000000	65.066576 
4581.000000	65.062856 
4580.000000	65.064811 
4579.000000	65.074753 
4578.000000	65.092587 
4577.000000	65.115094 
4576.000000	65.136885 
4575.000000	65.152287 
4574.000000	65.156984 
4573.000000	65.148901 
4572.000000	65.129113 
4571.000000	65.101599 
4570.000000	65.072393 
4569.000000	65.047121 
4568.000000	65.030360 
4567.000000	65.024542 
4566.000000	65.029740 
4565.000000	65.044116 
4564.000000	65.064811 
4563.000000	65.088891 
4562.000000	65.114450 
4561.000000	65.140748 
4560.000000	65.168428 
4559.000000	65.198612 
4558.000000	65.232253 
4557.000000	65.269207 
4556.000000	65.307688 
4555.000000	65.344500 
4554.000000	65.375375 
4553.000000	65.396165 
4552.000000	65.403199 
4551.000000	65.394353 
4550.000000	65.369510 
4549.000000	65.330815 
4548.000000	65.281891 
4547.000000	65.227079 
4546.000000	65.170860 
4545.000000	65.116953 
4544.000000	65.067672 
4543.000000	65.023922 
4542.000000	64.985275 
4541.000000	64.950966 
4540.000000	64.920210 
4539.000000	64.893054 
4538.000000	64.870214 
4537.000000	64.853429 
4536.000000	64.844107 
4535.000000	64.843583 
4534.000000	64.851737 
4533.000000	64.867544 
4532.000000	64.888238 
4531.000000	64.910960 
4530.000000	64.932775 
4529.000000	64.952206 
4528.000000	64.969134 
4527.000000	64.985179 
4526.000000	65.002942 
4525.000000	65.025424 
4524.000000	65.054988 
4523.000000	65.092062 
4522.000000	65.134763 
4521.000000	65.179347 
4520.000000	65.220904 
4519.000000	65.254306 
4518.000000	65.275382 
4517.000000	65.282249 
4516.000000	65.275478 
4515.000000	65.258336 
4514.000000	65.235662 
4513.000000	65.212345 
4512.000000	65.192866 
4511.000000	65.180230 
4510.000000	65.176653 
4509.000000	65.183329 
4508.000000	65.201401 
4507.000000	65.232419 
4506.000000	65.277647 
4505.000000	65.337657 
4504.000000	65.411210 
4503.000000	65.494728 
4502.000000	65.582132 
4501.000000	65.665531 
4500.000000	65.735721 
4499.000000	65.783858 
4498.000000	65.802001 
4497.000000	65.784740 
4496.000000	65.729641 
4495.000000	65.638208 
4494.000000	65.516066 
4493.000000	65.372419 
4492.000000	65.218901 
4491.000000	65.068197 
4490.000000	64.933085 
4489.000000	64.824318 
4488.000000	64.749002 
4487.000000	64.710068 
4486.000000	64.705586 
4485.000000	64.730501 
4484.000000	64.776992 
4483.000000	64.837265 
4482.000000	64.903521 
4481.000000	64.970326 
4480.000000	65.033912 
4479.000000	65.092134 
4478.000000	65.142655 
4477.000000	65.183210 
4476.000000	65.210390 
4475.000000	65.221881 
4474.000000	65.216851 
4473.000000	65.197777 
4472.000000	65.170693 
4471.000000	65.143108 
4470.000000	65.122437 
4469.000000	65.111255 
4468.000000	65.105652 
4467.000000	65.100288 
4466.000000	65.088963 
4465.000000	65.060591 
4464.000000	65.005040 
4463.000000	64.918756 
4462.000000	64.807105 
4461.000000	64.683246 
4460.000000	64.567685 
4459.000000	64.480233 
4458.000000	64.439129 
4457.000000	64.462804 
4456.000000	64.558601 
4455.000000	64.716482 
4454.000000	64.913344 
4453.000000	65.118336 
4452.000000	65.299558 
4451.000000	65.428590 
4450.000000	65.492415 
4449.000000	65.494513 
4448.000000	65.457296 
4447.000000	65.416550 
4446.000000	65.406608 
4445.000000	65.449523 
4444.000000	65.536141 
4443.000000	65.622782 
4442.000000	65.630888 
4441.000000	65.464019 
4440.000000	65.020465 
4439.000000	64.228916 
4438.000000	63.064408 
4437.000000	61.581325 
4436.000000	59.910535 
4435.000000	58.259034 
4434.000000	56.866884 
4433.000000	55.973672 
4432.000000	55.760335 
4431.000000	56.318640 
4430.000000	57.618904 
4429.000000	59.522604 
4428.000000	61.810588 
4427.000000	64.217257 
4426.000000	66.481685 
4425.000000	68.379282 
4424.000000	69.745373 
4423.000000	70.497488 
4422.000000	70.624256 
4421.000000	70.198273 
4420.000000	69.353842 
4419.000000	68.269944 
4418.000000	67.144036 
4417.000000	66.147089 
4416.000000	65.401053 
4415.000000	64.957666 
4414.000000	64.802074 
4413.000000	64.867877 
4412.000000	65.063381 
4411.000000	65.301203 
4410.000000	65.519499 
4409.000000	65.683412 
4408.000000	65.791392 
4407.000000	65.853762 
4406.000000	65.891814 
4405.000000	65.918517 
4404.000000	65.939021 
4403.000000	65.953111 
4402.000000	65.952134 
4401.000000	65.926051 
4400.000000	65.864729 
4399.000000	65.765905 
4398.000000	65.633273 
4397.000000	65.480542 
4396.000000	65.322637 
4395.000000	65.168118 
4394.000000	65.025472 
4393.000000	64.904284 
4392.000000	64.809703 
4391.000000	64.742040 
4390.000000	64.699578 
4389.000000	64.679265 
4388.000000	64.676856 
4387.000000	64.688372 
4386.000000	64.707565 
4385.000000	64.728450 
4384.000000	64.749360 
4383.000000	64.772844 
4382.000000	64.803171 
4381.000000	64.845395 
4380.000000	64.902400 
4379.000000	64.973807 
4378.000000	65.056157 
4377.000000	65.142631 
4376.000000	65.223646 
4375.000000	65.289592 
4374.000000	65.333199 
4373.000000	65.351390 
4372.000000	65.346384 
4371.000000	65.325021 
4370.000000	65.296983 
4369.000000	65.272688 
4368.000000	65.260982 
4367.000000	65.267395 
4366.000000	65.292954 
4365.000000	65.335035 
4364.000000	65.389060 
4363.000000	65.448141 
4362.000000	65.504503 
4361.000000	65.550899 
4360.000000	65.581178 
4359.000000	65.589809 
4358.000000	65.572237 
4357.000000	65.525674 
4356.000000	65.449762 
4355.000000	65.347290 
4354.000000	65.224671 
4353.000000	65.091609 
4352.000000	64.959836 
4351.000000	64.842081 
4350.000000	64.749312 
4349.000000	64.688539 
4348.000000	64.661788 
4347.000000	64.666080 
4346.000000	64.694356 
4345.000000	64.736390 
4344.000000	64.782547 
4343.000000	64.825129 
4342.000000	64.860415 
4341.000000	64.887738 
4340.000000	64.909958 
4339.000000	64.931249 
4338.000000	64.955997 
4337.000000	64.986801 
4336.000000	65.024185 
4335.000000	65.066528 
4334.000000	65.110754 
4333.000000	65.153312 
4332.000000	65.190958 
4331.000000	65.221071 
4330.000000	65.241909 
4329.000000	65.252423 
4328.000000	65.252089 
4327.000000	65.240836 
4326.000000	65.219092 
4325.000000	65.187954 
4324.000000	65.149593 
4323.000000	65.107154 
4322.000000	65.065073 
4321.000000	65.027666 
4320.000000	64.998292 
4319.000000	64.978718 
4318.000000	64.968967 
4317.000000	64.967083 
4316.000000	64.969563 
4315.000000	64.972543 
4314.000000	64.972782 
4313.000000	64.968490 
4312.000000	64.959454 
4311.000000	64.946889 
4310.000000	64.932799 
4309.000000	64.919471 
4308.000000	64.908766 
4307.000000	64.901781 
4306.000000	64.898443 
4305.000000	64.897656 
4304.000000	64.897418 
4303.000000	64.895391 
4302.000000	64.889192 
4301.000000	64.876794 
4300.000000	64.857006 
4299.000000	64.829063 
4298.000000	64.793729 
4297.000000	64.752411 
4296.000000	64.707994 
4295.000000	64.664053 
4294.000000	64.625024 
4293.000000	64.595293 
4292.000000	64.579033 
4291.000000	64.579153 
4290.000000	64.596962 
4289.000000	64.631485 
4288.000000	64.679837 
4287.000000	64.737153 
4286.000000	64.797735 
4285.000000	64.855790 
4284.000000	64.906549 
4283.000000	64.946627 
4282.000000	64.975047 
4281.000000	64.992833 
4280.000000	65.002870 
4279.000000	65.008759 
4278.000000	65.014219 
4277.000000	65.021848 
4276.000000	65.033054 
4275.000000	65.047526 
4274.000000	65.063786 
4273.000000	65.079331 
4272.000000	65.091753 
4271.000000	65.099287 
4270.000000	65.101194 
4269.000000	65.097880 
4268.000000	65.091109 
4267.000000	65.083217 
4266.000000	65.076184 
4265.000000	65.071177 
4264.000000	65.068745 
4263.000000	65.067768 
4262.000000	65.065979 
4261.000000	65.060162 
4260.000000	65.047430 
4259.000000	65.025663 
4258.000000	64.994263 
4257.000000	64.954543 
4256.000000	64.909291 
4255.000000	64.862895 
4254.000000	64.820480 
4253.000000	64.786577 
4252.000000	64.764165 
4251.000000	64.754271 
4250.000000	64.755725 
4249.000000	64.765024 
4248.000000	64.777588 
4247.000000	64.788818 
4246.000000	64.795875 
4245.000000	64.797234 
4244.000000	64.794349 
4243.000000	64.790606 
4242.000000	64.791059 
4241.000000	64.800715 
4240.000000	64.823770 
4239.000000	64.862394 
4238.000000	64.915943 
4237.000000	64.981293 
4236.000000	65.052771 
4235.000000	65.123438 
4234.000000	65.185737 
4233.000000	65.233111 
4232.000000	65.260767 
4231.000000	65.266418 
4230.000000	65.250849 
4229.000000	65.217518 
4228.000000	65.172290 
4227.000000	65.122127 
4226.000000	65.074157 
4225.000000	65.034294 
4224.000000	65.005588 
4223.000000	64.987635 
4222.000000	64.977145 
4221.000000	64.968919 
4220.000000	64.956784 
4219.000000	64.935994 
4218.000000	64.904546 
4217.000000	64.864134 
4216.000000	64.819622 
4215.000000	64.777994 
4214.000000	64.746451 
4213.000000	64.730548 
4212.000000	64.732527 
4211.000000	64.750647 
4210.000000	64.779520 
4209.000000	64.811348 
4208.000000	64.837980 
4207.000000	64.852809 
4206.000000	64.852046 
4205.000000	64.835906 
4204.000000	64.808034 
4203.000000	64.774441 
4202.000000	64.741492 
4201.000000	64.715480 
4200.000000	64.701199 
4199.000000	64.701342 
4198.000000	64.716196 
4197.000000	64.744448 
4196.000000	64.783883 
4195.000000	64.831924 
4194.000000	64.886498 
4193.000000	64.945554 
4192.000000	65.007686 
4191.000000	65.071511 
4190.000000	65.135407 
4189.000000	65.197014 
4188.000000	65.253138 
4187.000000	65.300583 
4186.000000	65.336227 
4185.000000	65.357732 
4184.000000	65.364003 
4183.000000	65.356326 
4182.000000	65.337228 
4181.000000	65.310883 
4180.000000	65.281128 
4179.000000	65.251708 
4178.000000	65.223789 
4177.000000	65.196490 
4176.000000	65.166139 
4175.000000	65.128040 
4174.000000	65.077424 
4173.000000	65.011596 
4172.000000	64.930844 
4171.000000	64.839220 
4170.000000	64.743661 
4169.000000	64.653086 
4168.000000	64.576101 
4167.000000	64.519715 
4166.000000	64.487671 
4165.000000	64.480590 
4164.000000	64.495348 
4163.000000	64.526772 
4162.000000	64.568829 
4161.000000	64.615941 
4160.000000	64.663124 
4159.000000	64.707159 
4158.000000	64.745759 
4157.000000	64.777803 
4156.000000	64.802145 
4155.000000	64.818143 
4154.000000	64.825320 
4153.000000	64.823961 
4152.000000	64.815545 
4151.000000	64.802336 
4150.000000	64.787459 
4149.000000	64.774131 
4148.000000	64.765429 
4147.000000	64.763355 
4146.000000	64.768218 
4145.000000	64.779043 
4144.000000	64.793896 
4143.000000	64.809727 
4142.000000	64.823579 
4141.000000	64.833235 
4140.000000	64.837813 
4139.000000	64.837598 
4138.000000	64.833879 
4137.000000	64.828801 
4136.000000	64.824438 
4135.000000	64.821791 
4134.000000	64.820861 
4133.000000	64.820718 
4132.000000	64.820027 
4131.000000	64.817738 
4130.000000	64.813947 
4129.000000	64.809894 
4128.000000	64.808177 
4127.000000	64.812207 
4126.000000	64.824962 
4125.000000	64.847993 
4124.000000	64.880609 
4123.000000	64.919948 
4122.000000	64.961504 
4121.000000	64.999914 
4120.000000	65.031123 
4119.000000	65.053272 
4118.000000	65.067291 
4117.000000	65.076351 
4116.000000	65.084815 
4115.000000	65.096402 
4114.000000	65.112900 
4113.000000	65.133357 
4112.000000	65.154337 
4111.000000	65.170836 
4110.000000	65.178227 
4109.000000	65.173625 
4108.000000	65.157318 
4107.000000	65.132641 
4106.000000	65.105485 
4105.000000	65.082359 
4104.000000	65.068960 
4103.000000	65.068483 
4102.000000	65.080666 
4101.000000	65.102005 
4100.000000	65.127015 
4099.000000	65.149426 
4098.000000	65.163993 
4097.000000	65.167069 
4096.000000	65.157437 
4095.000000	65.135955 
4094.000000	65.104985 
4093.000000	65.067887 
4092.000000	65.028333 
4091.000000	64.989995 
4090.000000	64.956045 
4089.000000	64.929366 
4088.000000	64.912080 
4087.000000	64.905500 
4086.000000	64.909744 
4085.000000	64.923834 
4084.000000	64.945650 
4083.000000	64.971780 
4082.000000	64.998245 
4081.000000	65.020728 
4080.000000	65.035748 
4079.000000	65.040683 
4078.000000	65.034818 
4077.000000	65.019035 
4076.000000	64.996027 
4075.000000	64.969372 
4074.000000	64.943242 
4073.000000	64.921450 
4072.000000	64.906930 
4071.000000	64.901614 
4070.000000	64.905858 
4069.000000	64.918637 
4068.000000	64.937782 
4067.000000	64.960551 
4066.000000	64.984035 
4065.000000	65.005683 
4064.000000	65.023493 
4063.000000	65.036249 
4062.000000	65.043258 
4061.000000	65.044260 
4060.000000	65.039539 
4059.000000	65.029716 
4058.000000	65.015435 
4057.000000	64.997577 
4056.000000	64.977478 
4055.000000	64.956545 
4054.000000	64.936089 
4053.000000	64.917230 
4052.000000	64.900684 
4051.000000	64.886760 
4050.000000	64.875555 
4049.000000	64.867162 
4048.000000	64.861392 
4047.000000	64.858770 
4046.000000	64.860320 
4045.000000	64.867615 
4044.000000	64.882087 
4043.000000	64.904880 
4042.000000	64.936161 
4041.000000	64.974880 
4040.000000	65.018367 
4039.000000	65.062785 
4038.000000	65.103507 
4037.000000	65.136170 
4036.000000	65.157556 
4035.000000	65.166306 
4034.000000	65.163350 
4033.000000	65.151810 
4032.000000	65.136337 
4031.000000	65.121960 
4030.000000	65.113043 
4029.000000	65.112590 
4028.000000	65.121269 
4027.000000	65.137791 
4026.000000	65.158772 
4025.000000	65.180373 
4024.000000	65.198278 
4023.000000	65.208959 
4022.000000	65.209770 
4021.000000	65.199589 
4020.000000	65.178608 
4019.000000	65.147900 
4018.000000	65.109229 
4017.000000	65.064978 
4016.000000	65.017628 
4015.000000	64.970016 
4014.000000	64.924883 
4013.000000	64.884781 
4012.000000	64.852190 
4011.000000	64.829254 
4010.000000	64.817237 
4009.000000	64.816689 
4008.000000	64.827513 
4007.000000	64.849019 
4006.000000	64.879989 
4005.000000	64.918637 
4004.000000	64.963126 
4003.000000	65.011429 
4002.000000	65.061235 
4001.000000	65.109992 
4000.000000	65.155291 
3999.000000	65.194916 
3998.000000	65.227222 
3997.000000	65.251255 
3996.000000	65.267062 
3995.000000	65.275621 
3994.000000	65.278863 
3993.000000	65.278959 
3992.000000	65.278363 
3991.000000	65.278744 
3990.000000	65.280985 
3989.000000	65.284776 
3988.000000	65.288925 
3987.000000	65.291595 
3986.000000	65.291190 
3985.000000	65.286755 
3984.000000	65.278649 
3983.000000	65.268492 
3982.000000	65.258789 
3981.000000	65.252232 
3980.000000	65.250706 
3979.000000	65.254855 
3978.000000	65.263319 
3977.000000	65.273046 
3976.000000	65.279865 
3975.000000	65.279412 
3974.000000	65.268421 
3973.000000	65.245652 
3972.000000	65.212368 
3971.000000	65.171885 
3970.000000	65.129065 
3969.000000	65.089106 
3968.000000	65.056610 
3967.000000	65.034484 
3966.000000	65.023350 
3965.000000	65.022015 
3964.000000	65.027523 
3963.000000	65.036392 
3962.000000	65.044903 
3961.000000	65.050101 
3960.000000	65.049862 
3959.000000	65.043020 
3958.000000	65.029501 
3957.000000	65.009951 
3956.000000	64.985775 
3955.000000	64.958930 
3954.000000	64.931797 
3953.000000	64.906954 
3952.000000	64.886879 
3951.000000	64.873576 
3950.000000	64.867877 
3949.000000	64.869546 
3948.000000	64.876651 
3947.000000	64.886736 
3946.000000	64.896941 
3945.000000	64.905261 
3944.000000	64.910769 
3943.000000	64.914178 
3942.000000	64.917421 
3941.000000	64.923334 
3940.000000	64.934492 
3939.000000	64.952421 
3938.000000	64.976716 
3937.000000	65.005064 
3936.000000	65.033888 
3935.000000	65.058708 
3934.000000	65.075325 
3933.000000	65.081048 
3932.000000	65.075492 
3931.000000	65.060687 
3930.000000	65.040731 
3929.000000	65.020990 
3928.000000	65.006756 
3927.000000	65.002274 
3926.000000	65.009355 
3925.000000	65.027451 
3924.000000	65.053367 
3923.000000	65.081906 
3922.000000	65.106821 
3921.000000	65.122270 
3920.000000	65.123987 
3919.000000	65.109753 
3918.000000	65.080308 
3917.000000	65.038514 
3916.000000	64.989304 
3915.000000	64.938592 
3914.000000	64.892315 
3913.000000	64.855313 
3912.000000	64.831018 
3911.000000	64.821100 
3910.000000	64.825725 
3909.000000	64.843678 
3908.000000	64.872884 
3907.000000	64.910936 
3906.000000	64.955019 
3905.000000	65.002012 
3904.000000	65.048670 
3903.000000	65.091824 
3902.000000	65.128302 
3901.000000	65.155673 
3900.000000	65.172743 
3899.000000	65.179967 
3898.000000	65.179944 
3897.000000	65.176558 
3896.000000	65.174579 
3895.000000	65.177798 
3894.000000	65.188765 
3893.000000	65.207028 
3892.000000	65.229535 
3891.000000	65.250563 
3890.000000	65.263628 
3889.000000	65.262889 
3888.000000	65.245246 
3887.000000	65.211272 
3886.000000	65.165543 
3885.000000	65.115523 
3884.000000	65.069580 
3883.000000	65.035080 
3882.000000	65.016794 
3881.000000	65.015506 
3880.000000	65.028214 
3879.000000	65.049052 
3878.000000	65.071129 
3877.000000	65.088415 
3876.000000	65.097260 
3875.000000	65.096783 
3874.000000	65.088868 
3873.000000	65.077376 
3872.000000	65.067028 
3871.000000	65.061783 
3870.000000	65.063858 
3869.000000	65.073537 
3868.000000	65.089058 
3867.000000	65.107464 
3866.000000	65.124988 
3865.000000	65.138244 
3864.000000	65.144729 
3863.000000	65.142965 
3862.000000	65.133380 
3861.000000	65.118002 
3860.000000	65.100598 
3859.000000	65.085387 
3858.000000	65.076923 
3857.000000	65.079164 
3856.000000	65.094208 
3855.000000	65.121746 
3854.000000	65.158653 
3853.000000	65.199398 
3852.000000	65.236973 
3851.000000	65.264582 
3850.000000	65.276718 
3849.000000	65.270614 
3848.000000	65.247321 
3847.000000	65.211486 
3846.000000	65.170717 
3845.000000	65.133738 
3844.000000	65.108561 
3843.000000	65.100407 
3842.000000	65.111017 
3841.000000	65.137672 
3840.000000	65.174460 
3839.000000	65.212893 
3838.000000	65.244388 
3837.000000	65.261459 
3836.000000	65.259361 
3835.000000	65.236377 
3834.000000	65.194058 
3833.000000	65.136051 
3832.000000	65.067362 
3831.000000	64.993309 
3830.000000	64.918708 
3829.000000	64.847755 
3828.000000	64.784121 
3827.000000	64.731383 
3826.000000	64.693284 
3825.000000	64.673423 
3824.000000	64.674544 
3823.000000	64.697790 
3822.000000	64.741897 
3821.000000	64.802312 
3820.000000	64.871525 
3819.000000	64.939880 
3818.000000	64.997220 
3817.000000	65.034866 
3816.000000	65.047311 
3815.000000	65.033006 
3814.000000	64.994716 
3813.000000	64.939141 
3812.000000	64.875316 
3811.000000	64.812231 
3810.000000	64.757728 
3809.000000	64.717268 
3808.000000	64.693427 
3807.000000	64.686512 
3806.000000	64.694666 
3805.000000	64.715337 
3804.000000	64.744901 
3803.000000	64.779353 
3802.000000	64.814281 
3801.000000	64.844942 
3800.000000	64.866781 
3799.000000	64.875531 
3798.000000	64.868640 
3797.000000	64.845919 
3796.000000	64.809989 
3795.000000	64.765906 
3794.000000	64.721107 
3793.000000	64.684081 
3792.000000	64.662837 
3791.000000	64.663505 
3790.000000	64.689207 
3789.000000	64.739203 
3788.000000	64.809417 
3787.000000	64.892673 
3786.000000	64.979934 
3785.000000	65.062141 
3784.000000	65.131187 
3783.000000	65.181422 
3782.000000	65.210032 
3781.000000	65.217494 
3780.000000	65.206742 
3779.000000	65.182709 
3778.000000	65.151739 
3777.000000	65.119814 
3776.000000	65.092015 
3775.000000	65.071654 
3774.000000	65.060353 
3773.000000	65.058088 
3772.000000	65.063810 
3771.000000	65.075778 
3770.000000	65.092110 
3769.000000	65.111470 
3768.000000	65.132904 
3767.000000	65.155911 
3766.000000	65.179872 
3765.000000	65.204024 
3764.000000	65.227341 
3763.000000	65.248465 
3762.000000	65.265750 
3761.000000	65.277647 
3760.000000	65.283012 
3759.000000	65.281462 
3758.000000	65.273404 
3757.000000	65.260195 
3756.000000	65.243577 
3755.000000	65.225481 
3754.000000	65.207672 
3753.000000	65.191912 
3752.000000	65.179371 
3751.000000	65.170645 
3750.000000	65.165567 
3749.000000	65.163445 
3748.000000	65.163040 
3747.000000	65.162897 
3746.000000	65.161442 
3745.000000	65.157318 
3744.000000	65.149712 
3743.000000	65.138483 
3742.000000	65.124082 
3741.000000	65.107440 
3740.000000	65.089726 
3739.000000	65.072131 
3738.000000	65.055727 
3737.000000	65.041422 
3736.000000	65.029668 
3735.000000	65.020489 
3734.000000	65.013790 
3733.000000	65.009474 
3732.000000	65.007090 
3731.000000	65.006446 
3730.000000	65.007567 
3729.000000	65.010881 
3728.000000	65.016722 
3727.000000	65.025663 
3726.000000	65.037751 
3725.000000	65.052819 
3724.000000	65.070414 
3723.000000	65.089607 
3722.000000	65.109252 
3721.000000	65.128207 
3720.000000	65.145444 
3719.000000	65.160226 
3718.000000	65.172100 
3717.000000	65.180850 
3716.000000	65.186595 
3715.000000	65.189528 
3714.000000	65.189909 
3713.000000	65.187907 
3712.000000	65.183758 
3711.000000	65.177536 
3710.000000	65.169119 
3709.000000	65.158271 
3708.000000	65.144658 
3707.000000	65.127778 
3706.000000	65.107393 
3705.000000	65.083503 
3704.000000	65.056967 
3703.000000	65.029573 
3702.000000	65.003967 
3701.000000	64.983367 
3700.000000	64.970612 
3699.000000	64.967441 
3698.000000	64.974069 
3697.000000	64.988660 
3696.000000	65.007805 
3695.000000	65.027070 
3694.000000	65.042257 
3693.000000	65.050339 
3692.000000	65.050172 
3691.000000	65.042734 
3690.000000	65.030884 
3689.000000	65.018367 
3688.000000	65.008950 
3687.000000	65.005373 
3686.000000	65.008854 
3685.000000	65.018749 
3684.000000	65.033149 
3683.000000	65.049505 
3682.000000	65.065336 
3681.000000	65.078806 
3680.000000	65.088653 
3679.000000	65.094351 
3678.000000	65.095686 
3677.000000	65.092730 
3676.000000	65.085530 
3675.000000	65.074110 
3674.000000	65.058922 
3673.000000	65.040993 
3672.000000	65.021800 
3671.000000	65.003490 
3670.000000	64.988732 
3669.000000	64.980244 
3668.000000	64.980268 
3667.000000	64.990162 
3666.000000	65.009975 
3665.000000	65.038347 
3664.000000	65.072631 
3663.000000	65.109181 
3662.000000	65.143656 
3661.000000	65.172076 
3660.000000	65.191411 
3659.000000	65.199947 
3658.000000	65.197658 
3657.000000	65.186262 
3656.000000	65.168857 
3655.000000	65.149450 
3654.000000	65.131878 
3653.000000	65.119409 
3652.000000	65.113782 
3651.000000	65.115213 
3650.000000	65.122437 
3649.000000	65.133380 
3648.000000	65.145945 
3647.000000	65.158462 
3646.000000	65.170311 
3645.000000	65.181756 
3644.000000	65.193772 
3643.000000	65.207362 
3642.000000	65.223360 
3641.000000	65.241646 
3640.000000	65.261077 
3639.000000	65.279698 
3638.000000	65.294933 
3637.000000	65.304422 
3636.000000	65.306401 
3635.000000	65.300369 
3634.000000	65.287137 
3633.000000	65.268826 
3632.000000	65.248298 
3631.000000	65.228533 
3630.000000	65.212297 
3629.000000	65.201377 
3628.000000	65.196228 
3627.000000	65.196084 
3626.000000	65.199160 
3625.000000	65.203356 
3624.000000	65.206646 
3623.000000	65.207767 
3622.000000	65.206432 
3621.000000	65.203380 
3620.000000	65.200090 
3619.000000	65.198063 
3618.000000	65.198493 
3617.000000	65.201807 
3616.000000	65.207076 
3615.000000	65.212774 
3614.000000	65.217161 
3613.000000	65.218925 
3612.000000	65.217566 
3611.000000	65.213799 
3610.000000	65.209388 
3609.000000	65.206599 
3608.000000	65.207386 
3607.000000	65.212726 
3606.000000	65.222048 
3605.000000	65.233278 
3604.000000	65.243196 
3603.000000	65.248203 
3602.000000	65.245270 
3601.000000	65.232825 
3600.000000	65.211462 
3599.000000	65.183377 
3598.000000	65.152406 
3597.000000	65.122890 
3596.000000	65.098786 
3595.000000	65.083050 
3594.000000	65.076732 
3593.000000	65.079355 
3592.000000	65.088605 
3591.000000	65.101337 
3590.000000	65.114045 
3589.000000	65.123462 
3588.000000	65.127301 
3587.000000	65.124535 
3586.000000	65.115523 
3585.000000	65.101528 
3584.000000	65.084886 
3583.000000	65.068268 
3582.000000	65.054631 
3581.000000	65.046381 
3580.000000	65.045619 
3579.000000	65.053629 
3578.000000	65.070915 
3577.000000	65.097022 
3576.000000	65.130615 
3575.000000	65.169501 
3574.000000	65.210771 
3573.000000	65.251183 
3572.000000	65.287566 
3571.000000	65.316987 
3570.000000	65.337467 
3569.000000	65.348005 
3568.000000	65.348768 
3567.000000	65.340852 
3566.000000	65.326380 
3565.000000	65.307497 
3564.000000	65.286278 
3563.000000	65.264105 
3562.000000	65.241932 
3561.000000	65.219974 
3560.000000	65.198183 
3559.000000	65.176510 
3558.000000	65.155076 
3557.000000	65.134525 
3556.000000	65.115785 
3555.000000	65.099859 
3554.000000	65.087437 
3553.000000	65.078449 
3552.000000	65.072035 
3551.000000	65.066695 
3550.000000	65.060687 
3549.000000	65.052509 
3548.000000	65.041255 
3547.000000	65.027356 
3546.000000	65.012240 
3545.000000	64.998126 
3544.000000	64.987277 
3543.000000	64.981341 
3542.000000	64.981079 
3541.000000	64.985895 
3540.000000	64.994215 
3539.000000	65.003681 
3538.000000	65.011811 
3537.000000	65.016603 
3536.000000	65.016913 
3535.000000	65.012574 
3534.000000	65.004205 
3533.000000	64.992976 
3532.000000	64.980220 
3531.000000	64.966964 
3530.000000	64.954066 
3529.000000	64.941763 
3528.000000	64.930319 
3527.000000	64.920091 
3526.000000	64.912056 
3525.000000	64.907574 
3524.000000	64.908623 
3523.000000	64.917230 
3522.000000	64.935111 
3521.000000	64.963102 
3520.000000	65.000629 
3519.000000	65.045666 
3518.000000	65.094780 
3517.000000	65.143632 
3516.000000	65.187573 
3515.000000	65.222549 
3514.000000	65.245628 
3513.000000	65.255475 
3512.000000	65.252709 
3511.000000	65.239644 
3510.000000	65.219950 
3509.000000	65.197849 
3508.000000	65.177559 
3507.000000	65.162348 
3506.000000	65.154409 
3505.000000	65.154242 
3504.000000	65.160989 
3503.000000	65.172648 
3502.000000	65.186882 
3501.000000	65.201258 
3500.000000	65.213871 
3499.000000	65.223383 
3498.000000	65.229272 
3497.000000	65.231513 
3496.000000	65.230488 
3495.000000	65.227007 
3494.000000	65.222001 
3493.000000	65.216541 
3492.000000	65.211415 
3491.000000	65.207433 
3490.000000	65.205097 
3489.000000	65.204644 
3488.000000	65.205812 
3487.000000	65.208292 
3486.000000	65.211439 
3485.000000	65.214610 
3484.000000	65.216851 
3483.000000	65.217542 
3482.000000	65.215754 
3481.000000	65.210914 
3480.000000	65.202355 
3479.000000	65.189385 
3478.000000	65.171599 
3477.000000	65.148997 
3476.000000	65.122199 
3475.000000	65.092515 
3474.000000	65.061926 
3473.000000	65.032958 
3472.000000	65.007996 
3471.000000	64.988875 
3470.000000	64.976477 
3469.000000	64.970326 
3468.000000	64.968991 
3467.000000	64.970350 
3466.000000	64.972043 
3465.000000	64.972257 
3464.000000	64.970088 
3463.000000	64.965963 
3462.000000	64.961099 
3461.000000	64.957404 
3460.000000	64.956951 
3459.000000	64.961361 
3458.000000	64.971518 
3457.000000	64.987182 
3456.000000	65.007162 
3455.000000	65.029573 
3454.000000	65.052390 
3453.000000	65.073561 
3452.000000	65.091490 
3451.000000	65.104889 
3450.000000	65.113019 
3449.000000	65.115427 
3448.000000	65.111947 
3447.000000	65.102458 
3446.000000	65.087199 
3445.000000	65.066695 
3444.000000	65.041732 
3443.000000	65.013527 
3442.000000	64.983630 
3441.000000	64.953422 
3440.000000	64.923763 
3439.000000	64.895033 
3438.000000	64.867091 
3437.000000	64.839148 
3436.000000	64.810705 
3435.000000	64.781284 
3434.000000	64.751744 
3433.000000	64.723920 
3432.000000	64.701271 
3431.000000	64.687323 
3430.000000	64.685511 
3429.000000	64.698004 
3428.000000	64.724993 
3427.000000	64.764213 
3426.000000	64.811277 
3425.000000	64.860415 
3424.000000	64.905595 
3423.000000	64.941620 
3422.000000	64.965295 
3421.000000	64.975929 
3420.000000	64.975500 
3419.000000	64.967775 
3418.000000	64.957880 
3417.000000	64.950990 
3416.000000	64.951443 
3415.000000	64.962005 
3414.000000	64.983391 
3413.000000	65.014052 
3412.000000	65.050983 
3411.000000	65.089917 
3410.000000	65.125823 
3409.000000	65.153694 
3408.000000	65.169715 
3407.000000	65.171551 
3406.000000	65.158629 
3405.000000	65.132498 
3404.000000	65.096569 
3403.000000	65.055370 
3402.000000	65.013694 
3401.000000	64.975380 
3400.000000	64.943218 
3399.000000	64.918184 
3398.000000	64.899682 
3397.000000	64.886069 
3396.000000	64.875149 
3395.000000	64.865112 
3394.000000	64.855051 
3393.000000	64.845180 
3392.000000	64.836311 
3391.000000	64.830088 
3390.000000	64.828395 
3389.000000	64.832568 
3388.000000	64.842820 
3387.000000	64.858794 
3386.000000	64.879536 
3385.000000	64.903497 
3384.000000	64.929223 
3383.000000	64.955472 
3382.000000	64.981722 
3381.000000	65.007829 
3380.000000	65.034222 
3379.000000	65.061807 
3378.000000	65.091395 
3377.000000	65.123558 
3376.000000	65.157985 
3375.000000	65.193605 
3374.000000	65.228271 
3373.000000	65.259480 
3372.000000	65.284228 
3371.000000	65.300226 
3370.000000	65.305709 
3369.000000	65.300798 
3368.000000	65.286540 
3367.000000	65.264916 
3366.000000	65.237927 
3365.000000	65.207672 
3364.000000	65.175056 
3363.000000	65.139913 
3362.000000	65.101313 
3361.000000	65.058183 
3360.000000	65.010094 
3359.000000	64.958000 
3358.000000	64.904546 
3357.000000	64.854145 
3356.000000	64.812064 
3355.000000	64.783716 
3354.000000	64.772748 
3353.000000	64.780378 
3352.000000	64.805126 
3351.000000	64.842724 
3350.000000	64.886641 
3349.000000	64.929747 
3348.000000	64.965605 
3347.000000	64.990115 
3346.000000	65.001296 
3345.000000	65.000486 
3344.000000	64.990925 
3343.000000	64.977431 
3342.000000	64.964652 
3341.000000	64.956474 
3340.000000	64.955210 
3339.000000	64.961576 
3338.000000	64.975070 
3337.000000	64.994144 
3336.000000	65.017175 
3335.000000	65.042686 
3334.000000	65.069603 
3333.000000	65.096807 
3332.000000	65.122866 
3331.000000	65.146088 
3330.000000	65.164303 
3329.000000	65.175175 
3328.000000	65.176415 
3327.000000	65.166974 
3326.000000	65.146636 
3325.000000	65.116882 
3324.000000	65.080046 
3323.000000	65.039539 
3322.000000	64.998960 
3321.000000	64.961647 
3320.000000	64.930129 
3319.000000	64.906024 
3318.000000	64.890146 
3317.000000	64.882755 
3316.000000	64.883518 
3315.000000	64.891719 
3314.000000	64.906430 
3313.000000	64.926385 
3312.000000	64.950084 
3311.000000	64.975595 
3310.000000	65.000748 
3309.000000	65.023446 
3308.000000	65.042090 
3307.000000	65.055584 
3306.000000	65.063810 
3305.000000	65.067219 
3304.000000	65.066838 
3303.000000	65.063524 
3302.000000	65.058255 
3301.000000	65.051555 
3300.000000	65.043544 
3299.000000	65.034008 
3298.000000	65.022945 
3297.000000	65.010643 
3296.000000	64.998006 
3295.000000	64.986467 
3294.000000	64.977765 
3293.000000	64.973807 
3292.000000	64.975881 
3291.000000	64.984655 
3290.000000	64.999675 
3289.000000	65.019702 
3288.000000	65.042948 
3287.000000	65.067219 
3286.000000	65.090465 
3285.000000	65.110921 
3284.000000	65.127372 
3283.000000	65.138864 
3282.000000	65.144586 
3281.000000	65.143799 
3280.000000	65.135741 
3279.000000	65.119886 
3278.000000	65.095996 
3277.000000	65.064525 
3276.000000	65.026926 
3275.000000	64.985537 
3274.000000	64.943432 
3273.000000	64.904022 
3272.000000	64.870476 
3271.000000	64.845156 
3270.000000	64.829325 
3269.000000	64.822721 
3268.000000	64.823889 
3267.000000	64.830255 
3266.000000	64.839196 
3265.000000	64.847970 
3264.000000	64.854812 
3263.000000	64.858818 
3262.000000	64.860463 
3261.000000	64.860916 
3260.000000	64.861989 
3259.000000	64.865446 
3258.000000	64.872789 
3257.000000	64.884734 
3256.000000	64.901185 
3255.000000	64.921259 
3254.000000	64.943480 
3253.000000	64.966082 
3252.000000	64.987444 
3251.000000	65.006232 
3250.000000	65.021610 
3249.000000	65.033149 
3248.000000	65.040802 
3247.000000	65.044569 
3246.000000	65.044713 
3245.000000	65.041470 
3244.000000	65.034985 
3243.000000	65.025544 
3242.000000	65.013599 
3241.000000	64.999771 
3240.000000	64.984750 
3239.000000	64.969301 
3238.000000	64.954209 
3237.000000	64.940428 
3236.000000	64.928865 
3235.000000	64.920568 
3234.000000	64.916372 
3233.000000	64.917111 
3232.000000	64.923381 
3231.000000	64.935326 
3230.000000	64.952135 
3229.000000	64.972472 
3228.000000	64.994382 
3227.000000	65.015482 
3226.000000	65.033435 
3225.000000	65.046358 
3224.000000	65.053248 
3223.000000	65.054202 
3222.000000	65.050196 
3221.000000	65.042924 
3220.000000	65.034198 
3219.000000	65.025496 
3218.000000	65.017724 
3217.000000	65.011143 
3216.000000	65.005540 
3215.000000	65.000438 
3214.000000	64.995574 
3213.000000	64.991116 
3212.000000	64.987802 
3211.000000	64.986896 
3210.000000	64.989423 
3209.000000	64.996194 
3208.000000	65.006947 
3207.000000	65.020513 
3206.000000	65.034365 
3205.000000	65.045404 
3204.000000	65.050244 
3203.000000	65.046358 
3202.000000	65.032529 
3201.000000	65.009593 
3200.000000	64.980316 
3199.000000	64.949131 
3198.000000	64.921450 
3197.000000	64.902544 
3196.000000	64.896607 
3195.000000	64.905571 
3194.000000	64.928770 
3193.000000	64.962697 
3192.000000	65.001821 
3191.000000	65.039587 
3190.000000	65.069723 
3189.000000	65.087604 
3188.000000	65.090966 
3187.000000	65.080261 
3186.000000	65.058183 
3185.000000	65.029239 
3184.000000	64.998221 
3183.000000	64.969611 
3182.000000	64.946866 
3181.000000	64.931726 
3180.000000	64.924597 
3179.000000	64.924621 
3178.000000	64.930391 
3177.000000	64.940166 
3176.000000	64.952492 
3175.000000	64.966297 
3174.000000	64.981126 
3173.000000	64.996838 
3172.000000	65.013408 
3171.000000	65.030980 
3170.000000	65.049386 
3169.000000	65.068411 
3168.000000	65.087270 
3167.000000	65.104913 
3166.000000	65.119647 
3165.000000	65.129876 
3164.000000	65.134024 
3163.000000	65.131020 
3162.000000	65.120434 
3161.000000	65.102815 
3160.000000	65.079402 
3159.000000	65.052151 
3158.000000	65.023159 
3157.000000	64.994406 
3156.000000	64.967465 
3155.000000	64.943289 
3154.000000	64.922499 
3153.000000	64.905500 
3152.000000	64.892578 
3151.000000	64.884185 
3150.000000	64.880847 
3149.000000	64.882993 
3148.000000	64.890742 
3147.000000	64.903497 
3146.000000	64.919900 
3145.000000	64.937758 
3144.000000	64.954805 
3143.000000	64.968919 
3142.000000	64.978814 
3141.000000	64.984083 
3140.000000	64.985585 
3139.000000	64.984822 
3138.000000	64.983725 
3137.000000	64.983868 
3136.000000	64.986228 
3135.000000	64.990901 
3134.000000	64.997315 
3133.000000	65.004301 
3132.000000	65.010714 
3131.000000	65.015625 
3130.000000	65.018892 
3129.000000	65.020871 
3128.000000	65.022349 
3127.000000	65.023899 
3126.000000	65.026044 
3125.000000	65.028381 
3124.000000	65.030002 
3123.000000	65.029406 
3122.000000	65.025210 
3121.000000	65.016293 
3120.000000	65.002417 
3119.000000	64.984536 
3118.000000	64.964556 
3117.000000	64.945292 
3116.000000	64.929866 
3115.000000	64.921021 
3114.000000	64.920258 
3113.000000	64.927625 
3112.000000	64.941811 
3111.000000	64.959955 
3110.000000	64.978647 
3109.000000	64.994907 
3108.000000	65.007138 
3107.000000	65.015101 
3106.000000	65.020394 
3105.000000	65.025782 
3104.000000	65.034198 
3103.000000	65.047955 
3102.000000	65.067458 
3101.000000	65.091061 
3100.000000	65.114998 
3099.000000	65.134429 
3098.000000	65.144467 
3097.000000	65.141749 
3096.000000	65.125226 
3095.000000	65.096831 
3094.000000	65.060877 
3093.000000	65.023136 
3092.000000	64.989542 
3091.000000	64.964985 
3090.000000	64.951944 
3089.000000	64.950370 
3088.000000	64.957833 
3087.000000	64.970469 
3086.000000	64.983725 
3085.000000	64.993572 
3084.000000	64.997172 
3083.000000	64.993429 
3082.000000	64.982676 
3081.000000	64.966607 
3080.000000	64.947223 
3079.000000	64.926886 
3078.000000	64.907622 
3077.000000	64.890813 
3076.000000	64.877319 
3075.000000	64.867305 
3074.000000	64.860510 
3073.000000	64.856362 
3072.000000	64.853882 
3071.000000	64.852356 
3070.000000	64.851188 
3069.000000	64.850330 
3068.000000	64.850139 
3067.000000	64.851689 
3066.000000	64.856290 
3065.000000	64.865326 
3064.000000	64.879727 
3063.000000	64.899492 
3062.000000	64.923644 
3061.000000	64.950037 
3060.000000	64.975976 
3059.000000	64.998459 
3058.000000	65.014767 
3057.000000	65.023446 
3056.000000	65.024113 
3055.000000	65.017843 
3054.000000	65.006566 
3053.000000	64.992570 
3052.000000	64.978122 
3051.000000	64.964914 
3050.000000	64.953827 
3049.000000	64.945125 
3048.000000	64.938497 
3047.000000	64.933395 
3046.000000	64.929437 
3045.000000	64.926695 
3044.000000	64.925551 
3043.000000	64.926481 
3042.000000	64.929962 
3041.000000	64.935994 
3040.000000	64.944219 
3039.000000	64.953851 
3038.000000	64.963722 
3037.000000	64.972615 
3036.000000	64.979505 
3035.000000	64.983749 
3034.000000	64.985251 
3033.000000	64.984416 
3032.000000	64.982104 
3031.000000	64.979386 
3030.000000	64.977264 
3029.000000	64.976525 
3028.000000	64.977550 
3027.000000	64.980196 
3026.000000	64.983987 
3025.000000	64.988088 
3024.000000	64.991950 
3023.000000	64.995265 
3022.000000	64.998149 
3021.000000	65.001201 
3020.000000	65.005397 
3019.000000	65.011644 
3018.000000	65.020632 
3017.000000	65.032482 
3016.000000	65.046453 
3015.000000	65.061068 
3014.000000	65.074467 
3013.000000	65.084815 
3012.000000	65.090799 
3011.000000	65.092015 
3010.000000	65.088891 
3009.000000	65.082669 
3008.000000	65.075016 
3007.000000	65.067410 
3006.000000	65.060853 
3005.000000	65.055966 
3004.000000	65.052604 
3003.000000	65.050148 
3002.000000	65.047740 
3001.000000	65.044617 
3000.000000	65.040349 
2999.000000	65.034747 
2998.000000	65.027976 
2997.000000	65.020418 
2996.000000	65.012764 
2995.000000	65.005564 
2994.000000	64.999651 
2993.000000	64.995932 
2992.000000	64.995265 
2991.000000	64.998340 
2990.000000	65.005350 
2989.000000	65.016007 
2988.000000	65.029120 
2987.000000	65.042924 
2986.000000	65.055227 
2985.000000	65.063858 
2984.000000	65.067267 
2983.000000	65.064549 
2982.000000	65.055823 
2981.000000	65.041804 
2980.000000	65.023875 
2979.000000	65.003561 
2978.000000	64.982080 
2977.000000	64.960384 
2976.000000	64.939117 
2975.000000	64.918661 
2974.000000	64.899539 
2973.000000	64.882326 
2972.000000	64.867639 
2971.000000	64.856028 
2970.000000	64.847683 
2969.000000	64.842224 
2968.000000	64.838409 
2967.000000	64.834642 
2966.000000	64.829206 
2965.000000	64.820671 
2964.000000	64.808511 
2963.000000	64.793324 
2962.000000	64.776420 
2961.000000	64.759993 
2960.000000	64.746427 
2959.000000	64.737749 
2958.000000	64.735507 
2957.000000	64.740300 
2956.000000	64.751982 
2955.000000	64.769697 
2954.000000	64.791965 
2953.000000	64.817118 
2952.000000	64.842915 
2951.000000	64.867091 
2950.000000	64.887046 
2949.000000	64.900112 
2948.000000	64.904093 
2947.000000	64.897155 
2946.000000	64.878726 
2945.000000	64.849638 
2944.000000	64.812231 
2943.000000	64.770174 
2942.000000	64.727926 
2941.000000	64.690041 
2940.000000	64.660596 
2939.000000	64.642262 
2938.000000	64.636301 
2937.000000	64.642262 
2936.000000	64.658546 
2935.000000	64.682674 
2934.000000	64.711999 
2933.000000	64.743995 
2932.000000	64.776539 
2931.000000	64.807796 
2930.000000	64.836359 
2929.000000	64.861059 
2928.000000	64.881086 
2927.000000	64.896106 
2926.000000	64.906430 
2925.000000	64.912843 
2924.000000	64.916682 
2923.000000	64.919209 
2922.000000	64.921808 
2921.000000	64.925169 
2920.000000	64.929533 
2919.000000	64.934396 
2918.000000	64.938783 
2917.000000	64.941501 
2916.000000	64.941334 
2915.000000	64.937567 
2914.000000	64.930009 
2913.000000	64.919376 
2912.000000	64.907002 
2911.000000	64.894771 
2910.000000	64.884638 
2909.000000	64.878225 
2908.000000	64.876270 
2907.000000	64.878511 
2906.000000	64.883875 
2905.000000	64.890789 
2904.000000	64.897704 
2903.000000	64.903354 
2902.000000	64.906978 
2901.000000	64.908623 
2900.000000	64.909148 
2899.000000	64.909553 
2898.000000	64.910912 
2897.000000	64.914059 
2896.000000	64.919471 
2895.000000	64.927268 
2894.000000	64.937067 
2893.000000	64.948344 
2892.000000	64.960312 
2891.000000	64.972186 
2890.000000	64.983153 
2889.000000	64.992332 
2888.000000	64.998888 
2887.000000	65.002131 
2886.000000	65.001749 
2885.000000	64.998030 
2884.000000	64.991688 
2883.000000	64.983963 
2882.000000	64.975976 
2881.000000	64.968371 
2880.000000	64.961075 
2879.000000	64.953327 
2878.000000	64.943885 
2877.000000	64.931368 
2876.000000	64.914965 
2875.000000	64.895057 
2874.000000	64.873337 
2873.000000	64.852571 
2872.000000	64.836096 
2871.000000	64.827156 
2870.000000	64.828014 
2869.000000	64.839434 
2868.000000	64.860248 
2867.000000	64.887857 
2866.000000	64.918518 
2865.000000	64.948129 
2864.000000	64.973044 
2863.000000	64.990448 
2862.000000	64.998912 
2861.000000	64.998507 
2860.000000	64.990186 
2859.000000	64.976119 
2858.000000	64.959001 
2857.000000	64.941859 
2856.000000	64.927768 
2855.000000	64.919233 
2854.000000	64.917969 
2853.000000	64.924669 
2852.000000	64.938902 
2851.000000	64.958930 
2850.000000	64.982199 
2849.000000	65.005755 
2848.000000	65.026593 
2847.000000	65.042519 
2846.000000	65.052103 
2845.000000	65.055012 
2844.000000	65.051651 
2843.000000	65.042996 
2842.000000	65.030002 
2841.000000	65.013480 
2840.000000	64.993882 
2839.000000	64.971375 
2838.000000	64.946222 
2837.000000	64.919257 
2836.000000	64.891743 
2835.000000	64.865636 
2834.000000	64.843273 
2833.000000	64.826774 
2832.000000	64.817714 
2831.000000	64.816689 
2830.000000	64.823079 
2829.000000	64.835214 
2828.000000	64.850664 
2827.000000	64.866828 
2826.000000	64.881539 
2825.000000	64.893293 
2824.000000	64.901208 
2823.000000	64.904975 
2822.000000	64.904522 
2821.000000	64.899897 
2820.000000	64.890980 
2819.000000	64.877557 
2818.000000	64.859652 
2817.000000	64.837694 
2816.000000	64.812898 
2815.000000	64.787364 
2814.000000	64.763689 
2813.000000	64.744830 
2812.000000	64.733529 
2811.000000	64.731788 
2810.000000	64.740347 
2809.000000	64.758491 
2808.000000	64.784383 
2807.000000	64.815235 
2806.000000	64.847826 
2805.000000	64.879083 
2804.000000	64.906334 
2803.000000	64.927864 
2802.000000	64.942860 
2801.000000	64.951419 
2800.000000	64.954328 
2799.000000	64.952731 
2798.000000	64.948058 
2797.000000	64.941740 
2796.000000	64.934897 
2795.000000	64.928555 
2794.000000	64.923357 
2793.000000	64.919805 
2792.000000	64.918112 
2791.000000	64.918303 
2790.000000	64.920020 
2789.000000	64.922428 
2788.000000	64.924263 
2787.000000	64.923882 
2786.000000	64.919662 
2785.000000	64.910268 
2784.000000	64.895033 
2783.000000	64.874148 
2782.000000	64.849019 
2781.000000	64.821767 
2780.000000	64.795184 
2779.000000	64.772009 
2778.000000	64.754533 
2777.000000	64.744257 
2776.000000	64.741635 
2775.000000	64.745950 
2774.000000	64.755773 
2773.000000	64.769220 
2772.000000	64.784383 
2771.000000	64.799594 
2770.000000	64.813637 
2769.000000	64.825797 
2768.000000	64.835858 
2767.000000	64.843916 
2766.000000	64.850044 
2765.000000	64.854574 
2764.000000	64.857840 
2763.000000	64.860105 
2762.000000	64.861631 
2761.000000	64.862561 
2760.000000	64.863085 
2759.000000	64.863324 
2758.000000	64.863586 
2757.000000	64.864158 
2756.000000	64.865398 
2755.000000	64.867591 
2754.000000	64.871144 
2753.000000	64.876127 
2752.000000	64.882421 
2751.000000	64.889574 
2750.000000	64.896893 
2749.000000	64.903688 
2748.000000	64.909338 
2747.000000	64.913511 
2746.000000	64.916133 
2745.000000	64.917683 
2744.000000	64.918994 
2743.000000	64.921116 
2742.000000	64.924979 
2741.000000	64.931130 
2740.000000	64.939594 
2739.000000	64.949774 
2738.000000	64.960527 
2737.000000	64.970421 
2736.000000	64.977884 
2735.000000	64.981579 
2734.000000	64.980673 
2733.000000	64.974808 
2732.000000	64.964246 
2731.000000	64.949631 
2730.000000	64.931869 
2729.000000	64.911890 
2728.000000	64.890575 
2727.000000	64.868855 
2726.000000	64.847564 
2725.000000	64.827609 
2724.000000	64.810180 
2723.000000	64.796495 
2722.000000	64.787888 
2721.000000	64.785456 
2720.000000	64.789676 
2719.000000	64.800429 
2718.000000	64.816808 
2717.000000	64.836907 
2716.000000	64.858508 
2715.000000	64.879322 
2714.000000	64.897489 
2713.000000	64.911794 
2712.000000	64.921879 
2711.000000	64.928174 
2710.000000	64.931726 
2709.000000	64.933633 
2708.000000	64.935016 
2707.000000	64.936399 
2706.000000	64.937973 
2705.000000	64.939284 
2704.000000	64.939808 
2703.000000	64.938974 
2702.000000	64.936637 
2701.000000	64.932918 
2700.000000	64.928436 
2699.000000	64.924025 
2698.000000	64.920544 
2697.000000	64.918518 
2696.000000	64.917898 
2695.000000	64.918041 
2694.000000	64.917850 
2693.000000	64.915966 
2692.000000	64.911079 
2691.000000	64.902448 
2690.000000	64.890027 
2689.000000	64.874768 
2688.000000	64.858365 
2687.000000	64.843058 
2686.000000	64.831018 
2685.000000	64.823937 
2684.000000	64.822793 
2683.000000	64.827418 
2682.000000	64.836621 
2681.000000	64.848685 
2680.000000	64.861750 
2679.000000	64.874124 
2678.000000	64.884757 
2677.000000	64.893198 
2676.000000	64.899778 
2675.000000	64.905071 
2674.000000	64.910006 
2673.000000	64.915204 
2672.000000	64.921259 
2671.000000	64.928197 
2670.000000	64.935994 
2669.000000	64.944362 
2668.000000	64.952969 
2667.000000	64.961624 
2666.000000	64.970088 
2665.000000	64.978051 
2664.000000	64.984965 
2663.000000	64.990186 
2662.000000	64.992809 
2661.000000	64.991855 
2660.000000	64.986371 
2659.000000	64.975810 
2658.000000	64.960074 
2657.000000	64.939737 
2656.000000	64.916086 
2655.000000	64.891076 
2654.000000	64.867067 
2653.000000	64.846467 
2652.000000	64.831447 
2651.000000	64.823436 
2650.000000	64.822816 
2649.000000	64.828920 
2648.000000	64.839863 
2647.000000	64.853262 
2646.000000	64.866256 
2645.000000	64.876604 
2644.000000	64.882612 
2643.000000	64.883971 
2642.000000	64.881396 
2641.000000	64.876532 
2640.000000	64.871501 
2639.000000	64.868164 
2638.000000	64.867758 
2637.000000	64.870452 
2636.000000	64.875364 
2635.000000	64.880967 
2634.000000	64.885520 
2633.000000	64.887595 
2632.000000	64.886403 
2631.000000	64.881873 
2630.000000	64.874696 
2629.000000	64.865922 
2628.000000	64.856624 
2627.000000	64.847540 
2626.000000	64.839196 
2625.000000	64.831757 
2624.000000	64.825415 
2623.000000	64.820456 
2622.000000	64.817452 
2621.000000	64.817166 
2620.000000	64.820528 
2619.000000	64.828062 
2618.000000	64.839982 
2617.000000	64.855504 
2616.000000	64.873385 
2615.000000	64.891886 
2614.000000	64.909219 
2613.000000	64.923858 
2612.000000	64.934659 
2611.000000	64.941120 
2610.000000	64.943289 
2609.000000	64.941477 
2608.000000	64.935994 
2607.000000	64.927101 
2606.000000	64.915037 
2605.000000	64.900207 
2604.000000	64.883470 
2603.000000	64.866232 
2602.000000	64.850640 
2601.000000	64.839005 
2600.000000	64.833426 
2599.000000	64.835214 
2598.000000	64.844298 
2597.000000	64.859318 
2596.000000	64.877605 
2595.000000	64.895939 
2594.000000	64.911198 
2593.000000	64.920878 
2592.000000	64.923787 
2591.000000	64.920139 
2590.000000	64.911270 
2589.000000	64.899396 
2588.000000	64.886975 
2587.000000	64.876008 
2586.000000	64.868044 
2585.000000	64.863371 
2584.000000	64.861536 
2583.000000	64.861249 
2582.000000	64.861106 
2581.000000	64.859771 
2580.000000	64.856553 
2579.000000	64.851355 
2578.000000	64.844632 
2577.000000	64.837408 
2576.000000	64.830708 
2575.000000	64.825654 
2574.000000	64.822840 
2573.000000	64.822435 
2572.000000	64.823842 
2571.000000	64.826178 
2570.000000	64.828157 
2569.000000	64.828443 
2568.000000	64.826083 
2567.000000	64.820313 
2566.000000	64.811015 
2565.000000	64.798569 
2564.000000	64.783978 
2563.000000	64.768576 
2562.000000	64.754033 
2561.000000	64.742183 
2560.000000	64.734625 
2559.000000	64.732813 
2558.000000	64.737319 
2557.000000	64.747810 
2556.000000	64.763116 
2555.000000	64.781427 
2554.000000	64.800643 
2553.000000	64.818572 
2552.000000	64.833641 
2551.000000	64.844918 
2550.000000	64.852333 
2549.000000	64.856529 
2548.000000	64.858603 
2547.000000	64.859604 
2546.000000	64.860129 
2545.000000	64.860272 
2544.000000	64.859628 
2543.000000	64.857435 
2542.000000	64.852976 
2541.000000	64.845824 
2540.000000	64.836168 
2539.000000	64.824724 
2538.000000	64.812707 
2537.000000	64.801740 
2536.000000	64.793157 
2535.000000	64.788174 
2534.000000	64.787769 
2533.000000	64.792466 
2532.000000	64.802336 
2531.000000	64.816832 
2530.000000	64.834809 
2529.000000	64.854407 
2528.000000	64.873290 
2527.000000	64.888811 
2526.000000	64.898490 
2525.000000	64.900708 
2524.000000	64.894866 
2523.000000	64.882087 
2522.000000	64.864826 
2521.000000	64.846849 
2520.000000	64.832091 
2519.000000	64.823842 
2518.000000	64.823651 
2517.000000	64.831376 
2516.000000	64.844560 
2515.000000	64.859509 
2514.000000	64.871668 
2513.000000	64.877128 
2512.000000	64.873218 
2511.000000	64.859151 
2510.000000	64.836096 
2509.000000	64.806437 
2508.000000	64.773654 
2507.000000	64.741492 
2506.000000	64.713358 
2505.000000	64.691734 
2504.000000	64.678096 
2503.000000	64.672923 
2502.000000	64.675712 
2501.000000	64.685249 
2500.000000	64.699983 
2499.000000	64.718174 
2498.000000	64.738035 
2497.000000	64.758038 
2496.000000	64.777088 
2495.000000	64.794731 
2494.000000	64.811182 
2493.000000	64.827132 
2492.000000	64.843654 
2491.000000	64.861512 
2490.000000	64.881277 
2489.000000	64.902353 
2488.000000	64.923334 
2487.000000	64.941620 
2486.000000	64.954257 
2485.000000	64.958167 
2484.000000	64.951157 
2483.000000	64.932084 
2482.000000	64.901590 
2481.000000	64.861941 
2480.000000	64.816641 
2479.000000	64.770102 
2478.000000	64.726734 
2477.000000	64.690160 
2476.000000	64.662694 
2475.000000	64.645171 
2474.000000	64.636993 
2473.000000	64.636611 
2472.000000	64.641833 
2471.000000	64.650440 
2470.000000	64.660501 
2469.000000	64.670729 
2468.000000	64.680552 
2467.000000	64.689755 
2466.000000	64.698600 
2465.000000	64.707469 
2464.000000	64.716815 
2463.000000	64.726901 
2462.000000	64.737582 
2461.000000	64.748477 
2460.000000	64.758801 
2459.000000	64.767503 
2458.000000	64.773511 
2457.000000	64.775872 
2456.000000	64.774298 
2455.000000	64.769124 
2454.000000	64.761567 
2453.000000	64.753413 
2452.000000	64.746975 
2451.000000	64.744234 
2450.000000	64.746379 
2449.000000	64.753627 
2448.000000	64.764857 
2447.000000	64.778113 
2446.000000	64.791178 
2445.000000	64.802098 
2444.000000	64.809894 
2443.000000	64.814853 
2442.000000	64.818334 
2441.000000	64.822363 
2440.000000	64.828920 
2439.000000	64.839267 
2438.000000	64.853620 
2437.000000	64.871215 
2436.000000	64.890217 
2435.000000	64.908599 
2434.000000	64.924693 
2433.000000	64.937591 
2432.000000	64.947390 
2431.000000	64.954757 
2430.000000	64.960694 
2429.000000	64.966130 
2428.000000	64.971327 
2427.000000	64.975905 
2426.000000	64.978885 
2425.000000	64.979052 
2424.000000	64.975666 
2423.000000	64.968180 
2422.000000	64.956593 
2421.000000	64.941382 
2420.000000	64.923477 
2419.000000	64.903783 
2418.000000	64.883065 
2417.000000	64.861893 
2416.000000	64.840650 
2415.000000	64.819598 
2414.000000	64.798927 
2413.000000	64.778709 
2412.000000	64.759063 
2411.000000	64.739894 
2410.000000	64.721155 
2409.000000	64.702653 
2408.000000	64.684295 
2407.000000	64.666485 
2406.000000	64.650058 
2405.000000	64.636087 
2404.000000	64.626049 
2403.000000	64.621186 
2402.000000	64.622449 
2401.000000	64.629673 
2400.000000	64.642095 
2399.000000	64.658284 
2398.000000	64.676666 
2397.000000	64.695692 
2396.000000	64.714431 
2395.000000	64.732599 
2394.000000	64.750576 
2393.000000	64.769029 
2392.000000	64.788508 
2391.000000	64.809155 
2390.000000	64.830255 
2389.000000	64.850449 
2388.000000	64.867758 
2387.000000	64.879798 
2386.000000	64.884710 
2385.000000	64.881420 
2384.000000	64.869451 
2383.000000	64.849352 
2382.000000	64.822649 
2381.000000	64.791679 
2380.000000	64.759063 
2379.000000	64.727592 
2378.000000	64.699912 
2377.000000	64.678120 
2376.000000	64.663529 
2375.000000	64.656496 
2374.000000	64.656305 
2373.000000	64.661431 
2372.000000	64.669823 
2371.000000	64.679336 
2370.000000	64.687991 
2369.000000	64.694666 
2368.000000	64.698934 
2367.000000	64.701271 
2366.000000	64.702415 
2365.000000	64.703297 
2364.000000	64.704704 
2363.000000	64.706778 
2362.000000	64.709067 
2361.000000	64.710879 
2360.000000	64.711642 
2359.000000	64.711356 
2358.000000	64.710593 
2357.000000	64.710521 
2356.000000	64.712691 
2355.000000	64.718437 
2354.000000	64.728546 
2353.000000	64.742803 
2352.000000	64.760017 
2351.000000	64.778113 
2350.000000	64.794707 
2349.000000	64.807605 
2348.000000	64.815402 
2347.000000	64.817881 
2346.000000	64.815878 
2345.000000	64.811182 
2344.000000	64.805817 
2343.000000	64.801669 
2342.000000	64.799785 
2341.000000	64.800119 
2340.000000	64.801478 
2339.000000	64.801931 
2338.000000	64.799332 
2337.000000	64.792013 
2336.000000	64.779257 
2335.000000	64.761829 
2334.000000	64.741754 
2333.000000	64.722084 
2332.000000	64.706325 
2331.000000	64.697527 
2330.000000	64.697480 
2329.000000	64.706277 
2328.000000	64.722156 
2327.000000	64.741587 
2326.000000	64.760041 
2325.000000	64.772915 
2324.000000	64.776229 
2323.000000	64.767718 
2322.000000	64.747118 
2321.000000	64.716553 
2320.000000	64.679622 
2319.000000	64.641070 
2318.000000	64.605784 
2317.000000	64.578008 
2316.000000	64.560341 
2315.000000	64.553594 
2314.000000	64.556956 
2313.000000	64.568209 
2312.000000	64.584517 
2311.000000	64.603161 
2310.000000	64.622139 
2309.000000	64.640283 
2308.000000	64.657497 
2307.000000	64.674282 
2306.000000	64.691400 
2305.000000	64.709448 
2304.000000	64.728331 
2303.000000	64.747238 
2302.000000	64.764618 
2301.000000	64.778923 
2300.000000	64.788460 
2299.000000	64.792132 
2298.000000	64.789366 
2297.000000	64.780759 
2296.000000	64.767432 
2295.000000	64.751052 
2294.000000	64.733314 
2293.000000	64.715814 
2292.000000	64.699697 
2291.000000	64.685750 
2290.000000	64.674115 
2289.000000	64.664888 
2288.000000	64.657521 
2287.000000	64.651417 
2286.000000	64.645862 
2285.000000	64.640331 
2284.000000	64.634513 
2283.000000	64.628124 
2282.000000	64.621233 
2281.000000	64.614081 
2280.000000	64.607262 
2279.000000	64.601516 
2278.000000	64.597511 
2277.000000	64.595818 
2276.000000	64.596939 
2275.000000	64.601206 
2274.000000	64.608669 
2273.000000	64.619255 
2272.000000	64.632868 
2271.000000	64.648938 
2270.000000	64.666962 
2269.000000	64.685988 
2268.000000	64.704632 
2267.000000	64.721274 
2266.000000	64.734196 
2265.000000	64.741921 
2264.000000	64.743661 
2263.000000	64.739513 
2262.000000	64.730739 
2261.000000	64.719390 
2260.000000	64.707922 
2259.000000	64.698696 
2258.000000	64.693379 
2257.000000	64.692401 
2256.000000	64.695048 
2255.000000	64.699554 
2254.000000	64.703607 
2253.000000	64.705014 
2252.000000	64.702343 
2251.000000	64.695262 
2250.000000	64.684724 
2249.000000	64.672517 
2248.000000	64.660882 
2247.000000	64.651799 
2246.000000	64.646601 
2245.000000	64.645600 
2244.000000	64.648437 
2243.000000	64.653968 
2242.000000	64.660787 
2241.000000	64.667773 
2240.000000	64.674186 
2239.000000	64.679718 
2238.000000	64.684653 
2237.000000	64.689350 
2236.000000	64.694142 
2235.000000	64.699101 
2234.000000	64.704084 
2233.000000	64.708590 
2232.000000	64.712190 
2231.000000	64.714527 
2230.000000	64.715456 
2229.000000	64.715242 
2228.000000	64.714312 
2227.000000	64.713168 
2226.000000	64.712119 
2225.000000	64.711093 
2224.000000	64.709806 
2223.000000	64.707660 
2222.000000	64.704108 
2221.000000	64.698767 
2220.000000	64.691781 
2219.000000	64.683508 
2218.000000	64.674711 
2217.000000	64.666271 
2216.000000	64.659023 
2215.000000	64.653682 
2214.000000	64.650893 
2213.000000	64.651083 
2212.000000	64.654612 
2211.000000	64.661717 
2210.000000	64.672398 
2209.000000	64.686441 
2208.000000	64.703273 
2207.000000	64.721703 
2206.000000	64.740204 
2205.000000	64.757037 
2204.000000	64.770460 
2203.000000	64.779257 
2202.000000	64.782834 
2201.000000	64.781427 
2200.000000	64.775967 
2199.000000	64.767909 
2198.000000	64.758706 
2197.000000	64.749550 
2196.000000	64.741182 
2195.000000	64.733815 
2194.000000	64.727091 
2193.000000	64.720582 
2192.000000	64.713740 
2191.000000	64.706039 
2190.000000	64.697241 
2189.000000	64.687252 
2188.000000	64.676332 
2187.000000	64.665007 
2186.000000	64.654231 
2185.000000	64.645051 
2184.000000	64.638757 
2183.000000	64.636373 
2182.000000	64.638590 
2181.000000	64.645481 
2180.000000	64.656329 
2179.000000	64.669609 
2178.000000	64.683175 
2177.000000	64.694809 
2176.000000	64.702534 
2175.000000	64.704966 
2174.000000	64.701914 
2173.000000	64.693975 
2172.000000	64.682555 
2171.000000	64.669418 
2170.000000	64.656257 
2169.000000	64.644289 
2168.000000	64.634132 
2167.000000	64.625811 
2166.000000	64.619064 
2165.000000	64.613509 
2164.000000	64.609026 
2163.000000	64.605832 
2162.000000	64.604401 
2161.000000	64.605379 
2160.000000	64.609289 
2159.000000	64.616584 
2158.000000	64.627003 
2157.000000	64.639973 
2156.000000	64.654660 
2155.000000	64.670014 
2154.000000	64.685106 
2153.000000	64.699268 
2152.000000	64.712285 
2151.000000	64.724302 
2150.000000	64.735531 
2149.000000	64.746379 
2148.000000	64.757132 
2147.000000	64.767885 
2146.000000	64.778327 
2145.000000	64.787888 
2144.000000	64.795565 
2143.000000	64.800310 
2142.000000	64.801001 
2141.000000	64.796805 
2140.000000	64.787054 
2139.000000	64.771914 
2138.000000	64.752125 
2137.000000	64.728951 
2136.000000	64.704155 
2135.000000	64.679789 
2134.000000	64.657783 
2133.000000	64.639663 
2132.000000	64.626216 
2131.000000	64.617490 
2130.000000	64.612388 
2129.000000	64.609169 
2128.000000	64.605569 
2127.000000	64.599323 
2126.000000	64.588880 
2125.000000	64.573574 
2124.000000	64.554119 
2123.000000	64.532017 
2122.000000	64.509892 
2121.000000	64.490628 
2120.000000	64.476704 
2119.000000	64.469885 
2118.000000	64.470887 
2117.000000	64.479494 
2116.000000	64.494657 
2115.000000	64.514589 
2114.000000	64.537405 
2113.000000	64.561319 
2112.000000	64.584684 
2111.000000	64.606142 
2110.000000	64.624595 
2109.000000	64.639186 
2108.000000	64.649176 
2107.000000	64.654111 
2106.000000	64.654016 
2105.000000	64.649415 
2104.000000	64.641523 
2103.000000	64.631915 
2102.000000	64.622426 
2101.000000	64.614677 
2100.000000	64.610052 
2099.000000	64.609050 
2098.000000	64.611530 
2097.000000	64.616465 
2096.000000	64.622330 
2095.000000	64.627385 
2094.000000	64.629888 
2093.000000	64.628601 
2092.000000	64.623022 
2091.000000	64.613175 
2090.000000	64.599919 
2089.000000	64.584779 
2088.000000	64.569568 
2087.000000	64.556169 
2086.000000	64.545989 
2085.000000	64.540052 
2084.000000	64.538288 
2083.000000	64.539909 
2082.000000	64.543175 
2081.000000	64.545822 
2080.000000	64.545583 
2079.000000	64.540696 
2078.000000	64.530301 
2077.000000	64.514589 
2076.000000	64.494657 
2075.000000	64.472532 
2074.000000	64.450430 
2073.000000	64.430451 
2072.000000	64.414167 
2071.000000	64.402604 
2070.000000	64.396333 
2069.000000	64.395380 
2068.000000	64.399719 
2067.000000	64.409208 
2066.000000	64.423608 
2065.000000	64.442706 
2064.000000	64.465975 
2063.000000	64.492392 
2062.000000	64.520668 
2061.000000	64.549088 
2060.000000	64.575791 
2059.000000	64.599275 
2058.000000	64.618539 
2057.000000	64.633202 
2056.000000	64.643669 
2055.000000	64.650464 
2054.000000	64.654612 
2053.000000	64.656662 
2052.000000	64.656901 
2051.000000	64.654946 
2050.000000	64.650416 
2049.000000	64.642906 
2048.000000	64.632320 
2047.000000	64.619112 
2046.000000	64.604496 
2045.000000	64.589905 
2044.000000	64.576816 
2043.000000	64.566445 
2042.000000	64.559316 
2041.000000	64.555263 
2040.000000	64.553451 
2039.000000	64.552688 
2038.000000	64.551877 
2037.000000	64.550471 
2036.000000	64.548683 
2035.000000	64.547204 
2034.000000	64.547061 
2033.000000	64.549207 
2032.000000	64.554095 
2031.000000	64.561510 
2030.000000	64.570283 
2029.000000	64.579057 
2028.000000	64.586400 
2027.000000	64.591431 
2026.000000	64.593648 
2025.000000	64.593458 
2024.000000	64.591717 
2023.000000	64.589452 
2022.000000	64.587664 
2021.000000	64.586973 
2020.000000	64.587569 
2019.000000	64.589452 
2018.000000	64.592313 
2017.000000	64.595794 
2016.000000	64.599537 
2015.000000	64.603328 
2014.000000	64.606881 
2013.000000	64.609837 
2012.000000	64.611768 
2011.000000	64.612221 
2010.000000	64.610791 
2009.000000	64.607286 
2008.000000	64.601945 
2007.000000	64.595460 
2006.000000	64.588737 
2005.000000	64.582824 
2004.000000	64.578509 
2003.000000	64.576125 
2002.000000	64.575624 
2001.000000	64.576363 
2000.000000	64.577484 
1999.000000	64.577865 
1998.000000	64.576816 
1997.000000	64.574027 
1996.000000	64.569520 
1995.000000	64.563822 
1994.000000	64.557909 
1993.000000	64.552736 
1992.000000	64.549064 
1991.000000	64.547181 
1990.000000	64.546823 
1989.000000	64.547324 
1988.000000	64.547753 
1987.000000	64.547252 
1986.000000	64.545416 
1985.000000	64.542484 
1984.000000	64.539217 
1983.000000	64.537000 
1982.000000	64.537286 
1981.000000	64.541268 
1980.000000	64.549422 
1979.000000	64.561223 
1978.000000	64.575171 
1977.000000	64.589047 
1976.000000	64.600253 
1975.000000	64.606451 
1974.000000	64.605903 
1973.000000	64.598059 
1972.000000	64.583539 
1971.000000	64.563798 
1970.000000	64.540934 
1969.000000	64.517283 
1968.000000	64.494919 
1967.000000	64.475226 
1966.000000	64.458870 
1965.000000	64.445877 
1964.000000	64.435648 
1963.000000	64.427280 
1962.000000	64.419770 
1961.000000	64.412450 
1960.000000	64.405155 
1959.000000	64.398169 
1958.000000	64.392256 
1957.000000	64.388370 
1956.000000	64.387321 
1955.000000	64.389681 
1954.000000	64.395356 
1953.000000	64.403748 
1952.000000	64.413762 
1951.000000	64.424180 
1950.000000	64.433717 
1949.000000	64.441466 
1948.000000	64.447045 
1947.000000	64.450573 
1946.000000	64.452624 
1945.000000	64.453887 
1944.000000	64.455246 
1943.000000	64.457416 
1942.000000	64.460778 
1941.000000	64.465498 
1940.000000	64.471530 
1939.000000	64.478540 
1938.000000	64.486312 
1937.000000	64.494276 
1936.000000	64.501714 
1935.000000	64.507675 
1934.000000	64.511251 
1933.000000	64.511585 
1932.000000	64.508175 
1931.000000	64.501047 
1930.000000	64.490723 
1929.000000	64.478182 
1928.000000	64.464640 
1927.000000	64.451313 
1926.000000	64.439034 
1925.000000	64.428186 
1924.000000	64.418578 
1923.000000	64.409589 
1922.000000	64.400434 
1921.000000	64.390444 
1920.000000	64.379239 
1919.000000	64.366722 
1918.000000	64.353346 
1917.000000	64.339709 
1916.000000	64.326739 
1915.000000	64.315032 
1914.000000	64.305472 
1913.000000	64.298844 
1912.000000	64.295744 
1911.000000	64.296793 
1910.000000	64.302301 
1909.000000	64.312124 
1908.000000	64.325356 
1907.000000	64.340519 
1906.000000	64.355516 
1905.000000	64.368176 
1904.000000	64.376592 
1903.000000	64.379596 
1902.000000	64.377093 
1901.000000	64.370059 
1900.000000	64.360523 
1899.000000	64.350986 
1898.000000	64.343762 
1897.000000	64.340400 
1896.000000	64.341378 
1895.000000	64.345908 
1894.000000	64.352297 
1893.000000	64.358305 
1892.000000	64.362049 
1891.000000	64.362168 
1890.000000	64.358377 
1889.000000	64.351487 
1888.000000	64.343142 
1887.000000	64.335536 
1886.000000	64.330506 
1885.000000	64.329457 
1884.000000	64.332938 
1883.000000	64.340591 
1882.000000	64.351367 
1881.000000	64.363598 
1880.000000	64.375686 
1879.000000	64.386439 
1878.000000	64.395284 
1877.000000	64.402294 
1876.000000	64.408183 
1875.000000	64.413976 
1874.000000	64.420771 
1873.000000	64.429259 
1872.000000	64.439463 
1871.000000	64.450573 
1870.000000	64.461112 
1869.000000	64.469289 
1868.000000	64.473342 
1867.000000	64.472126 
1866.000000	64.465713 
1865.000000	64.455294 
1864.000000	64.443445 
1863.000000	64.433264 
1862.000000	64.427995 
1861.000000	64.430260 
1860.000000	64.441299 
1859.000000	64.460897 
1858.000000	64.487051 
1857.000000	64.516544 
1856.000000	64.545345 
1855.000000	64.569568 
1854.000000	64.585971 
1853.000000	64.592599 
1852.000000	64.589142 
1851.000000	64.576649 
1850.000000	64.557266 
1849.000000	64.533638 
1848.000000	64.508533 
1847.000000	64.484310 
1846.000000	64.462661 
1845.000000	64.444494 
1844.000000	64.430046 
1843.000000	64.419126 
1842.000000	64.411139 
1841.000000	64.405632 
1840.000000	64.402174 
1839.000000	64.400601 
1838.000000	64.400768 
1837.000000	64.402580 
1836.000000	64.405918 
1835.000000	64.410614 
1834.000000	64.416074 
1833.000000	64.421606 
1832.000000	64.426422 
1831.000000	64.429664 
1830.000000	64.430546 
1829.000000	64.428424 
1828.000000	64.422845 
1827.000000	64.413642 
1826.000000	64.400935 
1825.000000	64.385223 
1824.000000	64.367413 
1823.000000	64.348745 
1822.000000	64.330768 
1821.000000	64.315152 
1820.000000	64.303493 
1819.000000	64.297175 
1818.000000	64.297032 
1817.000000	64.303064 
1816.000000	64.314579 
1815.000000	64.330077 
1814.000000	64.347624 
1813.000000	64.364910 
1812.000000	64.379620 
1811.000000	64.389848 
1810.000000	64.394426 
1809.000000	64.392685 
1808.000000	64.384889 
1807.000000	64.371824 
1806.000000	64.355063 
1805.000000	64.336633 
1804.000000	64.318656 
1803.000000	64.303445 
1802.000000	64.292907 
1801.000000	64.288640 
1800.000000	64.291405 
1799.000000	64.300918 
1798.000000	64.315724 
1797.000000	64.333629 
1796.000000	64.351797 
1795.000000	64.367246 
1794.000000	64.377570 
1793.000000	64.381408 
1792.000000	64.378786 
1791.000000	64.371156 
1790.000000	64.361047 
1789.000000	64.351511 
1788.000000	64.345502 
1787.000000	64.345073 
1786.000000	64.351058 
1785.000000	64.363002 
1784.000000	64.379167 
1783.000000	64.397048 
1782.000000	64.414310 
1781.000000	64.428806 
1780.000000	64.439249 
1779.000000	64.445137 
1778.000000	64.446783 
1777.000000	64.444851 
1776.000000	64.440059 
1775.000000	64.433050 
1774.000000	64.424419 
1773.000000	64.414525 
1772.000000	64.403891 
1771.000000	64.393138 
1770.000000	64.382958 
1769.000000	64.374041 
1768.000000	64.366817 
1767.000000	64.361381 
1766.000000	64.357423 
1765.000000	64.354062 
1764.000000	64.350080 
1763.000000	64.344239 
1762.000000	64.335632 
1761.000000	64.323759 
1760.000000	64.308834 
1759.000000	64.291381 
1758.000000	64.272451 
1757.000000	64.253044 
1756.000000	64.234185 
1755.000000	64.216685 
1754.000000	64.200949 
1753.000000	64.187240 
1752.000000	64.175558 
1751.000000	64.165663 
1750.000000	64.157223 
1749.000000	64.149737 
1748.000000	64.142632 
1747.000000	64.135408 
1746.000000	64.127683 
1745.000000	64.119172 
1744.000000	64.109754 
1743.000000	64.099407 
1742.000000	64.088320 
1741.000000	64.076757 
1740.000000	64.064955 
1739.000000	64.053368 
1738.000000	64.042448 
1737.000000	64.032864 
1736.000000	64.025545 
1735.000000	64.021563 
1734.000000	64.021849 
1733.000000	64.027166 
1732.000000	64.037680 
1731.000000	64.052844 
1730.000000	64.071202 
1729.000000	64.090681 
1728.000000	64.108920 
1727.000000	64.123821 
1726.000000	64.133977 
1725.000000	64.139056 
1724.000000	64.139795 
1723.000000	64.137792 
1722.000000	64.135336 
1721.000000	64.134645 
1720.000000	64.137244 
1719.000000	64.143800 
1718.000000	64.154005 
1717.000000	64.166831 
1716.000000	64.180755 
1715.000000	64.194416 
1714.000000	64.206719 
1713.000000	64.217042 
1712.000000	64.225077 
1711.000000	64.230918 
1710.000000	64.234447 
1709.000000	64.235329 
1708.000000	64.232754 
1707.000000	64.226078 
1706.000000	64.214563 
1705.000000	64.198017 
1704.000000	64.176750 
1703.000000	64.152050 
1702.000000	64.126014 
1701.000000	64.100933 
1700.000000	64.079594 
1699.000000	64.064240 
1698.000000	64.056611 
1697.000000	64.057469 
1696.000000	64.066576 
1695.000000	64.082455 
1694.000000	64.102840 
1693.000000	64.124798 
1692.000000	64.145135 
1691.000000	64.160704 
1690.000000	64.169120 
1689.000000	64.169001 
1688.000000	64.160275 
1687.000000	64.144206 
1686.000000	64.123439 
1685.000000	64.101290 
1684.000000	64.081215 
1683.000000	64.066195 
1682.000000	64.058184 
1681.000000	64.057588 
1680.000000	64.063525 
1679.000000	64.073848 
1678.000000	64.085912 
1677.000000	64.097094 
1676.000000	64.105486 
1675.000000	64.110255 
1674.000000	64.111495 
1673.000000	64.110302 
1672.000000	64.108014 
1671.000000	64.106035 
1670.000000	64.105248 
1669.000000	64.105892 
1668.000000	64.107584 
1667.000000	64.109492 
1666.000000	64.110732 
1665.000000	64.110589 
1664.000000	64.108800 
1663.000000	64.105629 
1662.000000	64.101862 
1661.000000	64.098572 
1660.000000	64.096689 
1659.000000	64.096975 
1658.000000	64.099812 
1657.000000	64.105129 
1656.000000	64.112520 
1655.000000	64.121484 
1654.000000	64.131617 
1653.000000	64.142656 
1652.000000	64.154529 
1651.000000	64.167356 
1650.000000	64.181160 
1649.000000	64.195847 
1648.000000	64.210820 
1647.000000	64.225220 
1646.000000	64.237594 
1645.000000	64.246439 
1644.000000	64.250087 
1643.000000	64.247345 
1642.000000	64.237594 
1641.000000	64.221143 
1640.000000	64.199233 
1639.000000	64.173889 
1638.000000	64.147901 
1637.000000	64.124178 
1636.000000	64.105391 
1635.000000	64.093518 
1634.000000	64.089465 
1633.000000	64.092874 
1632.000000	64.102172 
1631.000000	64.114928 
1630.000000	64.128184 
1629.000000	64.138984 
1628.000000	64.144873 
1627.000000	64.144515 
1626.000000	64.137506 
1625.000000	64.125061 
1624.000000	64.109373 
1623.000000	64.093637 
1622.000000	64.081001 
1621.000000	64.074158 
1620.000000	64.074826 
1619.000000	64.083290 
1618.000000	64.098215 
1617.000000	64.116811 
1616.000000	64.135503 
1615.000000	64.150643 
1614.000000	64.159321 
1613.000000	64.160013 
1612.000000	64.153027 
1611.000000	64.140272 
1610.000000	64.124989 
1609.000000	64.110636 
1608.000000	64.100241 
1607.000000	64.095830 
1606.000000	64.097785 
1605.000000	64.105081 
1604.000000	64.115643 
1603.000000	64.127039 
1602.000000	64.137077 
1601.000000	64.144134 
1600.000000	64.147400 
1599.000000	64.146733 
1598.000000	64.142394 
1597.000000	64.134979 
1596.000000	64.125013 
1595.000000	64.112877 
1594.000000	64.098882 
1593.000000	64.083647 
1592.000000	64.068078 
1591.000000	64.053487 
1590.000000	64.041328 
1589.000000	64.033198 
1588.000000	64.030003 
1587.000000	64.032030 
1586.000000	64.038634 
1585.000000	64.048314 
1584.000000	64.058995 
1583.000000	64.068484 
1582.000000	64.074897 
1581.000000	64.077138 
1580.000000	64.075016 
1579.000000	64.069271 
1578.000000	64.061236 
1577.000000	64.052557 
1576.000000	64.044809 
1575.000000	64.039087 
1574.000000	64.035701 
1573.000000	64.034128 
1572.000000	64.033484 
1571.000000	64.032435 
1570.000000	64.029669 
1569.000000	64.024162 
1568.000000	64.015245 
1567.000000	64.003205 
1566.000000	63.988852 
1565.000000	63.973665 
1564.000000	63.959312 
1563.000000	63.947653 
1562.000000	63.940048 
1561.000000	63.937282 
1560.000000	63.939476 
1559.000000	63.946080 
1558.000000	63.956022 
1557.000000	63.967823 
1556.000000	63.979959 
1555.000000	63.990926 
1554.000000	63.999319 
1553.000000	64.003968 
1552.000000	64.004158 
1551.000000	63.999724 
1550.000000	63.990974 
1549.000000	63.979148 
1548.000000	63.966059 
1547.000000	63.954091 
1546.000000	63.945627 
1545.000000	63.942790 
1544.000000	63.946843 
1543.000000	63.957810 
1542.000000	63.974332 
1541.000000	63.993763 
1540.000000	64.012861 
1539.000000	64.028334 
1538.000000	64.037871 
1537.000000	64.040231 
1536.000000	64.035964 
1535.000000	64.026856 
1534.000000	64.015817 
1533.000000	64.005780 
1532.000000	63.999581 
1531.000000	63.999128 
1530.000000	64.005327 
1529.000000	64.017987 
1528.000000	64.036226 
1527.000000	64.058685 
1526.000000	64.084005 
1525.000000	64.110827 
1524.000000	64.138221 
1523.000000	64.165425 
1522.000000	64.191770 
1521.000000	64.216470 
1520.000000	64.238619 
1519.000000	64.257073 
1518.000000	64.270782 
1517.000000	64.278626 
1516.000000	64.280009 
1515.000000	64.274621 
1514.000000	64.263129 
1513.000000	64.246559 
1512.000000	64.226746 
1511.000000	64.205622 
1510.000000	64.185333 
1509.000000	64.167451 
1508.000000	64.152956 
1507.000000	64.141964 
1506.000000	64.133763 
1505.000000	64.127039 
1504.000000	64.120268 
1503.000000	64.112210 
1502.000000	64.102077 
1501.000000	64.089989 
1500.000000	64.076900 
1499.000000	64.064383 
1498.000000	64.054155 
1497.000000	64.047718 
1496.000000	64.046144 
1495.000000	64.049386 
1494.000000	64.056587 
1493.000000	64.066314 
1492.000000	64.076972 
1491.000000	64.086985 
1490.000000	64.095330 
1489.000000	64.101600 
1488.000000	64.106035 
1487.000000	64.109158 
1486.000000	64.111924 
1485.000000	64.115238 
1484.000000	64.120006 
1483.000000	64.126729 
1482.000000	64.135527 
1481.000000	64.146041 
1480.000000	64.157533 
1479.000000	64.169073 
1478.000000	64.179635 
1477.000000	64.188456 
1476.000000	64.194917 
1475.000000	64.198875 
1474.000000	64.200162 
1473.000000	64.198613 
1472.000000	64.193940 
1471.000000	64.185833 
1470.000000	64.174103 
1469.000000	64.158773 
1468.000000	64.140534 
1467.000000	64.120626 
1466.000000	64.100813 
1465.000000	64.082932 
1464.000000	64.068770 
1463.000000	64.059376 
1462.000000	64.055085 
1461.000000	64.055180 
1460.000000	64.058113 
1459.000000	64.061903 
1458.000000	64.064574 
1457.000000	64.064621 
1456.000000	64.061021 
1455.000000	64.053702 
1454.000000	64.043116 
1453.000000	64.030385 
1452.000000	64.016723 
1451.000000	64.003634 
1450.000000	63.992500 
1449.000000	63.984537 
1448.000000	63.980603 
1447.000000	63.981246 
1446.000000	63.986635 
1445.000000	63.996148 
1444.000000	64.008617 
1443.000000	64.022350 
1442.000000	64.035606 
1441.000000	64.046621 
1440.000000	64.054250 
1439.000000	64.057993 
1438.000000	64.058399 
1437.000000	64.056658 
1436.000000	64.054417 
1435.000000	64.053297 
1434.000000	64.054489 
1433.000000	64.058423 
1432.000000	64.064860 
1431.000000	64.073038 
1430.000000	64.082026 
1429.000000	64.091134 
1428.000000	64.100098 
1427.000000	64.109206 
1426.000000	64.118790 
1425.000000	64.129233 
1424.000000	64.140176 
1423.000000	64.150667 
1422.000000	64.158987 
1421.000000	64.163208 
1420.000000	64.161467 
1419.000000	64.152646 
1418.000000	64.136695 
1417.000000	64.114880 
1416.000000	64.089512 
1415.000000	64.063334 
1414.000000	64.039087 
1413.000000	64.018726 
1412.000000	64.003276 
1411.000000	63.992834 
1410.000000	63.986587 
1409.000000	63.983488 
1408.000000	63.982772 
1407.000000	63.984203 
1406.000000	63.988041 
1405.000000	63.994884 
1404.000000	64.004969 
1403.000000	64.018011 
1402.000000	64.032840 
1401.000000	64.047670 
1400.000000	64.060378 
1399.000000	64.069080 
1398.000000	64.072751 
1397.000000	64.071440 
1396.000000	64.066362 
1395.000000	64.059472 
1394.000000	64.052963 
1393.000000	64.048433 
1392.000000	64.046621 
1391.000000	64.047169 
1390.000000	64.048814 
1389.000000	64.049887 
1388.000000	64.048647 
1387.000000	64.044022 
1386.000000	64.035773 
1385.000000	64.024233 
1384.000000	64.010453 
1383.000000	63.995552 
1382.000000	63.980627 
1381.000000	63.966512 
1380.000000	63.953781 
1379.000000	63.942933 
1378.000000	63.934326 
1377.000000	63.928508 
1376.000000	63.925838 
1375.000000	63.926506 
1374.000000	63.930153 
1373.000000	63.935828 
1372.000000	63.942027 
1371.000000	63.946795 
1370.000000	63.948631 
1369.000000	63.946723 
1368.000000	63.941550 
1367.000000	63.934588 
1366.000000	63.928246 
1365.000000	63.925147 
1364.000000	63.927292 
1363.000000	63.935446 
1362.000000	63.948798 
1361.000000	63.965082 
1360.000000	63.980984 
1359.000000	63.993120 
1358.000000	63.998556 
1357.000000	63.995552 
1356.000000	63.983964 
1355.000000	63.965177 
1354.000000	63.941764 
1353.000000	63.916754 
1352.000000	63.893318 
1351.000000	63.873863 
1350.000000	63.859987 
1349.000000	63.852286 
1348.000000	63.850593 
1347.000000	63.854026 
1346.000000	63.861322 
1345.000000	63.870906 
1344.000000	63.881111 
1343.000000	63.890433 
1342.000000	63.897562 
1341.000000	63.901638 
1340.000000	63.902091 
1339.000000	63.898992 
1338.000000	63.892793 
1337.000000	63.884472 
1336.000000	63.875317 
1335.000000	63.866639 
1334.000000	63.859581 
1333.000000	63.854980 
1332.000000	63.853263 
1331.000000	63.854408 
1330.000000	63.857960 
1329.000000	63.863277 
1328.000000	63.869643 
1327.000000	63.876414 
1326.000000	63.883161 
1325.000000	63.889527 
1324.000000	63.895368 
1323.000000	63.900518 
1322.000000	63.904857 
1321.000000	63.908195 
1320.000000	63.910174 
1319.000000	63.910317 
1318.000000	63.908028 
1317.000000	63.902831 
1316.000000	63.894414 
1315.000000	63.882732 
1314.000000	63.868331 
1313.000000	63.852047 
1312.000000	63.835501 
1311.000000	63.820624 
1310.000000	63.809585 
1309.000000	63.804292 
1308.000000	63.806080 
1307.000000	63.815426 
1306.000000	63.831710 
1305.000000	63.853383 
1304.000000	63.878059 
1303.000000	63.902950 
1302.000000	63.925552 
1301.000000	63.943743 
1300.000000	63.956260 
1299.000000	63.962602 
1298.000000	63.963198 
1297.000000	63.958954 
1296.000000	63.951182 
1295.000000	63.941359 
1294.000000	63.930821 
1293.000000	63.920903 
1292.000000	63.912725 
1291.000000	63.907194 
1290.000000	63.904953 
1289.000000	63.906002 
1288.000000	63.909912 
1287.000000	63.915586 
1286.000000	63.921380 
1285.000000	63.925552 
1284.000000	63.926434 
1283.000000	63.923096 
1282.000000	63.915467 
1281.000000	63.904476 
1280.000000	63.891768 
1279.000000	63.879442 
1278.000000	63.869571 
1277.000000	63.863682 
1276.000000	63.862466 
1275.000000	63.865613 
1274.000000	63.871908 
1273.000000	63.879823 
1272.000000	63.887500 
1271.000000	63.893532 
1270.000000	63.897037 
1269.000000	63.898015 
1268.000000	63.897132 
1267.000000	63.895201 
1266.000000	63.893008 
1265.000000	63.890838 
1264.000000	63.888239 
1263.000000	63.884258 
1262.000000	63.877844 
1261.000000	63.868141 
1260.000000	63.855123 
1259.000000	63.839650 
1258.000000	63.823437 
1257.000000	63.808727 
1256.000000	63.797736 
1255.000000	63.792109 
1254.000000	63.792562 
1253.000000	63.798618 
1252.000000	63.808870 
1251.000000	63.821291 
1250.000000	63.833713 
1249.000000	63.844347 
1248.000000	63.852047 
1247.000000	63.856363 
1246.000000	63.857388 
1245.000000	63.855528 
1244.000000	63.851213 
1243.000000	63.844871 
1242.000000	63.836789 
1241.000000	63.827276 
1240.000000	63.816833 
1239.000000	63.806128 
1238.000000	63.796091 
1237.000000	63.787579 
1236.000000	63.781452 
1235.000000	63.778066 
1234.000000	63.777375 
1233.000000	63.778853 
1232.000000	63.781642 
1231.000000	63.784766 
1230.000000	63.787293 
1229.000000	63.788533 
1228.000000	63.788175 
1227.000000	63.786244 
1226.000000	63.783168 
1225.000000	63.779449 
1224.000000	63.775610 
1223.000000	63.772034 
1222.000000	63.768815 
1221.000000	63.765883 
1220.000000	63.762998 
1219.000000	63.760066 
1218.000000	63.756942 
1217.000000	63.753652 
1216.000000	63.750243 
1215.000000	63.746809 
1214.000000	63.743400 
1213.000000	63.740015 
1212.000000	63.736820 
1211.000000	63.734173 
1210.000000	63.732695 
1209.000000	63.733100 
1208.000000	63.735890 
1207.000000	63.741183 
1206.000000	63.748359 
1205.000000	63.756084 
1204.000000	63.762617 
1203.000000	63.766098 
1202.000000	63.764953 
1201.000000	63.758420 
1200.000000	63.746857 
1199.000000	63.731503 
1198.000000	63.714313 
1197.000000	63.697481 
1196.000000	63.683009 
1195.000000	63.672471 
1194.000000	63.666677 
1193.000000	63.665533 
1192.000000	63.668704 
1191.000000	63.675189 
1190.000000	63.684105 
1189.000000	63.694739 
1188.000000	63.706254 
1187.000000	63.718104 
1186.000000	63.729739 
1185.000000	63.740348 
1184.000000	63.748979 
1183.000000	63.754725 
1182.000000	63.756847 
1181.000000	63.755154 
1180.000000	63.750219 
1179.000000	63.743138 
1178.000000	63.735461 
1177.000000	63.728404 
1176.000000	63.722586 
1175.000000	63.717532 
1174.000000	63.711857 
1173.000000	63.703680 
1172.000000	63.691258 
1171.000000	63.673639 
1170.000000	63.651084 
1169.000000	63.624739 
1168.000000	63.596701 
1167.000000	63.569474 
1166.000000	63.545680 
1165.000000	63.527536 
1164.000000	63.516783 
1163.000000	63.514590 
1162.000000	63.521313 
1161.000000	63.536286 
1160.000000	63.558006 
1159.000000	63.583827 
1158.000000	63.610863 
1157.000000	63.636422 
1156.000000	63.658356 
1155.000000	63.675332 
1154.000000	63.686728 
1153.000000	63.692688 
1152.000000	63.693618 
1151.000000	63.689899 
1150.000000	63.682031 
1149.000000	63.670468 
1148.000000	63.655853 
1147.000000	63.638925 
1146.000000	63.620424 
1145.000000	63.601040 
1144.000000	63.581585 
1143.000000	63.563132 
1142.000000	63.547062 
1141.000000	63.534951 
1140.000000	63.528728 
1139.000000	63.530039 
1138.000000	63.539528 
1137.000000	63.556599 
1136.000000	63.579225 
1135.000000	63.604116 
1134.000000	63.627171 
1133.000000	63.644361 
1132.000000	63.652634 
1131.000000	63.650465 
1130.000000	63.638138 
1129.000000	63.617420 
1128.000000	63.591146 
1127.000000	63.562631 
1126.000000	63.535070 
1125.000000	63.510870 
1124.000000	63.491296 
1123.000000	63.476681 
1122.000000	63.466906 
1121.000000	63.461565 
1120.000000	63.460278 
1119.000000	63.463068 
1118.000000	63.470268 
1117.000000	63.482213 
1116.000000	63.499045 
1115.000000	63.520050 
1114.000000	63.543987 
1113.000000	63.569116 
1112.000000	63.593482 
1111.000000	63.615632 
1110.000000	63.634729 
1109.000000	63.651013 
1108.000000	63.665413 
1107.000000	63.679194 
1106.000000	63.693165 
1105.000000	63.707661 
1104.000000	63.721847 
1103.000000	63.734459 
1102.000000	63.743615 
1101.000000	63.747715 
1100.000000	63.745450 
1099.000000	63.736295 
1098.000000	63.720345 
1097.000000	63.698434 
1096.000000	63.671612 
1095.000000	63.641023 
1094.000000	63.607764 
1093.000000	63.573288 
1092.000000	63.539052 
1091.000000	63.506865 
1090.000000	63.478851 
1089.000000	63.457179 
1088.000000	63.443970 
1087.000000	63.440775 
1086.000000	63.448095 
1085.000000	63.465189 
1084.000000	63.490319 
1083.000000	63.520717 
1082.000000	63.553166 
1081.000000	63.584280 
1080.000000	63.610887 
1079.000000	63.630795 
1078.000000	63.642430 
1077.000000	63.645315 
1076.000000	63.639760 
1075.000000	63.627004 
1074.000000	63.609170 
1073.000000	63.589096 
1072.000000	63.569879 
1071.000000	63.554716 
1070.000000	63.546538 
1069.000000	63.547396 
1068.000000	63.558077 
1067.000000	63.577699 
1066.000000	63.603925 
1065.000000	63.633012 
1064.000000	63.660836 
1063.000000	63.683366 
1062.000000	63.697457 
1061.000000	63.701438 
1060.000000	63.695311 
1059.000000	63.680744 
1058.000000	63.660693 
1057.000000	63.638830 
1056.000000	63.619017 
1055.000000	63.604521 
1054.000000	63.597702 
1053.000000	63.599777 
1052.000000	63.610625 
1051.000000	63.629269 
1050.000000	63.653826 
1049.000000	63.682413 
1048.000000	63.712954 
1047.000000	63.743424 
1046.000000	63.771986 
1045.000000	63.796710 
1044.000000	63.815808 
1043.000000	63.827490 
1042.000000	63.830089 
1041.000000	63.822340 
1040.000000	63.803839 
1039.000000	63.775372 
1038.000000	63.738679 
1037.000000	63.696432 
1036.000000	63.652062 
1035.000000	63.609051 
1034.000000	63.570499 
1033.000000	63.538670 
1032.000000	63.514637 
1031.000000	63.498377 
1030.000000	63.488984 
1029.000000	63.485312 
1028.000000	63.485980 
1027.000000	63.489937 
1026.000000	63.496303 
1025.000000	63.504409 
1024.000000	63.513588 
1023.000000	63.522911 
1022.000000	63.531064 
1021.000000	63.536596 
1020.000000	63.537979 
1019.000000	63.534283 
1018.000000	63.525485 
1017.000000	63.512635 
1016.000000	63.497829 
1015.000000	63.484120 
1014.000000	63.475036 
1013.000000	63.473725 
1012.000000	63.482284 
1011.000000	63.501214 
1010.000000	63.529324 
1009.000000	63.563966 
1008.000000	63.601517 
1007.000000	63.638210 
1006.000000	63.670778 
1005.000000	63.697266 
1004.000000	63.717269 
1003.000000	63.731551 
1002.000000	63.741731 
1001.000000	63.750028 
1000.000000	63.758039 
999.000000	 63.766551 
998.000000	 63.775229 
997.000000	 63.783025 
996.000000	 63.788008 
995.000000	 63.788580 
994.000000	 63.783311 
993.000000	 63.771677 
992.000000	 63.754200 
991.000000	 63.732171 
990.000000	 63.707566 
989.000000	 63.682508 
988.000000	 63.659524 
987.000000	 63.641023 
986.000000	 63.629221 
985.000000	 63.625645 
984.000000	 63.630867 
983.000000	 63.644361 
982.000000	 63.664245 
981.000000	 63.687729 
980.000000	 63.711380 
979.000000	 63.731861 
978.000000	 63.746333 
977.000000	 63.753032 
976.000000	 63.751721 
975.000000	 63.743305 
974.000000	 63.729572 
973.000000	 63.712668 
972.000000	 63.694643 
971.000000	 63.676977 
970.000000	 63.660645 
969.000000	 63.646101 
968.000000	 63.633584 
967.000000	 63.623213 
966.000000	 63.615345 
965.000000	 63.610124 
964.000000	 63.607478 
963.000000	 63.607048 
962.000000	 63.607716 
961.000000	 63.608527 
960.000000	 63.608741 
959.000000	 63.608312 
958.000000	 63.608193 
957.000000	 63.609910 
956.000000	 63.615226 
955.000000	 63.625574 
954.000000	 63.641262 
953.000000	 63.660836 
952.000000	 63.681221 
951.000000	 63.698196 
950.000000	 63.707518 
949.000000	 63.705587 
948.000000	 63.690781 
947.000000	 63.663887 
946.000000	 63.628339 
945.000000	 63.589644 
944.000000	 63.554096 
943.000000	 63.527464 
942.000000	 63.513636 
941.000000	 63.513898 
940.000000	 63.526368 
939.000000	 63.546943 
938.000000	 63.569998 
937.000000	 63.589930 
936.000000	 63.602328 
935.000000	 63.604807 
934.000000	 63.597512 
933.000000	 63.582825 
932.000000	 63.564682 
931.000000	 63.547515 
930.000000	 63.535475 
929.000000	 63.531684 
928.000000	 63.538002 
927.000000	 63.554978 
926.000000	 63.582134 
925.000000	 63.618254 
924.000000	 63.661575 
923.000000	 63.709735 
922.000000	 63.759732 
921.000000	 63.807964 
920.000000	 63.850378 
919.000000	 63.883090 
918.000000	 63.902997 
917.000000	 63.908457 
916.000000	 63.900089 
915.000000	 63.880276 
914.000000	 63.853073 
913.000000	 63.822841 
912.000000	 63.794112 
911.000000	 63.769960 
910.000000	 63.751769 
909.000000	 63.739061 
908.000000	 63.730216 
907.000000	 63.722586 
906.000000	 63.713812 
905.000000	 63.702154 
904.000000	 63.687014 
903.000000	 63.668918 
902.000000	 63.649344 
901.000000	 63.630032 
900.000000	 63.612484 
899.000000	 63.597607 
898.000000	 63.585567 
897.000000	 63.576078 
896.000000	 63.568663 
895.000000	 63.563179 
894.000000	 63.560032 
893.000000	 63.560080 
892.000000	 63.564705 
891.000000	 63.575363 
890.000000	 63.592910 
889.000000	 63.617229 
888.000000	 63.646793 
887.000000	 63.678789 
886.000000	 63.709568 
885.000000	 63.735151 
884.000000	 63.752460 
883.000000	 63.760137 
882.000000	 63.758802 
881.000000	 63.751101 
880.000000	 63.740873 
879.000000	 63.732075 
878.000000	 63.727974 
877.000000	 63.730311 
876.000000	 63.739180 
875.000000	 63.753104 
874.000000	 63.769721 
873.000000	 63.786554 
872.000000	 63.801503 
871.000000	 63.813543 
870.000000	 63.822531 
869.000000	 63.829207 
868.000000	 63.834571 
867.000000	 63.839673 
866.000000	 63.845491 
865.000000	 63.852334 
864.000000	 63.860249 
863.000000	 63.868713 
862.000000	 63.877201 
861.000000	 63.884568 
860.000000	 63.889431 
859.000000	 63.890099 
858.000000	 63.884854 
857.000000	 63.872480 
856.000000	 63.852763 
855.000000	 63.826656 
854.000000	 63.796305 
853.000000	 63.764882 
852.000000	 63.736104 
851.000000	 63.713002 
850.000000	 63.697385 
849.000000	 63.689398 
848.000000	 63.687896 
847.000000	 63.690471 
846.000000	 63.694500 
845.000000	 63.697814 
844.000000	 63.699722 
843.000000	 63.700556 
842.000000	 63.701891 
841.000000	 63.705730 
840.000000	 63.714122 
839.000000	 63.727784 
838.000000	 63.746380 
837.000000	 63.768434 
836.000000	 63.791680 
835.000000	 63.813996 
834.000000	 63.833308 
833.000000	 63.848757 
832.000000	 63.859796 
831.000000	 63.866472 
830.000000	 63.868474 
829.000000	 63.864994 
828.000000	 63.854575 
827.000000	 63.835597 
826.000000	 63.807010 
825.000000	 63.769078 
824.000000	 63.723897 
823.000000	 63.675332 
822.000000	 63.627910 
821.000000	 63.585901 
820.000000	 63.552236 
819.000000	 63.528203 
818.000000	 63.513064 
817.000000	 63.504648 
816.000000	 63.500356 
815.000000	 63.497686 
814.000000	 63.494873 
813.000000	 63.491129 
812.000000	 63.486242 
811.000000	 63.480639 
810.000000	 63.474702 
809.000000	 63.468837 
808.000000	 63.463091 
807.000000	 63.457298 
806.000000	 63.451313 
805.000000	 63.445043 
804.000000	 63.438677 
803.000000	 63.432574 
802.000000	 63.427138 
801.000000	 63.422846 
800.000000	 63.419747 
799.000000	 63.417983 
798.000000	 63.417816 
797.000000	 63.419723 
796.000000	 63.424110 
795.000000	 63.431358 
794.000000	 63.441610 
793.000000	 63.454341 
792.000000	 63.468575 
791.000000	 63.482904 
790.000000	 63.495755 
789.000000	 63.506054 
788.000000	 63.513135 
787.000000	 63.516855 
786.000000	 63.517498 
785.000000	 63.515591 
784.000000	 63.511848 
783.000000	 63.507008 
782.000000	 63.501787 
781.000000	 63.496875 
780.000000	 63.492679 
779.000000	 63.489651 
778.000000	 63.487720 
777.000000	 63.486552 
776.000000	 63.485074 
775.000000	 63.481760 
774.000000	 63.474559 
773.000000	 63.461494 
772.000000	 63.441061 
771.000000	 63.412547 
770.000000	 63.376617 
769.000000	 63.335180 
768.000000	 63.291263 
767.000000	 63.248395 
766.000000	 63.209939 
765.000000	 63.178348 
764.000000	 63.154840 
763.000000	 63.139367 
762.000000	 63.130569 
761.000000	 63.126397 
760.000000	 63.124752 
759.000000	 63.123798 
758.000000	 63.122200 
757.000000	 63.119316 
756.000000	 63.114690 
755.000000	 63.108277 
754.000000	 63.099718 
753.000000	 63.088774 
752.000000	 63.075041 
751.000000	 63.058686 
750.000000	 63.040471 
749.000000	 63.022232 
748.000000	 63.006281 
747.000000	 62.995314 
746.000000	 62.991690 
745.000000	 62.996578 
744.000000	 63.009381 
743.000000	 63.027954 
742.000000	 63.048911 
741.000000	 63.068580 
740.000000	 63.083815 
739.000000	 63.092875 
738.000000	 63.095808 
737.000000	 63.094067 
736.000000	 63.089704 
735.000000	 63.084721 
734.000000	 63.080215 
733.000000	 63.076329 
732.000000	 63.072085 
731.000000	 63.066411 
730.000000	 63.058352 
729.000000	 63.047838 
728.000000	 63.035798 
727.000000	 63.024258 
726.000000	 63.015890 
725.000000	 63.012933 
724.000000	 63.017177 
723.000000	 63.029122 
722.000000	 63.048148 
721.000000	 63.072347 
720.000000	 63.099646 
719.000000	 63.128256 
718.000000	 63.157057 
717.000000	 63.185620 
716.000000	 63.213944 
715.000000	 63.241767 
714.000000	 63.268065 
713.000000	 63.290452 
712.000000	 63.305401 
711.000000	 63.308668 
710.000000	 63.296508 
709.000000	 63.266754 
708.000000	 63.219952 
707.000000	 63.159584 
706.000000	 63.092207 
705.000000	 63.025975 
704.000000	 62.969064 
703.000000	 62.928342 
702.000000	 62.907767 
701.000000	 62.908387 
700.000000	 62.927532 
699.000000	 62.961053 
698.000000	 63.003945 
697.000000	 63.052272 
696.000000	 63.103127 
695.000000	 63.155722 
694.000000	 63.210511 
693.000000	 63.268017 
692.000000	 63.327670 
691.000000	 63.386249 
690.000000	 63.438081 
689.000000	 63.475966 
688.000000	 63.493084 
687.000000	 63.485598 
686.000000	 63.453602 
685.000000	 63.402557 
684.000000	 63.341808 
683.000000	 63.282132 
682.000000	 63.232898 
681.000000	 63.200354 
680.000000	 63.185691 
679.000000	 63.185048 
678.000000	 63.190698 
677.000000	 63.194632 
676.000000	 63.189530 
675.000000	 63.171386 
674.000000	 63.139438 
673.000000	 63.095092 
672.000000	 63.041877 
671.000000	 62.983226 
670.000000	 62.922930 
669.000000	 62.863540 
668.000000	 62.808465 
667.000000	 62.761807 
666.000000	 62.729048 
665.000000	 62.716221 
664.000000	 62.728643 
663.000000	 62.769484 
662.000000	 62.836980 
661.000000	 62.923812 
660.000000	 63.018417 
659.000000	 63.107895 
658.000000	 63.180756 
657.000000	 63.230919 
656.000000	 63.260602 
655.000000	 63.279509 
654.000000	 63.303923 
653.000000	 63.349342 
652.000000	 63.425207 
651.000000	 63.529658 
650.000000	 63.649868 
649.000000	 63.762974 
648.000000	 63.841915 
647.000000	 63.862705 
646.000000	 63.812422 
645.000000	 63.692831 
644.000000	 63.521695 
643.000000	 63.327932 
642.000000	 63.144731 
641.000000	 63.001179 
640.000000	 62.915730 
639.000000	 62.891244 
638.000000	 62.915635 
637.000000	 62.965440 
636.000000	 63.013792 
635.000000	 63.036203 
634.000000	 63.017320 
633.000000	 62.953972 
632.000000	 62.856078 
631.000000	 62.740802 
630.000000	 62.629604 
629.000000	 62.544417 
628.000000	 62.503981 
627.000000	 62.520051 
626.000000	 62.596440 
625.000000	 62.729978 
624.000000	 62.910270 
623.000000	 63.122749 
622.000000	 63.348412 
621.000000	 63.566589 
620.000000	 63.755917 
619.000000	 63.897824 
618.000000	 63.977336 
617.000000	 63.984847 
616.000000	 63.917899 
615.000000	 63.783216 
614.000000	 63.593888 
613.000000	 63.368606 
612.000000	 63.128185 
611.000000	 62.894511 
610.000000	 62.684273 
609.000000	 62.507247 
608.000000	 62.364721 
607.000000	 62.250614 
606.000000	 62.150931 
605.000000	 62.048578 
604.000000	 61.925983 
603.000000	 61.771941 
602.000000	 61.584758 
601.000000	 61.375904 
600.000000	 61.166429 
599.000000	 60.985183 
598.000000	 60.859918 
597.000000	 60.813617 
596.000000	 60.855674 
595.000000	 60.983347 
594.000000	 61.180830 
593.000000	 61.424994 
592.000000	 61.687994 
591.000000	 61.945915 
590.000000	 62.181711 
589.000000	 62.387800 
588.000000	 62.563586 
587.000000	 62.713551 
586.000000	 62.842297 
585.000000	 62.952876 
584.000000	 63.045191 
583.000000	 63.115882 
582.000000	 63.160085 
581.000000	 63.174843 
580.000000	 63.161754 
579.000000	 63.124537 
578.000000	 63.069152 
577.000000	 63.002800 
576.000000	 62.932944 
575.000000	 62.866210 
574.000000	 62.807726 
573.000000	 62.762141 
572.000000	 62.731480 
571.000000	 62.715816 
570.000000	 62.711381 
569.000000	 62.710714 
568.000000	 62.704372 
567.000000	 62.681889 
566.000000	 62.636494 
565.000000	 62.565183 
564.000000	 62.473416 
563.000000	 62.373375 
562.000000	 62.283587 
561.000000	 62.223792 
560.000000	 62.211370 
559.000000	 62.256836 
558.000000	 62.360620 
557.000000	 62.511944 
556.000000	 62.691783 
555.000000	 62.876653 
554.000000	 63.043880 
553.000000	 63.175845 
552.000000	 63.262486 
551.000000	 63.301730 
550.000000	 63.298106 
549.000000	 63.259863 
548.000000	 63.195991 
547.000000	 63.113236 
546.000000	 63.016343 
545.000000	 62.906742 
544.000000	 62.785077 
543.000000	 62.651729 
542.000000	 62.509179 
541.000000	 62.362980 
540.000000	 62.221193 
539.000000	 62.094950 
538.000000	 61.994218 
537.000000	 61.929702 
536.000000	 61.908912 
535.000000	 61.937499 
534.000000	 62.016201 
533.000000	 62.142658 
532.000000	 62.310147 
531.000000	 62.508940 
530.000000	 62.726283 
529.000000	 62.948536 
528.000000	 63.161683 
527.000000	 63.353705 
526.000000	 63.515067 
525.000000	 63.640689 
524.000000	 63.729238 
523.000000	 63.782930 
522.000000	 63.805508 
521.000000	 63.802242 
520.000000	 63.777279 
519.000000	 63.734102 
518.000000	 63.673448 
517.000000	 63.595271 
516.000000	 63.498187 
515.000000	 63.383460 
514.000000	 63.254213 
513.000000	 63.115930 
512.000000	 62.976789 
511.000000	 62.846493 
510.000000	 62.735199 
509.000000	 62.650871 
508.000000	 62.599015 
507.000000	 62.580680 
506.000000	 62.593626 
505.000000	 62.632131 
504.000000	 62.688708 
503.000000	 62.754654 
502.000000	 62.822270 
501.000000	 62.885594 
500.000000	 62.939691 
499.000000	 62.980294 
498.000000	 63.003945 
497.000000	 63.008141 
496.000000	 62.990450 
495.000000	 62.949943 
494.000000	 62.888765 
493.000000	 62.812948 
492.000000	 62.731957 
491.000000	 62.657785 
490.000000	 62.603974 
489.000000	 62.582111 
488.000000	 62.599468 
487.000000	 62.656784 
486.000000	 62.747073 
485.000000	 62.857055 
484.000000	 62.969899 
483.000000	 63.068413 
482.000000	 63.137960 
481.000000	 63.169908 
480.000000	 63.163948 
479.000000	 63.125419 
478.000000	 63.062143 
477.000000	 62.983846 
476.000000	 62.900543 
475.000000	 62.819743 
474.000000	 62.745761 
473.000000	 62.681436 
472.000000	 62.628817 
471.000000	 62.589621 
470.000000	 62.565374 
469.000000	 62.555623 
468.000000	 62.557864 
467.000000	 62.567424 
466.000000	 62.578177 
465.000000	 62.581753 
464.000000	 62.570810 
463.000000	 62.541556 
462.000000	 62.494874 
461.000000	 62.435841 
460.000000	 62.373900 
459.000000	 62.318325 
458.000000	 62.279844 
457.000000	 62.265253 
456.000000	 62.282323 
455.000000	 62.336230 
454.000000	 62.434530 
453.000000	 62.584447 
452.000000	 62.793660 
451.000000	 63.066935 
450.000000	 63.402318 
449.000000	 63.787889 
448.000000	 64.200973 
447.000000	 64.609456 
446.000000	 64.975929 
445.000000	 65.263867 
444.000000	 65.441656 
443.000000	 65.488100 
442.000000	 65.399289 
441.000000	 65.187859 
440.000000	 64.879322 
439.000000	 64.506912 
438.000000	 64.107894 
437.000000	 63.717484 
436.000000	 63.364911 
435.000000	 63.071703 
434.000000	 62.851572 
433.000000	 62.712168 
432.000000	 62.655472 
431.000000	 62.680578 
430.000000	 62.784194 
429.000000	 62.959027 
428.000000	 63.189935 
427.000000	 63.455080 
426.000000	 63.724255 
425.000000	 63.964796 
424.000000	 64.146137 
423.000000	 64.244461 
422.000000	 64.244079 
421.000000	 64.150571 
420.000000	 63.991594 
419.000000	 63.811349 
418.000000	 63.660979 
417.000000	 63.595581 
416.000000	 63.660359 
415.000000	 63.877511 
414.000000	 64.238595 
413.000000	 64.706707 
412.000000	 65.221667 
411.000000	 65.709400 
410.000000	 66.101193 
409.000000	 66.340947 
408.000000	 66.408658 
407.000000	 66.322946 
406.000000	 66.143059 
405.000000	 65.958547 
404.000000	 65.862584 
403.000000	 65.931177 
402.000000	 66.194677 
401.000000	 66.645097 
400.000000	 67.208981 
399.000000	 67.770791 
398.000000	 68.185520 
397.000000	 68.317151 
396.000000	 68.067312 
395.000000	 67.404198 
394.000000	 66.367340 
393.000000	 65.061831 
392.000000	 63.628506 
391.000000	 62.214469 
390.000000	 60.936832 
389.000000	 59.865355 
388.000000	 59.024310 
387.000000	 58.408141 
386.000000	 57.978653 
385.000000	 57.703447 
384.000000	 57.595181 
383.000000	 57.695841 
382.000000	 58.083462 
381.000000	 58.798575 
380.000000	 59.788465 
379.000000	 60.889458 
378.000000	 61.858439 
377.000000	 62.401747 
376.000000	 62.233734 
375.000000	 61.169981 
374.000000	 59.161424 
373.000000	 56.373524 
372.000000	 53.169322 
371.000000	 50.047326 
370.000000	 47.536826 

