PE IR       SPECTRUM    SPECTRUM    ASCII       PEDS        1.60        
  -1
BZ6FA0~1.ASC
17/04/07
16:15:08.00
17/04/07
16:15:08.00
tln
$BZ1503107-1_t0037$<tbV0>[5.2,-5.2,8.0,0.0,27,1,0]
370.000000
64









2002,4.07    
MIRTGS : RIGHTBACK : INTERNAL 2
MIR : ON : INTERNAL 2
OPTKBR

0.200000
8
8.000000
FILLER
RATIO
SPECTRUM
UNLOCKED 256

DOUBLE
64
COMBINED
1
0
0


1.000000
RATIO


1
0
TRUE
51149
0
LEFT NOT FITTED RIGHT NOT FITTED 0
NONE
NONE
15600
12.000000
4.427000
51148
TRUE
1 0 8 72 0 0 0 0 

15798.010000






#HDR
-1
-1
#GR
CM-1
%T
0.00002384185791015625
0.0
5000.000000
-1.000000
4631
8
77.914834
38.513445
#DATA
5000.000000	65.584897 
4999.000000	65.310978 
4998.000000	65.020728 
4997.000000	64.739465 
4996.000000	64.490103 
4995.000000	64.291977 
4994.000000	64.157581 
4993.000000	64.091229 
4992.000000	64.090108 
4991.000000	64.145183 
4990.000000	64.243078 
4989.000000	64.366507 
4988.000000	64.499306 
4987.000000	64.626884 
4986.000000	64.740014 
4985.000000	64.834213 
4984.000000	64.909911 
4983.000000	64.970231 
4982.000000	65.019488 
4981.000000	65.061283 
4980.000000	65.098094 
4979.000000	65.130090 
4978.000000	65.157079 
4977.000000	65.177536 
4976.000000	65.190410 
4975.000000	65.194010 
4974.000000	65.187931 
4973.000000	65.171337 
4972.000000	65.143537 
4971.000000	65.103554 
4970.000000	65.051126 
4969.000000	64.986705 
4968.000000	64.911556 
4967.000000	64.829182 
4966.000000	64.745354 
4965.000000	64.667725 
4964.000000	64.603590 
4963.000000	64.560055 
4962.000000	64.542174 
4961.000000	64.552450 
4960.000000	64.589953 
4959.000000	64.650225 
4958.000000	64.725637 
4957.000000	64.806199 
4956.000000	64.881062 
4955.000000	64.938950 
4954.000000	64.970421 
4953.000000	64.969515 
4952.000000	64.935564 
4951.000000	64.873743 
4950.000000	64.794421 
4949.000000	64.711666 
4948.000000	64.640617 
4947.000000	64.595031 
4946.000000	64.584016 
4945.000000	64.611029 
4944.000000	64.671754 
4943.000000	64.755964 
4942.000000	64.848756 
4941.000000	64.933443 
4940.000000	64.995336 
4939.000000	65.024280 
4938.000000	65.017199 
4937.000000	64.977574 
4936.000000	64.915204 
4935.000000	64.843273 
4934.000000	64.775133 
4933.000000	64.721155 
4932.000000	64.686918 
4931.000000	64.673042 
4930.000000	64.675712 
4929.000000	64.689326 
4928.000000	64.708590 
4927.000000	64.730691 
4926.000000	64.757442 
4925.000000	64.794206 
4924.000000	64.847159 
4923.000000	64.920139 
4922.000000	65.012407 
4921.000000	65.117168 
4920.000000	65.221452 
4919.000000	65.309429 
4918.000000	65.367054 
4917.000000	65.385508 
4916.000000	65.364742 
4915.000000	65.312933 
4914.000000	65.244293 
4913.000000	65.175414 
4912.000000	65.121316 
4911.000000	65.091681 
4910.000000	65.089178 
4909.000000	65.109920 
4908.000000	65.145850 
4907.000000	65.187072 
4906.000000	65.225219 
4905.000000	65.254259 
4904.000000	65.271496 
4903.000000	65.275764 
4902.000000	65.266156 
4901.000000	65.240764 
4900.000000	65.196442 
4899.000000	65.130424 
4898.000000	65.041232 
4897.000000	64.931035 
4896.000000	64.805245 
4895.000000	64.671826 
4894.000000	64.540004 
4893.000000	64.417481 
4892.000000	64.310598 
4891.000000	64.222931 
4890.000000	64.157104 
4889.000000	64.114141 
4888.000000	64.095497 
4887.000000	64.102101 
4886.000000	64.135384 
4885.000000	64.194822 
4884.000000	64.278650 
4883.000000	64.381909 
4882.000000	64.497447 
4881.000000	64.615893 
4880.000000	64.726424 
4879.000000	64.817976 
4878.000000	64.881062 
4877.000000	64.909482 
4876.000000	64.900827 
4875.000000	64.856934 
4874.000000	64.783644 
4873.000000	64.689993 
4872.000000	64.587569 
4871.000000	64.488768 
4870.000000	64.405584 
4869.000000	64.347529 
4868.000000	64.320063 
4867.000000	64.323925 
4866.000000	64.355158 
4865.000000	64.406871 
4864.000000	64.470100 
4863.000000	64.537072 
4862.000000	64.602041 
4861.000000	64.662861 
4860.000000	64.719462 
4859.000000	64.774179 
4858.000000	64.829421 
4857.000000	64.887237 
4856.000000	64.948010 
4855.000000	65.010213 
4854.000000	65.071058 
4853.000000	65.126490 
4852.000000	65.172386 
4851.000000	65.204811 
4850.000000	65.221023 
4849.000000	65.219306 
4848.000000	65.199494 
4847.000000	65.162587 
4846.000000	65.110874 
4845.000000	65.048146 
4844.000000	64.979338 
4843.000000	64.910435 
4842.000000	64.847636 
4841.000000	64.796566 
4840.000000	64.761209 
4839.000000	64.743542 
4838.000000	64.743113 
4837.000000	64.757013 
4836.000000	64.780998 
4835.000000	64.809942 
4834.000000	64.839172 
4833.000000	64.864635 
4832.000000	64.884376 
4831.000000	64.897298 
4830.000000	64.904594 
4829.000000	64.908814 
4828.000000	64.913582 
4827.000000	64.921975 
4826.000000	64.936494 
4825.000000	64.958691 
4824.000000	64.988327 
4823.000000	65.023112 
4822.000000	65.059757 
4821.000000	65.094351 
4820.000000	65.123224 
4819.000000	65.143299 
4818.000000	65.153026 
4817.000000	65.152311 
4816.000000	65.142512 
4815.000000	65.125870 
4814.000000	65.104508 
4813.000000	65.080547 
4812.000000	65.055656 
4811.000000	65.031719 
4810.000000	65.010976 
4809.000000	64.996147 
4808.000000	64.990758 
4807.000000	64.997792 
4806.000000	65.019178 
4805.000000	65.053987 
4804.000000	65.098524 
4803.000000	65.145587 
4802.000000	65.185928 
4801.000000	65.209531 
4800.000000	65.207672 
4799.000000	65.175247 
4798.000000	65.112113 
4797.000000	65.023422 
4796.000000	64.919042 
4795.000000	64.811253 
4794.000000	64.712595 
4793.000000	64.633560 
4792.000000	64.580965 
4791.000000	64.557361 
4790.000000	64.560890 
4789.000000	64.586353 
4788.000000	64.626336 
4787.000000	64.671802 
4786.000000	64.713907 
4785.000000	64.744496 
4784.000000	64.758443 
4783.000000	64.753484 
4782.000000	64.731478 
4781.000000	64.697623 
4780.000000	64.659166 
4779.000000	64.623904 
4778.000000	64.598059 
4777.000000	64.585208 
4776.000000	64.585137 
4775.000000	64.594459 
4774.000000	64.607834 
4773.000000	64.619588 
4772.000000	64.626288 
4771.000000	64.627647 
4770.000000	64.627027 
4769.000000	64.630126 
4768.000000	64.643287 
4767.000000	64.671540 
4766.000000	64.716839 
4765.000000	64.777493 
4764.000000	64.849185 
4763.000000	64.926028 
4762.000000	65.002870 
4761.000000	65.075778 
4760.000000	65.142297 
4759.000000	65.200948 
4758.000000	65.250587 
4757.000000	65.289711 
4756.000000	65.316605 
4755.000000	65.329337 
4754.000000	65.326833 
4753.000000	65.308976 
4752.000000	65.278005 
4751.000000	65.237355 
4750.000000	65.192174 
4749.000000	65.147209 
4748.000000	65.106058 
4747.000000	65.070295 
4746.000000	65.039849 
4745.000000	65.013360 
4744.000000	64.989280 
4743.000000	64.966607 
4742.000000	64.945673 
4741.000000	64.927411 
4740.000000	64.912915 
4739.000000	64.902591 
4738.000000	64.895963 
4737.000000	64.891743 
4736.000000	64.888286 
4735.000000	64.884567 
4734.000000	64.880061 
4733.000000	64.875173 
4732.000000	64.870691 
4731.000000	64.866423 
4730.000000	64.861607 
4729.000000	64.854669 
4728.000000	64.844512 
4727.000000	64.829707 
4726.000000	64.810848 
4725.000000	64.790821 
4724.000000	64.774537 
4723.000000	64.768028 
4722.000000	64.776682 
4721.000000	64.803576 
4720.000000	64.848542 
4719.000000	64.907431 
4718.000000	64.973688 
4717.000000	65.039539 
4716.000000	65.098977 
4715.000000	65.149307 
4714.000000	65.191388 
4713.000000	65.228939 
4712.000000	65.267109 
4711.000000	65.310096 
4710.000000	65.359306 
4709.000000	65.412044 
4708.000000	65.462183 
4707.000000	65.501189 
4706.000000	65.520834 
4705.000000	65.514826 
4704.000000	65.481686 
4703.000000	65.424466 
4702.000000	65.350270 
4701.000000	65.268445 
4700.000000	65.188479 
4699.000000	65.117859 
4698.000000	65.060639 
4697.000000	65.017294 
4696.000000	64.985537 
4695.000000	64.961910 
4694.000000	64.943265 
4693.000000	64.928579 
4692.000000	64.918565 
4691.000000	64.916729 
4690.000000	64.927434 
4689.000000	64.954829 
4688.000000	65.000438 
4687.000000	65.062499 
4686.000000	65.135502 
4685.000000	65.210723 
4684.000000	65.277504 
4683.000000	65.325665 
4682.000000	65.347647 
4681.000000	65.339875 
4680.000000	65.303826 
4679.000000	65.245628 
4678.000000	65.175008 
4677.000000	65.103411 
4676.000000	65.041780 
4675.000000	64.999055 
4674.000000	64.980030 
4673.000000	64.985609 
4672.000000	65.012288 
4671.000000	65.053629 
4670.000000	65.101385 
4669.000000	65.147185 
4668.000000	65.184068 
4667.000000	65.206885 
4666.000000	65.213561 
4665.000000	65.204501 
4664.000000	65.182709 
4663.000000	65.152740 
4662.000000	65.119719 
4661.000000	65.088391 
4660.000000	65.062236 
4659.000000	65.043354 
4658.000000	65.032124 
4657.000000	65.027785 
4656.000000	65.029191 
4655.000000	65.035271 
4654.000000	65.045642 
4653.000000	65.060353 
4652.000000	65.079736 
4651.000000	65.103912 
4650.000000	65.131902 
4649.000000	65.161657 
4648.000000	65.189623 
4647.000000	65.211796 
4646.000000	65.224599 
4645.000000	65.225601 
4644.000000	65.214347 
4643.000000	65.192246 
4642.000000	65.162944 
4641.000000	65.130448 
4640.000000	65.098381 
4639.000000	65.068769 
4638.000000	65.041661 
4637.000000	65.015435 
4636.000000	64.987850 
4635.000000	64.956808 
4634.000000	64.921450 
4633.000000	64.882659 
4632.000000	64.842987 
4631.000000	64.806079 
4630.000000	64.775919 
4629.000000	64.755678 
4628.000000	64.747214 
4627.000000	64.750909 
4626.000000	64.765977 
4625.000000	64.790558 
4624.000000	64.822220 
4623.000000	64.858531 
4622.000000	64.896988 
4621.000000	64.934921 
4620.000000	64.969992 
4619.000000	64.999198 
4618.000000	65.020632 
4617.000000	65.033531 
4616.000000	65.038895 
4615.000000	65.039229 
4614.000000	65.037870 
4613.000000	65.038371 
4612.000000	65.043115 
4611.000000	65.052819 
4610.000000	65.066051 
4609.000000	65.079712 
4608.000000	65.090179 
4607.000000	65.094566 
4606.000000	65.091776 
4605.000000	65.082859 
4604.000000	65.071153 
4603.000000	65.061616 
4602.000000	65.059566 
4601.000000	65.069460 
4600.000000	65.093779 
4599.000000	65.132236 
4598.000000	65.181875 
4597.000000	65.236926 
4596.000000	65.290403 
4595.000000	65.334415 
4594.000000	65.361642 
4593.000000	65.366172 
4592.000000	65.344333 
4591.000000	65.295696 
4590.000000	65.223145 
4589.000000	65.133142 
4588.000000	65.034818 
4587.000000	64.938974 
4586.000000	64.856815 
4585.000000	64.797520 
4584.000000	64.766860 
4583.000000	64.765810 
4582.000000	64.790678 
4581.000000	64.833569 
4580.000000	64.884018 
4579.000000	64.931583 
4578.000000	64.967918 
4577.000000	64.988660 
4576.000000	64.993834 
4575.000000	64.986920 
4574.000000	64.973568 
4573.000000	64.959549 
4572.000000	64.949202 
4571.000000	64.944219 
4570.000000	64.943361 
4569.000000	64.944171 
4568.000000	64.943218 
4567.000000	64.938259 
4566.000000	64.928340 
4565.000000	64.914894 
4564.000000	64.900469 
4563.000000	64.888048 
4562.000000	64.879369 
4561.000000	64.874410 
4560.000000	64.870905 
4559.000000	64.865279 
4558.000000	64.853525 
4557.000000	64.832687 
4556.000000	64.801859 
4555.000000	64.762878 
4554.000000	64.720368 
4553.000000	64.680814 
4552.000000	64.651799 
4551.000000	64.640307 
4550.000000	64.651584 
4549.000000	64.687657 
4548.000000	64.746999 
4547.000000	64.824628 
4546.000000	64.912843 
4545.000000	65.003061 
4544.000000	65.087485 
4543.000000	65.160703 
4542.000000	65.220570 
4541.000000	65.267944 
4540.000000	65.305852 
4539.000000	65.337705 
4538.000000	65.366363 
4537.000000	65.391898 
4536.000000	65.412712 
4535.000000	65.424156 
4534.000000	65.421319 
4533.000000	65.399169 
4532.000000	65.355515 
4531.000000	65.290927 
4530.000000	65.209770 
4529.000000	65.118956 
4528.000000	65.026831 
4527.000000	64.941692 
4526.000000	64.870357 
4525.000000	64.817810 
4524.000000	64.786767 
4523.000000	64.777970 
4522.000000	64.790773 
4521.000000	64.823031 
4520.000000	64.872050 
4519.000000	64.934206 
4518.000000	65.005612 
4517.000000	65.082049 
4516.000000	65.159177 
4515.000000	65.232706 
4514.000000	65.297722 
4513.000000	65.349531 
4512.000000	65.382814 
4511.000000	65.392875 
4510.000000	65.375447 
4509.000000	65.328621 
4508.000000	65.252828 
4507.000000	65.152287 
4506.000000	65.034532 
4505.000000	64.910006 
4504.000000	64.790558 
4503.000000	64.688062 
4502.000000	64.611887 
4501.000000	64.567685 
4500.000000	64.556193 
4499.000000	64.573550 
4498.000000	64.612531 
4497.000000	64.664173 
4496.000000	64.720058 
4495.000000	64.774012 
4494.000000	64.822435 
4493.000000	64.864563 
4492.000000	64.901542 
4491.000000	64.935708 
4490.000000	64.969134 
4489.000000	65.002846 
4488.000000	65.036869 
4487.000000	65.069532 
4486.000000	65.098428 
4485.000000	65.120649 
4484.000000	65.133666 
4483.000000	65.136432 
4482.000000	65.130209 
4481.000000	65.118122 
4480.000000	65.105462 
4479.000000	65.097236 
4478.000000	65.096855 
4477.000000	65.105152 
4476.000000	65.120053 
4475.000000	65.137791 
4474.000000	65.154600 
4473.000000	65.167474 
4472.000000	65.175414 
4471.000000	65.178298 
4470.000000	65.176844 
4469.000000	65.172290 
4468.000000	65.166354 
4467.000000	65.161514 
4466.000000	65.160584 
4465.000000	65.168642 
4464.000000	65.190958 
4463.000000	65.227794 
4462.000000	65.275096 
4461.000000	65.330052 
4460.000000	65.388846 
4459.000000	65.440654 
4458.000000	65.476202 
4457.000000	65.492796 
4456.000000	65.493893 
4455.000000	65.492725 
4454.000000	65.503120 
4453.000000	65.530991 
4452.000000	65.575885 
4451.000000	65.637087 
4450.000000	65.702509 
4449.000000	65.746521 
4448.000000	65.746808 
4447.000000	65.693926 
4446.000000	65.589761 
4445.000000	65.448212 
4444.000000	65.294265 
4443.000000	65.159416 
4442.000000	65.068435 
4441.000000	65.038967 
4440.000000	65.074729 
4439.000000	65.180039 
4438.000000	65.363121 
4437.000000	65.654039 
4436.000000	66.105031 
4435.000000	66.783714 
4434.000000	67.766404 
4433.000000	69.091868 
4432.000000	70.751404 
4431.000000	72.637128 
4430.000000	74.574351 
4429.000000	76.296424 
4428.000000	77.507472 
4427.000000	77.914834 
4426.000000	77.313709 
4425.000000	75.621128 
4424.000000	72.919583 
4423.000000	69.440674 
4422.000000	65.542745 
4421.000000	61.626124 
4420.000000	58.064556 
4419.000000	55.140352 
4418.000000	53.007221 
4417.000000	51.697993 
4416.000000	51.149654 
4415.000000	51.241898 
4414.000000	51.841044 
4413.000000	52.813577 
4412.000000	54.054665 
4411.000000	55.456280 
4410.000000	56.931424 
4409.000000	58.398485 
4408.000000	59.796571 
4407.000000	61.077404 
4406.000000	62.208747 
4405.000000	63.173317 
4404.000000	63.960933 
4403.000000	64.568924 
4402.000000	64.996290 
4401.000000	65.256881 
4400.000000	65.367674 
4399.000000	65.364360 
4398.000000	65.283107 
4397.000000	65.168380 
4396.000000	65.056157 
4395.000000	64.977192 
4394.000000	64.946699 
4393.000000	64.967203 
4392.000000	65.032291 
4391.000000	65.135860 
4390.000000	65.262246 
4389.000000	65.389394 
4388.000000	65.504312 
4387.000000	65.604829 
4386.000000	65.689444 
4385.000000	65.757489 
4384.000000	65.809845 
4383.000000	65.847206 
4382.000000	65.871191 
4381.000000	65.882968 
4380.000000	65.880441 
4379.000000	65.860557 
4378.000000	65.827083 
4377.000000	65.785574 
4376.000000	65.739560 
4375.000000	65.692353 
4374.000000	65.650844 
4373.000000	65.619826 
4372.000000	65.599584 
4371.000000	65.587353 
4370.000000	65.579581 
4369.000000	65.570402 
4368.000000	65.552997 
4367.000000	65.521121 
4366.000000	65.470671 
4365.000000	65.400242 
4364.000000	65.311527 
4363.000000	65.208768 
4362.000000	65.097856 
4361.000000	64.985561 
4360.000000	64.878320 
4359.000000	64.781689 
4358.000000	64.700055 
4357.000000	64.635467 
4356.000000	64.588928 
4355.000000	64.561176 
4354.000000	64.553332 
4353.000000	64.565587 
4352.000000	64.597821 
4351.000000	64.648365 
4350.000000	64.714312 
4349.000000	64.789962 
4348.000000	64.868831 
4347.000000	64.943504 
4346.000000	65.007853 
4345.000000	65.057969 
4344.000000	65.092182 
4343.000000	65.110898 
4342.000000	65.116238 
4341.000000	65.111708 
4340.000000	65.100693 
4339.000000	65.086030 
4338.000000	65.070152 
4337.000000	65.055370 
4336.000000	65.043568 
4335.000000	65.036106 
4334.000000	65.034127 
4333.000000	65.038204 
4332.000000	65.046906 
4331.000000	65.056753 
4330.000000	65.062713 
4329.000000	65.059065 
4328.000000	65.040206 
4327.000000	65.002441 
4326.000000	64.945316 
4325.000000	64.872264 
4324.000000	64.789605 
4323.000000	64.706182 
4322.000000	64.630961 
4321.000000	64.572572 
4320.000000	64.537477 
4319.000000	64.529561 
4318.000000	64.549160 
4317.000000	64.593696 
4316.000000	64.657926 
4315.000000	64.735150 
4314.000000	64.817428 
4313.000000	64.897751 
4312.000000	64.970636 
4311.000000	65.032935 
4310.000000	65.083408 
4309.000000	65.123105 
4308.000000	65.154361 
4307.000000	65.180230 
4306.000000	65.203285 
4305.000000	65.225076 
4304.000000	65.245509 
4303.000000	65.263628 
4302.000000	65.277743 
4301.000000	65.286684 
4300.000000	65.289807 
4299.000000	65.287899 
4298.000000	65.282559 
4297.000000	65.275406 
4296.000000	65.267825 
4295.000000	65.260457 
4294.000000	65.253615 
4293.000000	65.247488 
4292.000000	65.242648 
4291.000000	65.240645 
4290.000000	65.242958 
4289.000000	65.250802 
4288.000000	65.263628 
4287.000000	65.279006 
4286.000000	65.292596 
4285.000000	65.299272 
4284.000000	65.294408 
4283.000000	65.274906 
4282.000000	65.241241 
4281.000000	65.197682 
4280.000000	65.151309 
4279.000000	65.110540 
4278.000000	65.083098 
4277.000000	65.074086 
4276.000000	65.084266 
4275.000000	65.109920 
4274.000000	65.144062 
4273.000000	65.178298 
4272.000000	65.205073 
4271.000000	65.219736 
4270.000000	65.221452 
4269.000000	65.212965 
4268.000000	65.199422 
4267.000000	65.186405 
4266.000000	65.177965 
4265.000000	65.175247 
4264.000000	65.176606 
4263.000000	65.177655 
4262.000000	65.173029 
4261.000000	65.157985 
4260.000000	65.130543 
4259.000000	65.091586 
4258.000000	65.045213 
4257.000000	64.997553 
4256.000000	64.955115 
4255.000000	64.923238 
4254.000000	64.904642 
4253.000000	64.899158 
4252.000000	64.903926 
4251.000000	64.914846 
4250.000000	64.927673 
4249.000000	64.939188 
4248.000000	64.948034 
4247.000000	64.954185 
4246.000000	64.958977 
4245.000000	64.963746 
4244.000000	64.969968 
4243.000000	64.978361 
4242.000000	64.989447 
4241.000000	65.003418 
4240.000000	65.020561 
4239.000000	65.041494 
4238.000000	65.067195 
4237.000000	65.098333 
4236.000000	65.134978 
4235.000000	65.176463 
4234.000000	65.221071 
4233.000000	65.266036 
4232.000000	65.308213 
4231.000000	65.344524 
4230.000000	65.372443 
4229.000000	65.390610 
4228.000000	65.398812 
4227.000000	65.398073 
4226.000000	65.390300 
4225.000000	65.377902 
4224.000000	65.363454 
4223.000000	65.349149 
4222.000000	65.336894 
4221.000000	65.327596 
4220.000000	65.321493 
4219.000000	65.317463 
4218.000000	65.313744 
4217.000000	65.308141 
4216.000000	65.298604 
4215.000000	65.283703 
4214.000000	65.263342 
4213.000000	65.238475 
4212.000000	65.210890 
4211.000000	65.182900 
4210.000000	65.156745 
4209.000000	65.134096 
4208.000000	65.115785 
4207.000000	65.101575 
4206.000000	65.090394 
4205.000000	65.080499 
4204.000000	65.070176 
4203.000000	65.057849 
4202.000000	65.042328 
4201.000000	65.023064 
4200.000000	65.000534 
4199.000000	64.975571 
4198.000000	64.949393 
4197.000000	64.923477 
4196.000000	64.899516 
4195.000000	64.879179 
4194.000000	64.864206 
4193.000000	64.856147 
4192.000000	64.856481 
4191.000000	64.866185 
4190.000000	64.886140 
4189.000000	64.916396 
4188.000000	64.956212 
4187.000000	65.004014 
4186.000000	65.057086 
4185.000000	65.111923 
4184.000000	65.164160 
4183.000000	65.209746 
4182.000000	65.244722 
4181.000000	65.266346 
4180.000000	65.273046 
4179.000000	65.265417 
4178.000000	65.245127 
4177.000000	65.214920 
4176.000000	65.177822 
4175.000000	65.137171 
4174.000000	65.095829 
4173.000000	65.056133 
4172.000000	65.020012 
4171.000000	64.989280 
4170.000000	64.965772 
4169.000000	64.951395 
4168.000000	64.947795 
4167.000000	64.955902 
4166.000000	64.975714 
4165.000000	65.005660 
4164.000000	65.042352 
4163.000000	65.081334 
4162.000000	65.117454 
4161.000000	65.146207 
4160.000000	65.164279 
4159.000000	65.170431 
4158.000000	65.165758 
4157.000000	65.153384 
4156.000000	65.137696 
4155.000000	65.123581 
4154.000000	65.115547 
4153.000000	65.116739 
4152.000000	65.128445 
4151.000000	65.149497 
4150.000000	65.177011 
4149.000000	65.206742 
4148.000000	65.234136 
4147.000000	65.255069 
4146.000000	65.266418 
4145.000000	65.266799 
4144.000000	65.256428 
4143.000000	65.236783 
4142.000000	65.210103 
4141.000000	65.178847 
4140.000000	65.145087 
4139.000000	65.110373 
4138.000000	65.075659 
4137.000000	65.041756 
4136.000000	65.009593 
4135.000000	64.980864 
4134.000000	64.957785 
4133.000000	64.942455 
4132.000000	64.936494 
4131.000000	64.939999 
4130.000000	64.951753 
4129.000000	64.968276 
4128.000000	64.985823 
4127.000000	65.000700 
4126.000000	65.011096 
4125.000000	65.017271 
4124.000000	65.022015 
4123.000000	65.029454 
4122.000000	65.043926 
4121.000000	65.068364 
4120.000000	65.103054 
4119.000000	65.145182 
4118.000000	65.189218 
4117.000000	65.228343 
4116.000000	65.256428 
4115.000000	65.269374 
4114.000000	65.266394 
4113.000000	65.249657 
4112.000000	65.223479 
4111.000000	65.192675 
4110.000000	65.161299 
4109.000000	65.131568 
4108.000000	65.103530 
4107.000000	65.075922 
4106.000000	65.047526 
4105.000000	65.018200 
4104.000000	64.989638 
4103.000000	64.965391 
4102.000000	64.950108 
4101.000000	64.948487 
4100.000000	64.963674 
4099.000000	64.996361 
4098.000000	65.043950 
4097.000000	65.101289 
4096.000000	65.161681 
4095.000000	65.218114 
4094.000000	65.264701 
4093.000000	65.297341 
4092.000000	65.314245 
4091.000000	65.315628 
4090.000000	65.303158 
4089.000000	65.279364 
4088.000000	65.246915 
4087.000000	65.208721 
4086.000000	65.167546 
4085.000000	65.126323 
4084.000000	65.087771 
4083.000000	65.054893 
4082.000000	65.030074 
4081.000000	65.015053 
4080.000000	65.010309 
4079.000000	65.014958 
4078.000000	65.026736 
4077.000000	65.042066 
4076.000000	65.056848 
4075.000000	65.067195 
4074.000000	65.070080 
4073.000000	65.063786 
4072.000000	65.048241 
4071.000000	65.024828 
4070.000000	64.996051 
4069.000000	64.965033 
4068.000000	64.935231 
4067.000000	64.909696 
4066.000000	64.891171 
4065.000000	64.881634 
4064.000000	64.882349 
4063.000000	64.893698 
4062.000000	64.915442 
4061.000000	64.946603 
4060.000000	64.985346 
4059.000000	65.029191 
4058.000000	65.074944 
4057.000000	65.118932 
4056.000000	65.157723 
4055.000000	65.188384 
4054.000000	65.208482 
4053.000000	65.216732 
4052.000000	65.213203 
4051.000000	65.199160 
4050.000000	65.176749 
4049.000000	65.148615 
4048.000000	65.117835 
4047.000000	65.087294 
4046.000000	65.059947 
4045.000000	65.038132 
4044.000000	65.023589 
4043.000000	65.017271 
4042.000000	65.019440 
4041.000000	65.029406 
4040.000000	65.045690 
4039.000000	65.066075 
4038.000000	65.088200 
4037.000000	65.109682 
4036.000000	65.128803 
4035.000000	65.144419 
4034.000000	65.156412 
4033.000000	65.165710 
4032.000000	65.174150 
4031.000000	65.184211 
4030.000000	65.198516 
4029.000000	65.219306 
4028.000000	65.247678 
4027.000000	65.283703 
4026.000000	65.325427 
4025.000000	65.369653 
4024.000000	65.411543 
4023.000000	65.445923 
4022.000000	65.467596 
4021.000000	65.472650 
4020.000000	65.459012 
4019.000000	65.426802 
4018.000000	65.378808 
4017.000000	65.319895 
4016.000000	65.256309 
4015.000000	65.194559 
4014.000000	65.140652 
4013.000000	65.099191 
4012.000000	65.072965 
4011.000000	65.062785 
4010.000000	65.067648 
4009.000000	65.085148 
4008.000000	65.111613 
4007.000000	65.142726 
4006.000000	65.173673 
4005.000000	65.200185 
4004.000000	65.218710 
4003.000000	65.227222 
4002.000000	65.225148 
4001.000000	65.213918 
4000.000000	65.196442 
3999.000000	65.176916 
3998.000000	65.159821 
3997.000000	65.149140 
3996.000000	65.147876 
3995.000000	65.157055 
3994.000000	65.175724 
3993.000000	65.201115 
3992.000000	65.229439 
3991.000000	65.256190 
3990.000000	65.277218 
3989.000000	65.289497 
3988.000000	65.291619 
3987.000000	65.284204 
3986.000000	65.269684 
3985.000000	65.252161 
3984.000000	65.236425 
3983.000000	65.227699 
3982.000000	65.230393 
3981.000000	65.247297 
3980.000000	65.278697 
3979.000000	65.322494 
3978.000000	65.374088 
3977.000000	65.427517 
3976.000000	65.476107 
3975.000000	65.513753 
3974.000000	65.536069 
3973.000000	65.541291 
3972.000000	65.530228 
3971.000000	65.505933 
3970.000000	65.472555 
3969.000000	65.434908 
3968.000000	65.396809 
3967.000000	65.360808 
3966.000000	65.327692 
3965.000000	65.296983 
3964.000000	65.267586 
3963.000000	65.238833 
3962.000000	65.210938 
3961.000000	65.185546 
3960.000000	65.165591 
3959.000000	65.154242 
3958.000000	65.154361 
3957.000000	65.167427 
3956.000000	65.192770 
3955.000000	65.227556 
3954.000000	65.267252 
3953.000000	65.306472 
3952.000000	65.340042 
3951.000000	65.363860 
3950.000000	65.375566 
3949.000000	65.374422 
3948.000000	65.361261 
3947.000000	65.337657 
3946.000000	65.305495 
3945.000000	65.266513 
3944.000000	65.222144 
3943.000000	65.173768 
3942.000000	65.123224 
3941.000000	65.072822 
3940.000000	65.025830 
3939.000000	64.985990 
3938.000000	64.956760 
3937.000000	64.940977 
3936.000000	64.939618 
3935.000000	64.952206 
3934.000000	64.976286 
3933.000000	65.008330 
3932.000000	65.043997 
3931.000000	65.079212 
3930.000000	65.110635 
3929.000000	65.136170 
3928.000000	65.155076 
3927.000000	65.167665 
3926.000000	65.175032 
3925.000000	65.178704 
3924.000000	65.180182 
3923.000000	65.180563 
3922.000000	65.180611 
3921.000000	65.180850 
3920.000000	65.181660 
3919.000000	65.183782 
3918.000000	65.188026 
3917.000000	65.195465 
3916.000000	65.206694 
3915.000000	65.221810 
3914.000000	65.239858 
3913.000000	65.259122 
3912.000000	65.276932 
3911.000000	65.290236 
3910.000000	65.296363 
3909.000000	65.293765 
3908.000000	65.282225 
3907.000000	65.262961 
3906.000000	65.238618 
3905.000000	65.212726 
3904.000000	65.188908 
3903.000000	65.170145 
3902.000000	65.158390 
3901.000000	65.154290 
3900.000000	65.157508 
3899.000000	65.166783 
3898.000000	65.180611 
3897.000000	65.197181 
3896.000000	65.214824 
3895.000000	65.232014 
3894.000000	65.247082 
3893.000000	65.258455 
3892.000000	65.264654 
3891.000000	65.264630 
3890.000000	65.257716 
3889.000000	65.243911 
3888.000000	65.224003 
3887.000000	65.199637 
3886.000000	65.173077 
3885.000000	65.147042 
3884.000000	65.124320 
3883.000000	65.107512 
3882.000000	65.098619 
3881.000000	65.098714 
3880.000000	65.107917 
3879.000000	65.125274 
3878.000000	65.148735 
3877.000000	65.175700 
3876.000000	65.203309 
3875.000000	65.229058 
3874.000000	65.251088 
3873.000000	65.268564 
3872.000000	65.281462 
3871.000000	65.290665 
3870.000000	65.297222 
3869.000000	65.301847 
3868.000000	65.304112 
3867.000000	65.302872 
3866.000000	65.296053 
3865.000000	65.281462 
3864.000000	65.257525 
3863.000000	65.224242 
3862.000000	65.183520 
3861.000000	65.139174 
3860.000000	65.096402 
3859.000000	65.060830 
3858.000000	65.037274 
3857.000000	65.028643 
3856.000000	65.035200 
3855.000000	65.054321 
3854.000000	65.081238 
3853.000000	65.109848 
3852.000000	65.134263 
3851.000000	65.149927 
3850.000000	65.154814 
3849.000000	65.149617 
3848.000000	65.137529 
3847.000000	65.123271 
3846.000000	65.112090 
3845.000000	65.108466 
3844.000000	65.115046 
3843.000000	65.132308 
3842.000000	65.159225 
3841.000000	65.193319 
3840.000000	65.231657 
3839.000000	65.271449 
3838.000000	65.310645 
3837.000000	65.348005 
3836.000000	65.382957 
3835.000000	65.415477 
3834.000000	65.445232 
3833.000000	65.471577 
3832.000000	65.493798 
3831.000000	65.510463 
3830.000000	65.520095 
3829.000000	65.521264 
3828.000000	65.513801 
3827.000000	65.498065 
3826.000000	65.475344 
3825.000000	65.447688 
3824.000000	65.417790 
3823.000000	65.388631 
3822.000000	65.362882 
3821.000000	65.342259 
3820.000000	65.327143 
3819.000000	65.316343 
3818.000000	65.307426 
3817.000000	65.296792 
3816.000000	65.280842 
3815.000000	65.256905 
3814.000000	65.224480 
3813.000000	65.185117 
3812.000000	65.142655 
3811.000000	65.102052 
3810.000000	65.068960 
3809.000000	65.047717 
3808.000000	65.041422 
3807.000000	65.050983 
3806.000000	65.076160 
3805.000000	65.114831 
3804.000000	65.164399 
3803.000000	65.222287 
3802.000000	65.285992 
3801.000000	65.352892 
3800.000000	65.420007 
3799.000000	65.483689 
3798.000000	65.539503 
3797.000000	65.582633 
3796.000000	65.608668 
3795.000000	65.614438 
3794.000000	65.599107 
3793.000000	65.564537 
3792.000000	65.514945 
3791.000000	65.456080 
3790.000000	65.394592 
3789.000000	65.336728 
3788.000000	65.287709 
3787.000000	65.250706 
3786.000000	65.227293 
3785.000000	65.217208 
3784.000000	65.218901 
3783.000000	65.229797 
3782.000000	65.246605 
3781.000000	65.266108 
3780.000000	65.285015 
3779.000000	65.300679 
3778.000000	65.310859 
3777.000000	65.314388 
3776.000000	65.311145 
3775.000000	65.302205 
3774.000000	65.289497 
3773.000000	65.275621 
3772.000000	65.263271 
3771.000000	65.254807 
3770.000000	65.251612 
3769.000000	65.254282 
3768.000000	65.262722 
3767.000000	65.276002 
3766.000000	65.292429 
3765.000000	65.310192 
3764.000000	65.327358 
3763.000000	65.342187 
3762.000000	65.353250 
3761.000000	65.359520 
3760.000000	65.360450 
3759.000000	65.356469 
3758.000000	65.348243 
3757.000000	65.336585 
3756.000000	65.321969 
3755.000000	65.304827 
3754.000000	65.285277 
3753.000000	65.262889 
3752.000000	65.237665 
3751.000000	65.210032 
3750.000000	65.181708 
3749.000000	65.155553 
3748.000000	65.135550 
3747.000000	65.125679 
3746.000000	65.129017 
3745.000000	65.146708 
3744.000000	65.176987 
3743.000000	65.215206 
3742.000000	65.254735 
3741.000000	65.288209 
3740.000000	65.309190 
3739.000000	65.313911 
3738.000000	65.302181 
3737.000000	65.277528 
3736.000000	65.246295 
3735.000000	65.216159 
3734.000000	65.194225 
3733.000000	65.185666 
3732.000000	65.192484 
3731.000000	65.213370 
3730.000000	65.244722 
3729.000000	65.281367 
3728.000000	65.318322 
3727.000000	65.351629 
3726.000000	65.379047 
3725.000000	65.399813 
3724.000000	65.414214 
3723.000000	65.423083 
3722.000000	65.427088 
3721.000000	65.426659 
3720.000000	65.421915 
3719.000000	65.412950 
3718.000000	65.400266 
3717.000000	65.384912 
3716.000000	65.368723 
3715.000000	65.353512 
3714.000000	65.341114 
3713.000000	65.332508 
3712.000000	65.327596 
3711.000000	65.325379 
3710.000000	65.324354 
3709.000000	65.322732 
3708.000000	65.319299 
3707.000000	65.313720 
3706.000000	65.306901 
3705.000000	65.300464 
3704.000000	65.296435 
3703.000000	65.296339 
3702.000000	65.300989 
3701.000000	65.309953 
3700.000000	65.321636 
3699.000000	65.333437 
3698.000000	65.342330 
3697.000000	65.345788 
3696.000000	65.342259 
3695.000000	65.331363 
3694.000000	65.314173 
3693.000000	65.292811 
3692.000000	65.270090 
3691.000000	65.248727 
3690.000000	65.230989 
3689.000000	65.218210 
3688.000000	65.210771 
3687.000000	65.207910 
3686.000000	65.208148 
3685.000000	65.209674 
3684.000000	65.210747 
3683.000000	65.210056 
3682.000000	65.206789 
3681.000000	65.201020 
3680.000000	65.193295 
3679.000000	65.184903 
3678.000000	65.177178 
3677.000000	65.171885 
3676.000000	65.170502 
3675.000000	65.174627 
3674.000000	65.185379 
3673.000000	65.203523 
3672.000000	65.229129 
3671.000000	65.261602 
3670.000000	65.299582 
3669.000000	65.341091 
3668.000000	65.383696 
3667.000000	65.424704 
3666.000000	65.461421 
3665.000000	65.491271 
3664.000000	65.512132 
3663.000000	65.522408 
3662.000000	65.521645 
3661.000000	65.510225 
3660.000000	65.489363 
3659.000000	65.461325 
3658.000000	65.428948 
3657.000000	65.395164 
3656.000000	65.362453 
3655.000000	65.332770 
3654.000000	65.307140 
3653.000000	65.285372 
3652.000000	65.266513 
3651.000000	65.249180 
3650.000000	65.232181 
3649.000000	65.214848 
3648.000000	65.197348 
3647.000000	65.180468 
3646.000000	65.165209 
3645.000000	65.151977 
3644.000000	65.140843 
3643.000000	65.130615 
3642.000000	65.120172 
3641.000000	65.108776 
3640.000000	65.096712 
3639.000000	65.085482 
3638.000000	65.077567 
3637.000000	65.076017 
3636.000000	65.083050 
3635.000000	65.099048 
3634.000000	65.122461 
3633.000000	65.149831 
3632.000000	65.176606 
3631.000000	65.198159 
3630.000000	65.211534 
3629.000000	65.216302 
3628.000000	65.214824 
3627.000000	65.211606 
3626.000000	65.211653 
3625.000000	65.219116 
3624.000000	65.236163 
3623.000000	65.262460 
3622.000000	65.295076 
3621.000000	65.329623 
3620.000000	65.361833 
3619.000000	65.388250 
3618.000000	65.407228 
3617.000000	65.418720 
3616.000000	65.423870 
3615.000000	65.424466 
3614.000000	65.422058 
3613.000000	65.417480 
3612.000000	65.410757 
3611.000000	65.401220 
3610.000000	65.388417 
3609.000000	65.371990 
3608.000000	65.352559 
3607.000000	65.331053 
3606.000000	65.308976 
3605.000000	65.287590 
3604.000000	65.267896 
3603.000000	65.250468 
3602.000000	65.235805 
3601.000000	65.224480 
3600.000000	65.217137 
3599.000000	65.214967 
3598.000000	65.219116 
3597.000000	65.230274 
3596.000000	65.248250 
3595.000000	65.271639 
3594.000000	65.297865 
3593.000000	65.323305 
3592.000000	65.344095 
3591.000000	65.356636 
3590.000000	65.358257 
3589.000000	65.347981 
3588.000000	65.326356 
3587.000000	65.295648 
3586.000000	65.258884 
3585.000000	65.219545 
3584.000000	65.180563 
3583.000000	65.144085 
3582.000000	65.111255 
3581.000000	65.082478 
3580.000000	65.057420 
3579.000000	65.035915 
3578.000000	65.017676 
3577.000000	65.002846 
3576.000000	64.991641 
3575.000000	64.984393 
3574.000000	64.981079 
3573.000000	64.981245 
3572.000000	64.983987 
3571.000000	64.988255 
3570.000000	64.993047 
3569.000000	64.997887 
3568.000000	65.003156 
3567.000000	65.009975 
3566.000000	65.019798 
3565.000000	65.034079 
3564.000000	65.053606 
3563.000000	65.078043 
3562.000000	65.105819 
3561.000000	65.134525 
3560.000000	65.161180 
3559.000000	65.183067 
3558.000000	65.198373 
3557.000000	65.206360 
3556.000000	65.207624 
3555.000000	65.203595 
3554.000000	65.196347 
3553.000000	65.187573 
3552.000000	65.178394 
3551.000000	65.169310 
3550.000000	65.160346 
3549.000000	65.151262 
3548.000000	65.141844 
3547.000000	65.132331 
3546.000000	65.123391 
3545.000000	65.115594 
3544.000000	65.109348 
3543.000000	65.104365 
3542.000000	65.100049 
3541.000000	65.095686 
3540.000000	65.090703 
3539.000000	65.085124 
3538.000000	65.079545 
3537.000000	65.075135 
3536.000000	65.073037 
3535.000000	65.074133 
3534.000000	65.078544 
3533.000000	65.085601 
3532.000000	65.094041 
3531.000000	65.102124 
3530.000000	65.108227 
3529.000000	65.111303 
3528.000000	65.111064 
3527.000000	65.108203 
3526.000000	65.104269 
3525.000000	65.101337 
3524.000000	65.101599 
3523.000000	65.106844 
3522.000000	65.118145 
3521.000000	65.135693 
3520.000000	65.158629 
3519.000000	65.184998 
3518.000000	65.212512 
3517.000000	65.238356 
3516.000000	65.259885 
3515.000000	65.274786 
3514.000000	65.281867 
3513.000000	65.281009 
3512.000000	65.273427 
3511.000000	65.261054 
3510.000000	65.246462 
3509.000000	65.232181 
3508.000000	65.220499 
3507.000000	65.212821 
3506.000000	65.209412 
3505.000000	65.209412 
3504.000000	65.211462 
3503.000000	65.213727 
3502.000000	65.214347 
3501.000000	65.212082 
3500.000000	65.206241 
3499.000000	65.196919 
3498.000000	65.184664 
3497.000000	65.170359 
3496.000000	65.154671 
3495.000000	65.137887 
3494.000000	65.119552 
3493.000000	65.098810 
3492.000000	65.074396 
3491.000000	65.045142 
3490.000000	65.010523 
3489.000000	64.970636 
3488.000000	64.927196 
3487.000000	64.882969 
3486.000000	64.842128 
3485.000000	64.809012 
3484.000000	64.788079 
3483.000000	64.782881 
3482.000000	64.795637 
3481.000000	64.826226 
3480.000000	64.872384 
3479.000000	64.929723 
3478.000000	64.992332 
3477.000000	65.053606 
3476.000000	65.107560 
3475.000000	65.149545 
3474.000000	65.176963 
3473.000000	65.189576 
3472.000000	65.189051 
3471.000000	65.178370 
3470.000000	65.161061 
3469.000000	65.140581 
3468.000000	65.119814 
3467.000000	65.100646 
3466.000000	65.084457 
3465.000000	65.072154 
3464.000000	65.064215 
3463.000000	65.060901 
3462.000000	65.062355 
3461.000000	65.068531 
3460.000000	65.078806 
3459.000000	65.092062 
3458.000000	65.106868 
3457.000000	65.121459 
3456.000000	65.133881 
3455.000000	65.142583 
3454.000000	65.146660 
3453.000000	65.146017 
3452.000000	65.141129 
3451.000000	65.133094 
3450.000000	65.123176 
3449.000000	65.112900 
3448.000000	65.103721 
3447.000000	65.096855 
3446.000000	65.092873 
3445.000000	65.092110 
3444.000000	65.094661 
3443.000000	65.100264 
3442.000000	65.108442 
3441.000000	65.118646 
3440.000000	65.130662 
3439.000000	65.144300 
3438.000000	65.159463 
3437.000000	65.175890 
3436.000000	65.193152 
3435.000000	65.210485 
3434.000000	65.226984 
3433.000000	65.241718 
3432.000000	65.254068 
3431.000000	65.263938 
3430.000000	65.271854 
3429.000000	65.279126 
3428.000000	65.287303 
3427.000000	65.298008 
3426.000000	65.312242 
3425.000000	65.330004 
3424.000000	65.349841 
3423.000000	65.369296 
3422.000000	65.385103 
3421.000000	65.393972 
3420.000000	65.393376 
3419.000000	65.382146 
3418.000000	65.360879 
3417.000000	65.331888 
3416.000000	65.298795 
3415.000000	65.265727 
3414.000000	65.236854 
3413.000000	65.215349 
3412.000000	65.202927 
3411.000000	65.199661 
3410.000000	65.204262 
3409.000000	65.214323 
3408.000000	65.226721 
3407.000000	65.238714 
3406.000000	65.248012 
3405.000000	65.253758 
3404.000000	65.255808 
3403.000000	65.255451 
3402.000000	65.254688 
3401.000000	65.255951 
3400.000000	65.261340 
3399.000000	65.271902 
3398.000000	65.287685 
3397.000000	65.306997 
3396.000000	65.327119 
3395.000000	65.344429 
3394.000000	65.355467 
3393.000000	65.357446 
3392.000000	65.349149 
3391.000000	65.331149 
3390.000000	65.305805 
3389.000000	65.276885 
3388.000000	65.248703 
3387.000000	65.224957 
3386.000000	65.208005 
3385.000000	65.198612 
3384.000000	65.195608 
3383.000000	65.196418 
3382.000000	65.197730 
3381.000000	65.196561 
3380.000000	65.190887 
3379.000000	65.179800 
3378.000000	65.163922 
3377.000000	65.144848 
3376.000000	65.124988 
3375.000000	65.106701 
3374.000000	65.091943 
3373.000000	65.081834 
3372.000000	65.076541 
3371.000000	65.075182 
3370.000000	65.076208 
3369.000000	65.077662 
3368.000000	65.077948 
3367.000000	65.075945 
3366.000000	65.071439 
3365.000000	65.065002 
3364.000000	65.058040 
3363.000000	65.052247 
3362.000000	65.049004 
3361.000000	65.049171 
3360.000000	65.052533 
3359.000000	65.057802 
3358.000000	65.062904 
3357.000000	65.065717 
3356.000000	65.064620 
3355.000000	65.059328 
3354.000000	65.051150 
3353.000000	65.042781 
3352.000000	65.037727 
3351.000000	65.039539 
3350.000000	65.050721 
3349.000000	65.072226 
3348.000000	65.103316 
3347.000000	65.141415 
3346.000000	65.182971 
3345.000000	65.223598 
3344.000000	65.259099 
3343.000000	65.286016 
3342.000000	65.302300 
3341.000000	65.307354 
3340.000000	65.301895 
3339.000000	65.287709 
3338.000000	65.267610 
3337.000000	65.244507 
3336.000000	65.221166 
3335.000000	65.199804 
3334.000000	65.181827 
3333.000000	65.167737 
3332.000000	65.157413 
3331.000000	65.150141 
3330.000000	65.144872 
3329.000000	65.140700 
3328.000000	65.136837 
3327.000000	65.132713 
3326.000000	65.128040 
3325.000000	65.122675 
3324.000000	65.116739 
3323.000000	65.110039 
3322.000000	65.102553 
3321.000000	65.094327 
3320.000000	65.085697 
3319.000000	65.077209 
3318.000000	65.069985 
3317.000000	65.065622 
3316.000000	65.065765 
3315.000000	65.071868 
3314.000000	65.084624 
3313.000000	65.103673 
3312.000000	65.127253 
3311.000000	65.152549 
3310.000000	65.175867 
3309.000000	65.193533 
3308.000000	65.202474 
3307.000000	65.200996 
3306.000000	65.188694 
3305.000000	65.166544 
3304.000000	65.136981 
3303.000000	65.103054 
3302.000000	65.068173 
3301.000000	65.035247 
3300.000000	65.006732 
3299.000000	64.983963 
3298.000000	64.967274 
3297.000000	64.955759 
3296.000000	64.947867 
3295.000000	64.941740 
3294.000000	64.935493 
3293.000000	64.928007 
3292.000000	64.918899 
3291.000000	64.909052 
3290.000000	64.900207 
3289.000000	64.894747 
3288.000000	64.894914 
3287.000000	64.902520 
3286.000000	64.918231 
3285.000000	64.941549 
3284.000000	64.970612 
3283.000000	65.002894 
3282.000000	65.035676 
3281.000000	65.066623 
3280.000000	65.094256 
3279.000000	65.118098 
3278.000000	65.138554 
3277.000000	65.156531 
3276.000000	65.172910 
3275.000000	65.188169 
3274.000000	65.202069 
3273.000000	65.213894 
3272.000000	65.222525 
3271.000000	65.226936 
3270.000000	65.226316 
3269.000000	65.220904 
3268.000000	65.211534 
3267.000000	65.199470 
3266.000000	65.186142 
3265.000000	65.172696 
3264.000000	65.159916 
3263.000000	65.148138 
3262.000000	65.137386 
3261.000000	65.127491 
3260.000000	65.118598 
3259.000000	65.111422 
3258.000000	65.107059 
3257.000000	65.106701 
3256.000000	65.111398 
3255.000000	65.121579 
3254.000000	65.136766 
3253.000000	65.155410 
3252.000000	65.175294 
3251.000000	65.193724 
3250.000000	65.208292 
3249.000000	65.217161 
3248.000000	65.219521 
3247.000000	65.215587 
3246.000000	65.206575 
3245.000000	65.194177 
3244.000000	65.180277 
3243.000000	65.166497 
3242.000000	65.154170 
3241.000000	65.143847 
3240.000000	65.135645 
3239.000000	65.129113 
3238.000000	65.123653 
3237.000000	65.118384 
3236.000000	65.112233 
3235.000000	65.104055 
3234.000000	65.092873 
3233.000000	65.077972 
3232.000000	65.059185 
3231.000000	65.037131 
3230.000000	65.013027 
3229.000000	64.988684 
3228.000000	64.966225 
3227.000000	64.947676 
3226.000000	64.934682 
3225.000000	64.928412 
3224.000000	64.929533 
3223.000000	64.938092 
3222.000000	64.953541 
3221.000000	64.974570 
3220.000000	64.999461 
3219.000000	65.025997 
3218.000000	65.051579 
3217.000000	65.073561 
3216.000000	65.089631 
3215.000000	65.098190 
3214.000000	65.098690 
3213.000000	65.091729 
3212.000000	65.078926 
3211.000000	65.062952 
3210.000000	65.046477 
3209.000000	65.031814 
3208.000000	65.020203 
3207.000000	65.011835 
3206.000000	65.005707 
3205.000000	65.000128 
3204.000000	64.993190 
3203.000000	64.983415 
3202.000000	64.969992 
3201.000000	64.953136 
3200.000000	64.933967 
3199.000000	64.914298 
3198.000000	64.896392 
3197.000000	64.882397 
3196.000000	64.874291 
3195.000000	64.873433 
3194.000000	64.880323 
3193.000000	64.894390 
3192.000000	64.914298 
3191.000000	64.937925 
3190.000000	64.962744 
3189.000000	64.986157 
3188.000000	65.005826 
3187.000000	65.020346 
3186.000000	65.029215 
3185.000000	65.033102 
3184.000000	65.033435 
3183.000000	65.032172 
3182.000000	65.031242 
3181.000000	65.032100 
3180.000000	65.035367 
3179.000000	65.040731 
3178.000000	65.047073 
3177.000000	65.052890 
3176.000000	65.056824 
3175.000000	65.058135 
3174.000000	65.056967 
3173.000000	65.054321 
3172.000000	65.051913 
3171.000000	65.051555 
3170.000000	65.054941 
3169.000000	65.062904 
3168.000000	65.075469 
3167.000000	65.091943 
3166.000000	65.111112 
3165.000000	65.131425 
3164.000000	65.151333 
3163.000000	65.169548 
3162.000000	65.184974 
3161.000000	65.196657 
3160.000000	65.203928 
3159.000000	65.206480 
3158.000000	65.204286 
3157.000000	65.197873 
3156.000000	65.187931 
3155.000000	65.175652 
3154.000000	65.162062 
3153.000000	65.148258 
3152.000000	65.134620 
3151.000000	65.121126 
3150.000000	65.107178 
3149.000000	65.092015 
3148.000000	65.074992 
3147.000000	65.055966 
3146.000000	65.035533 
3145.000000	65.015077 
3144.000000	64.996433 
3143.000000	64.981150 
3142.000000	64.970302 
3141.000000	64.964079 
3140.000000	64.961290 
3139.000000	64.959931 
3138.000000	64.957666 
3137.000000	64.952397 
3136.000000	64.942884 
3135.000000	64.929318 
3134.000000	64.912867 
3133.000000	64.895915 
3132.000000	64.881205 
3131.000000	64.871287 
3130.000000	64.867854 
3129.000000	64.871335 
3128.000000	64.880895 
3127.000000	64.894771 
3126.000000	64.910626 
3125.000000	64.926099 
3124.000000	64.939355 
3123.000000	64.949226 
3122.000000	64.955472 
3121.000000	64.958524 
3120.000000	64.959383 
3119.000000	64.959144 
3118.000000	64.959001 
3117.000000	64.960074 
3116.000000	64.963340 
3115.000000	64.969706 
3114.000000	64.979887 
3113.000000	64.994144 
3112.000000	65.012216 
3111.000000	65.033316 
3110.000000	65.056395 
3109.000000	65.079903 
3108.000000	65.102458 
3107.000000	65.122842 
3106.000000	65.140342 
3105.000000	65.154600 
3104.000000	65.165805 
3103.000000	65.174388 
3102.000000	65.180826 
3101.000000	65.185618 
3100.000000	65.188789 
3099.000000	65.190505 
3098.000000	65.190291 
3097.000000	65.187644 
3096.000000	65.181612 
3095.000000	65.171408 
3094.000000	65.156269 
3093.000000	65.135931 
3092.000000	65.110659 
3091.000000	65.081644 
3090.000000	65.051078 
3089.000000	65.021991 
3088.000000	64.997959 
3087.000000	64.982581 
3086.000000	64.978551 
3085.000000	64.987158 
3084.000000	65.007734 
3083.000000	65.037631 
3082.000000	65.072584 
3081.000000	65.107870 
3080.000000	65.138578 
3079.000000	65.161013 
3078.000000	65.173292 
3077.000000	65.175509 
3076.000000	65.169334 
3075.000000	65.157818 
3074.000000	65.144419 
3073.000000	65.132212 
3072.000000	65.123462 
3071.000000	65.119194 
3070.000000	65.119290 
3069.000000	65.122961 
3068.000000	65.129184 
3067.000000	65.137171 
3066.000000	65.146684 
3065.000000	65.157914 
3064.000000	65.171408 
3063.000000	65.187668 
3062.000000	65.206861 
3061.000000	65.228438 
3060.000000	65.251326 
3059.000000	65.273880 
3058.000000	65.294265 
3057.000000	65.310931 
3056.000000	65.322780 
3055.000000	65.329384 
3054.000000	65.330648 
3053.000000	65.326929 
3052.000000	65.318799 
3051.000000	65.306639 
3050.000000	65.290975 
3049.000000	65.272212 
3048.000000	65.250992 
3047.000000	65.228629 
3046.000000	65.206742 
3045.000000	65.187406 
3044.000000	65.172457 
3043.000000	65.163135 
3042.000000	65.159559 
3041.000000	65.160703 
3040.000000	65.164256 
3039.000000	65.167212 
3038.000000	65.166401 
3037.000000	65.159440 
3036.000000	65.145254 
3035.000000	65.124416 
3034.000000	65.098953 
3033.000000	65.071845 
3032.000000	65.046405 
3031.000000	65.025472 
3030.000000	65.010929 
3029.000000	65.002942 
3028.000000	65.000414 
3027.000000	65.001010 
3026.000000	65.002012 
3025.000000	65.000867 
3024.000000	64.995789 
3023.000000	64.986371 
3022.000000	64.973187 
3021.000000	64.957976 
3020.000000	64.942932 
3019.000000	64.930558 
3018.000000	64.923000 
3017.000000	64.921879 
3016.000000	64.927911 
3015.000000	64.941143 
3014.000000	64.960813 
3013.000000	64.985489 
3012.000000	65.013122 
3011.000000	65.041351 
3010.000000	65.067577 
3009.000000	65.089511 
3008.000000	65.105319 
3007.000000	65.114092 
3006.000000	65.115737 
3005.000000	65.111422 
3004.000000	65.103030 
3003.000000	65.093064 
3002.000000	65.083646 
3001.000000	65.076279 
3000.000000	65.071558 
2999.000000	65.069055 
2998.000000	65.067434 
2997.000000	65.065431 
2996.000000	65.061974 
2995.000000	65.056896 
2994.000000	65.051031 
2993.000000	65.046143 
2992.000000	65.044546 
2991.000000	65.048313 
2990.000000	65.058851 
2989.000000	65.076398 
2988.000000	65.099906 
2987.000000	65.127229 
2986.000000	65.155434 
2985.000000	65.181326 
2984.000000	65.202140 
2983.000000	65.215826 
2982.000000	65.221285 
2981.000000	65.218329 
2980.000000	65.207624 
2979.000000	65.190339 
2978.000000	65.168237 
2977.000000	65.143013 
2976.000000	65.116500 
2975.000000	65.090036 
2974.000000	65.064716 
2973.000000	65.040946 
2972.000000	65.018677 
2971.000000	64.997577 
2970.000000	64.977025 
2969.000000	64.956808 
2968.000000	64.936828 
2967.000000	64.917850 
2966.000000	64.900970 
2965.000000	64.887833 
2964.000000	64.879751 
2963.000000	64.877796 
2962.000000	64.882278 
2961.000000	64.892792 
2960.000000	64.908242 
2959.000000	64.927291 
2958.000000	64.948701 
2957.000000	64.971804 
2956.000000	64.996480 
2955.000000	65.022993 
2954.000000	65.051555 
2953.000000	65.081930 
2952.000000	65.113019 
2951.000000	65.142774 
2950.000000	65.168261 
2949.000000	65.186810 
2948.000000	65.196037 
2947.000000	65.194892 
2946.000000	65.183591 
2945.000000	65.164184 
2944.000000	65.139794 
2943.000000	65.113949 
2942.000000	65.089678 
2941.000000	65.069103 
2940.000000	65.052652 
2939.000000	65.039277 
2938.000000	65.026926 
2937.000000	65.013408 
2936.000000	64.997196 
2935.000000	64.978218 
2934.000000	64.958095 
2933.000000	64.939689 
2932.000000	64.926648 
2931.000000	64.922237 
2930.000000	64.928555 
2929.000000	64.945769 
2928.000000	64.972448 
2927.000000	65.005707 
2926.000000	65.041971 
2925.000000	65.077590 
2924.000000	65.109729 
2923.000000	65.136766 
2922.000000	65.157866 
2921.000000	65.173149 
2920.000000	65.183234 
2919.000000	65.188860 
2918.000000	65.190672 
2917.000000	65.188884 
2916.000000	65.183639 
2915.000000	65.174770 
2914.000000	65.162587 
2913.000000	65.147280 
2912.000000	65.129446 
2911.000000	65.109825 
2910.000000	65.089631 
2909.000000	65.070128 
2908.000000	65.052676 
2907.000000	65.038728 
2906.000000	65.029525 
2905.000000	65.026187 
2904.000000	65.029430 
2903.000000	65.039181 
2902.000000	65.054535 
2901.000000	65.073633 
2900.000000	65.093851 
2899.000000	65.112137 
2898.000000	65.125584 
2897.000000	65.131902 
2896.000000	65.130043 
2895.000000	65.120387 
2894.000000	65.104675 
2893.000000	65.085625 
2892.000000	65.066456 
2891.000000	65.050029 
2890.000000	65.038394 
2889.000000	65.032911 
2888.000000	65.033817 
2887.000000	65.040540 
2886.000000	65.051960 
2885.000000	65.066576 
2884.000000	65.082931 
2883.000000	65.099477 
2882.000000	65.114879 
2881.000000	65.127968 
2880.000000	65.137648 
2879.000000	65.142917 
2878.000000	65.143108 
2877.000000	65.138030 
2876.000000	65.128087 
2875.000000	65.114521 
2874.000000	65.099358 
2873.000000	65.085172 
2872.000000	65.074896 
2871.000000	65.071225 
2870.000000	65.075874 
2869.000000	65.089130 
2868.000000	65.109777 
2867.000000	65.134835 
2866.000000	65.160322 
2865.000000	65.181732 
2864.000000	65.195012 
2863.000000	65.197372 
2862.000000	65.187978 
2861.000000	65.167951 
2860.000000	65.140342 
2859.000000	65.108966 
2858.000000	65.077614 
2857.000000	65.049052 
2856.000000	65.024662 
2855.000000	65.004205 
2854.000000	64.986371 
2853.000000	64.969301 
2852.000000	64.951562 
2851.000000	64.932799 
2850.000000	64.913964 
2849.000000	64.897298 
2848.000000	64.885711 
2847.000000	64.882087 
2846.000000	64.888453 
2845.000000	64.905691 
2844.000000	64.932870 
2843.000000	64.967322 
2842.000000	65.004873 
2841.000000	65.041017 
2840.000000	65.071368 
2839.000000	65.092420 
2838.000000	65.102458 
2837.000000	65.101313 
2836.000000	65.090823 
2835.000000	65.074276 
2834.000000	65.055704 
2833.000000	65.039277 
2832.000000	65.028285 
2831.000000	65.024638 
2830.000000	65.028405 
2829.000000	65.038275 
2828.000000	65.051317 
2827.000000	65.063786 
2826.000000	65.072035 
2825.000000	65.073513 
2824.000000	65.067148 
2823.000000	65.053725 
2822.000000	65.035915 
2821.000000	65.017724 
2820.000000	65.003871 
2819.000000	64.998579 
2818.000000	65.004944 
2817.000000	65.024018 
2816.000000	65.054750 
2815.000000	65.093874 
2814.000000	65.136742 
2813.000000	65.177726 
2812.000000	65.211534 
2811.000000	65.234255 
2810.000000	65.243482 
2809.000000	65.239310 
2808.000000	65.223956 
2807.000000	65.201663 
2806.000000	65.177679 
2805.000000	65.157437 
2804.000000	65.145754 
2803.000000	65.145730 
2802.000000	65.158677 
2801.000000	65.183472 
2800.000000	65.217232 
2799.000000	65.255618 
2798.000000	65.293812 
2797.000000	65.327262 
2796.000000	65.352559 
2795.000000	65.367627 
2794.000000	65.371894 
2793.000000	65.366077 
2792.000000	65.351605 
2791.000000	65.330219 
2790.000000	65.303444 
2789.000000	65.272545 
2788.000000	65.238428 
2787.000000	65.201902 
2786.000000	65.164089 
2785.000000	65.126538 
2784.000000	65.091419 
2783.000000	65.061044 
2782.000000	65.037870 
2781.000000	65.023922 
2780.000000	65.020418 
2779.000000	65.027165 
2778.000000	65.042543 
2777.000000	65.063738 
2776.000000	65.086936 
2775.000000	65.108251 
2774.000000	65.124177 
2773.000000	65.132212 
2772.000000	65.131354 
2771.000000	65.122127 
2770.000000	65.106463 
2769.000000	65.087223 
2768.000000	65.067529 
2767.000000	65.050148 
2766.000000	65.037441 
2765.000000	65.030741 
2764.000000	65.030598 
2763.000000	65.036535 
2762.000000	65.047550 
2761.000000	65.062022 
2760.000000	65.078425 
2759.000000	65.095043 
2758.000000	65.110063 
2757.000000	65.121865 
2756.000000	65.129089 
2755.000000	65.131068 
2754.000000	65.127539 
2753.000000	65.119171 
2752.000000	65.107631 
2751.000000	65.095186 
2750.000000	65.084552 
2749.000000	65.078091 
2748.000000	65.077614 
2747.000000	65.083813 
2746.000000	65.096044 
2745.000000	65.112209 
2744.000000	65.129137 
2743.000000	65.143251 
2742.000000	65.151357 
2741.000000	65.151143 
2740.000000	65.141725 
2739.000000	65.123844 
2738.000000	65.100049 
2737.000000	65.073919 
2736.000000	65.049719 
2735.000000	65.031361 
2734.000000	65.021872 
2733.000000	65.022826 
2732.000000	65.034246 
2731.000000	65.054655 
2730.000000	65.081501 
2729.000000	65.111541 
2728.000000	65.141677 
2727.000000	65.169167 
2726.000000	65.192246 
2725.000000	65.209960 
2724.000000	65.222001 
2723.000000	65.228676 
2722.000000	65.230345 
2721.000000	65.227365 
2720.000000	65.219831 
2719.000000	65.207648 
2718.000000	65.190505 
2717.000000	65.168714 
2716.000000	65.142965 
2715.000000	65.114808 
2714.000000	65.086603 
2713.000000	65.061163 
2712.000000	65.041518 
2711.000000	65.030574 
2710.000000	65.030074 
2709.000000	65.040349 
2708.000000	65.060162 
2707.000000	65.086698 
2706.000000	65.116071 
2705.000000	65.143966 
2704.000000	65.166330 
2703.000000	65.180301 
2702.000000	65.184617 
2701.000000	65.179729 
2700.000000	65.167403 
2699.000000	65.150547 
2698.000000	65.132236 
2697.000000	65.115404 
2696.000000	65.102624 
2695.000000	65.095496 
2694.000000	65.094709 
2693.000000	65.100169 
2692.000000	65.111064 
2691.000000	65.125751 
2690.000000	65.142178 
2689.000000	65.157651 
2688.000000	65.169095 
2687.000000	65.173602 
2686.000000	65.168786 
2685.000000	65.153431 
2684.000000	65.127706 
2683.000000	65.093731 
2682.000000	65.055179 
2681.000000	65.016818 
2680.000000	64.983558 
2679.000000	64.959669 
2678.000000	64.947748 
2677.000000	64.948654 
2676.000000	64.961028 
2675.000000	64.981794 
2674.000000	65.006542 
2673.000000	65.030670 
2672.000000	65.050196 
2671.000000	65.062069 
2670.000000	65.065026 
2669.000000	65.059375 
2668.000000	65.047121 
2667.000000	65.031170 
2666.000000	65.014934 
2665.000000	65.001535 
2664.000000	64.993476 
2663.000000	64.992213 
2662.000000	64.998102 
2661.000000	65.010356 
2660.000000	65.027499 
2659.000000	65.047550 
2658.000000	65.068602 
2657.000000	65.088963 
2656.000000	65.107440 
2655.000000	65.123152 
2654.000000	65.135502 
2653.000000	65.143918 
2652.000000	65.148067 
2651.000000	65.147614 
2650.000000	65.142464 
2649.000000	65.132808 
2648.000000	65.119600 
2647.000000	65.104174 
2646.000000	65.088367 
2645.000000	65.073895 
2644.000000	65.062236 
2643.000000	65.054225 
2642.000000	65.049982 
2641.000000	65.048909 
2640.000000	65.049886 
2639.000000	65.051770 
2638.000000	65.053772 
2637.000000	65.055632 
2636.000000	65.057659 
2635.000000	65.060353 
2634.000000	65.064120 
2633.000000	65.069007 
2632.000000	65.074563 
2631.000000	65.079998 
2630.000000	65.084242 
2629.000000	65.086698 
2628.000000	65.087175 
2627.000000	65.086340 
2626.000000	65.085148 
2625.000000	65.084671 
2624.000000	65.085601 
2623.000000	65.087795 
2622.000000	65.090203 
2621.000000	65.091204 
2620.000000	65.088772 
2619.000000	65.081548 
2618.000000	65.069031 
2617.000000	65.052080 
2616.000000	65.032505 
2615.000000	65.012621 
2614.000000	64.994502 
2613.000000	64.979577 
2612.000000	64.968180 
2611.000000	64.959478 
2610.000000	64.952158 
2609.000000	64.944982 
2608.000000	64.937520 
2607.000000	64.930391 
2606.000000	64.925241 
2605.000000	64.924335 
2604.000000	64.929628 
2603.000000	64.942264 
2602.000000	64.961791 
2601.000000	64.986133 
2600.000000	65.011978 
2599.000000	65.035486 
2598.000000	65.053176 
2597.000000	65.062594 
2596.000000	65.062761 
2595.000000	65.054178 
2594.000000	65.038585 
2593.000000	65.018725 
2592.000000	64.997363 
2591.000000	64.977240 
2590.000000	64.960718 
2589.000000	64.949488 
2588.000000	64.944577 
2587.000000	64.946293 
2586.000000	64.954447 
2585.000000	64.968252 
2584.000000	64.986371 
2583.000000	65.007257 
2582.000000	65.029001 
2581.000000	65.049862 
2580.000000	65.068268 
2579.000000	65.083003 
2578.000000	65.093421 
2577.000000	65.099287 
2576.000000	65.100765 
2575.000000	65.098285 
2574.000000	65.092110 
2573.000000	65.082550 
2572.000000	65.069603 
2571.000000	65.053534 
2570.000000	65.034508 
2569.000000	65.013194 
2568.000000	64.990425 
2567.000000	64.967393 
2566.000000	64.945578 
2565.000000	64.926433 
2564.000000	64.911484 
2563.000000	64.901876 
2562.000000	64.898490 
2561.000000	64.901471 
2560.000000	64.910626 
2559.000000	64.925193 
2558.000000	64.943838 
2557.000000	64.964747 
2556.000000	64.985704 
2555.000000	65.004348 
2554.000000	65.018248 
2553.000000	65.025329 
2552.000000	65.024185 
2551.000000	65.014457 
2550.000000	64.996981 
2549.000000	64.973878 
2548.000000	64.948248 
2547.000000	64.923620 
2546.000000	64.903330 
2545.000000	64.889883 
2544.000000	64.884400 
2543.000000	64.886808 
2542.000000	64.895462 
2541.000000	64.908146 
2540.000000	64.922380 
2539.000000	64.936375 
2538.000000	64.949274 
2537.000000	64.961123 
2536.000000	64.972949 
2535.000000	64.985847 
2534.000000	65.000534 
2533.000000	65.016913 
2532.000000	65.033888 
2531.000000	65.049576 
2530.000000	65.061831 
2529.000000	65.068888 
2528.000000	65.069746 
2527.000000	65.064668 
2526.000000	65.055203 
2525.000000	65.043497 
2524.000000	65.031933 
2523.000000	65.022635 
2522.000000	65.016961 
2521.000000	65.015435 
2520.000000	65.017676 
2519.000000	65.022802 
2518.000000	65.029692 
2517.000000	65.037512 
2516.000000	65.045595 
2515.000000	65.053415 
2514.000000	65.060591 
2513.000000	65.066623 
2512.000000	65.071249 
2511.000000	65.074038 
2510.000000	65.074920 
2509.000000	65.074300 
2508.000000	65.072727 
2507.000000	65.071105 
2506.000000	65.070128 
2505.000000	65.070199 
2504.000000	65.070986 
2503.000000	65.071773 
2502.000000	65.071177 
2501.000000	65.067744 
2500.000000	65.060424 
2499.000000	65.048885 
2498.000000	65.033650 
2497.000000	65.015983 
2496.000000	64.997792 
2495.000000	64.981031 
2494.000000	64.967203 
2493.000000	64.957094 
2492.000000	64.950537 
2491.000000	64.946579 
2490.000000	64.943695 
2489.000000	64.940524 
2488.000000	64.936017 
2487.000000	64.930057 
2486.000000	64.922928 
2485.000000	64.915919 
2484.000000	64.910554 
2483.000000	64.908623 
2482.000000	64.911317 
2481.000000	64.919233 
2480.000000	64.932250 
2479.000000	64.949083 
2478.000000	64.967799 
2477.000000	64.985895 
2476.000000	65.000796 
2475.000000	65.009999 
2474.000000	65.011692 
2473.000000	65.005040 
2472.000000	64.990282 
2471.000000	64.968895 
2470.000000	64.943337 
2469.000000	64.916586 
2468.000000	64.891624 
2467.000000	64.871215 
2466.000000	64.857244 
2465.000000	64.850592 
2464.000000	64.851140 
2463.000000	64.857745 
2462.000000	64.868617 
2461.000000	64.881396 
2460.000000	64.893770 
2459.000000	64.903497 
2458.000000	64.909172 
2457.000000	64.910101 
2456.000000	64.906740 
2455.000000	64.900279 
2454.000000	64.892554 
2453.000000	64.885520 
2452.000000	64.880919 
2451.000000	64.879870 
2450.000000	64.882493 
2449.000000	64.887952 
2448.000000	64.894652 
2447.000000	64.900660 
2446.000000	64.904379 
2445.000000	64.904975 
2444.000000	64.902567 
2443.000000	64.898300 
2442.000000	64.893627 
2441.000000	64.889931 
2440.000000	64.888191 
2439.000000	64.888501 
2438.000000	64.889812 
2437.000000	64.890360 
2436.000000	64.888095 
2435.000000	64.881372 
2434.000000	64.868998 
2433.000000	64.850950 
2432.000000	64.828014 
2431.000000	64.802145 
2430.000000	64.775753 
2429.000000	64.751601 
2428.000000	64.732265 
2427.000000	64.719772 
2426.000000	64.715480 
2425.000000	64.719676 
2424.000000	64.731836 
2423.000000	64.750480 
2422.000000	64.773368 
2421.000000	64.798069 
2420.000000	64.822125 
2419.000000	64.843893 
2418.000000	64.862561 
2417.000000	64.878416 
2416.000000	64.892649 
2415.000000	64.906907 
2414.000000	64.922547 
2413.000000	64.940357 
2412.000000	64.959859 
2411.000000	64.979672 
2410.000000	64.997553 
2409.000000	65.011191 
2408.000000	65.018510 
2407.000000	65.018367 
2406.000000	65.010809 
2405.000000	64.997005 
2404.000000	64.979243 
2403.000000	64.960312 
2402.000000	64.943099 
2401.000000	64.930009 
2400.000000	64.922809 
2399.000000	64.922285 
2398.000000	64.928197 
2397.000000	64.939737 
2396.000000	64.955449 
2395.000000	64.973664 
2394.000000	64.992690 
2393.000000	65.010952 
2392.000000	65.027117 
2391.000000	65.040016 
2390.000000	65.048694 
2389.000000	65.052270 
2388.000000	65.049982 
2387.000000	65.041065 
2386.000000	65.025067 
2385.000000	65.001893 
2384.000000	64.972352 
2383.000000	64.938020 
2382.000000	64.901351 
2381.000000	64.865541 
2380.000000	64.834117 
2379.000000	64.810371 
2378.000000	64.796447 
2377.000000	64.793229 
2376.000000	64.799952 
2375.000000	64.814472 
2374.000000	64.833426 
2373.000000	64.853143 
2372.000000	64.870095 
2371.000000	64.882016 
2370.000000	64.887928 
2369.000000	64.888644 
2368.000000	64.886116 
2367.000000	64.883184 
2366.000000	64.882731 
2365.000000	64.887142 
2364.000000	64.897799 
2363.000000	64.914751 
2362.000000	64.936804 
2361.000000	64.962005 
2360.000000	64.987874 
2359.000000	65.011906 
2358.000000	65.031766 
2357.000000	65.045714 
2356.000000	65.052556 
2355.000000	65.051770 
2354.000000	65.043497 
2353.000000	65.028524 
2352.000000	65.008282 
2351.000000	64.984965 
2350.000000	64.961218 
2349.000000	64.939785 
2348.000000	64.923024 
2347.000000	64.912843 
2346.000000	64.910006 
2345.000000	64.914083 
2344.000000	64.923381 
2343.000000	64.935374 
2342.000000	64.947271 
2341.000000	64.956688 
2340.000000	64.962029 
2339.000000	64.962744 
2338.000000	64.959502 
2337.000000	64.953875 
2336.000000	64.947724 
2335.000000	64.942646 
2334.000000	64.939403 
2333.000000	64.937782 
2332.000000	64.936566 
2331.000000	64.934110 
2330.000000	64.929103 
2329.000000	64.920783 
2328.000000	64.909386 
2327.000000	64.896512 
2326.000000	64.884448 
2325.000000	64.875864 
2324.000000	64.872932 
2323.000000	64.876890 
2322.000000	64.887595 
2321.000000	64.903521 
2320.000000	64.922118 
2319.000000	64.940142 
2318.000000	64.954447 
2317.000000	64.962506 
2316.000000	64.962983 
2315.000000	64.955782 
2314.000000	64.942073 
2313.000000	64.923977 
2312.000000	64.904141 
2311.000000	64.885377 
2310.000000	64.870333 
2309.000000	64.861083 
2308.000000	64.858698 
2307.000000	64.863252 
2306.000000	64.873600 
2305.000000	64.887738 
2304.000000	64.903235 
2303.000000	64.917421 
2302.000000	64.928269 
2301.000000	64.934372 
2300.000000	64.935398 
2299.000000	64.931750 
2298.000000	64.924502 
2297.000000	64.914894 
2296.000000	64.904093 
2295.000000	64.893078 
2294.000000	64.882302 
2293.000000	64.872145 
2292.000000	64.862751 
2291.000000	64.854216 
2290.000000	64.846682 
2289.000000	64.840292 
2288.000000	64.835143 
2287.000000	64.831161 
2286.000000	64.828109 
2285.000000	64.825487 
2284.000000	64.822721 
2283.000000	64.819502 
2282.000000	64.815807 
2281.000000	64.812111 
2280.000000	64.809107 
2279.000000	64.807581 
2278.000000	64.808273 
2277.000000	64.811587 
2276.000000	64.817380 
2275.000000	64.825129 
2274.000000	64.833855 
2273.000000	64.842581 
2272.000000	64.850068 
2271.000000	64.855360 
2270.000000	64.857864 
2269.000000	64.857268 
2268.000000	64.853811 
2267.000000	64.847922 
2266.000000	64.840459 
2265.000000	64.832282 
2264.000000	64.824056 
2263.000000	64.816188 
2262.000000	64.808940 
2261.000000	64.802336 
2260.000000	64.796280 
2259.000000	64.790749 
2258.000000	64.785814 
2257.000000	64.781785 
2256.000000	64.778971 
2255.000000	64.777731 
2254.000000	64.778232 
2253.000000	64.780259 
2252.000000	64.783430 
2251.000000	64.787101 
2250.000000	64.790701 
2249.000000	64.793896 
2248.000000	64.796924 
2247.000000	64.800381 
2246.000000	64.805102 
2245.000000	64.811825 
2244.000000	64.821124 
2243.000000	64.832758 
2242.000000	64.846158 
2241.000000	64.860510 
2240.000000	64.875054 
2239.000000	64.889311 
2238.000000	64.903259 
2237.000000	64.917230 
2236.000000	64.931440 
2235.000000	64.945983 
2234.000000	64.960312 
2233.000000	64.973139 
2232.000000	64.982724 
2231.000000	64.987301 
2230.000000	64.985680 
2229.000000	64.977645 
2228.000000	64.964222 
2227.000000	64.947509 
2226.000000	64.930224 
2225.000000	64.914965 
2224.000000	64.903426 
2223.000000	64.895892 
2222.000000	64.891409 
2221.000000	64.887905 
2220.000000	64.882969 
2219.000000	64.874458 
2218.000000	64.861249 
2217.000000	64.843535 
2216.000000	64.822816 
2215.000000	64.801669 
2214.000000	64.782857 
2213.000000	64.769339 
2212.000000	64.762973 
2211.000000	64.764785 
2210.000000	64.774703 
2209.000000	64.791655 
2208.000000	64.813923 
2207.000000	64.839363 
2206.000000	64.865875 
2205.000000	64.891338 
2204.000000	64.913773 
2203.000000	64.931821 
2202.000000	64.944553 
2201.000000	64.951610 
2200.000000	64.953136 
2199.000000	64.949655 
2198.000000	64.942145 
2197.000000	64.931654 
2196.000000	64.919424 
2195.000000	64.906692 
2194.000000	64.894700 
2193.000000	64.884781 
2192.000000	64.877939 
2191.000000	64.875173 
2190.000000	64.876890 
2189.000000	64.883065 
2188.000000	64.892959 
2187.000000	64.905285 
2186.000000	64.918375 
2185.000000	64.930248 
2184.000000	64.939093 
2183.000000	64.943575 
2182.000000	64.943146 
2181.000000	64.938092 
2180.000000	64.929246 
2179.000000	64.917969 
2178.000000	64.905691 
2177.000000	64.893531 
2176.000000	64.882302 
2175.000000	64.872550 
2174.000000	64.864397 
2173.000000	64.857745 
2172.000000	64.852333 
2171.000000	64.847850 
2170.000000	64.844083 
2169.000000	64.840722 
2168.000000	64.837503 
2167.000000	64.834237 
2166.000000	64.830756 
2165.000000	64.827036 
2164.000000	64.822959 
2163.000000	64.818191 
2162.000000	64.812660 
2161.000000	64.806175 
2160.000000	64.798855 
2159.000000	64.790964 
2158.000000	64.782953 
2157.000000	64.775300 
2156.000000	64.768314 
2155.000000	64.762115 
2154.000000	64.756345 
2153.000000	64.750552 
2152.000000	64.744043 
2151.000000	64.736580 
2150.000000	64.728307 
2149.000000	64.719867 
2148.000000	64.712405 
2147.000000	64.707374 
2146.000000	64.706254 
2145.000000	64.710211 
2144.000000	64.719700 
2143.000000	64.734458 
2142.000000	64.753603 
2141.000000	64.775729 
2140.000000	64.799094 
2139.000000	64.822220 
2138.000000	64.843606 
2137.000000	64.862251 
2136.000000	64.877176 
2135.000000	64.887571 
2134.000000	64.892840 
2133.000000	64.892578 
2132.000000	64.886665 
2131.000000	64.875555 
2130.000000	64.860367 
2129.000000	64.842963 
2128.000000	64.825773 
2127.000000	64.811611 
2126.000000	64.803051 
2125.000000	64.802289 
2124.000000	64.810347 
2123.000000	64.826989 
2122.000000	64.850759 
2121.000000	64.879179 
2120.000000	64.909076 
2119.000000	64.937305 
2118.000000	64.961147 
2117.000000	64.978814 
2116.000000	64.989614 
2115.000000	64.993882 
2114.000000	64.992809 
2113.000000	64.988017 
2112.000000	64.981126 
2111.000000	64.973330 
2110.000000	64.965224 
2109.000000	64.956545 
2108.000000	64.946675 
2107.000000	64.934945 
2106.000000	64.920759 
2105.000000	64.904022 
2104.000000	64.885497 
2103.000000	64.866328 
2102.000000	64.848017 
2101.000000	64.832091 
2100.000000	64.819574 
2099.000000	64.810752 
2098.000000	64.805150 
2097.000000	64.801740 
2096.000000	64.799070 
2095.000000	64.795970 
2094.000000	64.791750 
2093.000000	64.786434 
2092.000000	64.780521 
2091.000000	64.774847 
2090.000000	64.770317 
2089.000000	64.767408 
2088.000000	64.766240 
2087.000000	64.766669 
2086.000000	64.768624 
2085.000000	64.772129 
2084.000000	64.777588 
2083.000000	64.785647 
2082.000000	64.796948 
2081.000000	64.811730 
2080.000000	64.829635 
2079.000000	64.849781 
2078.000000	64.870548 
2077.000000	64.890170 
2076.000000	64.906692 
2075.000000	64.918661 
2074.000000	64.925050 
2073.000000	64.925789 
2072.000000	64.921355 
2071.000000	64.912867 
2070.000000	64.901733 
2069.000000	64.889311 
2068.000000	64.876818 
2067.000000	64.865112 
2066.000000	64.854812 
2065.000000	64.846301 
2064.000000	64.839959 
2063.000000	64.836239 
2062.000000	64.835667 
2061.000000	64.838647 
2060.000000	64.845275 
2059.000000	64.855122 
2058.000000	64.867019 
2057.000000	64.879298 
2056.000000	64.889883 
2055.000000	64.896774 
2054.000000	64.898395 
2053.000000	64.893960 
2052.000000	64.884018 
2051.000000	64.870047 
2050.000000	64.854383 
2049.000000	64.839482 
2048.000000	64.827656 
2047.000000	64.820146 
2046.000000	64.817023 
2045.000000	64.817070 
2044.000000	64.818167 
2043.000000	64.817762 
2042.000000	64.813613 
2041.000000	64.804434 
2040.000000	64.790296 
2039.000000	64.772653 
2038.000000	64.754223 
2037.000000	64.738178 
2036.000000	64.727425 
2035.000000	64.724111 
2034.000000	64.729118 
2033.000000	64.741873 
2032.000000	64.760398 
2031.000000	64.781856 
2030.000000	64.803075 
2029.000000	64.821147 
2028.000000	64.833879 
2027.000000	64.839935 
2026.000000	64.839029 
2025.000000	64.831948 
2024.000000	64.820075 
2023.000000	64.805269 
2022.000000	64.789438 
2021.000000	64.774274 
2020.000000	64.760947 
2019.000000	64.750313 
2018.000000	64.742612 
2017.000000	64.737606 
2016.000000	64.734864 
2015.000000	64.733910 
2014.000000	64.734554 
2013.000000	64.736938 
2012.000000	64.741516 
2011.000000	64.748907 
2010.000000	64.759850 
2009.000000	64.774608 
2008.000000	64.792919 
2007.000000	64.813733 
2006.000000	64.835119 
2005.000000	64.854502 
2004.000000	64.869260 
2003.000000	64.877152 
2002.000000	64.876580 
2001.000000	64.867162 
2000.000000	64.849781 
1999.000000	64.826488 
1998.000000	64.800214 
1997.000000	64.774036 
1996.000000	64.750862 
1995.000000	64.732885 
1994.000000	64.721465 
1993.000000	64.716863 
1992.000000	64.718365 
1991.000000	64.724516 
1990.000000	64.733338 
1989.000000	64.742612 
1988.000000	64.750385 
1987.000000	64.755272 
1986.000000	64.756512 
1985.000000	64.754152 
1984.000000	64.749050 
1983.000000	64.742517 
1982.000000	64.736223 
1981.000000	64.731740 
1980.000000	64.730453 
1979.000000	64.733242 
1978.000000	64.740562 
1977.000000	64.752221 
1976.000000	64.767479 
1975.000000	64.785218 
1974.000000	64.804100 
1973.000000	64.822506 
1972.000000	64.838790 
1971.000000	64.851260 
1970.000000	64.858484 
1969.000000	64.859390 
1968.000000	64.853572 
1967.000000	64.841365 
1966.000000	64.823818 
1965.000000	64.802837 
1964.000000	64.780664 
1963.000000	64.759516 
1962.000000	64.741373 
1961.000000	64.727687 
1960.000000	64.719367 
1959.000000	64.716744 
1958.000000	64.719724 
1957.000000	64.727616 
1956.000000	64.739298 
1955.000000	64.753365 
1954.000000	64.767837 
1953.000000	64.780759 
1952.000000	64.790153 
1951.000000	64.794707 
1950.000000	64.793825 
1949.000000	64.787983 
1948.000000	64.778876 
1947.000000	64.769029 
1946.000000	64.761304 
1945.000000	64.758157 
1944.000000	64.761447 
1943.000000	64.771485 
1942.000000	64.787316 
1941.000000	64.806723 
1940.000000	64.826869 
1939.000000	64.844846 
1938.000000	64.858388 
1937.000000	64.866089 
1936.000000	64.867663 
1935.000000	64.863753 
1934.000000	64.855718 
1933.000000	64.845323 
1932.000000	64.834165 
1931.000000	64.823627 
1930.000000	64.814758 
1929.000000	64.808011 
1928.000000	64.803385 
1927.000000	64.800238 
1926.000000	64.797544 
1925.000000	64.794206 
1924.000000	64.788913 
1923.000000	64.780592 
1922.000000	64.768576 
1921.000000	64.752840 
1920.000000	64.734268 
1919.000000	64.714431 
1918.000000	64.695525 
1917.000000	64.679884 
1916.000000	64.669775 
1915.000000	64.666724 
1914.000000	64.671301 
1913.000000	64.682793 
1912.000000	64.699554 
1911.000000	64.719080 
1910.000000	64.738726 
1909.000000	64.756321 
1908.000000	64.770412 
1907.000000	64.780497 
1906.000000	64.786577 
1905.000000	64.789056 
1904.000000	64.788246 
1903.000000	64.784216 
1902.000000	64.776778 
1901.000000	64.765405 
1900.000000	64.749908 
1899.000000	64.730596 
1898.000000	64.708375 
1897.000000	64.684915 
1896.000000	64.662122 
1895.000000	64.642214 
1894.000000	64.626932 
1893.000000	64.617443 
1892.000000	64.613938 
1891.000000	64.615750 
1890.000000	64.621496 
1889.000000	64.629459 
1888.000000	64.637899 
1887.000000	64.645290 
1886.000000	64.650464 
1885.000000	64.652872 
1884.000000	64.652514 
1883.000000	64.649868 
1882.000000	64.645862 
1881.000000	64.641690 
1880.000000	64.638638 
1879.000000	64.638042 
1878.000000	64.641022 
1877.000000	64.648318 
1876.000000	64.660191 
1875.000000	64.676356 
1874.000000	64.695954 
1873.000000	64.717626 
1872.000000	64.739584 
1871.000000	64.759659 
1870.000000	64.775586 
1869.000000	64.785242 
1868.000000	64.787101 
1867.000000	64.780187 
1866.000000	64.764547 
1865.000000	64.741420 
1864.000000	64.713239 
1863.000000	64.683103 
1862.000000	64.654755 
1861.000000	64.631915 
1860.000000	64.617657 
1859.000000	64.613962 
1858.000000	64.621257 
1857.000000	64.638471 
1856.000000	64.663028 
1855.000000	64.691543 
1854.000000	64.720511 
1853.000000	64.746618 
1852.000000	64.767479 
1851.000000	64.781832 
1850.000000	64.789533 
1849.000000	64.791393 
1848.000000	64.788603 
1847.000000	64.782381 
1846.000000	64.773702 
1845.000000	64.763116 
1844.000000	64.751005 
1843.000000	64.737677 
1842.000000	64.723491 
1841.000000	64.709115 
1840.000000	64.695477 
1839.000000	64.683675 
1838.000000	64.674496 
1837.000000	64.668536 
1836.000000	64.665746 
1835.000000	64.665794 
1834.000000	64.667868 
1833.000000	64.671158 
1832.000000	64.674854 
1831.000000	64.678359 
1830.000000	64.681529 
1829.000000	64.684534 
1828.000000	64.687609 
1827.000000	64.690995 
1826.000000	64.694905 
1825.000000	64.699316 
1824.000000	64.704060 
1823.000000	64.708805 
1822.000000	64.713072 
1821.000000	64.716339 
1820.000000	64.718103 
1819.000000	64.717888 
1818.000000	64.715266 
1817.000000	64.709997 
1816.000000	64.701986 
1815.000000	64.691472 
1814.000000	64.679074 
1813.000000	64.665675 
1812.000000	64.652276 
1811.000000	64.639949 
1810.000000	64.629554 
1809.000000	64.621496 
1808.000000	64.615821 
1807.000000	64.611935 
1806.000000	64.609265 
1805.000000	64.607119 
1804.000000	64.605021 
1803.000000	64.602804 
1802.000000	64.600801 
1801.000000	64.599585 
1800.000000	64.599776 
1799.000000	64.601635 
1798.000000	64.605188 
1797.000000	64.610171 
1796.000000	64.615917 
1795.000000	64.621567 
1794.000000	64.626288 
1793.000000	64.629435 
1792.000000	64.630603 
1791.000000	64.629673 
1790.000000	64.626765 
1789.000000	64.622187 
1788.000000	64.616441 
1787.000000	64.610004 
1786.000000	64.603447 
1785.000000	64.597439 
1784.000000	64.592695 
1783.000000	64.589977 
1782.000000	64.589571 
1781.000000	64.591574 
1780.000000	64.595508 
1779.000000	64.600348 
1778.000000	64.604830 
1777.000000	64.607429 
1776.000000	64.606857 
1775.000000	64.602041 
1774.000000	64.592361 
1773.000000	64.577889 
1772.000000	64.559221 
1771.000000	64.537501 
1770.000000	64.514183 
1769.000000	64.491033 
1768.000000	64.469647 
1767.000000	64.451408 
1766.000000	64.437389 
1765.000000	64.428019 
1764.000000	64.423346 
1763.000000	64.423036 
1762.000000	64.426565 
1761.000000	64.433145 
1760.000000	64.442062 
1759.000000	64.452338 
1758.000000	64.463233 
1757.000000	64.473867 
1756.000000	64.483332 
1755.000000	64.490723 
1754.000000	64.495277 
1753.000000	64.496588 
1752.000000	64.494729 
1751.000000	64.490175 
1750.000000	64.483714 
1749.000000	64.476752 
1748.000000	64.470267 
1747.000000	64.464902 
1746.000000	64.460468 
1745.000000	64.456129 
1744.000000	64.450526 
1743.000000	64.442133 
1742.000000	64.429807 
1741.000000	64.413237 
1740.000000	64.392948 
1739.000000	64.370441 
1738.000000	64.347815 
1737.000000	64.327430 
1736.000000	64.311242 
1735.000000	64.300513 
1734.000000	64.295625 
1733.000000	64.296150 
1732.000000	64.300990 
1731.000000	64.309024 
1730.000000	64.319038 
1729.000000	64.330458 
1728.000000	64.343285 
1727.000000	64.358139 
1726.000000	64.375615 
1725.000000	64.396405 
1724.000000	64.420652 
1723.000000	64.447975 
1722.000000	64.477109 
1721.000000	64.506149 
1720.000000	64.532518 
1719.000000	64.553713 
1718.000000	64.567804 
1717.000000	64.573812 
1716.000000	64.571976 
1715.000000	64.563870 
1714.000000	64.552259 
1713.000000	64.540338 
1712.000000	64.531278 
1711.000000	64.527511 
1710.000000	64.530253 
1709.000000	64.539337 
1708.000000	64.553332 
1707.000000	64.569997 
1706.000000	64.586687 
1705.000000	64.600992 
1704.000000	64.610981 
1703.000000	64.615559 
1702.000000	64.614653 
1701.000000	64.608740 
1700.000000	64.599061 
1699.000000	64.586949 
1698.000000	64.574074 
1697.000000	64.562177 
1696.000000	64.553117 
1695.000000	64.548444 
1694.000000	64.549279 
1693.000000	64.556312 
1692.000000	64.569234 
1691.000000	64.586758 
1690.000000	64.606738 
1689.000000	64.626550 
1688.000000	64.643478 
1687.000000	64.655065 
1686.000000	64.659714 
1685.000000	64.657092 
1684.000000	64.648079 
1683.000000	64.634585 
1682.000000	64.619183 
1681.000000	64.604568 
1680.000000	64.593100 
1679.000000	64.586400 
1678.000000	64.585137 
1677.000000	64.588761 
1676.000000	64.596128 
1675.000000	64.605355 
1674.000000	64.614343 
1673.000000	64.621210 
1672.000000	64.624357 
1671.000000	64.622926 
1670.000000	64.616727 
1669.000000	64.605998 
1668.000000	64.591622 
1667.000000	64.574503 
1666.000000	64.555454 
1665.000000	64.535045 
1664.000000	64.513468 
1663.000000	64.490890 
1662.000000	64.467525 
1661.000000	64.443898 
1660.000000	64.421057 
1659.000000	64.400482 
1658.000000	64.384055 
1657.000000	64.373493 
1656.000000	64.370012 
1655.000000	64.373874 
1654.000000	64.384388 
1653.000000	64.399600 
1652.000000	64.416933 
1651.000000	64.433383 
1650.000000	64.446568 
1649.000000	64.454865 
1648.000000	64.457964 
1647.000000	64.456653 
1646.000000	64.452767 
1645.000000	64.448451 
1644.000000	64.445829 
1643.000000	64.446306 
1642.000000	64.450430 
1641.000000	64.457726 
1640.000000	64.466905 
1639.000000	64.476180 
1638.000000	64.483761 
1637.000000	64.488387 
1636.000000	64.489436 
1635.000000	64.486837 
1634.000000	64.481306 
1633.000000	64.473819 
1632.000000	64.465260 
1631.000000	64.456248 
1630.000000	64.447045 
1629.000000	64.437460 
1628.000000	64.426875 
1627.000000	64.414596 
1626.000000	64.400196 
1625.000000	64.383649 
1624.000000	64.365410 
1623.000000	64.346551 
1622.000000	64.328336 
1621.000000	64.312243 
1620.000000	64.299559 
1619.000000	64.291238 
1618.000000	64.287471 
1617.000000	64.288187 
1616.000000	64.292955 
1615.000000	64.301276 
1614.000000	64.312601 
1613.000000	64.326548 
1612.000000	64.342856 
1611.000000	64.361310 
1610.000000	64.381480 
1609.000000	64.402627 
1608.000000	64.423680 
1607.000000	64.443278 
1606.000000	64.459919 
1605.000000	64.472508 
1604.000000	64.480328 
1603.000000	64.483571 
1602.000000	64.482975 
1601.000000	64.479637 
1600.000000	64.474558 
1599.000000	64.468693 
1598.000000	64.462590 
1597.000000	64.456439 
1596.000000	64.450001 
1595.000000	64.443421 
1594.000000	64.436578 
1593.000000	64.429450 
1592.000000	64.421749 
1591.000000	64.413380 
1590.000000	64.403891 
1589.000000	64.392924 
1588.000000	64.380168 
1587.000000	64.365530 
1586.000000	64.349150 
1585.000000	64.331340 
1584.000000	64.312577 
1583.000000	64.293384 
1582.000000	64.274287 
1581.000000	64.256072 
1580.000000	64.239406 
1579.000000	64.224982 
1578.000000	64.213562 
1577.000000	64.205956 
1576.000000	64.202690 
1575.000000	64.204239 
1574.000000	64.210796 
1573.000000	64.222550 
1572.000000	64.239168 
1571.000000	64.260268 
1570.000000	64.285016 
1569.000000	64.312553 
1568.000000	64.341664 
1567.000000	64.370846 
1566.000000	64.398503 
1565.000000	64.422798 
1564.000000	64.442014 
1563.000000	64.454579 
1562.000000	64.459443 
1561.000000	64.456176 
1560.000000	64.445185 
1559.000000	64.427947 
1558.000000	64.406538 
1557.000000	64.383578 
1556.000000	64.362025 
1555.000000	64.344239 
1554.000000	64.331984 
1553.000000	64.326119 
1552.000000	64.326524 
1551.000000	64.332365 
1550.000000	64.342260 
1549.000000	64.354705 
1548.000000	64.368271 
1547.000000	64.381456 
1546.000000	64.392971 
1545.000000	64.401555 
1544.000000	64.406299 
1543.000000	64.406633 
1542.000000	64.402699 
1541.000000	64.395284 
1540.000000	64.385652 
1539.000000	64.375591 
1538.000000	64.366650 
1537.000000	64.360117 
1536.000000	64.356565 
1535.000000	64.356064 
1534.000000	64.357995 
1533.000000	64.361262 
1532.000000	64.364457 
1531.000000	64.366436 
1530.000000	64.366340 
1529.000000	64.363718 
1528.000000	64.358735 
1527.000000	64.352250 
1526.000000	64.345526 
1525.000000	64.340043 
1524.000000	64.337182 
1523.000000	64.337825 
1522.000000	64.342355 
1521.000000	64.350509 
1520.000000	64.361524 
1519.000000	64.374184 
1518.000000	64.387226 
1517.000000	64.399528 
1516.000000	64.410471 
1515.000000	64.419770 
1514.000000	64.427900 
1513.000000	64.435291 
1512.000000	64.442491 
1511.000000	64.449667 
1510.000000	64.456582 
1509.000000	64.462447 
1508.000000	64.466166 
1507.000000	64.466309 
1506.000000	64.461779 
1505.000000	64.451551 
1504.000000	64.435148 
1503.000000	64.412617 
1502.000000	64.384794 
1501.000000	64.353442 
1500.000000	64.321160 
1499.000000	64.291095 
1498.000000	64.266490 
1497.000000	64.250230 
1496.000000	64.244270 
1495.000000	64.249062 
1494.000000	64.263749 
1493.000000	64.286208 
1492.000000	64.313650 
1491.000000	64.343070 
1490.000000	64.371728 
1489.000000	64.397573 
1488.000000	64.419126 
1487.000000	64.435577 
1486.000000	64.446568 
1485.000000	64.452099 
1484.000000	64.452362 
1483.000000	64.447784 
1482.000000	64.438819 
1481.000000	64.426302 
1480.000000	64.411020 
1479.000000	64.394235 
1478.000000	64.376854 
1477.000000	64.359831 
1476.000000	64.343643 
1475.000000	64.328503 
1474.000000	64.314126 
1473.000000	64.300107 
1472.000000	64.285969 
1471.000000	64.271736 
1470.000000	64.257788 
1469.000000	64.244985 
1468.000000	64.234519 
1467.000000	64.227771 
1466.000000	64.226007 
1465.000000	64.230036 
1464.000000	64.239907 
1463.000000	64.255046 
1462.000000	64.274263 
1461.000000	64.296030 
1460.000000	64.318561 
1459.000000	64.340186 
1458.000000	64.359664 
1457.000000	64.376306 
1456.000000	64.389801 
1455.000000	64.400291 
1454.000000	64.408111 
1453.000000	64.413833 
1452.000000	64.417910 
1451.000000	64.420771 
1450.000000	64.422726 
1449.000000	64.424037 
1448.000000	64.424991 
1447.000000	64.425897 
1446.000000	64.427089 
1445.000000	64.428782 
1444.000000	64.430952 
1443.000000	64.433073 
1442.000000	64.433956 
1441.000000	64.432120 
1440.000000	64.425778 
1439.000000	64.413166 
1438.000000	64.393091 
1437.000000	64.365339 
1436.000000	64.330959 
1435.000000	64.292049 
1434.000000	64.251852 
1433.000000	64.213848 
1432.000000	64.181590 
1431.000000	64.157795 
1430.000000	64.144468 
1429.000000	64.141893 
1428.000000	64.149165 
1427.000000	64.164423 
1426.000000	64.185190 
1425.000000	64.208507 
1424.000000	64.231729 
1423.000000	64.252638 
1422.000000	64.269900 
1421.000000	64.282584 
1420.000000	64.290785 
1419.000000	64.295172 
1418.000000	64.296984 
1417.000000	64.297795 
1416.000000	64.299297 
1415.000000	64.302992 
1414.000000	64.310073 
1413.000000	64.320898 
1412.000000	64.335155 
1411.000000	64.351487 
1410.000000	64.368057 
1409.000000	64.382481 
1408.000000	64.392423 
1407.000000	64.395785 
1406.000000	64.391422 
1405.000000	64.379143 
1404.000000	64.359831 
1403.000000	64.335036 
1402.000000	64.307212 
1401.000000	64.278602 
1400.000000	64.251208 
1399.000000	64.226365 
1398.000000	64.204883 
1397.000000	64.186978 
1396.000000	64.172887 
1395.000000	64.162850 
1394.000000	64.157152 
1393.000000	64.156460 
1392.000000	64.161467 
1391.000000	64.172530 
1390.000000	64.189195 
1389.000000	64.210295 
1388.000000	64.233922 
1387.000000	64.257597 
1386.000000	64.278817 
1385.000000	64.295506 
1384.000000	64.306473 
1383.000000	64.311528 
1382.000000	64.311575 
1381.000000	64.308309 
1380.000000	64.303827 
1379.000000	64.300203 
1378.000000	64.299178 
1377.000000	64.301753 
1376.000000	64.308214 
1375.000000	64.318227 
1374.000000	64.330649 
1373.000000	64.344000 
1372.000000	64.356160 
1371.000000	64.365148 
1370.000000	64.368963 
1369.000000	64.365911 
1368.000000	64.355039 
1367.000000	64.336395 
1366.000000	64.311242 
1365.000000	64.281773 
1364.000000	64.251136 
1363.000000	64.222788 
1362.000000	64.199733 
1361.000000	64.184045 
1360.000000	64.176464 
1359.000000	64.176177 
1358.000000	64.181089 
1357.000000	64.188361 
1356.000000	64.195108 
1355.000000	64.199090 
1354.000000	64.199161 
1353.000000	64.195632 
1352.000000	64.189767 
1351.000000	64.183592 
1350.000000	64.178943 
1349.000000	64.177393 
1348.000000	64.179515 
1347.000000	64.184880 
1346.000000	64.192366 
1345.000000	64.200377 
1344.000000	64.207315 
1343.000000	64.211988 
1342.000000	64.213728 
1341.000000	64.212489 
1340.000000	64.208602 
1339.000000	64.202833 
1338.000000	64.196133 
1337.000000	64.189648 
1336.000000	64.184546 
1335.000000	64.182019 
1334.000000	64.183044 
1333.000000	64.188289 
1332.000000	64.198064 
1331.000000	64.211988 
1330.000000	64.228963 
1329.000000	64.247298 
1328.000000	64.265060 
1327.000000	64.280295 
1326.000000	64.291548 
1325.000000	64.298295 
1324.000000	64.300775 
1323.000000	64.299988 
1322.000000	64.297485 
1321.000000	64.294815 
1320.000000	64.293026 
1319.000000	64.292430 
1318.000000	64.292359 
1317.000000	64.291763 
1316.000000	64.289426 
1315.000000	64.284491 
1314.000000	64.277005 
1313.000000	64.267826 
1312.000000	64.258718 
1311.000000	64.251875 
1310.000000	64.249157 
1309.000000	64.251613 
1308.000000	64.259004 
1307.000000	64.269852 
1306.000000	64.281606 
1305.000000	64.291214 
1304.000000	64.295911 
1303.000000	64.293956 
1302.000000	64.284801 
1301.000000	64.269495 
1300.000000	64.250254 
1299.000000	64.230203 
1298.000000	64.212298 
1297.000000	64.199328 
1296.000000	64.193224 
1295.000000	64.194869 
1294.000000	64.204144 
1293.000000	64.219832 
1292.000000	64.240288 
1291.000000	64.263010 
1290.000000	64.285445 
1289.000000	64.305019 
1288.000000	64.319324 
1287.000000	64.326786 
1286.000000	64.326643 
1285.000000	64.319157 
1284.000000	64.305567 
1283.000000	64.287972 
1282.000000	64.268875 
1281.000000	64.250612 
1280.000000	64.234900 
1279.000000	64.222574 
1278.000000	64.213371 
1277.000000	64.206194 
1276.000000	64.199447 
1275.000000	64.191794 
1274.000000	64.182329 
1273.000000	64.170861 
1272.000000	64.157891 
1271.000000	64.144444 
1270.000000	64.131712 
1269.000000	64.120483 
1268.000000	64.111089 
1267.000000	64.103198 
1266.000000	64.096069 
1265.000000	64.088702 
1264.000000	64.080476 
1263.000000	64.071226 
1262.000000	64.061737 
1261.000000	64.053440 
1260.000000	64.048099 
1259.000000	64.047265 
1258.000000	64.052009 
1257.000000	64.062452 
1256.000000	64.077568 
1255.000000	64.095234 
1254.000000	64.112758 
1253.000000	64.127492 
1252.000000	64.137339 
1251.000000	64.141535 
1250.000000	64.140534 
1249.000000	64.136123 
1248.000000	64.131045 
1247.000000	64.128232 
1246.000000	64.129805 
1245.000000	64.136695 
1244.000000	64.148497 
1243.000000	64.163231 
1242.000000	64.178085 
1241.000000	64.189934 
1240.000000	64.196348 
1239.000000	64.196181 
1238.000000	64.189934 
1237.000000	64.179348 
1236.000000	64.167165 
1235.000000	64.156174 
1234.000000	64.148569 
1233.000000	64.145255 
1232.000000	64.145731 
1231.000000	64.148592 
1230.000000	64.152050 
1229.000000	64.154648 
1228.000000	64.155578 
1227.000000	64.155054 
1226.000000	64.154076 
1225.000000	64.153885 
1224.000000	64.155650 
1223.000000	64.160060 
1222.000000	64.167141 
1221.000000	64.176249 
1220.000000	64.186310 
1219.000000	64.196324 
1218.000000	64.205384 
1217.000000	64.212918 
1216.000000	64.218497 
1215.000000	64.221763 
1214.000000	64.222145 
1213.000000	64.219045 
1212.000000	64.211893 
1211.000000	64.200329 
1210.000000	64.184522 
1209.000000	64.165329 
1208.000000	64.143896 
1207.000000	64.121770 
1206.000000	64.100146 
1205.000000	64.079737 
1204.000000	64.060688 
1203.000000	64.042735 
1202.000000	64.025425 
1201.000000	64.008617 
1200.000000	63.992643 
1199.000000	63.978433 
1198.000000	63.967156 
1197.000000	63.960099 
1196.000000	63.957881 
1195.000000	63.960313 
1194.000000	63.966155 
1193.000000	63.973450 
1192.000000	63.979983 
1191.000000	63.983917 
1190.000000	63.984346 
1189.000000	63.981556 
1188.000000	63.976812 
1187.000000	63.972306 
1186.000000	63.970041 
1185.000000	63.971590 
1184.000000	63.977384 
1183.000000	63.986754 
1182.000000	63.998079 
1181.000000	64.009046 
1180.000000	64.017391 
1179.000000	64.021277 
1178.000000	64.019894 
1177.000000	64.013528 
1176.000000	64.003205 
1175.000000	63.990616 
1174.000000	63.977813 
1173.000000	63.966512 
1172.000000	63.958024 
1171.000000	63.953232 
1170.000000	63.952398 
1169.000000	63.955283 
1168.000000	63.961482 
1167.000000	63.970112 
1166.000000	63.980293 
1165.000000	63.991093 
1164.000000	64.001560 
1163.000000	64.010882 
1162.000000	64.018416 
1161.000000	64.023828 
1160.000000	64.027309 
1159.000000	64.029264 
1158.000000	64.030551 
1157.000000	64.032340 
1156.000000	64.035797 
1155.000000	64.042019 
1154.000000	64.051389 
1153.000000	64.063692 
1152.000000	64.077830 
1151.000000	64.092206 
1150.000000	64.104819 
1149.000000	64.113688 
1148.000000	64.117193 
1147.000000	64.114475 
1146.000000	64.105057 
1145.000000	64.088940 
1144.000000	64.066410 
1143.000000	64.038109 
1142.000000	64.004993 
1141.000000	63.968276 
1140.000000	63.929629 
1139.000000	63.891053 
1138.000000	63.854479 
1137.000000	63.821554 
1136.000000	63.793420 
1135.000000	63.770604 
1134.000000	63.753104 
1133.000000	63.740682 
1132.000000	63.732576 
1131.000000	63.728237 
1130.000000	63.727092 
1129.000000	63.729071 
1128.000000	63.733744 
1127.000000	63.741469 
1126.000000	63.752818 
1125.000000	63.768744 
1124.000000	63.789916 
1123.000000	63.816809 
1122.000000	63.848972 
1121.000000	63.885045 
1120.000000	63.922762 
1119.000000	63.959312 
1118.000000	63.991761 
1117.000000	64.017820 
1116.000000	64.035773 
1115.000000	64.044809 
1114.000000	64.045023 
1113.000000	64.037513 
1112.000000	64.024162 
1111.000000	64.007711 
1110.000000	63.990974 
1109.000000	63.977360 
1108.000000	63.969230 
1107.000000	63.967680 
1106.000000	63.972067 
1105.000000	63.980174 
1104.000000	63.988661 
1103.000000	63.993859 
1102.000000	63.993000 
1101.000000	63.984990 
1100.000000	63.970613 
1099.000000	63.952422 
1098.000000	63.934206 
1097.000000	63.919854 
1096.000000	63.912510 
1095.000000	63.913822 
1094.000000	63.923573 
1093.000000	63.939738 
1092.000000	63.959217 
1091.000000	63.978624 
1090.000000	63.994932 
1089.000000	64.006161 
1088.000000	64.011883 
1087.000000	64.012885 
1086.000000	64.010715 
1085.000000	64.007067 
1084.000000	64.003491 
1083.000000	64.000582 
1082.000000	63.998150 
1081.000000	63.995242 
1080.000000	63.990426 
1079.000000	63.982319 
1078.000000	63.970255 
1077.000000	63.954591 
1076.000000	63.936543 
1075.000000	63.918447 
1074.000000	63.902997 
1073.000000	63.893008 
1072.000000	63.890552 
1071.000000	63.896656 
1070.000000	63.910889 
1069.000000	63.931465 
1068.000000	63.955760 
1067.000000	63.980507 
1066.000000	64.002585 
1065.000000	64.019441 
1064.000000	64.029455 
1063.000000	64.032149 
1062.000000	64.028215 
1061.000000	64.019036 
1060.000000	64.006567 
1059.000000	63.992786 
1058.000000	63.979458 
1057.000000	63.968300 
1056.000000	63.960623 
1055.000000	63.957452 
1054.000000	63.959431 
1053.000000	63.966655 
1052.000000	63.978528 
1051.000000	63.994097 
1050.000000	64.011645 
1049.000000	64.029026 
1048.000000	64.043855 
1047.000000	64.053988 
1046.000000	64.057612 
1045.000000	64.053559 
1044.000000	64.041543 
1043.000000	64.022421 
1042.000000	63.998174 
1041.000000	63.971638 
1040.000000	63.946294 
1039.000000	63.925647 
1038.000000	63.912558 
1037.000000	63.908815 
1036.000000	63.914608 
1035.000000	63.928508 
1034.000000	63.947820 
1033.000000	63.969182 
1032.000000	63.989043 
1031.000000	64.004778 
1030.000000	64.014792 
1029.000000	64.019203 
1028.000000	64.019203 
1027.000000	64.017367 
1026.000000	64.016175 
1025.000000	64.018249 
1024.000000	64.025235 
1023.000000	64.037656 
1022.000000	64.054846 
1021.000000	64.075136 
1020.000000	64.096379 
1019.000000	64.116024 
1018.000000	64.131879 
1017.000000	64.142394 
1016.000000	64.146614 
1015.000000	64.144659 
1014.000000	64.137649 
1013.000000	64.127540 
1012.000000	64.116621 
1011.000000	64.107131 
1010.000000	64.100837 
1009.000000	64.098811 
1008.000000	64.101195 
1007.000000	64.107346 
1006.000000	64.115905 
1005.000000	64.125204 
1004.000000	64.133715 
1003.000000	64.140295 
1002.000000	64.144372 
1001.000000	64.145779 
1000.000000	64.144992 
999.000000	 64.142751 
998.000000	 64.139986 
997.000000	 64.137268 
996.000000	 64.134812 
995.000000	 64.132213 
994.000000	 64.128494 
993.000000	 64.122509 
992.000000	 64.113044 
991.000000	 64.099407 
990.000000	 64.081621 
989.000000	 64.060616 
988.000000	 64.038515 
987.000000	 64.018177 
986.000000	 64.002847 
985.000000	 63.995289 
984.000000	 63.997244 
983.000000	 64.008927 
982.000000	 64.028787 
981.000000	 64.053773 
980.000000	 64.079785 
979.000000	 64.102315 
978.000000	 64.117550 
977.000000	 64.122819 
976.000000	 64.117050 
975.000000	 64.100813 
974.000000	 64.076089 
973.000000	 64.045929 
972.000000	 64.013409 
971.000000	 63.981509 
970.000000	 63.952779 
969.000000	 63.928866 
968.000000	 63.910722 
967.000000	 63.898611 
966.000000	 63.892340 
965.000000	 63.891029 
964.000000	 63.893198 
963.000000	 63.897037 
962.000000	 63.900542 
961.000000	 63.902115 
960.000000	 63.900780 
959.000000	 63.896727 
958.000000	 63.891053 
957.000000	 63.885712 
956.000000	 63.882756 
955.000000	 63.884019 
954.000000	 63.890457 
953.000000	 63.901495 
952.000000	 63.915514 
951.000000	 63.930177 
950.000000	 63.943266 
949.000000	 63.953208 
948.000000	 63.959717 
947.000000	 63.963913 
946.000000	 63.968110 
945.000000	 63.974928 
944.000000	 63.986754 
943.000000	 64.004850 
942.000000	 64.028978 
941.000000	 64.057517 
940.000000	 64.087653 
939.000000	 64.116430 
938.000000	 64.140772 
937.000000	 64.158248 
936.000000	 64.167261 
935.000000	 64.167428 
934.000000	 64.159178 
933.000000	 64.143776 
932.000000	 64.123010 
931.000000	 64.099287 
930.000000	 64.075374 
929.000000	 64.054083 
928.000000	 64.038395 
927.000000	 64.030814 
926.000000	 64.033007 
925.000000	 64.045572 
924.000000	 64.067721 
923.000000	 64.097309 
922.000000	 64.131069 
921.000000	 64.165139 
920.000000	 64.195346 
919.000000	 64.218211 
918.000000	 64.231395 
917.000000	 64.234042 
916.000000	 64.226698 
915.000000	 64.211320 
914.000000	 64.190888 
913.000000	 64.168834 
912.000000	 64.148426 
911.000000	 64.132094 
910.000000	 64.121341 
909.000000	 64.116024 
908.000000	 64.114952 
907.000000	 64.115929 
906.000000	 64.116477 
905.000000	 64.114356 
904.000000	 64.108252 
903.000000	 64.098477 
902.000000	 64.086866 
901.000000	 64.076519 
900.000000	 64.070940 
899.000000	 64.072847 
898.000000	 64.083313 
897.000000	 64.101314 
896.000000	 64.123582 
895.000000	 64.145374 
894.000000	 64.161348 
893.000000	 64.166998 
892.000000	 64.159631 
891.000000	 64.139127 
890.000000	 64.107942 
889.000000	 64.070200 
888.000000	 64.031076 
887.000000	 63.995695 
886.000000	 63.968062 
885.000000	 63.950490 
884.000000	 63.943433 
883.000000	 63.945770 
882.000000	 63.954997 
881.000000	 63.968229 
880.000000	 63.982200 
879.000000	 63.993978 
878.000000	 64.001035 
877.000000	 64.001727 
876.000000	 63.995623 
875.000000	 63.983488 
874.000000	 63.967633 
873.000000	 63.951230 
872.000000	 63.937878 
871.000000	 63.930487 
870.000000	 63.930988 
869.000000	 63.939380 
868.000000	 63.953590 
867.000000	 63.970017 
866.000000	 63.984227 
865.000000	 63.992547 
864.000000	 63.992619 
863.000000	 63.984584 
862.000000	 63.970756 
861.000000	 63.955211 
860.000000	 63.942909 
859.000000	 63.937973 
858.000000	 63.942742 
857.000000	 63.956546 
856.000000	 63.976168 
855.000000	 63.996291 
854.000000	 64.011073 
853.000000	 64.015579 
852.000000	 64.007186 
851.000000	 63.986277 
850.000000	 63.956165 
849.000000	 63.922524 
848.000000	 63.892245 
847.000000	 63.871669 
846.000000	 63.865470 
845.000000	 63.876008 
844.000000	 63.902926 
843.000000	 63.943743 
842.000000	 63.994026 
841.000000	 64.048743 
840.000000	 64.102315 
839.000000	 64.149689 
838.000000	 64.186739 
837.000000	 64.210033 
836.000000	 64.217472 
835.000000	 64.208340 
834.000000	 64.183664 
833.000000	 64.146161 
832.000000	 64.100098 
831.000000	 64.050889 
830.000000	 64.003920 
829.000000	 63.963890 
828.000000	 63.933515 
827.000000	 63.913536 
826.000000	 63.902425 
825.000000	 63.897156 
824.000000	 63.893938 
823.000000	 63.889241 
822.000000	 63.880634 
821.000000	 63.867425 
820.000000	 63.850307 
819.000000	 63.831353 
818.000000	 63.812947 
817.000000	 63.797640 
816.000000	 63.787436 
815.000000	 63.784074 
814.000000	 63.788414 
813.000000	 63.801002 
812.000000	 63.822054 
811.000000	 63.851308 
810.000000	 63.888192 
809.000000	 63.931274 
808.000000	 63.977909 
807.000000	 64.024615 
806.000000	 64.067387 
805.000000	 64.102339 
804.000000	 64.126300 
803.000000	 64.137482 
802.000000	 64.136123 
801.000000	 64.123964 
800.000000	 64.104223 
799.000000	 64.080548 
798.000000	 64.056372 
797.000000	 64.034390 
796.000000	 64.016342 
795.000000	 64.003157 
794.000000	 63.995218 
793.000000	 63.993096 
792.000000	 63.997507 
791.000000	 64.009499 
790.000000	 64.030027 
789.000000	 64.059185 
788.000000	 64.095830 
787.000000	 64.137220 
786.000000	 64.179229 
785.000000	 64.216685 
784.000000	 64.244580 
783.000000	 64.259505 
782.000000	 64.259791 
781.000000	 64.246368 
780.000000	 64.221572 
779.000000	 64.189076 
778.000000	 64.151954 
777.000000	 64.112734 
776.000000	 64.072394 
775.000000	 64.031004 
774.000000	 63.988137 
773.000000	 63.943648 
772.000000	 63.898205 
771.000000	 63.853549 
770.000000	 63.812232 
769.000000	 63.777303 
768.000000	 63.751912 
767.000000	 63.738203 
766.000000	 63.737225 
765.000000	 63.748002 
764.000000	 63.768100 
763.000000	 63.793349 
762.000000	 63.818287 
761.000000	 63.836812 
760.000000	 63.843202 
759.000000	 63.833045 
758.000000	 63.803482 
757.000000	 63.754892 
756.000000	 63.690710 
755.000000	 63.617658 
754.000000	 63.544321 
753.000000	 63.480138 
752.000000	 63.433456 
751.000000	 63.409948 
750.000000	 63.411664 
749.000000	 63.436913 
748.000000	 63.480615 
747.000000	 63.535904 
746.000000	 63.595414 
745.000000	 63.652586 
744.000000	 63.702416 
743.000000	 63.741993 
742.000000	 63.769960 
741.000000	 63.786029 
740.000000	 63.790225 
739.000000	 63.782715 
738.000000	 63.763642 
737.000000	 63.733482 
736.000000	 63.692975 
735.000000	 63.644313 
734.000000	 63.590431 
733.000000	 63.535356 
732.000000	 63.483190 
731.000000	 63.437581 
730.000000	 63.401365 
729.000000	 63.376092 
728.000000	 63.362383 
727.000000	 63.359689 
726.000000	 63.366794 
725.000000	 63.381862 
724.000000	 63.402915 
723.000000	 63.427925 
722.000000	 63.454437 
721.000000	 63.479232 
720.000000	 63.499236 
719.000000	 63.511872 
718.000000	 63.515567 
717.000000	 63.509869 
716.000000	 63.496065 
715.000000	 63.476991 
714.000000	 63.456416 
713.000000	 63.437962 
712.000000	 63.424468 
711.000000	 63.417100 
710.000000	 63.415265 
709.000000	 63.416790 
708.000000	 63.418555 
707.000000	 63.417577 
706.000000	 63.411736 
705.000000	 63.400506 
704.000000	 63.384628 
703.000000	 63.366174 
702.000000	 63.347530 
701.000000	 63.331747 
700.000000	 63.321065 
699.000000	 63.317966 
698.000000	 63.324427 
697.000000	 63.342761 
696.000000	 63.374757 
695.000000	 63.421845 
694.000000	 63.484048 
693.000000	 63.559699 
692.000000	 63.644790 
691.000000	 63.734006 
690.000000	 63.821363 
689.000000	 63.901662 
688.000000	 63.970994 
687.000000	 64.027667 
686.000000	 64.071846 
685.000000	 64.105415 
684.000000	 64.130496 
683.000000	 64.148736 
682.000000	 64.159846 
681.000000	 64.162397 
680.000000	 64.153337 
679.000000	 64.129233 
678.000000	 64.087128 
677.000000	 64.026618 
676.000000	 63.950395 
675.000000	 63.864398 
674.000000	 63.777065 
673.000000	 63.698363 
672.000000	 63.636946 
671.000000	 63.598322 
670.000000	 63.583517 
669.000000	 63.589072 
668.000000	 63.607907 
667.000000	 63.630938 
666.000000	 63.649940 
665.000000	 63.659119 
664.000000	 63.656449 
663.000000	 63.643503 
662.000000	 63.625073 
661.000000	 63.607215 
660.000000	 63.596320 
659.000000	 63.597035 
658.000000	 63.611412 
657.000000	 63.638162 
656.000000	 63.673472 
655.000000	 63.712000 
654.000000	 63.747549 
653.000000	 63.775229 
652.000000	 63.792300 
651.000000	 63.799595 
650.000000	 63.799858 
649.000000	 63.798594 
648.000000	 63.802909 
647.000000	 63.819479 
646.000000	 63.852620 
645.000000	 63.903474 
644.000000	 63.969445 
643.000000	 64.045357 
642.000000	 64.124321 
641.000000	 64.200353 
640.000000	 64.269566 
639.000000	 64.331865 
638.000000	 64.390707 
637.000000	 64.451050 
636.000000	 64.516997 
635.000000	 64.589929 
634.000000	 64.667391 
633.000000	 64.743280 
632.000000	 64.808845 
631.000000	 64.856147 
630.000000	 64.879584 
629.000000	 64.877820 
628.000000	 64.852523 
627.000000	 64.809226 
626.000000	 64.752888 
625.000000	 64.686822 
624.000000	 64.609718 
623.000000	 64.516520 
622.000000	 64.399957 
621.000000	 64.254021 
620.000000	 64.077472 
619.000000	 63.875436 
618.000000	 63.661408 
617.000000	 63.455009 
616.000000	 63.279414 
615.000000	 63.155102 
614.000000	 63.097310 
613.000000	 63.111829 
612.000000	 63.194441 
611.000000	 63.330817 
610.000000	 63.501405 
609.000000	 63.685035 
608.000000	 63.862729 
607.000000	 64.020252 
606.000000	 64.150905 
605.000000	 64.254760 
604.000000	 64.336633 
603.000000	 64.403033 
602.000000	 64.460444 
601.000000	 64.511871 
600.000000	 64.557838 
599.000000	 64.594268 
598.000000	 64.615750 
597.000000	 64.615201 
596.000000	 64.588499 
595.000000	 64.533782 
594.000000	 64.452719 
593.000000	 64.350676 
592.000000	 64.236855 
591.000000	 64.122152 
590.000000	 64.017271 
589.000000	 63.931012 
588.000000	 63.869714 
587.000000	 63.834881 
586.000000	 63.823008 
585.000000	 63.826727 
584.000000	 63.836932 
583.000000	 63.844108 
582.000000	 63.840413 
581.000000	 63.821578 
580.000000	 63.787508 
579.000000	 63.742136 
578.000000	 63.692045 
577.000000	 63.643407 
576.000000	 63.600397 
575.000000	 63.565182 
574.000000	 63.538050 
573.000000	 63.516545 
572.000000	 63.498044 
571.000000	 63.481688 
570.000000	 63.469552 
569.000000	 63.465809 
568.000000	 63.476133 
567.000000	 63.505196 
566.000000	 63.555312 
565.000000	 63.624358 
564.000000	 63.706469 
563.000000	 63.791990 
562.000000	 63.871240 
561.000000	 63.936448 
560.000000	 63.984632 
559.000000	 64.017653 
558.000000	 64.042592 
557.000000	 64.069581 
556.000000	 64.107632 
555.000000	 64.161205 
554.000000	 64.228415 
553.000000	 64.300537 
552.000000	 64.363598 
551.000000	 64.401435 
550.000000	 64.399766 
549.000000	 64.349722 
548.000000	 64.249849 
547.000000	 64.107060 
546.000000	 63.934636 
545.000000	 63.750839 
544.000000	 63.575625 
543.000000	 63.427543 
542.000000	 63.321280 
541.000000	 63.265037 
540.000000	 63.260149 
539.000000	 63.301348 
538.000000	 63.377571 
537.000000	 63.475370 
536.000000	 63.580584 
535.000000	 63.682031 
534.000000	 63.771438 
533.000000	 63.845562 
532.000000	 63.904404 
531.000000	 63.950967 
530.000000	 63.988733 
529.000000	 64.021086 
528.000000	 64.049959 
527.000000	 64.075207 
526.000000	 64.094686 
525.000000	 64.104843 
524.000000	 64.101529 
523.000000	 64.081382 
522.000000	 64.042329 
521.000000	 63.984131 
520.000000	 63.908767 
519.000000	 63.819956 
518.000000	 63.723421 
517.000000	 63.626194 
516.000000	 63.535928 
515.000000	 63.460087 
514.000000	 63.404798 
513.000000	 63.372349 
512.000000	 63.363003 
511.000000	 63.374209 
510.000000	 63.402938 
509.000000	 63.445258 
508.000000	 63.498425 
507.000000	 63.560867 
506.000000	 63.631105 
505.000000	 63.706564 
504.000000	 63.782620 
503.000000	 63.851809 
502.000000	 63.905572 
501.000000	 63.935804 
500.000000	 63.937187 
499.000000	 63.908529 
498.000000	 63.854575 
497.000000	 63.784909 
496.000000	 63.711357 
495.000000	 63.645005 
494.000000	 63.593626 
493.000000	 63.560080 
492.000000	 63.541078 
491.000000	 63.530111 
490.000000	 63.520383 
489.000000	 63.508439 
488.000000	 63.495182 
487.000000	 63.486838 
486.000000	 63.492941 
485.000000	 63.523697 
484.000000	 63.585376 
483.000000	 63.678956 
482.000000	 63.797879 
481.000000	 63.930130 
480.000000	 64.061427 
479.000000	 64.177608 
478.000000	 64.268350 
477.000000	 64.328002 
476.000000	 64.356637 
475.000000	 64.356732 
474.000000	 64.331674 
473.000000	 64.282679 
472.000000	 64.208364 
471.000000	 64.105439 
470.000000	 63.970613 
469.000000	 63.804125 
468.000000	 63.610720 
467.000000	 63.399672 
466.000000	 63.182902 
465.000000	 62.973809 
464.000000	 62.784171 
463.000000	 62.620496 
462.000000	 62.484526 
461.000000	 62.372708 
460.000000	 62.280511 
459.000000	 62.202692 
458.000000	 62.138843 
457.000000	 62.091064 
456.000000	 62.067365 
455.000000	 62.077689 
454.000000	 62.131476 
453.000000	 62.232136 
452.000000	 62.375831 
451.000000	 62.550282 
450.000000	 62.735414 
449.000000	 62.906265 
448.000000	 63.038754 
447.000000	 63.114666 
446.000000	 63.126397 
445.000000	 63.079357 
444.000000	 62.990808 
443.000000	 62.886524 
442.000000	 62.798309 
441.000000	 62.756538 
440.000000	 62.781858 
439.000000	 62.880635 
438.000000	 63.046169 
437.000000	 63.258981 
436.000000	 63.492321 
435.000000	 63.716697 
434.000000	 63.907575 
433.000000	 64.047670 
432.000000	 64.125585 
431.000000	 64.138984 
430.000000	 64.099884 
429.000000	 64.022827 
428.000000	 63.917040 
427.000000	 63.788580 
426.000000	 63.642549 
425.000000	 63.482260 
424.000000	 63.316631 
423.000000	 63.151931 
422.000000	 62.988901 
421.000000	 62.836956 
420.000000	 62.716627 
419.000000	 62.650966 
418.000000	 62.661528 
417.000000	 62.772274 
416.000000	 63.000798 
415.000000	 63.363432 
414.000000	 63.861322 
413.000000	 64.463019 
412.000000	 65.107274 
411.000000	 65.699458 
410.000000	 66.144919 
409.000000	 66.368865 
408.000000	 66.356706 
407.000000	 66.140413 
406.000000	 65.830087 
405.000000	 65.601277 
404.000000	 65.650796 
403.000000	 66.154813 
402.000000	 67.199945 
401.000000	 68.785786 
400.000000	 70.747375 
399.000000	 72.811412 
398.000000	 74.583315 
397.000000	 75.633049 
396.000000	 75.591206 
395.000000	 74.253058 
394.000000	 71.627497 
393.000000	 67.943930 
392.000000	 63.691997 
391.000000	 59.532642 
390.000000	 56.161761 
389.000000	 54.152083 
388.000000	 53.866147 
387.000000	 55.343532 
386.000000	 58.276200 
385.000000	 62.053537 
384.000000	 65.877342 
383.000000	 68.934702 
382.000000	 70.587277 
381.000000	 70.486211 
380.000000	 68.621611 
379.000000	 65.289425 
378.000000	 60.982131 
377.000000	 56.271290 
376.000000	 51.617836 
375.000000	 47.385668 
374.000000	 43.812727 
373.000000	 41.068005 
372.000000	 39.246273 
371.000000	 38.513445 
370.000000	 39.105391 

