PE IR       SPECTRUM    SPECTRUM    ASCII       PEDS        1.60        
  -1
BZ6B22~1.ASC
17/04/07
13:29:44.00
17/04/07
13:29:44.00
tln
$BZ1503107-1_t0003$<tbV0>[7.8,-13.0,8.0,0.0,27,1,0]
370.000000
64









2002,4.07    
MIRTGS : RIGHTBACK : INTERNAL 2
MIR : ON : INTERNAL 2
OPTKBR

0.200000
8
8.000000
FILLER
RATIO
SPECTRUM
UNLOCKED 256

DOUBLE
64
COMBINED
1
0
0


1.000000
RATIO


1
0
TRUE
51149
0
LEFT NOT FITTED RIGHT NOT FITTED 0
NONE
NONE
15600
12.000000
4.427000
51148
TRUE
1 0 8 72 0 0 0 0 

15798.010000






#HDR
-1
-1
#GR
CM-1
%T
0.00002384185791015625
0.0
5000.000000
-1.000000
4631
8
101.088881
29.386591
#DATA
5000.000000	64.886283  
4999.000000	64.888262  
4998.000000	64.868307  
4997.000000	64.826631  
4996.000000	64.766621  
4995.000000	64.693689  
4994.000000	64.615178  
4993.000000	64.538550  
4992.000000	64.471316  
4991.000000	64.419579  
4990.000000	64.388036  
4989.000000	64.379143  
4988.000000	64.393043  
4987.000000	64.427375  
4986.000000	64.477252  
4985.000000	64.535737  
4984.000000	64.595723  
4983.000000	64.651012  
4982.000000	64.697599  
4981.000000	64.733862  
4980.000000	64.760541  
4979.000000	64.779400  
4978.000000	64.792919  
4977.000000	64.802598  
4976.000000	64.807963  
4975.000000	64.806389  
4974.000000	64.794850  
4973.000000	64.770650  
4972.000000	64.732956  
4971.000000	64.683723  
4970.000000	64.628362  
4969.000000	64.574694  
4968.000000	64.531302  
4967.000000	64.505457  
4966.000000	64.501500  
4965.000000	64.519381  
4964.000000	64.555311  
4963.000000	64.601206  
4962.000000	64.647221  
4961.000000	64.682054  
4960.000000	64.695549  
4959.000000	64.680051  
4958.000000	64.631748  
4957.000000	64.552712  
4956.000000	64.450979  
4955.000000	64.339947  
4954.000000	64.236569  
4953.000000	64.158582  
4952.000000	64.121389  
4951.000000	64.134979  
4950.000000	64.201998  
4949.000000	64.317584  
4948.000000	64.470148  
4947.000000	64.643025  
4946.000000	64.818000  
4945.000000	64.978313  
4944.000000	65.111231  
4943.000000	65.209221  
4942.000000	65.269970  
4941.000000	65.295624  
4940.000000	65.290498  
4939.000000	65.260481  
4938.000000	65.210294  
4937.000000	65.144085  
4936.000000	65.064001  
4935.000000	64.972543  
4934.000000	64.871621  
4933.000000	64.764428  
4932.000000	64.655113  
4931.000000	64.549136  
4930.000000	64.453458  
4929.000000	64.375686  
4928.000000	64.323091  
4927.000000	64.300870  
4926.000000	64.309835  
4925.000000	64.345765  
4924.000000	64.399147  
4923.000000	64.457035  
4922.000000	64.504909  
4921.000000	64.530038  
4920.000000	64.523339  
4919.000000	64.482283  
4918.000000	64.410591  
4917.000000	64.318108  
4916.000000	64.218330  
4915.000000	64.125752  
4914.000000	64.052987  
4913.000000	64.007568  
4912.000000	63.992238  
4911.000000	64.002346  
4910.000000	64.027309  
4909.000000	64.053106  
4908.000000	64.066767  
4907.000000	64.057469  
4906.000000	64.017915  
4905.000000	63.949370  
4904.000000	63.861274  
4903.000000	63.770890  
4902.000000	63.698911  
4901.000000	63.666200  
4900.000000	63.687562  
4899.000000	63.767981  
4898.000000	63.899922  
4897.000000	64.062237  
4896.000000	64.225578  
4895.000000	64.359235  
4894.000000	64.439845  
4893.000000	64.455437  
4892.000000	64.410996  
4891.000000	64.326214  
4890.000000	64.232921  
4889.000000	64.164543  
4888.000000	64.151692  
4887.000000	64.212369  
4886.000000	64.353322  
4885.000000	64.566659  
4884.000000	64.838886  
4883.000000	65.154552  
4882.000000	65.502285  
4881.000000	65.876460  
4880.000000	66.274142  
4879.000000	66.691327  
4878.000000	67.116785  
4877.000000	67.529296  
4876.000000	67.895483  
4875.000000	68.173933  
4874.000000	68.324017  
4873.000000	68.314695  
4872.000000	68.132328  
4871.000000	67.784881  
4870.000000	67.303729  
4869.000000	66.738343  
4868.000000	66.148829  
4867.000000	65.595674  
4866.000000	65.130090  
4865.000000	64.786577  
4864.000000	64.582347  
4863.000000	64.514493  
4862.000000	64.563751  
4861.000000	64.698863  
4860.000000	64.882278  
4859.000000	65.077066  
4858.000000	65.246796  
4857.000000	65.366864  
4856.000000	65.421271  
4855.000000	65.410685  
4854.000000	65.346002  
4853.000000	65.252089  
4852.000000	65.161013  
4851.000000	65.105390  
4850.000000	65.110659  
4849.000000	65.189599  
4848.000000	65.339279  
4847.000000	65.539288  
4846.000000	65.756416  
4845.000000	65.952396  
4844.000000	66.092348  
4843.000000	66.152000  
4842.000000	66.122221  
4841.000000	66.009664  
4840.000000	65.833616  
4839.000000	65.620517  
4838.000000	65.397644  
4837.000000	65.185952  
4836.000000	64.998936  
4835.000000	64.845323  
4834.000000	64.728331  
4833.000000	64.648318  
4832.000000	64.604640  
4831.000000	64.598584  
4830.000000	64.630150  
4829.000000	64.696073  
4828.000000	64.788269  
4827.000000	64.890980  
4826.000000	64.986324  
4825.000000	65.056324  
4824.000000	65.088748  
4823.000000	65.079665  
4822.000000	65.035629  
4821.000000	64.971971  
4820.000000	64.908790  
4819.000000	64.864921  
4818.000000	64.852094  
4817.000000	64.871335  
4816.000000	64.912414  
4815.000000	64.957404  
4814.000000	64.986729  
4813.000000	64.985823  
4812.000000	64.948725  
4811.000000	64.882206  
4810.000000	64.803910  
4809.000000	64.738607  
4808.000000	64.710426  
4807.000000	64.736771  
4806.000000	64.822745  
4805.000000	64.959621  
4804.000000	65.128040  
4803.000000	65.301251  
4802.000000	65.452122  
4801.000000	65.558862  
4800.000000	65.609884  
4799.000000	65.606045  
4798.000000	65.559363  
4797.000000	65.489339  
4796.000000	65.417218  
4795.000000	65.361642  
4794.000000	65.334224  
4793.000000	65.339112  
4792.000000	65.372419  
4791.000000	65.423989  
4790.000000	65.479564  
4789.000000	65.525078  
4788.000000	65.548539  
4787.000000	65.541124  
4786.000000	65.498781  
4785.000000	65.421009  
4784.000000	65.312385  
4783.000000	65.181446  
4782.000000	65.040445  
4781.000000	64.903831  
4780.000000	64.785671  
4779.000000	64.699244  
4778.000000	64.652013  
4777.000000	64.645433  
4776.000000	64.671874  
4775.000000	64.715957  
4774.000000	64.757442  
4773.000000	64.774441  
4772.000000	64.751243  
4771.000000	64.681553  
4770.000000	64.573073  
4769.000000	64.445042  
4768.000000	64.327740  
4767.000000	64.254784  
4766.000000	64.255928  
4765.000000	64.348244  
4764.000000	64.530992  
4763.000000	64.783620  
4762.000000	65.070104  
4761.000000	65.345668  
4760.000000	65.566444  
4759.000000	65.698599  
4758.000000	65.725207  
4757.000000	65.648722  
4756.000000	65.488338  
4755.000000	65.274930  
4754.000000	65.042805  
4753.000000	64.822959  
4752.000000	64.638781  
4751.000000	64.502167  
4750.000000	64.416670  
4749.000000	64.376688  
4748.000000	64.372920  
4747.000000	64.393973  
4746.000000	64.429879  
4745.000000	64.472651  
4744.000000	64.515638  
4743.000000	64.554452  
4742.000000	64.585232  
4741.000000	64.606618  
4740.000000	64.618873  
4739.000000	64.624834  
4738.000000	64.628791  
4737.000000	64.635920  
4736.000000	64.650511  
4735.000000	64.675283  
4734.000000	64.709830  
4733.000000	64.751315  
4732.000000	64.793848  
4731.000000	64.830780  
4730.000000	64.854407  
4729.000000	64.858436  
4728.000000	64.837932  
4727.000000	64.789247  
4726.000000	64.712214  
4725.000000	64.609789  
4724.000000	64.489698  
4723.000000	64.363336  
4722.000000	64.245128  
4721.000000	64.149451  
4720.000000	64.089417  
4719.000000	64.074659  
4718.000000	64.108133  
4717.000000	64.184880  
4716.000000	64.292645  
4715.000000	64.413928  
4714.000000	64.529395  
4713.000000	64.621663  
4712.000000	64.678931  
4711.000000	64.697170  
4710.000000	64.680576  
4709.000000	64.640021  
4708.000000	64.590358  
4707.000000	64.546227  
4706.000000	64.519214  
4705.000000	64.514398  
4704.000000	64.531064  
4703.000000	64.561891  
4702.000000	64.596247  
4701.000000	64.622402  
4700.000000	64.630746  
4699.000000	64.616560  
4698.000000	64.580559  
4697.000000	64.529681  
4696.000000	64.474248  
4695.000000	64.426898  
4694.000000	64.398670  
4693.000000	64.397478  
4692.000000	64.426374  
4691.000000	64.482903  
4690.000000	64.559984  
4689.000000	64.647841  
4688.000000	64.736413  
4687.000000	64.817333  
4686.000000	64.885568  
4685.000000	64.939880  
4684.000000	64.982295  
4683.000000	65.017724  
4682.000000	65.051651  
4681.000000	65.088677  
4680.000000	65.130305  
4679.000000	65.175056  
4678.000000	65.218091  
4677.000000	65.253281  
4676.000000	65.274286  
4675.000000	65.276694  
4674.000000	65.259051  
4673.000000	65.223741  
4672.000000	65.176153  
4671.000000	65.123534  
4670.000000	65.073323  
4669.000000	65.031313  
4668.000000	65.001034  
4667.000000	64.983963  
4666.000000	64.979219  
4665.000000	64.984869  
4664.000000	64.997935  
4663.000000	65.015387  
4662.000000	65.033793  
4661.000000	65.049695  
4660.000000	65.059280  
4659.000000	65.059089  
4658.000000	65.045976  
4657.000000	65.018320  
4656.000000	64.977836  
4655.000000	64.929699  
4654.000000	64.882159  
4653.000000	64.844512  
4652.000000	64.825773  
4651.000000	64.831614  
4650.000000	64.862799  
4649.000000	64.914274  
4648.000000	64.976143  
4647.000000	65.035533  
4646.000000	65.079545  
4645.000000	65.098047  
4644.000000	65.085387  
4643.000000	65.041780  
4642.000000	64.972519  
4641.000000	64.887452  
4640.000000	64.798283  
4639.000000	64.716815  
4638.000000	64.652824  
4637.000000	64.612197  
4636.000000	64.596796  
4635.000000	64.603900  
4634.000000	64.628005  
4633.000000	64.661049  
4632.000000	64.694523  
4631.000000	64.720296  
4630.000000	64.732360  
4629.000000	64.727234  
4628.000000	64.704942  
4627.000000	64.668655  
4626.000000	64.624500  
4625.000000	64.580273  
4624.000000	64.544057  
4623.000000	64.523553  
4622.000000	64.523935  
4621.000000	64.547300  
4620.000000	64.591670  
4619.000000	64.652085  
4618.000000	64.720582  
4617.000000	64.787721  
4616.000000	64.844131  
4615.000000	64.881968  
4614.000000	64.896488  
4613.000000	64.886522  
4612.000000	64.854741  
4611.000000	64.806890  
4610.000000	64.750766  
4609.000000	64.694809  
4608.000000	64.646601  
4607.000000	64.611935  
4606.000000	64.593577  
4605.000000	64.591455  
4604.000000	64.602994  
4603.000000	64.624381  
4602.000000	64.651727  
4601.000000	64.682316  
4600.000000	64.714455  
4599.000000	64.748167  
4598.000000	64.784097  
4597.000000	64.823532  
4596.000000	64.866566  
4595.000000	64.912676  
4594.000000	64.960384  
4593.000000	65.007781  
4592.000000	65.053176  
4591.000000	65.095090  
4590.000000	65.133357  
4589.000000	65.167593  
4588.000000	65.197944  
4587.000000	65.223193  
4586.000000	65.241456  
4585.000000	65.249252  
4584.000000	65.242934  
4583.000000	65.219426  
4582.000000	65.177893  
4581.000000	65.120172  
4580.000000	65.051198  
4579.000000	64.977383  
4578.000000	64.905476  
4577.000000	64.841198  
4576.000000	64.788150  
4575.000000	64.747428  
4574.000000	64.717817  
4573.000000	64.697098  
4572.000000	64.682340  
4571.000000	64.670729  
4570.000000	64.659643  
4569.000000	64.646530  
4568.000000	64.629268  
4567.000000	64.605927  
4566.000000	64.575242  
4565.000000	64.536690  
4564.000000	64.490938  
4563.000000	64.439916  
4562.000000	64.386940  
4561.000000	64.335823  
4560.000000	64.290666  
4559.000000	64.255285  
4558.000000	64.232301  
4557.000000	64.222621  
4556.000000	64.225292  
4555.000000	64.237666  
4554.000000	64.256405  
4553.000000	64.278244  
4552.000000	64.301109  
4551.000000	64.324402  
4550.000000	64.349150  
4549.000000	64.377641  
4548.000000	64.411544  
4547.000000	64.451360  
4546.000000	64.496111  
4545.000000	64.543652  
4544.000000	64.591097  
4543.000000	64.635777  
4542.000000	64.676928  
4541.000000	64.714694  
4540.000000	64.749979  
4539.000000	64.783263  
4538.000000	64.814543  
4537.000000	64.842247  
4536.000000	64.863562  
4535.000000	64.875173  
4534.000000	64.875340  
4533.000000	64.863920  
4532.000000	64.842963  
4531.000000	64.817047  
4530.000000	64.792656  
4529.000000	64.776635  
4528.000000	64.774513  
4527.000000	64.789652  
4526.000000	64.822316  
4525.000000	64.869928  
4524.000000	64.927268  
4523.000000	64.988994  
4522.000000	65.050506  
4521.000000	65.107226  
4520.000000	65.155553  
4519.000000	65.192079  
4518.000000	65.214776  
4517.000000	65.224099  
4516.000000	65.222883  
4515.000000	65.216994  
4514.000000	65.212988  
4513.000000	65.214204  
4512.000000	65.222525  
4511.000000	65.237450  
4510.000000	65.259170  
4509.000000	65.290760  
4508.000000	65.336513  
4507.000000	65.401935  
4506.000000	65.489077  
4505.000000	65.595221  
4504.000000	65.710735  
4503.000000	65.816736  
4502.000000	65.896463  
4501.000000	65.939593  
4500.000000	65.948939  
4499.000000	65.940356  
4498.000000	65.941572  
4497.000000	65.984320  
4496.000000	66.090297  
4495.000000	66.262984  
4494.000000	66.484546  
4493.000000	66.720676  
4492.000000	66.924047  
4491.000000	67.052936  
4490.000000	67.087936  
4489.000000	67.040252  
4488.000000	66.954302  
4487.000000	66.892218  
4486.000000	66.917777  
4485.000000	67.070746  
4484.000000	67.357397  
4483.000000	67.737650  
4482.000000	68.135428  
4481.000000	68.452692  
4480.000000	68.601846  
4479.000000	68.521046  
4478.000000	68.193101  
4477.000000	67.648744  
4476.000000	66.961312  
4475.000000	66.226053  
4474.000000	65.538096  
4473.000000	64.967441  
4472.000000	64.545917  
4471.000000	64.255952  
4470.000000	64.040279  
4469.000000	63.817024  
4468.000000	63.506579  
4467.000000	63.051867  
4466.000000	62.440085  
4465.000000	61.701250  
4464.000000	60.910320  
4463.000000	60.164284  
4462.000000	59.569025  
4461.000000	59.206151  
4460.000000	59.126543  
4459.000000	59.337425  
4458.000000	59.809374  
4457.000000	60.479855  
4456.000000	61.273694  
4455.000000	62.115144  
4454.000000	62.942004  
4453.000000	63.706731  
4452.000000	64.381241  
4451.000000	64.947414  
4450.000000	65.397787  
4449.000000	65.726900  
4448.000000	65.936350  
4447.000000	66.034817  
4446.000000	66.040849  
4445.000000	65.985727  
4444.000000	65.901184  
4443.000000	65.815973  
4442.000000	65.750622  
4441.000000	65.715360  
4440.000000	65.706396  
4439.000000	65.709376  
4438.000000	65.709495  
4437.000000	65.694570  
4436.000000	65.657639  
4435.000000	65.598177  
4434.000000	65.521454  
4433.000000	65.436053  
4432.000000	65.349245  
4431.000000	65.266084  
4430.000000	65.189480  
4429.000000	65.118765  
4428.000000	65.050673  
4427.000000	64.980912  
4426.000000	64.905309  
4425.000000	64.822864  
4424.000000	64.737987  
4423.000000	64.657735  
4422.000000	64.587545  
4421.000000	64.534401  
4420.000000	64.505434  
4419.000000	64.504957  
4418.000000	64.532256  
4417.000000	64.584064  
4416.000000	64.654970  
4415.000000	64.737272  
4414.000000	64.822626  
4413.000000	64.904403  
4412.000000	64.978551  
4411.000000	65.044474  
4410.000000	65.103816  
4409.000000	65.158700  
4408.000000	65.210247  
4407.000000	65.257525  
4406.000000	65.297818  
4405.000000	65.327453  
4404.000000	65.343260  
4403.000000	65.345096  
4402.000000	65.335369  
4401.000000	65.319275  
4400.000000	65.303468  
4399.000000	65.295290  
4398.000000	65.300226  
4397.000000	65.320920  
4396.000000	65.355706  
4395.000000	65.399813  
4394.000000	65.445184  
4393.000000	65.482687  
4392.000000	65.503525  
4391.000000	65.501427  
4390.000000	65.473961  
4389.000000	65.422964  
4388.000000	65.354514  
4387.000000	65.277457  
4386.000000	65.201449  
4385.000000	65.134787  
4384.000000	65.082836  
4383.000000	65.047144  
4382.000000	65.025997  
4381.000000	65.015339  
4380.000000	65.009927  
4379.000000	65.005421  
4378.000000	64.999294  
4377.000000	64.991784  
4376.000000	64.985108  
4375.000000	64.982771  
4374.000000	64.988160  
4373.000000	65.002536  
4372.000000	65.024614  
4371.000000	65.049457  
4370.000000	65.069246  
4369.000000	65.074777  
4368.000000	65.057754  
4367.000000	65.013527  
4366.000000	64.942765  
4365.000000	64.852118  
4364.000000	64.753270  
4363.000000	64.661097  
4362.000000	64.590430  
4361.000000	64.552521  
4360.000000	64.552760  
4359.000000	64.589571  
4358.000000	64.655160  
4357.000000	64.737153  
4356.000000	64.822101  
4355.000000	64.897799  
4354.000000	64.956784  
4353.000000	64.996361  
4352.000000	65.019726  
4351.000000	65.033388  
4350.000000	65.046072  
4349.000000	65.065407  
4348.000000	65.096354  
4347.000000	65.140461  
4346.000000	65.195035  
4345.000000	65.255522  
4344.000000	65.315032  
4343.000000	65.366840  
4342.000000	65.404653  
4341.000000	65.424489  
4340.000000	65.424132  
4339.000000	65.403270  
4338.000000	65.363264  
4337.000000	65.306949  
4336.000000	65.238261  
4335.000000	65.161800  
4334.000000	65.082764  
4333.000000	65.006518  
4332.000000	64.937853  
4331.000000	64.880132  
4330.000000	64.835166  
4329.000000	64.802646  
4328.000000	64.779710  
4327.000000	64.762234  
4326.000000	64.744710  
4325.000000	64.722990  
4324.000000	64.694786  
4323.000000	64.661836  
4322.000000	64.627861  
4321.000000	64.599776  
4320.000000	64.584970  
4319.000000	64.590501  
4318.000000	64.620137  
4317.000000	64.674329  
4316.000000	64.749193  
4315.000000	64.837741  
4314.000000	64.930796  
4313.000000	65.019178  
4312.000000	65.095162  
4311.000000	65.153741  
4310.000000	65.193080  
4309.000000	65.214300  
4308.000000	65.220403  
4307.000000	65.215682  
4306.000000	65.204358  
4305.000000	65.189862  
4304.000000	65.174126  
4303.000000	65.158438  
4302.000000	65.142822  
4301.000000	65.126633  
4300.000000	65.108585  
4299.000000	65.087723  
4298.000000	65.063881  
4297.000000	65.037703  
4296.000000	65.010952  
4295.000000	64.986348  
4294.000000	64.966750  
4293.000000	64.954519  
4292.000000	64.950990  
4291.000000	64.955663  
4290.000000	64.966797  
4289.000000	64.981555  
4288.000000	64.997124  
4287.000000	65.011215  
4286.000000	65.022802  
4285.000000	65.032291  
4284.000000	65.041089  
4283.000000	65.050864  
4282.000000	65.063190  
4281.000000	65.078759  
4280.000000	65.096664  
4279.000000	65.114617  
4278.000000	65.129804  
4277.000000	65.139675  
4276.000000	65.142798  
4275.000000	65.139055  
4274.000000	65.129709  
4273.000000	65.117144  
4272.000000	65.104317  
4271.000000	65.094161  
4270.000000	65.088891  
4269.000000	65.089511  
4268.000000	65.096259  
4267.000000	65.107917  
4266.000000	65.122199  
4265.000000	65.136098  
4264.000000	65.146684  
4263.000000	65.151810  
4262.000000	65.150880  
4261.000000	65.145111  
4260.000000	65.136981  
4259.000000	65.129899  
4258.000000	65.127182  
4257.000000	65.130686  
4256.000000	65.140175  
4255.000000	65.153098  
4254.000000	65.165281  
4253.000000	65.171623  
4252.000000	65.167760  
4251.000000	65.151405  
4250.000000	65.123152  
4249.000000	65.086460  
4248.000000	65.047192  
4247.000000	65.011930  
4246.000000	64.986705  
4245.000000	64.975547  
4244.000000	64.979767  
4243.000000	64.998435  
4242.000000	65.028333  
4241.000000	65.065503  
4240.000000	65.105104  
4239.000000	65.142464  
4238.000000	65.173220  
4237.000000	65.193390  
4236.000000	65.199947  
4235.000000	65.190815  
4234.000000	65.165662  
4233.000000	65.126013  
4232.000000	65.075349  
4231.000000	65.018773  
4230.000000	64.962100  
4229.000000	64.911270  
4228.000000	64.871025  
4227.000000	64.844369  
4226.000000	64.831829  
4225.000000	64.831686  
4224.000000	64.840650  
4223.000000	64.854884  
4222.000000	64.870810  
4221.000000	64.885902  
4220.000000	64.899063  
4219.000000	64.910387  
4218.000000	64.920520  
4217.000000	64.930105  
4216.000000	64.938902  
4215.000000	64.945840  
4214.000000	64.949274  
4213.000000	64.947795  
4212.000000	64.940500  
4211.000000	64.927959  
4210.000000	64.912605  
4209.000000	64.897871  
4208.000000	64.887809  
4207.000000	64.885640  
4206.000000	64.893054  
4205.000000	64.909029  
4204.000000	64.929842  
4203.000000	64.949822  
4202.000000	64.962697  
4201.000000	64.962911  
4200.000000	64.947104  
4199.000000	64.915227  
4198.000000	64.870548  
4197.000000	64.818906  
4196.000000	64.767265  
4195.000000	64.722418  
4194.000000	64.689707  
4193.000000	64.672183  
4192.000000	64.670300  
4191.000000	64.682221  
4190.000000	64.704656  
4189.000000	64.733386  
4188.000000	64.764642  
4187.000000	64.794921  
4186.000000	64.822864  
4185.000000	64.848113  
4184.000000	64.872503  
4183.000000	64.898276  
4182.000000	64.928317  
4181.000000	64.964938  
4180.000000	65.009236  
4179.000000	65.060472  
4178.000000	65.115880  
4177.000000	65.171575  
4176.000000	65.222692  
4175.000000	65.264821  
4174.000000	65.294313  
4173.000000	65.309262  
4172.000000	65.309691  
4171.000000	65.297746  
4170.000000	65.276861  
4169.000000	65.251278  
4168.000000	65.225172  
4167.000000	65.202045  
4166.000000	65.184235  
4165.000000	65.172791  
4164.000000	65.168046  
4163.000000	65.169429  
4162.000000	65.176153  
4161.000000	65.186977  
4160.000000	65.200853  
4159.000000	65.216016  
4158.000000	65.230417  
4157.000000	65.241169  
4156.000000	65.244936  
4155.000000	65.238428  
4154.000000	65.218949  
4153.000000	65.185403  
4152.000000	65.138673  
4151.000000	65.082216  
4150.000000	65.021562  
4149.000000	64.963746  
4148.000000	64.915871  
4147.000000	64.883995  
4146.000000	64.872050  
4145.000000	64.880776  
4144.000000	64.907622  
4143.000000	64.947128  
4142.000000	64.992094  
4141.000000	65.034794  
4140.000000	65.068674  
4139.000000	65.089178  
4138.000000	65.094661  
4137.000000	65.086364  
4136.000000	65.067887  
4135.000000	65.044164  
4134.000000	65.020322  
4133.000000	65.000939  
4132.000000	64.989018  
4131.000000	64.986228  
4130.000000	64.992380  
4129.000000	65.006399  
4128.000000	65.026092  
4127.000000	65.049123  
4126.000000	65.072965  
4125.000000	65.095353  
4124.000000	65.114140  
4123.000000	65.127444  
4122.000000	65.134406  
4121.000000	65.134954  
4120.000000	65.130162  
4119.000000	65.121984  
4118.000000	65.113615  
4117.000000	65.108728  
4116.000000	65.110564  
4115.000000	65.121316  
4114.000000	65.141773  
4113.000000	65.171098  
4112.000000	65.206694  
4111.000000	65.244960  
4110.000000	65.281844  
4109.000000	65.313577  
4108.000000	65.337538  
4107.000000	65.352106  
4106.000000	65.356707  
4105.000000	65.351581  
4104.000000	65.337538  
4103.000000	65.315556  
4102.000000	65.286827  
4101.000000	65.253090  
4100.000000	65.216851  
4099.000000	65.181541  
4098.000000	65.151238  
4097.000000	65.130066  
4096.000000	65.121674  
4095.000000	65.127968  
4094.000000	65.148758  
4093.000000	65.181541  
4092.000000	65.222263  
4091.000000	65.265917  
4090.000000	65.307855  
4089.000000	65.344500  
4088.000000	65.374112  
4087.000000	65.396976  
4086.000000	65.414977  
4085.000000	65.430521  
4084.000000	65.445590  
4083.000000	65.461254  
4082.000000	65.476775  
4081.000000	65.490269  
4080.000000	65.498399  
4079.000000	65.497851  
4078.000000	65.485763  
4077.000000	65.461206  
4076.000000	65.424847  
4075.000000	65.378928  
4074.000000	65.327048  
4073.000000	65.273833  
4072.000000	65.224003  
4071.000000	65.181422  
4070.000000	65.148806  
4069.000000	65.127372  
4068.000000	65.117144  
4067.000000	65.117168  
4066.000000	65.126252  
4065.000000	65.143489  
4064.000000	65.168523  
4063.000000	65.201544  
4062.000000	65.243053  
4061.000000	65.293407  
4060.000000	65.352225  
4059.000000	65.418004  
4058.000000	65.488219  
4057.000000	65.559005  
4056.000000	65.625905  
4055.000000	65.683364  
4054.000000	65.726518  
4053.000000	65.750145  
4052.000000	65.750575  
4051.000000	65.725135  
4050.000000	65.673518  
4049.000000	65.597510  
4048.000000	65.501594  
4047.000000	65.392589  
4046.000000	65.279555  
4045.000000	65.172314  
4044.000000	65.080523  
4043.000000	65.011835  
4042.000000	64.971041  
4041.000000	64.959096  
4040.000000	64.973211  
4039.000000	65.007853  
4038.000000	65.056133  
4037.000000	65.111064  
4036.000000	65.166807  
4035.000000	65.219306  
4034.000000	65.266346  
4033.000000	65.306973  
4032.000000	65.340781  
4031.000000	65.367341  
4030.000000	65.385723  
4029.000000	65.394806  
4028.000000	65.393018  
4027.000000	65.379834  
4026.000000	65.355134  
4025.000000	65.320682  
4024.000000	65.278887  
4023.000000	65.233397  
4022.000000	65.187621  
4021.000000	65.144443  
4020.000000	65.105438  
4019.000000	65.070962  
4018.000000	65.040087  
4017.000000	65.011477  
4016.000000	64.983630  
4015.000000	64.955282  
4014.000000	64.926290  
4013.000000	64.897656  
4012.000000	64.871335  
4011.000000	64.849853  
4010.000000	64.835977  
4009.000000	64.831995  
4008.000000	64.839172  
4007.000000	64.857411  
4006.000000	64.885401  
4005.000000	64.920687  
4004.000000	64.960432  
4003.000000	65.001630  
4002.000000	65.041732  
4001.000000	65.078449  
4000.000000	65.110206  
3999.000000	65.135455  
3998.000000	65.152883  
3997.000000	65.161037  
3996.000000	65.158748  
3995.000000	65.145087  
3994.000000	65.120196  
3993.000000	65.085172  
3992.000000	65.042614  
3991.000000	64.996027  
3990.000000	64.949727  
3989.000000	64.907646  
3988.000000	64.872980  
3987.000000	64.847302  
3986.000000	64.830613  
3985.000000	64.821600  
3984.000000	64.818239  
3983.000000	64.818954  
3982.000000	64.823174  
3981.000000	64.831733  
3980.000000	64.846587  
3979.000000	64.870285  
3978.000000	64.905023  
3977.000000	64.951205  
3976.000000	65.006971  
3975.000000	65.068101  
3974.000000	65.128350  
3973.000000	65.180873  
3972.000000	65.219140  
3971.000000	65.238857  
3970.000000	65.238094  
3969.000000	65.218353  
3968.000000	65.182971  
3967.000000	65.137052  
3966.000000	65.085339  
3965.000000	65.031576  
3964.000000	64.977908  
3963.000000	64.924931  
3962.000000	64.872622  
3961.000000	64.821314  
3960.000000	64.772558  
3959.000000	64.729356  
3958.000000	64.696073  
3957.000000	64.677333  
3956.000000	64.676856  
3955.000000	64.696240  
3954.000000	64.734458  
3953.000000	64.787983  
3952.000000	64.851236  
3951.000000	64.918160  
3950.000000	64.983296  
3949.000000	65.043020  
3948.000000	65.095877  
3947.000000	65.142321  
3946.000000	65.183901  
3945.000000	65.222072  
3944.000000	65.257501  
3943.000000	65.288996  
3942.000000	65.314674  
3941.000000	65.331268  
3940.000000	65.336108  
3939.000000	65.326738  
3938.000000	65.302681  
3937.000000	65.264487  
3936.000000	65.214753  
3935.000000	65.156769  
3934.000000	65.094280  
3933.000000	65.031147  
3932.000000	64.971041  
3931.000000	64.916992  
3930.000000	64.871287  
3929.000000	64.835786  
3928.000000	64.811897  
3927.000000	64.800572  
3926.000000	64.802360  
3925.000000	64.817023  
3924.000000	64.843750  
3923.000000	64.880776  
3922.000000	64.925765  
3921.000000	64.975261  
3920.000000	65.025210  
3919.000000	65.071415  
3918.000000	65.109944  
3917.000000	65.137314  
3916.000000	65.151190  
3915.000000	65.151214  
3914.000000	65.138578  
3913.000000	65.116381  
3912.000000	65.088701  
3911.000000	65.060591  
3910.000000	65.036559  
3909.000000	65.020132  
3908.000000	65.013241  
3907.000000	65.016007  
3906.000000	65.027213  
3905.000000	65.044617  
3904.000000	65.065646  
3903.000000	65.088081  
3902.000000	65.110421  
3901.000000	65.132308  
3900.000000	65.153694  
3899.000000	65.174674  
3898.000000	65.194940  
3897.000000	65.213680  
3896.000000	65.229439  
3895.000000	65.240526  
3894.000000	65.245652  
3893.000000	65.244102  
3892.000000	65.236473  
3891.000000	65.224266  
3890.000000	65.209794  
3889.000000	65.195274  
3888.000000	65.182352  
3887.000000	65.171265  
3886.000000	65.161252  
3885.000000	65.150451  
3884.000000	65.136575  
3883.000000	65.117859  
3882.000000	65.093588  
3881.000000	65.064501  
3880.000000	65.032577  
3879.000000	65.000677  
3878.000000	64.971899  
3877.000000	64.948987  
3876.000000	64.933729  
3875.000000	64.926743  
3874.000000	64.927434  
3873.000000	64.934086  
3872.000000	64.944291  
3871.000000	64.955091  
3870.000000	64.963865  
3869.000000	64.968252  
3868.000000	64.967250  
3867.000000	64.960503  
3866.000000	64.949536  
3865.000000	64.937043  
3864.000000	64.927196  
3863.000000	64.924478  
3862.000000	64.933490  
3861.000000	64.957785  
3860.000000	64.998984  
3859.000000	65.056467  
3858.000000	65.126466  
3857.000000	65.202713  
3856.000000	65.277004  
3855.000000	65.340971  
3854.000000	65.387368  
3853.000000	65.411567  
3852.000000	65.412497  
3851.000000	65.392661  
3850.000000	65.357494  
3849.000000	65.313887  
3848.000000	65.268945  
3847.000000	65.228652  
3846.000000	65.196990  
3845.000000	65.175628  
3844.000000	65.164256  
3843.000000	65.160870  
3842.000000	65.162634  
3841.000000	65.166568  
3840.000000	65.169596  
3839.000000	65.169787  
3838.000000	65.166091  
3837.000000	65.159296  
3836.000000	65.151000  
3835.000000	65.143990  
3834.000000	65.141439  
3833.000000	65.146136  
3832.000000	65.159988  
3831.000000	65.183234  
3830.000000	65.214467  
3829.000000	65.250325  
3828.000000	65.286087  
3827.000000	65.316700  
3826.000000	65.338063  
3825.000000	65.347528  
3824.000000	65.344381  
3823.000000	65.330028  
3822.000000	65.307617  
3821.000000	65.281081  
3820.000000	65.253996  
3819.000000	65.228819  
3818.000000	65.206408  
3817.000000	65.186190  
3816.000000	65.166783  
3815.000000	65.146255  
3814.000000	65.123438  
3813.000000	65.098166  
3812.000000	65.072131  
3811.000000	65.048265  
3810.000000	65.030312  
3809.000000	65.021586  
3808.000000	65.024018  
3807.000000	65.037369  
3806.000000	65.058732  
3805.000000	65.083217  
3804.000000	65.104556  
3803.000000	65.116715  
3802.000000	65.114879  
3801.000000	65.096831  
3800.000000	65.063357  
3799.000000	65.018010  
3798.000000	64.966654  
3797.000000	64.915990  
3796.000000	64.872765  
3795.000000	64.842510  
3794.000000	64.828753  
3793.000000	64.832782  
3792.000000	64.853596  
3791.000000	64.888191  
3790.000000	64.932155  
3789.000000	64.980530  
3788.000000	65.027666  
3787.000000	65.068411  
3786.000000	65.098404  
3785.000000	65.115284  
3784.000000	65.118193  
3783.000000	65.108609  
3782.000000	65.090060  
3781.000000	65.067172  
3780.000000	65.044760  
3779.000000	65.027022  
3778.000000	65.016865  
3777.000000	65.015339  
3776.000000	65.021896  
3775.000000	65.034723  
3774.000000	65.051531  
3773.000000	65.070128  
3772.000000	65.088868  
3771.000000	65.106749  
3770.000000	65.123224  
3769.000000	65.138006  
3768.000000	65.150713  
3767.000000	65.160727  
3766.000000	65.167307  
3765.000000	65.169882  
3764.000000	65.168261  
3763.000000	65.163207  
3762.000000	65.156388  
3761.000000	65.149998  
3760.000000	65.146446  
3759.000000	65.147614  
3758.000000	65.154623  
3757.000000	65.167903  
3756.000000	65.186667  
3755.000000	65.209460  
3754.000000	65.234231  
3753.000000	65.258693  
3752.000000	65.280675  
3751.000000	65.298151  
3750.000000	65.309762  
3749.000000	65.314698  
3748.000000	65.312981  
3747.000000	65.305447  
3746.000000	65.293359  
3745.000000	65.278434  
3744.000000	65.262246  
3743.000000	65.246248  
3742.000000	65.231490  
3741.000000	65.218687  
3740.000000	65.208053  
3739.000000	65.199470  
3738.000000	65.192914  
3737.000000	65.188598  
3736.000000	65.186953  
3735.000000	65.188336  
3734.000000	65.193200  
3733.000000	65.201401  
3732.000000	65.212345  
3731.000000	65.224695  
3730.000000	65.236854  
3729.000000	65.247058  
3728.000000	65.253710  
3727.000000	65.255689  
3726.000000	65.252470  
3725.000000	65.244293  
3724.000000	65.232062  
3723.000000	65.217304  
3722.000000	65.202069  
3721.000000	65.188574  
3720.000000	65.179157  
3719.000000	65.175271  
3718.000000	65.177512  
3717.000000	65.185236  
3716.000000	65.196561  
3715.000000	65.208745  
3714.000000	65.218663  
3713.000000	65.223431  
3712.000000	65.221214  
3711.000000	65.211653  
3710.000000	65.195918  
3709.000000	65.176701  
3708.000000	65.157389  
3707.000000	65.141201  
3706.000000	65.130376  
3705.000000	65.125846  
3704.000000	65.126895  
3703.000000	65.131640  
3702.000000	65.137600  
3701.000000	65.142369  
3700.000000	65.144324  
3699.000000	65.143227  
3698.000000	65.140318  
3697.000000	65.137386  
3696.000000	65.137243  
3695.000000	65.142893  
3694.000000	65.156817  
3693.000000	65.180277  
3692.000000	65.212917  
3691.000000	65.252566  
3690.000000	65.295529  
3689.000000	65.337133  
3688.000000	65.372633  
3687.000000	65.398335  
3686.000000	65.412330  
3685.000000	65.414690  
3684.000000	65.408015  
3683.000000	65.396308  
3682.000000	65.384531  
3681.000000	65.377116  
3680.000000	65.377354  
3679.000000	65.386199  
3678.000000	65.402698  
3677.000000	65.423536  
3676.000000	65.444350  
3675.000000	65.460014  
3674.000000	65.466356  
3673.000000	65.460228  
3672.000000	65.440344  
3671.000000	65.407252  
3670.000000	65.363097  
3669.000000	65.311384  
3668.000000	65.256547  
3667.000000	65.203285  
3666.000000	65.155720  
3665.000000	65.116930  
3664.000000	65.088486  
3663.000000	65.070414  
3662.000000	65.061187  
3661.000000	65.058517  
3660.000000	65.059733  
3659.000000	65.062403  
3658.000000	65.064930  
3657.000000	65.066576  
3656.000000	65.067648  
3655.000000	65.068793  
3654.000000	65.070891  
3653.000000	65.074658  
3652.000000	65.080571  
3651.000000	65.088558  
3650.000000	65.098166  
3649.000000	65.109062  
3648.000000	65.120553  
3647.000000	65.132260  
3646.000000	65.143442  
3645.000000	65.153288  
3644.000000	65.160608  
3643.000000	65.164041  
3642.000000	65.162420  
3641.000000	65.155100  
3640.000000	65.142440  
3639.000000	65.125966  
3638.000000	65.108251  
3637.000000	65.092372  
3636.000000	65.081524  
3635.000000	65.078425  
3634.000000	65.084791  
3633.000000	65.101027  
3632.000000	65.126323  
3631.000000	65.158891  
3630.000000	65.196084  
3629.000000	65.234732  
3628.000000	65.271329  
3627.000000	65.302610  
3626.000000	65.325546  
3625.000000	65.337872  
3624.000000	65.338325  
3623.000000	65.326857  
3622.000000	65.304875  
3621.000000	65.275001  
3620.000000	65.241026  
3619.000000	65.207195  
3618.000000	65.177679  
3617.000000	65.155506  
3616.000000	65.142440  
3615.000000	65.138006  
3614.000000	65.140104  
3613.000000	65.145373  
3612.000000	65.149950  
3611.000000	65.150761  
3610.000000	65.146160  
3609.000000	65.136623  
3608.000000	65.124130  
3607.000000	65.111851  
3606.000000	65.103030  
3605.000000	65.100002  
3604.000000	65.103554  
3603.000000	65.112876  
3602.000000	65.125846  
3601.000000	65.139794  
3600.000000	65.152120  
3599.000000	65.161347  
3598.000000	65.167403  
3597.000000	65.171074  
3596.000000	65.173721  
3595.000000	65.176486  
3594.000000	65.180015  
3593.000000	65.183806  
3592.000000	65.186834  
3591.000000	65.187954  
3590.000000	65.186429  
3589.000000	65.182685  
3588.000000	65.177941  
3587.000000	65.173912  
3586.000000	65.172219  
3585.000000	65.173864  
3584.000000	65.178894  
3583.000000	65.186095  
3582.000000	65.193510  
3581.000000	65.199017  
3580.000000	65.200734  
3579.000000	65.197587  
3578.000000	65.189361  
3577.000000	65.176796  
3576.000000	65.160989  
3575.000000	65.142917  
3574.000000	65.123367  
3573.000000	65.102624  
3572.000000	65.080833  
3571.000000	65.058088  
3570.000000	65.034699  
3569.000000	65.011382  
3568.000000	64.989185  
3567.000000	64.969420  
3566.000000	64.953041  
3565.000000	64.941072  
3564.000000	64.934277  
3563.000000	64.933395  
3562.000000	64.938712  
3561.000000	64.950489  
3560.000000	64.968371  
3559.000000	64.991617  
3558.000000	65.018701  
3557.000000	65.047597  
3556.000000	65.076208  
3555.000000	65.102505  
3554.000000	65.124917  
3553.000000	65.142750  
3552.000000	65.156269  
3551.000000	65.166282  
3550.000000	65.173864  
3549.000000	65.179753  
3548.000000	65.183973  
3547.000000	65.185713  
3546.000000	65.183520  
3545.000000	65.175867  
3544.000000	65.161681  
3543.000000	65.141415  
3542.000000	65.116572  
3541.000000	65.089726  
3540.000000	65.063714  
3539.000000	65.041375  
3538.000000	65.024781  
3537.000000	65.014648  
3536.000000	65.010595  
3535.000000	65.011334  
3534.000000	65.015339  
3533.000000	65.020823  
3532.000000	65.026521  
3531.000000	65.031623  
3530.000000	65.035700  
3529.000000	65.038585  
3528.000000	65.040040  
3527.000000	65.039205  
3526.000000	65.035104  
3525.000000	65.026545  
3524.000000	65.012407  
3523.000000	64.992117  
3522.000000	64.966082  
3521.000000	64.935970  
3520.000000	64.904427  
3519.000000	64.874982  
3518.000000	64.851307  
3517.000000	64.836978  
3516.000000	64.834594  
3515.000000	64.845633  
3514.000000	64.869880  
3513.000000	64.905858  
3512.000000	64.950728  
3511.000000	65.001201  
3510.000000	65.053510  
3509.000000	65.104174  
3508.000000	65.150332  
3507.000000	65.189528  
3506.000000	65.219807  
3505.000000	65.239524  
3504.000000	65.247654  
3503.000000	65.243411  
3502.000000	65.226840  
3501.000000	65.198612  
3500.000000	65.160369  
3499.000000	65.114283  
3498.000000	65.063333  
3497.000000	65.010762  
3496.000000	64.960026  
3495.000000	64.914488  
3494.000000	64.877486  
3493.000000	64.851665  
3492.000000	64.838981  
3491.000000	64.840197  
3490.000000	64.854931  
3489.000000	64.881134  
3488.000000	64.915966  
3487.000000	64.955449  
3486.000000	64.995670  
3485.000000	65.033102  
3484.000000	65.065169  
3483.000000	65.090537  
3482.000000	65.108990  
3481.000000	65.121221  
3480.000000	65.128159  
3479.000000	65.130758  
3478.000000	65.129208  
3477.000000	65.123176  
3476.000000	65.111923  
3475.000000	65.095067  
3474.000000	65.072822  
3473.000000	65.046501  
3472.000000	65.018200  
3471.000000	64.990663  
3470.000000	64.966678  
3469.000000	64.948558  
3468.000000	64.937543  
3467.000000	64.933705  
3466.000000	64.936208  
3465.000000	64.943718  
3464.000000	64.954423  
3463.000000	64.966940  
3462.000000	64.980268  
3461.000000	64.994406  
3460.000000	65.009760  
3459.000000	65.026903  
3458.000000	65.046262  
3457.000000	65.067648  
3456.000000	65.090107  
3455.000000	65.111517  
3454.000000	65.129256  
3453.000000	65.140247  
3452.000000	65.142178  
3451.000000	65.133333  
3450.000000	65.113496  
3449.000000	65.083932  
3448.000000	65.047550  
3447.000000	65.008234  
3446.000000	64.970302  
3445.000000	64.937639  
3444.000000	64.913272  
3443.000000	64.898872  
3442.000000	64.894628  
3441.000000	64.899659  
3440.000000	64.912414  
3439.000000	64.931178  
3438.000000	64.954352  
3437.000000	64.980459  
3436.000000	65.008449  
3435.000000	65.037178  
3434.000000	65.065836  
3433.000000	65.093421  
3432.000000	65.118908  
3431.000000	65.141391  
3430.000000	65.159797  
3429.000000	65.173459  
3428.000000	65.181708  
3427.000000	65.184116  
3426.000000	65.180301  
3425.000000	65.170240  
3424.000000	65.154099  
3423.000000	65.132546  
3422.000000	65.106654  
3421.000000	65.078067  
3420.000000	65.048861  
3419.000000	65.021324  
3418.000000	64.997267  
3417.000000	64.977931  
3416.000000	64.963769  
3415.000000	64.954638  
3414.000000	64.950060  
3413.000000	64.949488  
3412.000000	64.952683  
3411.000000	64.959907  
3410.000000	64.971590  
3409.000000	64.987874  
3408.000000	65.008187  
3407.000000	65.030956  
3406.000000	65.053772  
3405.000000	65.073680  
3404.000000	65.087532  
3403.000000	65.092635  
3402.000000	65.087556  
3401.000000	65.072226  
3400.000000	65.048193  
3399.000000	65.018129  
3398.000000	64.985489  
3397.000000	64.953756  
3396.000000	64.925980  
3395.000000	64.904427  
3394.000000	64.890480  
3393.000000	64.884519  
3392.000000	64.886283  
3391.000000	64.895081  
3390.000000	64.909815  
3389.000000	64.929342  
3388.000000	64.952468  
3387.000000	64.978075  
3386.000000	65.005111  
3385.000000	65.032553  
3384.000000	65.058922  
3383.000000	65.082311  
3382.000000	65.100121  
3381.000000	65.109610  
3380.000000	65.108442  
3379.000000	65.095186  
3378.000000	65.070462  
3377.000000	65.036916  
3376.000000	64.999198  
3375.000000	64.963126  
3374.000000	64.934873  
3373.000000	64.919424  
3372.000000	64.919590  
3371.000000	64.935231  
3370.000000	64.963197  
3369.000000	64.998173  
3368.000000	65.033745  
3367.000000	65.063738  
3366.000000	65.083646  
3365.000000	65.091300  
3364.000000	65.086793  
3363.000000	65.072131  
3362.000000	65.050339  
3361.000000	65.024590  
3360.000000	64.997696  
3359.000000	64.971756  
3358.000000	64.948081  
3357.000000	64.927339  
3356.000000	64.910125  
3355.000000	64.896917  
3354.000000	64.888191  
3353.000000	64.884567  
3352.000000	64.886474  
3351.000000	64.894223  
3350.000000	64.907574  
3349.000000	64.926075  
3348.000000	64.948701  
3347.000000	64.974403  
3346.000000	65.001940  
3345.000000	65.030193  
3344.000000	65.058064  
3343.000000	65.084600  
3342.000000	65.109109  
3341.000000	65.130996  
3340.000000	65.149545  
3339.000000	65.164089  
3338.000000	65.173983  
3337.000000	65.178704  
3336.000000	65.177941  
3335.000000	65.171575  
3334.000000	65.159726  
3333.000000	65.142965  
3332.000000	65.122509  
3331.000000	65.099978  
3330.000000	65.077567  
3329.000000	65.057659  
3328.000000	65.042686  
3327.000000	65.034675  
3326.000000	65.035033  
3325.000000	65.044069  
3324.000000	65.061068  
3323.000000	65.084052  
3322.000000	65.110516  
3321.000000	65.137505  
3320.000000	65.162396  
3319.000000	65.182971  
3318.000000	65.198016  
3317.000000	65.207219  
3316.000000	65.211129  
3315.000000	65.210723  
3314.000000	65.207076  
3313.000000	65.201306  
3312.000000	65.194106  
3311.000000	65.185832  
3310.000000	65.176558  
3309.000000	65.166091  
3308.000000	65.154242  
3307.000000	65.140962  
3306.000000	65.126419  
3305.000000	65.111088  
3304.000000	65.095639  
3303.000000	65.080833  
3302.000000	65.067124  
3301.000000	65.055060  
3300.000000	65.044808  
3299.000000	65.036487  
3298.000000	65.030145  
3297.000000	65.025949  
3296.000000	65.024018  
3295.000000	65.024542  
3294.000000	65.027475  
3293.000000	65.032458  
3292.000000	65.038704  
3291.000000	65.045189  
3290.000000	65.051102  
3289.000000	65.055799  
3288.000000	65.059137  
3287.000000	65.061545  
3286.000000	65.064001  
3285.000000	65.067839  
3284.000000	65.074181  
3283.000000	65.083575  
3282.000000	65.095639  
3281.000000	65.109014  
3280.000000	65.121746  
3279.000000	65.131425  
3278.000000	65.135884  
3277.000000	65.133810  
3276.000000	65.124940  
3275.000000	65.110182  
3274.000000	65.091347  
3273.000000	65.070700  
3272.000000	65.050506  
3271.000000	65.032768  
3270.000000	65.018701  
3269.000000	65.008664  
3268.000000	65.002155  
3267.000000	64.997959  
3266.000000	64.994716  
3265.000000	64.990949  
3264.000000	64.985847  
3263.000000	64.979314  
3262.000000	64.972233  
3261.000000	64.966011  
3260.000000	64.962482  
3259.000000	64.963388  
3258.000000	64.969992  
3257.000000	64.982533  
3256.000000	65.000391  
3255.000000	65.021800  
3254.000000	65.044569  
3253.000000	65.066170  
3252.000000	65.084600  
3251.000000	65.098309  
3250.000000	65.106582  
3249.000000	65.109181  
3248.000000	65.106058  
3247.000000	65.097212  
3246.000000	65.082597  
3245.000000	65.062308  
3244.000000	65.036940  
3243.000000	65.007781  
3242.000000	64.977431  
3241.000000	64.948821  
3240.000000	64.924693  
3239.000000	64.907312  
3238.000000	64.897704  
3237.000000	64.895510  
3236.000000	64.898896  
3235.000000	64.905333  
3234.000000	64.912199  
3233.000000	64.917731  
3232.000000	64.921069  
3231.000000	64.922618  
3230.000000	64.923477  
3229.000000	64.924979  
3228.000000	64.928030  
3227.000000	64.932775  
3226.000000	64.938616  
3225.000000	64.944672  
3224.000000	64.950275  
3223.000000	64.955353  
3222.000000	64.960575  
3221.000000	64.967203  
3220.000000	64.976596  
3219.000000	64.989423  
3218.000000	65.005540  
3217.000000	65.023970  
3216.000000	65.043306  
3215.000000	65.062093  
3214.000000	65.079355  
3213.000000	65.094757  
3212.000000	65.108728  
3211.000000	65.122199  
3210.000000	65.136051  
3209.000000	65.150809  
3208.000000	65.166234  
3207.000000	65.181255  
3206.000000	65.194368  
3205.000000	65.204071  
3204.000000	65.209341  
3203.000000	65.209937  
3202.000000	65.206575  
3201.000000	65.200591  
3200.000000	65.193629  
3199.000000	65.187001  
3198.000000	65.181422  
3197.000000	65.176725  
3196.000000	65.172123  
3195.000000	65.166449  
3194.000000	65.158462  
3193.000000	65.147280  
3192.000000	65.132784  
3191.000000	65.115809  
3190.000000	65.098309  
3189.000000	65.082764  
3188.000000	65.071582  
3187.000000	65.066480  
3186.000000	65.068173  
3185.000000	65.075826  
3184.000000	65.087056  
3183.000000	65.098428  
3182.000000	65.106296  
3181.000000	65.107727  
3180.000000	65.100955  
3179.000000	65.086269  
3178.000000	65.065670  
3177.000000	65.042686  
3176.000000	65.021419  
3175.000000	65.005707  
3174.000000	64.998292  
3173.000000	65.000176  
3172.000000	65.010571  
3171.000000	65.027785  
3170.000000	65.049457  
3169.000000	65.073442  
3168.000000	65.097904  
3167.000000	65.121436  
3166.000000	65.142989  
3165.000000	65.161418  
3164.000000	65.175247  
3163.000000	65.182614  
3162.000000	65.181493  
3161.000000	65.170335  
3160.000000	65.148782  
3159.000000	65.117740  
3158.000000	65.079951  
3157.000000	65.039658  
3156.000000	65.001869  
3155.000000	64.971590  
3154.000000	64.952874  
3153.000000	64.948153  
3152.000000	64.957690  
3151.000000	64.979720  
3150.000000	65.010356  
3149.000000	65.044546  
3148.000000	65.076375  
3147.000000	65.100264  
3146.000000	65.111470  
3145.000000	65.107011  
3144.000000	65.086007  
3143.000000	65.050005  
3142.000000	65.003085  
3141.000000	64.951181  
3140.000000	64.901137  
3139.000000	64.859461  
3138.000000	64.831376  
3137.000000	64.819717  
3136.000000	64.824438  
3135.000000	64.842796  
3134.000000	64.869999  
3133.000000	64.900517  
3132.000000	64.929461  
3131.000000	64.953565  
3130.000000	64.971590  
3129.000000	64.984369  
3128.000000	64.993715  
3127.000000	65.001344  
3126.000000	65.008282  
3125.000000	65.013813  
3124.000000	65.015673  
3123.000000	65.010786  
3122.000000	64.996480  
3121.000000	64.971446  
3120.000000	64.936542  
3119.000000	64.895081  
3118.000000	64.852404  
3117.000000	64.814972  
3116.000000	64.789271  
3115.000000	64.780139  
3114.000000	64.789891  
3113.000000	64.817905  
3112.000000	64.860820  
3111.000000	64.913415  
3110.000000	64.969539  
3109.000000	65.023016  
3108.000000	65.068960  
3107.000000	65.104246  
3106.000000	65.127921  
3105.000000	65.140676  
3104.000000	65.144824  
3103.000000	65.143394  
3102.000000	65.139627  
3101.000000	65.136384  
3100.000000	65.135407  
3099.000000	65.137505  
3098.000000	65.141963  
3097.000000	65.147304  
3096.000000	65.151047  
3095.000000	65.150880  
3094.000000	65.144443  
3093.000000	65.130329  
3092.000000	65.108108  
3091.000000	65.078783  
3090.000000	65.044617  
3089.000000	65.008997  
3088.000000	64.975666  
3087.000000	64.948344  
3086.000000	64.929890  
3085.000000	64.922165  
3084.000000	64.925479  
3083.000000	64.938926  
3082.000000	64.960503  
3081.000000	64.987730  
3080.000000	65.017724  
3079.000000	65.047979  
3078.000000	65.076398  
3077.000000	65.101766  
3076.000000	65.122985  
3075.000000	65.139722  
3074.000000	65.151953  
3073.000000	65.160202  
3072.000000	65.165400  
3071.000000	65.168595  
3070.000000	65.171098  
3069.000000	65.173935  
3068.000000	65.177917  
3067.000000	65.182971  
3066.000000	65.188097  
3065.000000	65.191435  
3064.000000	65.190672  
3063.000000	65.183615  
3062.000000	65.168690  
3061.000000	65.145754  
3060.000000	65.116190  
3059.000000	65.082716  
3058.000000	65.048956  
3057.000000	65.018701  
3056.000000	64.995121  
3055.000000	64.980053  
3054.000000	64.973807  
3053.000000	64.975261  
3052.000000	64.982151  
3051.000000	64.991807  
3050.000000	65.001726  
3049.000000	65.010142  
3048.000000	65.016555  
3047.000000	65.021538  
3046.000000	65.026426  
3045.000000	65.032649  
3044.000000	65.041160  
3043.000000	65.052127  
3042.000000	65.064620  
3041.000000	65.076971  
3040.000000	65.086889  
3039.000000	65.092444  
3038.000000	65.092468  
3037.000000	65.086889  
3036.000000	65.076661  
3035.000000	65.063524  
3034.000000	65.049409  
3033.000000	65.036153  
3032.000000	65.024876  
3031.000000	65.016078  
3030.000000	65.009593  
3029.000000	65.005350  
3028.000000	65.003490  
3027.000000	65.004730  
3026.000000	65.010309  
3025.000000	65.021681  
3024.000000	65.039730  
3023.000000	65.064287  
3022.000000	65.093755  
3021.000000	65.125393  
3020.000000	65.155816  
3019.000000	65.181612  
3018.000000	65.200114  
3017.000000	65.210056  
3016.000000	65.211963  
3015.000000	65.207791  
3014.000000	65.200471  
3013.000000	65.193152  
3012.000000	65.188527  
3011.000000	65.188312  
3010.000000	65.192890  
3009.000000	65.201640  
3008.000000	65.213084  
3007.000000	65.225410  
3006.000000	65.236687  
3005.000000	65.245175  
3004.000000	65.249633  
3003.000000	65.249204  
3002.000000	65.243697  
3001.000000	65.233635  
3000.000000	65.219950  
2999.000000	65.204286  
2998.000000	65.188097  
2997.000000	65.172839  
2996.000000	65.159201  
2995.000000	65.147089  
2994.000000	65.135669  
2993.000000	65.123748  
2992.000000	65.110278  
2991.000000	65.094614  
2990.000000	65.077137  
2989.000000	65.059304  
2988.000000	65.043401  
2987.000000	65.031647  
2986.000000	65.025711  
2985.000000	65.026164  
2984.000000	65.031933  
2983.000000	65.040659  
2982.000000	65.049242  
2981.000000	65.054607  
2980.000000	65.054750  
2979.000000	65.049147  
2978.000000	65.039038  
2977.000000	65.026569  
2976.000000	65.014529  
2975.000000	65.005135  
2974.000000	64.999437  
2973.000000	64.997029  
2972.000000	64.996218  
2971.000000	64.994621  
2970.000000	64.989757  
2969.000000	64.980006  
2968.000000	64.965081  
2967.000000	64.945888  
2966.000000	64.924216  
2965.000000	64.902210  
2964.000000	64.881730  
2963.000000	64.864087  
2962.000000	64.849686  
2961.000000	64.838552  
2960.000000	64.830541  
2959.000000	64.825701  
2958.000000	64.824509  
2957.000000	64.827609  
2956.000000	64.835834  
2955.000000	64.849400  
2954.000000	64.867854  
2953.000000	64.889526  
2952.000000	64.912080  
2951.000000	64.932990  
2950.000000	64.950108  
2949.000000	64.962220  
2948.000000	64.969325  
2947.000000	64.972710  
2946.000000	64.974403  
2945.000000	64.976620  
2944.000000	64.980912  
2943.000000	64.988017  
2942.000000	64.997363  
2941.000000	65.007662  
2940.000000	65.016961  
2939.000000	65.023231  
2938.000000	65.025019  
2937.000000	65.021944  
2936.000000	65.014624  
2935.000000	65.004539  
2934.000000	64.993882  
2933.000000	64.984917  
2932.000000	64.979386  
2931.000000	64.978289  
2930.000000	64.981532  
2929.000000	64.988207  
2928.000000	64.996671  
2927.000000	65.004825  
2926.000000	65.010714  
2925.000000	65.012836  
2924.000000	65.010285  
2923.000000	65.003037  
2922.000000	64.991569  
2921.000000	64.976835  
2920.000000	64.959883  
2919.000000	64.941763  
2918.000000	64.923167  
2917.000000	64.904713  
2916.000000	64.887261  
2915.000000	64.871931  
2914.000000	64.860057  
2913.000000	64.853143  
2912.000000	64.852476  
2911.000000	64.858818  
2910.000000	64.872002  
2909.000000	64.890980  
2908.000000	64.913892  
2907.000000	64.938521  
2906.000000	64.962482  
2905.000000	64.983725  
2904.000000	65.000820  
2903.000000	65.013098  
2902.000000	65.020728  
2901.000000	65.024375  
2900.000000	65.024995  
2899.000000	65.023660  
2898.000000	65.021371  
2897.000000	65.018868  
2896.000000	65.016436  
2895.000000	65.014052  
2894.000000	65.011596  
2893.000000	65.008592  
2892.000000	65.004563  
2891.000000	64.999151  
2890.000000	64.992094  
2889.000000	64.983391  
2888.000000	64.973258  
2887.000000	64.962244  
2886.000000	64.951205  
2885.000000	64.941096  
2884.000000	64.933013  
2883.000000	64.927721  
2882.000000	64.926004  
2881.000000	64.928293  
2880.000000	64.934825  
2879.000000	64.945411  
2878.000000	64.959692  
2877.000000	64.977169  
2876.000000	64.997076  
2875.000000	65.018463  
2874.000000	65.040421  
2873.000000	65.061879  
2872.000000	65.081787  
2871.000000	65.098977  
2870.000000	65.112328  
2869.000000	65.120911  
2868.000000	65.124225  
2867.000000	65.122246  
2866.000000	65.115785  
2865.000000	65.106129  
2864.000000	65.095329  
2863.000000	65.085411  
2862.000000	65.078306  
2861.000000	65.074968  
2860.000000	65.075683  
2859.000000	65.079450  
2858.000000	65.084719  
2857.000000	65.089464  
2856.000000	65.091776  
2855.000000	65.090274  
2854.000000	65.084409  
2853.000000	65.074539  
2852.000000	65.061807  
2851.000000	65.047764  
2850.000000	65.034008  
2849.000000	65.021872  
2848.000000	65.012264  
2847.000000	65.005660  
2846.000000	65.002107  
2845.000000	65.001368  
2844.000000	65.002894  
2843.000000	65.006136  
2842.000000	65.010523  
2841.000000	65.015292  
2840.000000	65.019798  
2839.000000	65.023660  
2838.000000	65.026760  
2837.000000	65.029501  
2836.000000	65.032076  
2835.000000	65.034651  
2834.000000	65.036821  
2833.000000	65.037822  
2832.000000	65.036559  
2831.000000	65.031671  
2830.000000	65.022087  
2829.000000	65.007352  
2828.000000	64.988327  
2827.000000	64.966821  
2826.000000	64.945745  
2825.000000	64.928197  
2824.000000	64.917230  
2823.000000	64.914822  
2822.000000	64.921522  
2821.000000	64.936184  
2820.000000	64.956545  
2819.000000	64.979410  
2818.000000	65.001559  
2817.000000	65.020418  
2816.000000	65.034127  
2815.000000	65.042161  
2814.000000	65.044927  
2813.000000	65.043735  
2812.000000	65.040278  
2811.000000	65.036678  
2810.000000	65.034985  
2809.000000	65.036606  
2808.000000	65.042519  
2807.000000	65.052723  
2806.000000	65.066409  
2805.000000	65.082168  
2804.000000	65.098142  
2803.000000	65.112471  
2802.000000	65.123462  
2801.000000	65.129780  
2800.000000	65.130758  
2799.000000	65.126132  
2798.000000	65.116286  
2797.000000	65.101909  
2796.000000	65.084052  
2795.000000	65.063905  
2794.000000	65.042972  
2793.000000	65.022706  
2792.000000	65.004730  
2791.000000	64.990520  
2790.000000	64.981460  
2789.000000	64.978528  
2788.000000	64.982247  
2787.000000	64.992284  
2786.000000	65.007615  
2785.000000	65.026640  
2784.000000	65.047168  
2783.000000	65.066790  
2782.000000	65.083003  
2781.000000	65.093517  
2780.000000	65.096616  
2779.000000	65.091371  
2778.000000	65.077638  
2777.000000	65.056443  
2776.000000	65.029692  
2775.000000	65.000128  
2774.000000	64.970850  
2773.000000	64.944791  
2772.000000	64.924430  
2771.000000	64.911365  
2770.000000	64.906001  
2769.000000	64.907860  
2768.000000	64.915513  
2767.000000	64.927291  
2766.000000	64.941430  
2765.000000	64.956569  
2764.000000	64.971899  
2763.000000	64.986991  
2762.000000	65.001511  
2761.000000	65.015077  
2760.000000	65.026903  
2759.000000	65.036082  
2758.000000	65.041685  
2757.000000	65.043139  
2756.000000	65.040516  
2755.000000	65.034604  
2754.000000	65.026903  
2753.000000	65.019392  
2752.000000	65.013790  
2751.000000	65.011477  
2750.000000	65.013146  
2749.000000	65.018677  
2748.000000	65.027189  
2747.000000	65.037488  
2746.000000	65.048313  
2745.000000	65.058779  
2744.000000	65.068435  
2743.000000	65.077400  
2742.000000	65.085864  
2741.000000	65.094161  
2740.000000	65.102267  
2739.000000	65.109848  
2738.000000	65.116143  
2737.000000	65.120196  
2736.000000	65.121150  
2735.000000	65.118360  
2734.000000	65.111613  
2733.000000	65.101337  
2732.000000	65.088415  
2731.000000	65.074229  
2730.000000	65.060162  
2729.000000	65.047478  
2728.000000	65.036916  
2727.000000	65.028786  
2726.000000	65.022563  
2725.000000	65.017414  
2724.000000	65.012383  
2723.000000	65.006589  
2722.000000	64.999890  
2721.000000	64.992427  
2720.000000	64.985084  
2719.000000	64.978837  
2718.000000	64.974665  
2717.000000	64.973044  
2716.000000	64.973735  
2715.000000	64.975881  
2714.000000	64.978170  
2713.000000	64.979219  
2712.000000	64.978265  
2711.000000	64.975428  
2710.000000	64.971971  
2709.000000	64.969897  
2708.000000	64.971733  
2707.000000	64.979577  
2706.000000	64.994668  
2705.000000	65.016746  
2704.000000	65.044164  
2703.000000	65.073776  
2702.000000	65.102005  
2701.000000	65.125179  
2700.000000	65.140366  
2699.000000	65.145826  
2698.000000	65.141510  
2697.000000	65.128707  
2696.000000	65.109848  
2695.000000	65.087938  
2694.000000	65.065932  
2693.000000	65.046334  
2692.000000	65.030765  
2691.000000	65.019726  
2690.000000	65.012907  
2689.000000	65.009188  
2688.000000	65.006995  
2687.000000	65.004682  
2686.000000	65.001130  
2685.000000	64.995718  
2684.000000	64.988636  
2683.000000	64.980673  
2682.000000	64.972972  
2681.000000	64.966773  
2680.000000	64.963078  
2679.000000	64.962172  
2678.000000	64.963865  
2677.000000	64.967441  
2676.000000	64.972019  
2675.000000	64.976811  
2674.000000	64.981532  
2673.000000	64.986133  
2672.000000	64.991164  
2671.000000	64.997315  
2670.000000	65.005159  
2669.000000	65.014743  
2668.000000	65.025663  
2667.000000	65.036988  
2666.000000	65.047645  
2665.000000	65.056610  
2664.000000	65.063381  
2663.000000	65.068149  
2662.000000	65.071535  
2661.000000	65.074205  
2660.000000	65.076637  
2659.000000	65.078878  
2658.000000	65.080213  
2657.000000	65.079474  
2656.000000	65.075206  
2655.000000	65.066194  
2654.000000	65.051794  
2653.000000	65.032267  
2652.000000	65.008831  
2651.000000	64.983510  
2650.000000	64.958786  
2649.000000	64.937353  
2648.000000	64.921379  
2647.000000	64.912509  
2646.000000	64.911580  
2645.000000	64.918565  
2644.000000	64.932656  
2643.000000	64.952301  
2642.000000	64.975452  
2641.000000	64.999771  
2640.000000	65.022826  
2639.000000	65.042471  
2638.000000	65.056967  
2637.000000	65.065264  
2636.000000	65.067172  
2635.000000	65.063166  
2634.000000	65.054297  
2633.000000	65.041995  
2632.000000	65.027832  
2631.000000	65.013289  
2630.000000	64.999461  
2629.000000	64.987301  
2628.000000	64.977312  
2627.000000	64.969682  
2626.000000	64.964246  
2625.000000	64.960598  
2624.000000	64.958190  
2623.000000	64.956283  
2622.000000	64.954376  
2621.000000	64.951920  
2620.000000	64.948987  
2619.000000	64.945960  
2618.000000	64.943552  
2617.000000	64.942908  
2616.000000	64.944911  
2615.000000	64.949989  
2614.000000	64.957809  
2613.000000	64.967250  
2612.000000	64.976620  
2611.000000	64.984154  
2610.000000	64.988470  
2609.000000	64.988946  
2608.000000	64.986014  
2607.000000	64.981102  
2606.000000	64.976358  
2605.000000	64.974141  
2604.000000	64.976358  
2603.000000	64.983963  
2602.000000	64.996933  
2601.000000	65.014100  
2600.000000	65.033459  
2599.000000	65.052485  
2598.000000	65.069079  
2597.000000	65.081453  
2596.000000	65.088653  
2595.000000	65.090584  
2594.000000	65.087962  
2593.000000	65.082073  
2592.000000	65.074610  
2591.000000	65.067172  
2590.000000	65.061259  
2589.000000	65.057873  
2588.000000	65.057373  
2587.000000	65.059590  
2586.000000	65.063858  
2585.000000	65.069150  
2584.000000	65.074443  
2583.000000	65.078997  
2582.000000	65.082526  
2581.000000	65.085434  
2580.000000	65.088510  
2579.000000	65.092706  
2578.000000	65.098857  
2577.000000	65.107369  
2576.000000	65.117907  
2575.000000	65.129494  
2574.000000	65.140628  
2573.000000	65.149736  
2572.000000	65.155458  
2571.000000	65.157270  
2570.000000	65.155267  
2569.000000	65.150403  
2568.000000	65.144014  
2567.000000	65.137386  
2566.000000	65.131521  
2565.000000	65.126872  
2564.000000	65.123271  
2563.000000	65.120220  
2562.000000	65.117144  
2561.000000	65.113878  
2560.000000	65.110635  
2559.000000	65.108203  
2558.000000	65.107440  
2557.000000	65.108942  
2556.000000	65.112638  
2555.000000	65.117549  
2554.000000	65.122270  
2553.000000	65.125131  
2552.000000	65.124797  
2551.000000	65.120553  
2550.000000	65.112614  
2549.000000	65.102052  
2548.000000	65.090441  
2547.000000	65.079522  
2546.000000	65.070724  
2545.000000	65.065026  
2544.000000	65.062689  
2543.000000	65.063357  
2542.000000	65.066242  
2541.000000	65.070462  
2540.000000	65.075254  
2539.000000	65.079927  
2538.000000	65.084266  
2537.000000	65.088176  
2536.000000	65.091609  
2535.000000	65.094494  
2534.000000	65.096497  
2533.000000	65.097165  
2532.000000	65.095949  
2531.000000	65.092277  
2530.000000	65.085816  
2529.000000	65.076518  
2528.000000	65.064787  
2527.000000	65.051603  
2526.000000	65.038394  
2525.000000	65.026831  
2524.000000	65.018606  
2523.000000	65.015149  
2522.000000	65.017342  
2521.000000	65.025377  
2520.000000	65.038657  
2519.000000	65.055894  
2518.000000	65.075254  
2517.000000	65.094614  
2516.000000	65.111923  
2515.000000	65.125465  
2514.000000	65.134119  
2513.000000	65.137314  
2512.000000	65.135216  
2511.000000	65.128469  
2510.000000	65.118193  
2509.000000	65.105652  
2508.000000	65.091896  
2507.000000	65.077948  
2506.000000	65.064263  
2505.000000	65.051054  
2504.000000	65.037894  
2503.000000	65.024232  
2502.000000	65.009140  
2501.000000	64.992022  
2500.000000	64.972829  
2499.000000	64.952278  
2498.000000	64.931988  
2497.000000	64.914035  
2496.000000	64.900898  
2495.000000	64.894604  
2494.000000	64.896368  
2493.000000	64.906144  
2492.000000	64.922451  
2491.000000	64.942741  
2490.000000	64.963674  
2489.000000	64.981937  
2488.000000	64.995026  
2487.000000	65.001368  
2486.000000	65.000867  
2485.000000	64.994502  
2484.000000	64.984297  
2483.000000	64.972424  
2482.000000	64.960932  
2481.000000	64.951109  
2480.000000	64.943575  
2479.000000	64.938044  
2478.000000	64.933967  
2477.000000	64.930367  
2476.000000	64.926290  
2475.000000	64.921069  
2474.000000	64.914536  
2473.000000	64.906930  
2472.000000	64.898729  
2471.000000	64.890813  
2470.000000	64.884018  
2469.000000	64.879083  
2468.000000	64.876389  
2467.000000	64.875960  
2466.000000	64.877438  
2465.000000	64.880132  
2464.000000	64.883351  
2463.000000	64.886403  
2462.000000	64.888668  
2461.000000	64.889860  
2460.000000	64.889931  
2459.000000	64.888787  
2458.000000	64.886856  
2457.000000	64.884328  
2456.000000	64.881873  
2455.000000	64.879870  
2454.000000	64.879012  
2453.000000	64.880061  
2452.000000	64.883708  
2451.000000	64.890837  
2450.000000	64.901995  
2449.000000	64.917278  
2448.000000	64.936041  
2447.000000	64.957070  
2446.000000	64.978504  
2445.000000	64.998030  
2444.000000	65.013289  
2443.000000	65.022420  
2442.000000	65.024232  
2441.000000	65.018653  
2440.000000	65.006661  
2439.000000	64.990282  
2438.000000	64.972162  
2437.000000	64.955091  
2436.000000	64.941573  
2435.000000	64.933109  
2434.000000	64.930272  
2433.000000	64.932036  
2432.000000	64.936661  
2431.000000	64.941692  
2430.000000	64.944887  
2429.000000	64.944577  
2428.000000	64.939999  
2427.000000	64.931821  
2426.000000	64.921569  
2425.000000	64.911556  
2424.000000	64.904189  
2423.000000	64.901638  
2422.000000	64.905214  
2421.000000	64.915299  
2420.000000	64.931368  
2419.000000	64.951896  
2418.000000	64.974713  
2417.000000	64.997315  
2416.000000	65.017175  
2415.000000	65.032124  
2414.000000	65.040516  
2413.000000	65.041494  
2412.000000	65.034985  
2411.000000	65.022063  
2410.000000	65.004634  
2409.000000	64.985275  
2408.000000	64.966773  
2407.000000	64.951586  
2406.000000	64.941310  
2405.000000	64.936637  
2404.000000	64.936971  
2403.000000	64.941000  
2402.000000	64.946818  
2401.000000	64.952468  
2400.000000	64.956641  
2399.000000	64.958596  
2398.000000	64.958572  
2397.000000	64.957427  
2396.000000	64.956569  
2395.000000	64.957404  
2394.000000	64.961218  
2393.000000	64.968657  
2392.000000	64.979577  
2391.000000	64.993047  
2390.000000	65.007472  
2389.000000	65.020990  
2388.000000	65.031743  
2387.000000	65.038347  
2386.000000	65.039944  
2385.000000	65.036463  
2384.000000	65.028500  
2383.000000	65.016984  
2382.000000	65.003347  
2381.000000	64.988803  
2380.000000	64.974594  
2379.000000	64.961361  
2378.000000	64.949679  
2377.000000	64.939689  
2376.000000	64.931535  
2375.000000	64.925074  
2374.000000	64.920163  
2373.000000	64.916467  
2372.000000	64.913511  
2371.000000	64.910840  
2370.000000	64.907860  
2369.000000	64.904308  
2368.000000	64.900326  
2367.000000	64.896440  
2366.000000	64.893603  
2365.000000	64.892768  
2364.000000	64.894676  
2363.000000	64.899635  
2362.000000	64.907240  
2361.000000	64.916634  
2360.000000	64.926552  
2359.000000	64.935898  
2358.000000	64.943909  
2357.000000	64.950466  
2356.000000	64.956021  
2355.000000	64.961338  
2354.000000	64.966988  
2353.000000	64.973211  
2352.000000	64.979434  
2351.000000	64.984369  
2350.000000	64.986205  
2349.000000	64.983057  
2348.000000	64.973640  
2347.000000	64.957690  
2346.000000	64.936113  
2345.000000	64.910936  
2344.000000	64.885115  
2343.000000	64.861869  
2342.000000	64.844036  
2341.000000	64.833450  
2340.000000	64.830899  
2339.000000	64.835834  
2338.000000	64.847087  
2337.000000	64.862871  
2336.000000	64.881300  
2335.000000	64.900612  
2334.000000	64.919519  
2333.000000	64.936971  
2332.000000	64.952158  
2331.000000	64.964199  
2330.000000	64.972162  
2329.000000	64.975047  
2328.000000	64.972114  
2327.000000	64.963197  
2326.000000	64.948654  
2325.000000	64.929533  
2324.000000	64.907860  
2323.000000	64.886021  
2322.000000	64.866471  
2321.000000	64.851307  
2320.000000	64.841985  
2319.000000	64.839100  
2318.000000	64.842605  
2317.000000	64.851665  
2316.000000	64.864993  
2315.000000	64.880800  
2314.000000	64.897131  
2313.000000	64.911913  
2312.000000	64.923191  
2311.000000	64.929199  
2310.000000	64.928698  
2309.000000	64.921188  
2308.000000	64.907193  
2307.000000	64.888334  
2306.000000	64.867091  
2305.000000	64.846515  
2304.000000	64.829802  
2303.000000	64.819645  
2302.000000	64.817976  
2301.000000	64.825320  
2300.000000	64.840865  
2299.000000	64.862513  
2298.000000	64.887309  
2297.000000	64.911937  
2296.000000	64.933109  
2295.000000	64.948010  
2294.000000	64.954543  
2293.000000	64.951705  
2292.000000	64.939737  
2291.000000	64.919781  
2290.000000	64.893937  
2289.000000	64.865112  
2288.000000	64.836525  
2287.000000	64.811396  
2286.000000	64.792490  
2285.000000	64.781665  
2284.000000	64.779901  
2283.000000	64.786958  
2282.000000	64.801359  
2281.000000	64.820742  
2280.000000	64.842247  
2279.000000	64.862847  
2278.000000	64.879822  
2277.000000	64.891242  
2276.000000	64.896059  
2275.000000	64.894413  
2274.000000	64.887332  
2273.000000	64.876770  
2272.000000	64.865112  
2271.000000	64.854836  
2270.000000	64.848208  
2269.000000	64.846897  
2268.000000	64.851975  
2267.000000	64.863467  
2266.000000	64.880657  
2265.000000	64.901757  
2264.000000	64.924812  
2263.000000	64.947414  
2262.000000	64.967203  
2261.000000	64.982080  
2260.000000	64.990687  
2259.000000	64.992451  
2258.000000	64.987802  
2257.000000	64.977931  
2256.000000	64.964675  
2255.000000	64.950299  
2254.000000	64.937090  
2253.000000	64.927053  
2252.000000	64.921379  
2251.000000	64.920520  
2250.000000	64.924192  
2249.000000	64.931273  
2248.000000	64.940118  
2247.000000	64.948987  
2246.000000	64.956164  
2245.000000	64.960312  
2244.000000	64.960503  
2243.000000	64.956355  
2242.000000	64.947891  
2241.000000	64.935350  
2240.000000	64.919281  
2239.000000	64.900374  
2238.000000	64.879465  
2237.000000	64.857649  
2236.000000	64.836096  
2235.000000	64.816093  
2234.000000	64.799070  
2233.000000	64.786195  
2232.000000	64.778232  
2231.000000	64.775180  
2230.000000	64.776444  
2229.000000	64.780950  
2228.000000	64.787316  
2227.000000	64.794111  
2226.000000	64.800548  
2225.000000	64.806604  
2224.000000	64.813160  
2223.000000	64.821553  
2222.000000	64.833164  
2221.000000	64.848852  
2220.000000	64.868545  
2219.000000	64.891076  
2218.000000	64.914393  
2217.000000	64.935922  
2216.000000	64.953351  
2215.000000	64.964914  
2214.000000	64.970016  
2213.000000	64.969253  
2212.000000	64.964103  
2211.000000	64.956688  
2210.000000	64.949202  
2209.000000	64.943361  
2208.000000	64.940142  
2207.000000	64.939618  
2206.000000	64.941000  
2205.000000	64.943027  
2204.000000	64.944434  
2203.000000	64.943957  
2202.000000	64.940643  
2201.000000	64.934086  
2200.000000	64.924478  
2199.000000	64.912509  
2198.000000	64.899110  
2197.000000	64.885401  
2196.000000	64.872503  
2195.000000	64.861178  
2194.000000	64.851808  
2193.000000	64.844202  
2192.000000	64.837765  
2191.000000	64.831948  
2190.000000	64.826416  
2189.000000	64.820885  
2188.000000	64.815402  
2187.000000	64.810299  
2186.000000	64.806103  
2185.000000	64.803051  
2184.000000	64.801526  
2183.000000	64.801669  
2182.000000	64.803814  
2181.000000	64.808130  
2180.000000	64.815044  
2179.000000	64.824914  
2178.000000	64.838194  
2177.000000	64.855051  
2176.000000	64.875316  
2175.000000	64.898300  
2174.000000	64.922976  
2173.000000	64.947843  
2172.000000	64.971494  
2171.000000	64.992570  
2170.000000	65.010213  
2169.000000	65.023708  
2168.000000	65.032577  
2167.000000	65.036034  
2166.000000	65.033435  
2165.000000	65.023994  
2164.000000	65.007281  
2163.000000	64.983201  
2162.000000	64.952826  
2161.000000	64.918065  
2160.000000	64.881634  
2159.000000	64.846467  
2158.000000	64.815473  
2157.000000	64.790964  
2156.000000	64.774084  
2155.000000	64.764690  
2154.000000	64.761567  
2153.000000	64.762735  
2152.000000	64.765858  
2151.000000	64.768791  
2150.000000	64.769911  
2149.000000	64.768362  
2148.000000	64.764094  
2147.000000	64.757609  
2146.000000	64.749789  
2145.000000	64.741611  
2144.000000	64.734244  
2143.000000	64.728617  
2142.000000	64.725422  
2141.000000	64.725136  
2140.000000	64.727950  
2139.000000	64.733576  
2138.000000	64.741659  
2137.000000	64.751577  
2136.000000	64.762878  
2135.000000	64.775061  
2134.000000	64.788079  
2133.000000	64.801716  
2132.000000	64.816212  
2131.000000	64.831829  
2130.000000	64.848566  
2129.000000	64.866137  
2128.000000	64.883804  
2127.000000	64.900660  
2126.000000	64.915609  
2125.000000	64.927482  
2124.000000	64.935278  
2123.000000	64.938640  
2122.000000	64.937639  
2121.000000	64.932823  
2120.000000	64.925193  
2119.000000	64.915966  
2118.000000	64.906048  
2117.000000	64.896154  
2116.000000	64.886546  
2115.000000	64.877009  
2114.000000	64.867091  
2113.000000	64.856386  
2112.000000	64.844512  
2111.000000	64.831614  
2110.000000	64.818096  
2109.000000	64.804863  
2108.000000	64.792919  
2107.000000	64.783406  
2106.000000	64.777350  
2105.000000	64.775395  
2104.000000	64.777708  
2103.000000	64.783906  
2102.000000	64.792966  
2101.000000	64.803433  
2100.000000	64.813685  
2099.000000	64.822173  
2098.000000	64.827728  
2097.000000	64.829707  
2096.000000	64.828252  
2095.000000	64.824128  
2094.000000	64.818477  
2093.000000	64.812588  
2092.000000	64.807438  
2091.000000	64.803552  
2090.000000	64.800810  
2089.000000	64.798450  
2088.000000	64.795494  
2087.000000	64.791250  
2086.000000	64.785361  
2085.000000	64.778113  
2084.000000	64.770126  
2083.000000	64.762067  
2082.000000	64.754533  
2081.000000	64.747643  
2080.000000	64.741301  
2079.000000	64.735412  
2078.000000	64.730143  
2077.000000	64.726305  
2076.000000	64.725136  
2075.000000	64.727997  
2074.000000	64.736151  
2073.000000	64.749956  
2072.000000	64.768910  
2071.000000	64.791679  
2070.000000	64.816260  
2069.000000	64.840435  
2068.000000	64.862394  
2067.000000	64.880943  
2066.000000	64.895653  
2065.000000	64.906859  
2064.000000	64.915132  
2063.000000	64.920878  
2062.000000	64.924216  
2061.000000	64.924740  
2060.000000	64.921569  
2059.000000	64.913773  
2058.000000	64.901161  
2057.000000	64.884352  
2056.000000	64.865088  
2055.000000	64.846062  
2054.000000	64.830303  
2053.000000	64.820790  
2052.000000	64.819455  
2051.000000	64.826846  
2050.000000	64.841938  
2049.000000	64.861965  
2048.000000	64.883327  
2047.000000	64.901947  
2046.000000	64.914464  
2045.000000	64.918661  
2044.000000	64.913868  
2043.000000	64.901161  
2042.000000	64.882755  
2041.000000	64.861726  
2040.000000	64.841079  
2039.000000	64.823293  
2038.000000	64.809894  
2037.000000	64.801406  
2036.000000	64.797806  
2035.000000	64.798355  
2034.000000	64.802241  
2033.000000	64.808821  
2032.000000	64.817619  
2031.000000	64.828205  
2030.000000	64.840197  
2029.000000	64.852881  
2028.000000	64.865136  
2027.000000	64.875531  
2026.000000	64.882540  
2025.000000	64.884829  
2024.000000	64.881563  
2023.000000	64.872837  
2022.000000	64.859652  
2021.000000	64.843916  
2020.000000	64.828038  
2019.000000	64.814543  
2018.000000	64.805555  
2017.000000	64.802360  
2016.000000	64.805293  
2015.000000	64.813542  
2014.000000	64.825701  
2013.000000	64.839863  
2012.000000	64.854240  
2011.000000	64.867377  
2010.000000	64.878392  
2009.000000	64.887070  
2008.000000	64.893651  
2007.000000	64.898514  
2006.000000	64.902138  
2005.000000	64.904594  
2004.000000	64.905738  
2003.000000	64.905309  
2002.000000	64.902949  
2001.000000	64.898443  
2000.000000	64.892053  
1999.000000	64.884114  
1998.000000	64.875221  
1997.000000	64.865994  
1996.000000	64.856958  
1995.000000	64.848470  
1994.000000	64.840817  
1993.000000	64.834165  
1992.000000	64.828705  
1991.000000	64.824652  
1990.000000	64.822316  
1989.000000	64.821887  
1988.000000	64.823293  
1987.000000	64.826202  
1986.000000	64.829897  
1985.000000	64.833474  
1984.000000	64.835858  
1983.000000	64.836192  
1982.000000	64.833950  
1981.000000	64.829158  
1980.000000	64.822554  
1979.000000	64.815378  
1978.000000	64.809298  
1977.000000	64.806008  
1976.000000	64.806795  
1975.000000	64.812397  
1974.000000	64.822840  
1973.000000	64.837360  
1972.000000	64.854550  
1971.000000	64.872646  
1970.000000	64.889907  
1969.000000	64.904761  
1968.000000	64.916157  
1967.000000	64.923644  
1966.000000	64.927220  
1965.000000	64.927268  
1964.000000	64.924359  
1963.000000	64.918971  
1962.000000	64.911508  
1961.000000	64.902186  
1960.000000	64.891242  
1959.000000	64.879083  
1958.000000	64.866280  
1957.000000	64.853835  
1956.000000	64.842963  
1955.000000	64.834880  
1954.000000	64.830517  
1953.000000	64.830493  
1952.000000	64.834761  
1951.000000	64.842557  
1950.000000	64.852619  
1949.000000	64.863562  
1948.000000	64.874196  
1947.000000	64.883494  
1946.000000	64.891076  
1945.000000	64.896965  
1944.000000	64.901304  
1943.000000	64.903974  
1942.000000	64.904642  
1941.000000	64.902615  
1940.000000	64.897131  
1939.000000	64.887356  
1938.000000	64.872860  
1937.000000	64.853572  
1936.000000	64.830279  
1935.000000	64.804196  
1934.000000	64.776921  
1933.000000	64.750337  
1932.000000	64.726209  
1931.000000	64.706134  
1930.000000	64.691329  
1929.000000	64.682650  
1928.000000	64.680624  
1927.000000	64.685368  
1926.000000	64.696693  
1925.000000	64.714002  
1924.000000	64.736342  
1923.000000	64.762473  
1922.000000	64.790916  
1921.000000	64.820075  
1920.000000	64.848232  
1919.000000	64.873719  
1918.000000	64.895105  
1917.000000	64.911246  
1916.000000	64.921236  
1915.000000	64.924693  
1914.000000	64.921426  
1913.000000	64.911866  
1912.000000	64.896821  
1911.000000	64.877676  
1910.000000	64.855933  
1909.000000	64.833259  
1908.000000	64.811134  
1907.000000	64.790916  
1906.000000	64.773392  
1905.000000	64.759063  
1904.000000	64.747953  
1903.000000	64.739918  
1902.000000	64.734625  
1901.000000	64.731884  
1900.000000	64.731597  
1899.000000	64.734005  
1898.000000	64.739489  
1897.000000	64.748430  
1896.000000	64.760851  
1895.000000	64.776277  
1894.000000	64.793515  
1893.000000	64.810705  
1892.000000	64.825510  
1891.000000	64.835548  
1890.000000	64.839100  
1889.000000	64.835596  
1888.000000	64.825725  
1887.000000	64.811635  
1886.000000	64.796566  
1885.000000	64.784049  
1884.000000	64.777350  
1883.000000	64.778661  
1882.000000	64.788651  
1881.000000	64.806246  
1880.000000	64.829039  
1879.000000	64.853715  
1878.000000	64.876699  
1877.000000	64.895033  
1876.000000	64.906764  
1875.000000	64.911413  
1874.000000	64.909505  
1873.000000	64.902663  
1872.000000	64.892625  
1871.000000	64.881134  
1870.000000	64.869165  
1869.000000	64.857196  
1868.000000	64.844965  
1867.000000	64.831995  
1866.000000	64.817976  
1865.000000	64.802885  
1864.000000	64.787507  
1863.000000	64.773130  
1862.000000	64.761543  
1861.000000	64.754223  
1860.000000	64.752173  
1859.000000	64.755487  
1858.000000	64.763426  
1857.000000	64.774346  
1856.000000	64.786243  
1855.000000	64.797258  
1854.000000	64.806079  
1853.000000	64.812231  
1852.000000	64.815783  
1851.000000	64.817237  
1850.000000	64.817094  
1849.000000	64.815735  
1848.000000	64.813113  
1847.000000	64.808988  
1846.000000	64.803171  
1845.000000	64.795780  
1844.000000	64.787411  
1843.000000	64.779233  
1842.000000	64.772772  
1841.000000	64.769601  
1840.000000	64.770746  
1839.000000	64.776301  
1838.000000	64.785552  
1837.000000	64.796757  
1836.000000	64.807677  
1835.000000	64.815902  
1834.000000	64.819622  
1833.000000	64.817976  
1832.000000	64.811015  
1831.000000	64.799928  
1830.000000	64.786458  
1829.000000	64.772677  
1828.000000	64.760541  
1827.000000	64.751434  
1826.000000	64.746069  
1825.000000	64.744472  
1824.000000	64.746284  
1823.000000	64.750838  
1822.000000	64.757466  
1821.000000	64.765667  
1820.000000	64.775276  
1819.000000	64.786219  
1818.000000	64.798331  
1817.000000	64.811134  
1816.000000	64.823746  
1815.000000	64.834856  
1814.000000	64.843034  
1813.000000	64.847183  
1812.000000	64.846849  
1811.000000	64.842271  
1810.000000	64.834833  
1809.000000	64.826393  
1808.000000	64.819097  
1807.000000	64.814829  
1806.000000	64.814734  
1805.000000	64.819073  
1804.000000	64.826893  
1803.000000	64.836525  
1802.000000	64.845657  
1801.000000	64.852118  
1800.000000	64.854073  
1799.000000	64.850568  
1798.000000	64.841699  
1797.000000	64.828634  
1796.000000	64.813327  
1795.000000	64.798164  
1794.000000	64.785456  
1793.000000	64.777016  
1792.000000	64.773774  
1791.000000	64.775466  
1790.000000	64.780926  
1789.000000	64.788079  
1788.000000	64.794301  
1787.000000	64.797234  
1786.000000	64.794921  
1785.000000	64.786577  
1784.000000	64.772582  
1783.000000	64.754414  
1782.000000	64.734339  
1781.000000	64.714813  
1780.000000	64.698147  
1779.000000	64.685869  
1778.000000	64.678764  
1777.000000	64.676523  
1776.000000	64.678120  
1775.000000	64.682006  
1774.000000	64.686584  
1773.000000	64.690613  
1772.000000	64.693236  
1771.000000	64.694428  
1770.000000	64.694643  
1769.000000	64.694809  
1768.000000	64.695525  
1767.000000	64.697098  
1766.000000	64.699149  
1765.000000	64.700627  
1764.000000	64.700293  
1763.000000	64.697098  
1762.000000	64.690566  
1761.000000	64.681410  
1760.000000	64.671444  
1759.000000	64.663410  
1758.000000	64.660215  
1757.000000	64.664101  
1756.000000	64.676094  
1755.000000	64.695286  
1754.000000	64.718723  
1753.000000	64.742350  
1752.000000	64.761376  
1751.000000	64.771652  
1750.000000	64.770388  
1749.000000	64.757227  
1748.000000	64.733672  
1747.000000	64.702844  
1746.000000	64.668583  
1745.000000	64.634490  
1744.000000	64.603400  
1743.000000	64.576935  
1742.000000	64.555478  
1741.000000	64.538550  
1740.000000	64.525055  
1739.000000	64.513897  
1738.000000	64.504170  
1737.000000	64.495229  
1736.000000	64.486479  
1735.000000	64.477491  
1734.000000	64.467597  
1733.000000	64.456534  
1732.000000	64.443850  
1731.000000	64.429998  
1730.000000	64.416050  
1729.000000	64.404034  
1728.000000	64.396333  
1727.000000	64.395713  
1726.000000	64.404273  
1725.000000	64.423179  
1724.000000	64.452314  
1723.000000	64.490032  
1722.000000	64.533019  
1721.000000	64.577150  
1720.000000	64.617776  
1719.000000	64.650750  
1718.000000	64.672946  
1717.000000	64.682936  
1716.000000	64.681077  
1715.000000	64.669537  
1714.000000	64.651727  
1713.000000	64.631748  
1712.000000	64.613413  
1711.000000	64.599871  
1710.000000	64.593315  
1709.000000	64.594793  
1708.000000	64.604520  
1707.000000	64.622139  
1706.000000	64.647054  
1705.000000	64.678549  
1704.000000	64.715433  
1703.000000	64.756178  
1702.000000	64.798283  
1701.000000	64.838171  
1700.000000	64.871382  
1699.000000	64.893317  
1698.000000	64.900016  
1697.000000	64.889121  
1696.000000	64.860844  
1695.000000	64.818453  
1694.000000	64.767575  
1693.000000	64.715504  
1692.000000	64.669585  
1691.000000	64.635753  
1690.000000	64.617395  
1689.000000	64.614677  
1688.000000	64.624571  
1687.000000	64.641976  
1686.000000	64.660882  
1685.000000	64.676046  
1684.000000	64.683961  
1683.000000	64.683651  
1682.000000	64.676284  
1681.000000	64.665007  
1680.000000	64.653229  
1679.000000	64.644336  
1678.000000	64.640474  
1677.000000	64.642357  
1676.000000	64.649581  
1675.000000	64.660596  
1674.000000	64.673829  
1673.000000	64.687752  
1672.000000	64.701366  
1671.000000	64.714097  
1670.000000	64.725685  
1669.000000	64.735984  
1668.000000	64.744567  
1667.000000	64.750885  
1666.000000	64.754366  
1665.000000	64.754605  
1664.000000	64.751887  
1663.000000	64.746785  
1662.000000	64.740395  
1661.000000	64.734077  
1660.000000	64.729166  
1659.000000	64.726543  
1658.000000	64.726257  
1657.000000	64.727640  
1656.000000	64.729475  
1655.000000	64.730334  
1654.000000	64.728903  
1653.000000	64.724254  
1652.000000	64.715981  
1651.000000	64.704442  
1650.000000	64.690709  
1649.000000	64.675951  
1648.000000	64.661693  
1647.000000	64.649367  
1646.000000	64.640307  
1645.000000	64.635539  
1644.000000	64.635753  
1643.000000	64.641189  
1642.000000	64.651584  
1641.000000	64.666295  
1640.000000	64.684152  
1639.000000	64.703655  
1638.000000	64.723038  
1637.000000	64.740633  
1636.000000	64.754843  
1635.000000	64.764523  
1634.000000	64.769005  
1633.000000	64.768099  
1632.000000	64.762067  
1631.000000	64.751577  
1630.000000	64.737558  
1629.000000	64.720940  
1628.000000	64.702653  
1627.000000	64.683413  
1626.000000	64.663815  
1625.000000	64.644289  
1624.000000	64.625024  
1623.000000	64.606213  
1622.000000	64.587926  
1621.000000	64.570569  
1620.000000	64.554667  
1619.000000	64.541268  
1618.000000	64.531564  
1617.000000	64.526867  
1616.000000	64.528059  
1615.000000	64.535808  
1614.000000	64.549899  
1613.000000	64.569306  
1612.000000	64.592337  
1611.000000	64.616680  
1610.000000	64.639782  
1609.000000	64.659166  
1608.000000	64.672827  
1607.000000	64.679336  
1606.000000	64.678215  
1605.000000	64.669775  
1604.000000	64.655232  
1603.000000	64.636445  
1602.000000	64.615535  
1601.000000	64.594745  
1600.000000	64.575958  
1599.000000	64.560699  
1598.000000	64.549779  
1597.000000	64.543199  
1596.000000	64.540457  
1595.000000	64.540600  
1594.000000	64.542865  
1593.000000	64.546561  
1592.000000	64.551782  
1591.000000	64.558887  
1590.000000	64.568758  
1589.000000	64.581942  
1588.000000	64.598679  
1587.000000	64.618515  
1586.000000	64.640235  
1585.000000	64.662098  
1584.000000	64.682102  
1583.000000	64.698457  
1582.000000	64.709949  
1581.000000	64.716076  
1580.000000	64.717078  
1579.000000	64.713668  
1578.000000	64.706754  
1577.000000	64.697337  
1576.000000	64.686179  
1575.000000	64.673566  
1574.000000	64.659523  
1573.000000	64.643979  
1572.000000	64.626955  
1571.000000	64.608907  
1570.000000	64.590764  
1569.000000	64.573907  
1568.000000	64.559936  
1567.000000	64.550304  
1566.000000	64.546203  
1565.000000	64.548158  
1564.000000	64.555978  
1563.000000	64.568758  
1562.000000	64.585113  
1561.000000	64.603400  
1560.000000	64.621877  
1559.000000	64.639091  
1558.000000	64.653897  
1557.000000	64.665579  
1556.000000	64.673566  
1555.000000	64.677381  
1554.000000	64.676642  
1553.000000	64.671206  
1552.000000	64.661169  
1551.000000	64.647436  
1550.000000	64.631557  
1549.000000	64.615774  
1548.000000	64.602589  
1547.000000	64.593935  
1546.000000	64.590716  
1545.000000	64.592528  
1544.000000	64.597702  
1543.000000	64.603686  
1542.000000	64.607834  
1541.000000	64.608168  
1540.000000	64.603924  
1539.000000	64.595651  
1538.000000	64.584994  
1537.000000	64.573979  
1536.000000	64.564466  
1535.000000	64.557433  
1534.000000	64.552783  
1533.000000	64.549231  
1532.000000	64.545154  
1531.000000	64.539122  
1530.000000	64.530515  
1529.000000	64.519834  
1528.000000	64.508700  
1527.000000	64.499449  
1526.000000	64.494419  
1525.000000	64.495205  
1524.000000	64.502429  
1523.000000	64.515376  
1522.000000	64.532375  
1521.000000	64.551186  
1520.000000	64.569449  
1519.000000	64.585232  
1518.000000	64.597249  
1517.000000	64.605116  
1516.000000	64.609026  
1515.000000	64.609622  
1514.000000	64.607810  
1513.000000	64.604520  
1512.000000	64.600491  
1511.000000	64.596199  
1510.000000	64.592242  
1509.000000	64.588761  
1508.000000	64.585804  
1507.000000	64.583206  
1506.000000	64.580607  
1505.000000	64.577746  
1504.000000	64.574241  
1503.000000	64.569973  
1502.000000	64.565181  
1501.000000	64.560604  
1500.000000	64.557218  
1499.000000	64.556074  
1498.000000	64.558100  
1497.000000	64.563679  
1496.000000	64.572525  
1495.000000	64.583587  
1494.000000	64.595198  
1493.000000	64.605569  
1492.000000	64.613223  
1491.000000	64.617204  
1490.000000	64.617395  
1489.000000	64.614367  
1488.000000	64.609336  
1487.000000	64.603662  
1486.000000	64.598846  
1485.000000	64.596271  
1484.000000	64.596772  
1483.000000	64.601016  
1482.000000	64.608812  
1481.000000	64.619374  
1480.000000	64.631271  
1479.000000	64.642572  
1478.000000	64.651465  
1477.000000	64.656329  
1476.000000	64.656329  
1475.000000	64.651560  
1474.000000	64.642977  
1473.000000	64.632344  
1472.000000	64.621520  
1471.000000	64.612245  
1470.000000	64.605474  
1469.000000	64.601349  
1468.000000	64.599180  
1467.000000	64.597678  
1466.000000	64.595556  
1465.000000	64.592027  
1464.000000	64.586877  
1463.000000	64.580726  
1462.000000	64.574670  
1461.000000	64.569926  
1460.000000	64.567351  
1459.000000	64.567089  
1458.000000	64.568758  
1457.000000	64.571619  
1456.000000	64.574670  
1455.000000	64.577054  
1454.000000	64.578342  
1453.000000	64.578604  
1452.000000	64.578318  
1451.000000	64.578390  
1450.000000	64.579463  
1449.000000	64.582037  
1448.000000	64.586162  
1447.000000	64.591550  
1446.000000	64.597773  
1445.000000	64.604258  
1444.000000	64.610433  
1443.000000	64.616036  
1442.000000	64.620876  
1441.000000	64.625000  
1440.000000	64.628458  
1439.000000	64.631295  
1438.000000	64.633369  
1437.000000	64.634442  
1436.000000	64.633893  
1435.000000	64.630675  
1434.000000	64.623665  
1433.000000	64.611744  
1432.000000	64.594507  
1431.000000	64.572429  
1430.000000	64.547443  
1429.000000	64.522647  
1428.000000	64.501929  
1427.000000	64.489293  
1426.000000	64.487934  
1425.000000	64.499187  
1424.000000	64.522147  
1423.000000	64.553689  
1422.000000	64.588761  
1421.000000	64.621329  
1420.000000	64.645671  
1419.000000	64.657545  
1418.000000	64.655041  
1417.000000	64.638805  
1416.000000	64.611935  
1415.000000	64.578986  
1414.000000	64.545083  
1413.000000	64.514827  
1412.000000	64.491510  
1411.000000	64.476561  
1410.000000	64.469957  
1409.000000	64.470148  
1408.000000	64.474821  
1407.000000	64.481520  
1406.000000	64.488053  
1405.000000	64.492893  
1404.000000	64.495182  
1403.000000	64.494848  
1402.000000	64.492011  
1401.000000	64.487051  
1400.000000	64.480066  
1399.000000	64.470982  
1398.000000	64.459633  
1397.000000	64.445948  
1396.000000	64.430117  
1395.000000	64.412832  
1394.000000	64.395332  
1393.000000	64.379239  
1392.000000	64.366364  
1391.000000	64.358091  
1390.000000	64.355278  
1389.000000	64.358067  
1388.000000	64.365911  
1387.000000	64.377498  
1386.000000	64.390969  
1385.000000	64.404392  
1384.000000	64.415955  
1383.000000	64.424443  
1382.000000	64.429211  
1381.000000	64.430189  
1380.000000	64.427852  
1379.000000	64.423108  
1378.000000	64.417052  
1377.000000	64.410781  
1376.000000	64.405155  
1375.000000	64.400744  
1374.000000	64.398074  
1373.000000	64.397525  
1372.000000	64.399290  
1371.000000	64.403700  
1370.000000	64.411020  
1369.000000	64.421629  
1368.000000	64.435648  
1367.000000	64.452838  
1366.000000	64.472270  
1365.000000	64.492464  
1364.000000	64.511394  
1363.000000	64.526939  
1362.000000	64.537382  
1361.000000	64.541769  
1360.000000	64.540290  
1359.000000	64.534187  
1358.000000	64.525389  
1357.000000	64.516043  
1356.000000	64.507913  
1355.000000	64.502024  
1354.000000	64.498615  
1353.000000	64.496970  
1352.000000	64.496231  
1351.000000	64.495372  
1350.000000	64.493942  
1349.000000	64.491915  
1348.000000	64.489698  
1347.000000	64.487957  
1346.000000	64.486932  
1345.000000	64.486384  
1344.000000	64.485406  
1343.000000	64.482784  
1342.000000	64.477252  
1341.000000	64.467906  
1340.000000	64.454698  
1339.000000	64.438343  
1338.000000	64.420151  
1337.000000	64.401674  
1336.000000	64.384317  
1335.000000	64.369153  
1334.000000	64.356851  
1333.000000	64.347529  
1332.000000	64.341068  
1331.000000	64.337205  
1330.000000	64.335727  
1329.000000	64.336395  
1328.000000	64.339137  
1327.000000	64.343714  
1326.000000	64.349913  
1325.000000	64.357376  
1324.000000	64.365577  
1323.000000	64.373803  
1322.000000	64.381289  
1321.000000	64.387464  
1320.000000	64.391946  
1319.000000	64.394450  
1318.000000	64.394903  
1317.000000	64.393258  
1316.000000	64.389467  
1315.000000	64.383673  
1314.000000	64.375996  
1313.000000	64.366650  
1312.000000	64.356255  
1311.000000	64.345598  
1310.000000	64.335632  
1309.000000	64.327454  
1308.000000	64.321970  
1307.000000	64.319801  
1306.000000	64.320993  
1305.000000	64.325261  
1304.000000	64.331698  
1303.000000	64.339351  
1302.000000	64.347290  
1301.000000	64.355087  
1300.000000	64.362621  
1299.000000	64.370250  
1298.000000	64.378714  
1297.000000	64.388585  
1296.000000	64.400339  
1295.000000	64.413690  
1294.000000	64.427876  
1293.000000	64.441204  
1292.000000	64.451551  
1291.000000	64.456534  
1290.000000	64.454293  
1289.000000	64.443635  
1288.000000	64.424562  
1287.000000	64.398360  
1286.000000	64.367485  
1285.000000	64.335155  
1284.000000	64.304614  
1283.000000	64.278769  
1282.000000	64.259719  
1281.000000	64.248251  
1280.000000	64.244079  
1279.000000	64.245939  
1278.000000	64.251995  
1277.000000	64.260268  
1276.000000	64.269185  
1275.000000	64.277434  
1274.000000	64.284515  
1273.000000	64.290237  
1272.000000	64.295148  
1271.000000	64.299798  
1270.000000	64.304971  
1269.000000	64.311385  
1268.000000	64.319705  
1267.000000	64.330267  
1266.000000	64.342927  
1265.000000	64.357280  
1264.000000	64.372229  
1263.000000	64.386367  
1262.000000	64.398097  
1261.000000	64.406108  
1260.000000	64.409637  
1259.000000	64.408683  
1258.000000	64.403939  
1257.000000	64.396762  
1256.000000	64.388728  
1255.000000	64.381265  
1254.000000	64.375138  
1253.000000	64.370107  
1252.000000	64.365267  
1251.000000	64.359259  
1250.000000	64.350795  
1249.000000	64.339256  
1248.000000	64.325046  
1247.000000	64.309573  
1246.000000	64.294862  
1245.000000	64.283084  
1244.000000	64.275836  
1243.000000	64.273643  
1242.000000	64.275836  
1241.000000	64.280772  
1240.000000	64.286136  
1239.000000	64.289665  
1238.000000	64.289641  
1237.000000	64.285492  
1236.000000	64.277744  
1235.000000	64.268183  
1234.000000	64.259219  
1233.000000	64.253568  
1232.000000	64.253377  
1231.000000	64.259791  
1230.000000	64.272856  
1229.000000	64.291286  
1228.000000	64.312791  
1227.000000	64.334440  
1226.000000	64.353203  
1225.000000	64.366555  
1224.000000	64.373040  
1223.000000	64.372372  
1222.000000	64.365506  
1221.000000	64.354586  
1220.000000	64.342069  
1219.000000	64.330434  
1218.000000	64.321446  
1217.000000	64.315915  
1216.000000	64.313626  
1215.000000	64.313864  
1214.000000	64.315485  
1213.000000	64.317584  
1212.000000	64.319753  
1211.000000	64.322376  
1210.000000	64.326429  
1209.000000	64.333009  
1208.000000	64.342975  
1207.000000	64.356732  
1206.000000	64.373803  
1205.000000	64.392948  
1204.000000	64.412355  
1203.000000	64.430046  
1202.000000	64.444303  
1201.000000	64.454102  
1200.000000	64.459013  
1199.000000	64.459323  
1198.000000	64.455866  
1197.000000	64.449620  
1196.000000	64.441633  
1195.000000	64.432668  
1194.000000	64.423370  
1193.000000	64.414024  
1192.000000	64.404869  
1191.000000	64.395880  
1190.000000	64.386916  
1189.000000	64.377522  
1188.000000	64.367127  
1187.000000	64.354896  
1186.000000	64.339995  
1185.000000	64.322066  
1184.000000	64.301371  
1183.000000	64.278984  
1182.000000	64.256739  
1181.000000	64.237117  
1180.000000	64.222526  
1179.000000	64.214801  
1178.000000	64.214539  
1177.000000	64.221072  
1176.000000	64.232444  
1175.000000	64.245843  
1174.000000	64.258289  
1173.000000	64.267301  
1172.000000	64.271426  
1171.000000	64.270520  
1170.000000	64.265632  
1169.000000	64.258313  
1168.000000	64.250040  
1167.000000	64.241766  
1166.000000	64.233732  
1165.000000	64.225459  
1164.000000	64.215946  
1163.000000	64.204597  
1162.000000	64.191484  
1161.000000	64.177417  
1160.000000	64.164137  
1159.000000	64.153766  
1158.000000	64.148497  
1157.000000	64.149880  
1156.000000	64.158439  
1155.000000	64.173579  
1154.000000	64.193177  
1153.000000	64.214205  
1152.000000	64.233326  
1151.000000	64.247536  
1150.000000	64.255023  
1149.000000	64.255309  
1148.000000	64.249825  
1147.000000	64.241313  
1146.000000	64.233422  
1145.000000	64.229846  
1144.000000	64.233589  
1143.000000	64.246296  
1142.000000	64.267802  
1141.000000	64.296412  
1140.000000	64.328980  
1139.000000	64.361786  
1138.000000	64.391541  
1137.000000	64.415907  
1136.000000	64.433908  
1135.000000	64.445543  
1134.000000	64.451551  
1133.000000	64.453148  
1132.000000	64.451456  
1131.000000	64.447212  
1130.000000	64.441013  
1129.000000	64.433240  
1128.000000	64.424681  
1127.000000	64.415812  
1126.000000	64.407229  
1125.000000	64.399003  
1124.000000	64.391064  
1123.000000	64.382815  
1122.000000	64.373373  
1121.000000	64.361929  
1120.000000	64.348030  
1119.000000	64.331722  
1118.000000	64.313793  
1117.000000	64.295291  
1116.000000	64.277362  
1115.000000	64.260625  
1114.000000	64.245057  
1113.000000	64.229750  
1112.000000	64.213633  
1111.000000	64.195728  
1110.000000	64.175891  
1109.000000	64.155054  
1108.000000	64.135336  
1107.000000	64.119720  
1106.000000	64.111471  
1105.000000	64.112830  
1104.000000	64.124870  
1103.000000	64.146757  
1102.000000	64.176201  
1101.000000	64.209604  
1100.000000	64.243364  
1099.000000	64.274621  
1098.000000	64.301753  
1097.000000	64.324402  
1096.000000	64.343309  
1095.000000	64.359474  
1094.000000	64.373612  
1093.000000	64.385700  
1092.000000	64.395284  
1091.000000	64.401555  
1090.000000	64.403939  
1089.000000	64.402437  
1088.000000	64.397501  
1087.000000	64.389991  
1086.000000	64.380931  
1085.000000	64.371132  
1084.000000	64.361143  
1083.000000	64.350986  
1082.000000	64.340901  
1081.000000	64.330935  
1080.000000	64.321470  
1079.000000	64.312839  
1078.000000	64.305400  
1077.000000	64.299058  
1076.000000	64.293265  
1075.000000	64.286875  
1074.000000	64.278173  
1073.000000	64.265584  
1072.000000	64.248228  
1071.000000	64.226174  
1070.000000	64.200711  
1069.000000	64.174079  
1068.000000	64.148783  
1067.000000	64.126896  
1066.000000	64.109706  
1065.000000	64.097428  
1064.000000	64.089417  
1063.000000	64.084672  
1062.000000	64.082121  
1061.000000	64.080977  
1060.000000	64.081120  
1059.000000	64.082908  
1058.000000	64.086914  
1057.000000	64.093780  
1056.000000	64.103531  
1055.000000	64.115738  
1054.000000	64.128971  
1053.000000	64.141058  
1052.000000	64.149308  
1051.000000	64.151215  
1050.000000	64.145064  
1049.000000	64.130449  
1048.000000	64.108633  
1047.000000	64.082431  
1046.000000	64.055871  
1045.000000	64.033532  
1044.000000	64.019751  
1043.000000	64.017677  
1042.000000	64.028763  
1041.000000	64.052414  
1040.000000	64.086103  
1039.000000	64.126038  
1038.000000	64.167952  
1037.000000	64.207816  
1036.000000	64.242601  
1035.000000	64.270806  
1034.000000	64.292073  
1033.000000	64.307236  
1032.000000	64.317703  
1031.000000	64.324712  
1030.000000	64.329552  
1029.000000	64.332485  
1028.000000	64.333677  
1027.000000	64.332485  
1026.000000	64.328384  
1025.000000	64.320611  
1024.000000	64.308953  
1023.000000	64.293527  
1022.000000	64.274835  
1021.000000	64.254045  
1020.000000	64.232659  
1019.000000	64.212560  
1018.000000	64.195728  
1017.000000	64.184165  
1016.000000	64.179420  
1015.000000	64.182376  
1014.000000	64.192986  
1013.000000	64.210104  
1012.000000	64.231443  
1011.000000	64.254260  
1010.000000	64.275598  
1009.000000	64.292621  
1008.000000	64.303398  
1007.000000	64.306879  
1006.000000	64.303350  
1005.000000	64.293670  
1004.000000	64.279651  
1003.000000	64.263510  
1002.000000	64.247465  
1001.000000	64.233517  
1000.000000	64.223146  
999.000000	 64.217209  
998.000000	 64.215922  
997.000000	 64.218997  
996.000000	 64.225745  
995.000000	 64.235424  
994.000000	 64.247107  
993.000000	 64.260101  
992.000000	 64.273452  
991.000000	 64.286088  
990.000000	 64.296770  
989.000000	 64.304065  
988.000000	 64.306449  
987.000000	 64.302515  
986.000000	 64.291405  
985.000000	 64.272975  
984.000000	 64.248180  
983.000000	 64.219021  
982.000000	 64.188408  
981.000000	 64.159679  
980.000000	 64.135980  
979.000000	 64.119935  
978.000000	 64.113068  
977.000000	 64.115500  
976.000000	 64.126276  
975.000000	 64.143681  
974.000000	 64.165496  
973.000000	 64.189410  
972.000000	 64.213156  
971.000000	 64.234972  
970.000000	 64.253377  
969.000000	 64.267706  
968.000000	 64.277577  
967.000000	 64.283537  
966.000000	 64.286518  
965.000000	 64.288043  
964.000000	 64.289832  
963.000000	 64.293384  
962.000000	 64.299869  
961.000000	 64.309620  
960.000000	 64.322042  
959.000000	 64.335656  
958.000000	 64.348340  
957.000000	 64.357733  
956.000000	 64.361786  
955.000000	 64.359259  
954.000000	 64.350008  
953.000000	 64.335227  
952.000000	 64.317226  
951.000000	 64.298915  
950.000000	 64.283323  
949.000000	 64.272928  
948.000000	 64.269280  
947.000000	 64.272809  
946.000000	 64.282655  
945.000000	 64.297175  
944.000000	 64.313960  
943.000000	 64.330649  
942.000000	 64.345169  
941.000000	 64.356040  
940.000000	 64.362621  
939.000000	 64.364767  
938.000000	 64.362978  
937.000000	 64.358067  
936.000000	 64.351081  
935.000000	 64.343142  
934.000000	 64.335513  
933.000000	 64.329361  
932.000000	 64.325666  
931.000000	 64.324998  
930.000000	 64.327096  
929.000000	 64.330983  
928.000000	 64.334750  
927.000000	 64.336061  
926.000000	 64.332604  
925.000000	 64.322805  
924.000000	 64.306187  
923.000000	 64.283895  
922.000000	 64.258265  
921.000000	 64.232969  
920.000000	 64.211487  
919.000000	 64.197087  
918.000000	 64.191699  
917.000000	 64.195632  
916.000000	 64.207625  
915.000000	 64.225101  
914.000000	 64.244937  
913.000000	 64.264178  
912.000000	 64.280176  
911.000000	 64.291334  
910.000000	 64.296913  
909.000000	 64.297032  
908.000000	 64.292335  
907.000000	 64.283871  
906.000000	 64.272904  
905.000000	 64.260888  
904.000000	 64.249324  
903.000000	 64.239645  
902.000000	 64.233231  
901.000000	 64.230942  
900.000000	 64.233016  
899.000000	 64.238882  
898.000000	 64.247250  
897.000000	 64.256167  
896.000000	 64.263415  
895.000000	 64.267063  
894.000000	 64.265680  
893.000000	 64.258694  
892.000000	 64.246225  
891.000000	 64.228987  
890.000000	 64.207983  
889.000000	 64.184355  
888.000000	 64.159417  
887.000000	 64.134335  
886.000000	 64.110517  
885.000000	 64.089632  
884.000000	 64.073348  
883.000000	 64.063334  
882.000000	 64.060735  
881.000000	 64.065837  
880.000000	 64.077854  
879.000000	 64.094996  
878.000000	 64.114594  
877.000000	 64.133644  
876.000000	 64.149498  
875.000000	 64.160180  
874.000000	 64.164972  
873.000000	 64.164090  
872.000000	 64.158463  
871.000000	 64.149236  
870.000000	 64.137411  
869.000000	 64.123702  
868.000000	 64.108562  
867.000000	 64.092564  
866.000000	 64.076495  
865.000000	 64.061856  
864.000000	 64.050388  
863.000000	 64.044094  
862.000000	 64.044642  
861.000000	 64.053153  
860.000000	 64.069485  
859.000000	 64.092636  
858.000000	 64.120554  
857.000000	 64.150643  
856.000000	 64.180183  
855.000000	 64.206719  
854.000000	 64.228367  
853.000000	 64.244222  
852.000000	 64.254355  
851.000000	 64.259409  
850.000000	 64.260268  
849.000000	 64.258170  
848.000000	 64.254140  
847.000000	 64.249229  
846.000000	 64.244198  
845.000000	 64.239859  
844.000000	 64.236783  
843.000000	 64.235353  
842.000000	 64.235854  
841.000000	 64.238190  
840.000000	 64.242124  
839.000000	 64.247202  
838.000000	 64.253115  
837.000000	 64.259600  
836.000000	 64.266991  
835.000000	 64.275884  
834.000000	 64.287090  
833.000000	 64.301753  
832.000000	 64.319896  
831.000000	 64.340853  
830.000000	 64.361572  
829.000000	 64.377284  
828.000000	 64.381718  
827.000000	 64.368629  
826.000000	 64.333796  
825.000000	 64.276623  
824.000000	 64.200973  
823.000000	 64.114999  
822.000000	 64.029431  
821.000000	 63.955402  
820.000000	 63.901877  
819.000000	 63.874006  
818.000000	 63.872385  
817.000000	 63.893175  
816.000000	 63.929748  
815.000000	 63.973975  
814.000000	 64.017868  
813.000000	 64.055299  
812.000000	 64.081883  
811.000000	 64.096355  
810.000000	 64.099311  
809.000000	 64.093518  
808.000000	 64.082312  
807.000000	 64.069271  
806.000000	 64.057517  
805.000000	 64.048981  
804.000000	 64.044737  
803.000000	 64.044880  
802.000000	 64.049267  
801.000000	 64.057207  
800.000000	 64.068150  
799.000000	 64.081764  
798.000000	 64.097881  
797.000000	 64.116573  
796.000000	 64.137721  
795.000000	 64.161062  
794.000000	 64.185905  
793.000000	 64.211297  
792.000000	 64.235949  
791.000000	 64.258146  
790.000000	 64.276051  
789.000000	 64.288210  
788.000000	 64.293861  
787.000000	 64.292836  
786.000000	 64.285612  
785.000000	 64.273667  
784.000000	 64.258909  
783.000000	 64.243674  
782.000000	 64.229774  
781.000000	 64.218735  
780.000000	 64.210653  
779.000000	 64.205002  
778.000000	 64.199924  
777.000000	 64.193177  
776.000000	 64.181971  
775.000000	 64.164090  
774.000000	 64.138197  
773.000000	 64.104294  
772.000000	 64.064049  
771.000000	 64.020538  
770.000000	 63.977885  
769.000000	 63.940572  
768.000000	 63.912892  
767.000000	 63.898181  
766.000000	 63.898062  
765.000000	 63.912200  
764.000000	 63.938331  
763.000000	 63.972735  
762.000000	 64.010715  
761.000000	 64.047455  
760.000000	 64.078664  
759.000000	 64.101624  
758.000000	 64.115190  
757.000000	 64.119839  
756.000000	 64.117455  
755.000000	 64.110517  
754.000000	 64.101910  
753.000000	 64.093852  
752.000000	 64.087939  
751.000000	 64.084696  
750.000000	 64.084219  
749.000000	 64.085865  
748.000000	 64.089059  
747.000000	 64.093017  
746.000000	 64.097428  
745.000000	 64.101910  
744.000000	 64.106130  
743.000000	 64.109468  
742.000000	 64.111137  
741.000000	 64.109897  
740.000000	 64.104461  
739.000000	 64.093828  
738.000000	 64.077973  
737.000000	 64.057898  
736.000000	 64.035677  
735.000000	 64.014506  
734.000000	 63.997721  
733.000000	 63.988280  
732.000000	 63.987755  
731.000000	 63.995909  
730.000000	 64.010596  
729.000000	 64.028644  
728.000000	 64.046168  
727.000000	 64.059448  
726.000000	 64.065599  
725.000000	 64.063334  
724.000000	 64.052939  
723.000000	 64.036083  
722.000000	 64.015245  
721.000000	 63.992881  
720.000000	 63.971185  
719.000000	 63.951778  
718.000000	 63.935446  
717.000000	 63.922405  
716.000000	 63.912558  
715.000000	 63.905620  
714.000000	 63.901400  
713.000000	 63.899660  
712.000000	 63.900327  
711.000000	 63.903260  
710.000000	 63.908576  
709.000000	 63.916063  
708.000000	 63.925647  
707.000000	 63.936305  
706.000000	 63.946461  
705.000000	 63.953638  
704.000000	 63.954782  
703.000000	 63.946890  
702.000000	 63.927435  
701.000000	 63.895440  
700.000000	 63.852238  
699.000000	 63.801550  
698.000000	 63.748955  
697.000000	 63.701343  
696.000000	 63.665318  
695.000000	 63.646149  
694.000000	 63.646578  
693.000000	 63.666367  
692.000000	 63.702154  
691.000000	 63.748550  
690.000000	 63.799118  
689.000000	 63.847637  
688.000000	 63.889145  
687.000000	 63.920760  
686.000000	 63.941597  
685.000000	 63.952326  
684.000000	 63.954448  
683.000000	 63.949394  
682.000000	 63.938403  
681.000000	 63.922452  
680.000000	 63.902759  
679.000000	 63.881278  
678.000000	 63.860964  
677.000000	 63.846254  
676.000000	 63.841605  
675.000000	 63.850903  
674.000000	 63.875842  
673.000000	 63.915443  
672.000000	 63.965702  
671.000000	 64.020252  
670.000000	 64.071512  
669.000000	 64.112567  
668.000000	 64.137983  
667.000000	 64.145159  
666.000000	 64.134144  
665.000000	 64.107584  
664.000000	 64.069175  
663.000000	 64.022850  
662.000000	 63.971924  
661.000000	 63.918757  
660.000000	 63.865065  
659.000000	 63.812351  
658.000000	 63.762497  
657.000000	 63.718271  
656.000000	 63.683152  
655.000000	 63.661289  
654.000000	 63.655638  
653.000000	 63.668036  
652.000000	 63.698029  
651.000000	 63.743376  
650.000000	 63.799571  
649.000000	 63.861179  
648.000000	 63.922166  
647.000000	 63.977098  
646.000000	 64.021801  
645.000000	 64.053535  
644.000000	 64.071249  
643.000000	 64.075016  
642.000000	 64.065861  
641.000000	 64.045476  
640.000000	 64.016056  
639.000000	 63.980364  
638.000000	 63.941454  
637.000000	 63.903045  
636.000000	 63.869357  
635.000000	 63.844609  
634.000000	 63.832378  
633.000000	 63.834786  
632.000000	 63.851952  
631.000000	 63.881468  
630.000000	 63.918781  
629.000000	 63.957524  
628.000000	 63.991093  
627.000000	 64.013719  
626.000000	 64.022040  
625.000000	 64.015746  
624.000000	 63.997888  
623.000000	 63.974332  
622.000000	 63.951921  
621.000000	 63.937544  
620.000000	 63.935756  
619.000000	 63.947916  
618.000000	 63.971519  
617.000000	 64.001417  
616.000000	 64.030241  
615.000000	 64.050531  
614.000000	 64.056468  
613.000000	 64.045572  
612.000000	 64.018988  
611.000000	 63.981080  
610.000000	 63.938045  
609.000000	 63.896179  
608.000000	 63.860654  
607.000000	 63.834404  
606.000000	 63.817501  
605.000000	 63.807487  
604.000000	 63.800740  
603.000000	 63.793635  
602.000000	 63.783621  
601.000000	 63.769817  
600.000000	 63.752937  
599.000000	 63.734936  
598.000000	 63.718199  
597.000000	 63.704872  
596.000000	 63.696241  
595.000000	 63.691711  
594.000000	 63.688945  
593.000000	 63.684153  
592.000000	 63.673424  
591.000000	 63.653373  
590.000000	 63.621592  
589.000000	 63.578128  
588.000000	 63.525199  
587.000000	 63.467741  
586.000000	 63.411760  
585.000000	 63.364648  
584.000000	 63.333058  
583.000000	 63.323211  
582.000000	 63.339352  
581.000000	 63.383030  
580.000000	 63.452172  
579.000000	 63.540720  
578.000000	 63.639187  
577.000000	 63.735246  
576.000000	 63.816356  
575.000000	 63.871216  
574.000000	 63.893294  
573.000000	 63.881659  
572.000000	 63.842487  
571.000000	 63.787746  
570.000000	 63.733577  
569.000000	 63.697195  
568.000000	 63.692903  
567.000000	 63.729023  
566.000000	 63.805866  
565.000000	 63.916683  
564.000000	 64.048552  
563.000000	 64.185810  
562.000000	 64.312815  
561.000000	 64.417672  
560.000000	 64.492869  
559.000000	 64.535593  
558.000000	 64.547109  
557.000000	 64.531540  
556.000000	 64.494180  
555.000000	 64.440536  
554.000000	 64.375877  
553.000000	 64.305138  
552.000000	 64.232587  
551.000000	 64.162039  
550.000000	 64.096212  
549.000000	 64.037489  
548.000000	 63.988423  
547.000000	 63.952469  
546.000000	 63.932108  
545.000000	 63.930201  
544.000000	 63.949346  
543.000000	 63.991594  
542.000000	 64.056444  
541.000000	 64.141201  
540.000000	 64.240908  
539.000000	 64.348816  
538.000000	 64.456057  
537.000000	 64.553999  
536.000000	 64.634966  
535.000000	 64.694380  
534.000000	 64.731049  
533.000000	 64.747977  
532.000000	 64.751648  
531.000000	 64.750099  
530.000000	 64.751529  
529.000000	 64.760851  
528.000000	 64.778709  
527.000000	 64.800548  
526.000000	 64.818143  
525.000000	 64.820909  
524.000000	 64.798831  
523.000000	 64.745712  
522.000000	 64.660811  
521.000000	 64.548802  
520.000000	 64.419078  
519.000000	 64.283204  
518.000000	 64.152908  
517.000000	 64.038014  
516.000000	 63.944387  
515.000000	 63.874149  
514.000000	 63.825058  
513.000000	 63.790583  
512.000000	 63.763403  
511.000000	 63.735747  
510.000000	 63.704466  
509.000000	 63.670301  
508.000000	 63.640046  
507.000000	 63.623118  
506.000000	 63.630270  
505.000000	 63.669252  
504.000000	 63.743114  
503.000000	 63.847780  
502.000000	 63.975048  
501.000000	 64.114379  
500.000000	 64.254713  
499.000000	 64.386200  
498.000000	 64.501190  
497.000000	 64.594030  
496.000000	 64.659357  
495.000000	 64.692163  
494.000000	 64.688014  
493.000000	 64.644932  
492.000000	 64.564800  
491.000000	 64.455842  
490.000000	 64.332795  
489.000000	 64.215874  
488.000000	 64.128589  
487.000000	 64.092183  
486.000000	 64.119696  
485.000000	 64.213824  
484.000000	 64.365100  
483.000000	 64.555001  
482.000000	 64.760351  
481.000000	 64.957547  
480.000000	 65.128111  
479.000000	 65.259265  
478.000000	 65.345335  
477.000000	 65.384364  
476.000000	 65.376424  
475.000000	 65.321493  
474.000000	 65.219116  
473.000000	 65.069556  
472.000000	 64.875650  
471.000000	 64.644551  
470.000000	 64.388918  
469.000000	 64.124870  
468.000000	 63.871002  
467.000000	 63.645911  
466.000000	 63.466310  
465.000000	 63.342213  
464.000000	 63.278055  
463.000000	 63.272476  
462.000000	 63.320112  
461.000000	 63.412117  
460.000000	 63.537335  
459.000000	 63.682484  
458.000000	 63.832449  
457.000000	 63.969731  
456.000000	 64.076495  
455.000000	 64.135003  
454.000000	 64.132928  
453.000000	 64.066076  
452.000000	 63.940405  
451.000000	 63.770961  
450.000000	 63.580918  
449.000000	 63.398194  
448.000000	 63.247966  
447.000000	 63.148069  
446.000000	 63.102102  
445.000000	 63.099312  
444.000000	 63.117218  
443.000000	 63.128137  
442.000000	 63.106203  
441.000000	 63.035058  
440.000000	 62.909674  
439.000000	 62.739372  
438.000000	 62.545728  
437.000000	 62.357664  
436.000000	 62.203121  
435.000000	 62.102508  
434.000000	 62.065100  
433.000000	 62.086725  
432.000000	 62.145709  
431.000000	 62.217807  
430.000000	 62.279200  
429.000000	 62.322568  
428.000000	 62.358784  
427.000000	 62.417197  
426.000000	 62.535190  
425.000000	 62.746357  
424.000000	 63.072013  
423.000000	 63.498163  
422.000000	 63.971734  
421.000000	 64.413118  
420.000000	 64.736580  
419.000000	 64.866685  
418.000000	 64.759683  
417.000000	 64.426517  
416.000000	 63.933444  
415.000000	 63.381886  
414.000000	 62.884473  
413.000000	 62.543988  
412.000000	 62.427973  
411.000000	 62.539815  
410.000000	 62.832903  
409.000000	 63.235688  
408.000000	 63.674950  
407.000000	 64.098596  
406.000000	 64.489197  
405.000000	 64.856553  
404.000000	 65.226316  
403.000000	 65.662765  
402.000000	 66.181945  
401.000000	 66.712832  
400.000000	 67.118477  
399.000000	 67.243790  
398.000000	 66.930651  
397.000000	 66.073632  
396.000000	 64.647650  
395.000000	 62.740588  
394.000000	 60.503339  
393.000000	 58.117556  
392.000000	 55.768203  
391.000000	 53.616142  
390.000000	 51.726198  
389.000000	 50.064706  
388.000000	 48.621654  
387.000000	 47.338032  
386.000000	 46.282887  
385.000000	 45.560050  
384.000000	 44.520711  
383.000000	 42.476606  
382.000000	 39.113759  
381.000000	 34.677028  
380.000000	 30.833411  
379.000000	 29.386591  
378.000000	 31.281709  
377.000000	 36.687374  
376.000000	 43.232965  
375.000000	 48.891091  
374.000000	 53.511428  
373.000000	 58.165454  
372.000000	 67.077565  
371.000000	 82.190871  
370.000000	 101.088881 

