PE IR       SPECTRUM    SPECTRUM    ASCII       PEDS        1.60        
  -1
BZ6FA5~1.ASC
17/04/07
21:13:43.00
17/04/07
21:13:43.00
tln
$BZ1503107-1_t0097$<tbV0>[-7.8,7.8,8.0,0.0,27,1,0]
370.000000
64









2002,4.07    
MIRTGS : RIGHTBACK : INTERNAL 2
MIR : ON : INTERNAL 2
OPTKBR

0.200000
8
8.000000
FILLER
RATIO
SPECTRUM
UNLOCKED 256

DOUBLE
64
COMBINED
1
0
0


1.000000
RATIO


1
0
TRUE
51149
0
LEFT NOT FITTED RIGHT NOT FITTED 0
NONE
NONE
15600
12.000000
4.427000
51148
TRUE
1 0 8 72 0 0 0 0 

15798.010000






#HDR
-1
-1
#GR
CM-1
%T
0.00002384185791015625
0.0
5000.000000
-1.000000
4631
8
71.061730
40.149116
#DATA
5000.000000	63.504815 
4999.000000	63.475990 
4998.000000	63.437652 
4997.000000	63.377857 
4996.000000	63.290071 
4995.000000	63.174819 
4994.000000	63.042306 
4993.000000	62.909889 
4992.000000	62.799119 
4991.000000	62.730336 
4990.000000	62.716674 
4989.000000	62.760400 
4988.000000	62.851047 
4987.000000	62.967300 
4986.000000	63.081884 
4985.000000	63.168358 
4984.000000	63.204669 
4983.000000	63.178062 
4982.000000	63.087391 
4981.000000	62.943458 
4980.000000	62.765073 
4979.000000	62.576532 
4978.000000	62.403178 
4977.000000	62.268710 
4976.000000	62.193346 
4975.000000	62.191271 
4974.000000	62.269210 
4973.000000	62.424731 
4972.000000	62.647485 
4971.000000	62.918305 
4970.000000	63.210940 
4969.000000	63.495755 
4968.000000	63.741946 
4967.000000	63.924741 
4966.000000	64.027619 
4965.000000	64.048051 
4964.000000	63.996124 
4963.000000	63.895249 
4962.000000	63.776683 
4961.000000	63.675808 
4960.000000	63.625192 
4959.000000	63.650226 
4958.000000	63.764858 
4957.000000	63.969397 
4956.000000	64.249897 
4955.000000	64.580726 
4954.000000	64.927196 
4953.000000	65.248465 
4952.000000	65.502405 
4951.000000	65.650844 
4950.000000	65.665841 
4949.000000	65.533447 
4948.000000	65.258502 
4947.000000	64.866447 
4946.000000	64.400386 
4945.000000	63.915157 
4944.000000	63.467860 
4943.000000	63.110923 
4942.000000	62.880158 
4941.000000	62.792396 
4940.000000	62.839555 
4939.000000	62.992620 
4938.000000	63.207292 
4937.000000	63.432908 
4936.000000	63.623762 
4935.000000	63.743662 
4934.000000	63.778877 
4933.000000	63.737249 
4932.000000	63.645958 
4931.000000	63.541531 
4930.000000	63.460969 
4929.000000	63.431668 
4928.000000	63.465714 
4927.000000	63.558268 
4926.000000	63.692641 
4925.000000	63.845968 
4924.000000	63.997387 
4923.000000	64.132833 
4922.000000	64.247083 
4921.000000	64.343261 
4920.000000	64.426398 
4919.000000	64.502573 
4918.000000	64.574503 
4917.000000	64.641976 
4916.000000	64.703702 
4915.000000	64.756488 
4914.000000	64.799070 
4913.000000	64.829254 
4912.000000	64.850187 
4911.000000	64.861083 
4910.000000	64.857530 
4909.000000	64.830207 
4908.000000	64.767265 
4907.000000	64.658260 
4906.000000	64.498519 
4905.000000	64.293098 
4904.000000	64.057850 
4903.000000	63.818430 
4902.000000	63.605856 
4901.000000	63.448333 
4900.000000	63.364911 
4899.000000	63.362431 
4898.000000	63.433766 
4897.000000	63.559603 
4896.000000	63.713240 
4895.000000	63.865900 
4894.000000	63.993549 
4893.000000	64.078617 
4892.000000	64.115428 
4891.000000	64.107680 
4890.000000	64.069128 
4889.000000	64.016699 
4888.000000	63.969182 
4887.000000	63.942909 
4886.000000	63.948535 
4885.000000	63.991093 
4884.000000	64.067363 
4883.000000	64.169144 
4882.000000	64.282274 
4881.000000	64.391040 
4880.000000	64.479446 
4879.000000	64.534902 
4878.000000	64.548897 
4877.000000	64.518404 
4876.000000	64.444065 
4875.000000	64.329361 
4874.000000	64.180278 
4873.000000	64.004659 
4872.000000	63.811469 
4871.000000	63.611197 
4870.000000	63.416767 
4869.000000	63.242745 
4868.000000	63.103151 
4867.000000	63.010096 
4866.000000	62.970781 
4865.000000	62.986683 
4864.000000	63.052177 
4863.000000	63.155889 
4862.000000	63.280916 
4861.000000	63.409090 
4860.000000	63.523483 
4859.000000	63.611149 
4858.000000	63.664007 
4857.000000	63.678884 
4856.000000	63.656282 
4855.000000	63.599586 
4854.000000	63.513684 
4853.000000	63.405370 
4852.000000	63.283014 
4851.000000	63.157272 
4850.000000	63.040733 
4849.000000	62.946534 
4848.000000	62.886834 
4847.000000	62.869882 
4846.000000	62.898683 
4845.000000	62.969231 
4844.000000	63.071489 
4843.000000	63.191175 
4842.000000	63.313174 
4841.000000	63.423585 
4840.000000	63.513135 
4839.000000	63.578844 
4838.000000	63.623523 
4837.000000	63.652729 
4836.000000	63.673114 
4835.000000	63.690376 
4834.000000	63.707304 
4833.000000	63.724112 
4832.000000	63.738322 
4831.000000	63.747382 
4830.000000	63.748550 
4829.000000	63.741564 
4828.000000	63.727378 
4827.000000	63.708400 
4826.000000	63.688325 
4825.000000	63.671302 
4824.000000	63.661456 
4823.000000	63.661909 
4822.000000	63.674187 
4821.000000	63.697910 
4820.000000	63.731074 
4819.000000	63.770627 
4818.000000	63.812828 
4817.000000	63.854527 
4816.000000	63.893175 
4815.000000	63.928222 
4814.000000	63.961005 
4813.000000	63.994574 
4812.000000	64.032411 
4811.000000	64.077186 
4810.000000	64.130306 
4809.000000	64.190125 
4808.000000	64.252281 
4807.000000	64.309716 
4806.000000	64.355182 
4805.000000	64.381790 
4804.000000	64.385342 
4803.000000	64.364647 
4802.000000	64.322185 
4801.000000	64.263486 
4800.000000	64.195823 
4799.000000	64.127588 
4798.000000	64.066815 
4797.000000	64.019989 
4796.000000	63.991212 
4795.000000	63.981199 
4794.000000	63.987326 
4793.000000	64.003920 
4792.000000	64.023375 
4791.000000	64.037561 
4790.000000	64.039468 
4789.000000	64.024281 
4788.000000	63.990759 
4787.000000	63.941597 
4786.000000	63.883161 
4785.000000	63.823556 
4784.000000	63.771414 
4783.000000	63.734579 
4782.000000	63.718175 
4781.000000	63.723564 
4780.000000	63.747906 
4779.000000	63.785195 
4778.000000	63.826823 
4777.000000	63.863730 
4776.000000	63.887810 
4775.000000	63.893127 
4774.000000	63.877391 
4773.000000	63.841605 
4772.000000	63.790345 
4771.000000	63.730144 
4770.000000	63.669085 
4769.000000	63.615393 
4768.000000	63.575625 
4767.000000	63.553476 
4766.000000	63.549900 
4765.000000	63.562774 
4764.000000	63.587117 
4763.000000	63.615846 
4762.000000	63.640952 
4761.000000	63.654994 
4760.000000	63.651704 
4759.000000	63.627815 
4758.000000	63.582801 
4757.000000	63.520145 
4756.000000	63.446378 
4755.000000	63.371014 
4754.000000	63.304638 
4753.000000	63.257312 
4752.000000	63.236498 
4751.000000	63.246178 
4750.000000	63.285803 
4749.000000	63.351392 
4748.000000	63.436079 
4747.000000	63.532185 
4746.000000	63.632249 
4745.000000	63.730835 
4744.000000	63.824295 
4743.000000	63.911032 
4742.000000	63.990473 
4741.000000	64.062166 
4740.000000	64.124751 
4739.000000	64.176130 
4738.000000	64.213299 
4737.000000	64.233255 
4736.000000	64.233541 
4735.000000	64.213824 
4734.000000	64.175772 
4733.000000	64.123439 
4732.000000	64.062476 
4731.000000	63.999199 
4730.000000	63.939523 
4729.000000	63.888335 
4728.000000	63.848662 
4727.000000	63.821697 
4726.000000	63.806748 
4725.000000	63.801884 
4724.000000	63.804793 
4723.000000	63.813066 
4722.000000	63.825583 
4721.000000	63.841724 
4720.000000	63.862419 
4719.000000	63.888788 
4718.000000	63.922142 
4717.000000	63.962650 
4716.000000	64.008784 
4715.000000	64.057040 
4714.000000	64.102149 
4713.000000	64.138150 
4712.000000	64.158916 
4711.000000	64.159655 
4710.000000	64.137840 
4709.000000	64.093780 
4708.000000	64.030742 
4707.000000	63.954424 
4706.000000	63.872146 
4705.000000	63.791537 
4704.000000	63.719582 
4703.000000	63.661432 
4702.000000	63.619613 
4701.000000	63.594651 
4700.000000	63.584947 
4699.000000	63.588571 
4698.000000	63.602924 
4697.000000	63.626527 
4696.000000	63.658428 
4695.000000	63.698673 
4694.000000	63.747024 
4693.000000	63.802981 
4692.000000	63.864612 
4691.000000	63.929224 
4690.000000	63.993287 
4689.000000	64.053320 
4688.000000	64.106178 
4687.000000	64.149856 
4686.000000	64.183688 
4685.000000	64.207935 
4684.000000	64.223456 
4683.000000	64.231443 
4682.000000	64.233016 
4681.000000	64.228987 
4680.000000	64.219951 
4679.000000	64.207196 
4678.000000	64.192748 
4677.000000	64.179468 
4676.000000	64.170551 
4675.000000	64.169192 
4674.000000	64.177608 
4673.000000	64.196681 
4672.000000	64.225530 
4671.000000	64.261579 
4670.000000	64.300990 
4669.000000	64.339661 
4668.000000	64.373826 
4667.000000	64.400506 
4666.000000	64.418029 
4665.000000	64.425921 
4664.000000	64.424729 
4663.000000	64.415764 
4662.000000	64.400649 
4661.000000	64.380931 
4660.000000	64.357948 
4659.000000	64.332842 
4658.000000	64.305996 
4657.000000	64.277148 
4656.000000	64.245629 
4655.000000	64.210343 
4654.000000	64.170026 
4653.000000	64.123821 
4652.000000	64.071393 
4651.000000	64.013957 
4650.000000	63.954043 
4649.000000	63.895535 
4648.000000	63.842940 
4647.000000	63.801026 
4646.000000	63.773369 
4645.000000	63.762187 
4644.000000	63.767313 
4643.000000	63.786935 
4642.000000	63.817286 
4641.000000	63.854503 
4640.000000	63.894963 
4639.000000	63.936281 
4638.000000	63.977003 
4637.000000	64.016628 
4636.000000	64.054775 
4635.000000	64.090681 
4634.000000	64.122629 
4633.000000	64.148259 
4632.000000	64.164781 
4631.000000	64.170384 
4630.000000	64.164996 
4629.000000	64.150404 
4628.000000	64.130234 
4627.000000	64.109420 
4626.000000	64.092922 
4625.000000	64.084601 
4624.000000	64.086103 
4623.000000	64.096617 
4622.000000	64.113497 
4621.000000	64.133143 
4620.000000	64.151906 
4619.000000	64.167475 
4618.000000	64.178514 
4617.000000	64.184761 
4616.000000	64.186644 
4615.000000	64.184069 
4614.000000	64.176940 
4613.000000	64.164924 
4612.000000	64.147949 
4611.000000	64.126586 
4610.000000	64.102697 
4609.000000	64.079451 
4608.000000	64.060759 
4607.000000	64.050626 
4606.000000	64.052486 
4605.000000	64.068198 
4604.000000	64.097571 
4603.000000	64.137911 
4602.000000	64.184284 
4601.000000	64.230132 
4600.000000	64.268684 
4599.000000	64.294004 
4598.000000	64.301681 
4597.000000	64.289879 
4596.000000	64.259457 
4595.000000	64.213728 
4594.000000	64.158272 
4593.000000	64.099240 
4592.000000	64.042925 
4591.000000	63.993692 
4590.000000	63.954067 
4589.000000	63.923859 
4588.000000	63.900589 
4587.000000	63.880848 
4586.000000	63.861846 
4585.000000	63.841938 
4584.000000	63.821196 
4583.000000	63.801050 
4582.000000	63.783311 
4581.000000	63.769769 
4580.000000	63.761281 
4579.000000	63.758397 
4578.000000	63.761162 
4577.000000	63.770055 
4576.000000	63.786101 
4575.000000	63.810849 
4574.000000	63.845753 
4573.000000	63.891339 
4572.000000	63.946270 
4571.000000	64.006662 
4570.000000	64.066314 
4569.000000	64.117765 
4568.000000	64.153361 
4567.000000	64.167475 
4566.000000	64.156818 
4565.000000	64.122366 
4564.000000	64.067840 
4563.000000	63.998293 
4562.000000	63.919782 
4561.000000	63.837981 
4560.000000	63.758492 
4559.000000	63.686275 
4558.000000	63.626408 
4557.000000	63.584160 
4556.000000	63.563728 
4555.000000	63.567471 
4554.000000	63.594579 
4553.000000	63.640522 
4552.000000	63.697576 
4551.000000	63.756012 
4550.000000	63.806295 
4549.000000	63.841271 
4548.000000	63.858151 
4547.000000	63.859200 
4546.000000	63.850831 
4545.000000	63.841938 
4544.000000	63.841581 
4543.000000	63.856601 
4542.000000	63.889408 
4541.000000	63.938212 
4540.000000	63.998103 
4539.000000	64.062833 
4538.000000	64.126563 
4537.000000	64.185285 
4536.000000	64.237642 
4535.000000	64.284086 
4534.000000	64.325737 
4533.000000	64.363217 
4532.000000	64.395642 
4531.000000	64.420700 
4530.000000	64.435243 
4529.000000	64.436578 
4528.000000	64.423799 
4527.000000	64.398479 
4526.000000	64.365172 
4525.000000	64.329552 
4524.000000	64.297056 
4523.000000	64.271211 
4522.000000	64.252495 
4521.000000	64.238667 
4520.000000	64.225101 
4519.000000	64.206361 
4518.000000	64.177322 
4517.000000	64.134788 
4516.000000	64.078044 
4515.000000	64.008593 
4514.000000	63.930463 
4513.000000	63.849449 
4512.000000	63.772296 
4511.000000	63.705468 
4510.000000	63.653540 
4509.000000	63.618588 
4508.000000	63.599634 
4507.000000	63.592433 
4506.000000	63.591289 
4505.000000	63.589930 
4504.000000	63.583564 
4503.000000	63.569259 
4502.000000	63.547658 
4501.000000	63.522195 
4500.000000	63.498306 
4499.000000	63.481354 
4498.000000	63.475108 
4497.000000	63.480353 
4496.000000	63.493943 
4495.000000	63.509821 
4494.000000	63.521194 
4493.000000	63.522195 
4492.000000	63.510823 
4491.000000	63.488411 
4490.000000	63.457274 
4489.000000	63.420557 
4488.000000	63.380813 
4487.000000	63.340759 
4486.000000	63.302588 
4485.000000	63.268685 
4484.000000	63.244557 
4483.000000	63.234734 
4482.000000	63.241910 
4481.000000	63.265657 
4480.000000	63.297414 
4479.000000	63.328909 
4478.000000	63.359284 
4477.000000	63.388204 
4476.000000	63.413786 
4475.000000	63.434433 
4474.000000	63.448476 
4473.000000	63.452672 
4472.000000	63.444352 
4471.000000	63.415503 
4470.000000	63.354539 
4469.000000	63.261055 
4468.000000	63.147878 
4467.000000	63.035964 
4466.000000	62.951970 
4465.000000	62.919282 
4464.000000	62.955927 
4463.000000	63.065862 
4462.000000	63.243818 
4461.000000	63.482666 
4460.000000	63.771319 
4459.000000	64.103317 
4458.000000	64.461421 
4457.000000	64.828109 
4456.000000	65.158462 
4455.000000	65.402793 
4454.000000	65.474963 
4453.000000	65.284299 
4452.000000	64.726161 
4451.000000	63.693690 
4450.000000	62.145352 
4449.000000	60.104012 
4448.000000	57.755637 
4447.000000	55.431509 
4446.000000	53.571176 
4445.000000	52.634215 
4444.000000	52.936816 
4443.000000	54.561662 
4442.000000	57.287859 
4441.000000	60.639333 
4440.000000	64.041113 
4439.000000	66.955685 
4438.000000	69.050097 
4437.000000	70.236301 
4436.000000	70.628213 
4435.000000	70.481276 
4434.000000	70.037817 
4433.000000	69.491481 
4432.000000	68.953824 
4431.000000	68.443012 
4430.000000	67.983984 
4429.000000	67.559075 
4428.000000	67.175149 
4427.000000	66.829228 
4426.000000	66.510343 
4425.000000	66.209816 
4424.000000	65.917372 
4423.000000	65.633487 
4422.000000	65.370678 
4421.000000	65.145421 
4420.000000	64.970016 
4419.000000	64.849352 
4418.000000	64.775300 
4417.000000	64.733099 
4416.000000	64.703702 
4415.000000	64.672780 
4414.000000	64.634323 
4413.000000	64.585351 
4412.000000	64.528155 
4411.000000	64.467716 
4410.000000	64.411497 
4409.000000	64.376401 
4408.000000	64.379692 
4407.000000	64.425301 
4406.000000	64.505290 
4405.000000	64.607787 
4404.000000	64.712619 
4403.000000	64.796423 
4402.000000	64.835548 
4401.000000	64.809918 
4400.000000	64.709281 
4399.000000	64.537262 
4398.000000	64.310050 
4397.000000	64.051437 
4396.000000	63.791441 
4395.000000	63.560748 
4394.000000	63.385009 
4393.000000	63.280034 
4392.000000	63.251137 
4391.000000	63.293623 
4390.000000	63.393688 
4389.000000	63.531732 
4388.000000	63.686633 
4387.000000	63.839554 
4386.000000	63.975715 
4385.000000	64.086246 
4384.000000	64.167404 
4383.000000	64.220190 
4382.000000	64.248704 
4381.000000	64.258408 
4380.000000	64.255189 
4379.000000	64.243507 
4378.000000	64.226865 
4377.000000	64.206624 
4376.000000	64.184117 
4375.000000	64.159822 
4374.000000	64.134955 
4373.000000	64.111065 
4372.000000	64.090156 
4371.000000	64.074444 
4370.000000	64.065670 
4369.000000	64.064741 
4368.000000	64.071226 
4367.000000	64.083528 
4366.000000	64.098644 
4365.000000	64.113640 
4364.000000	64.126205 
4363.000000	64.134740 
4362.000000	64.138174 
4361.000000	64.136648 
4360.000000	64.131069 
4359.000000	64.122366 
4358.000000	64.111161 
4357.000000	64.097356 
4356.000000	64.080381 
4355.000000	64.060354 
4354.000000	64.037775 
4353.000000	64.014053 
4352.000000	63.990783 
4351.000000	63.969945 
4350.000000	63.952994 
4349.000000	63.940072 
4348.000000	63.930583 
4347.000000	63.923335 
4346.000000	63.917303 
4345.000000	63.911867 
4344.000000	63.906955 
4343.000000	63.903236 
4342.000000	63.901543 
4341.000000	63.902330 
4340.000000	63.905596 
4339.000000	63.910436 
4338.000000	63.915491 
4337.000000	63.919162 
4336.000000	63.920331 
4335.000000	63.918542 
4334.000000	63.914537 
4333.000000	63.910007 
4332.000000	63.907480 
4331.000000	63.909554 
4330.000000	63.918375 
4329.000000	63.934898 
4328.000000	63.958692 
4327.000000	63.987517 
4326.000000	64.018082 
4325.000000	64.045953 
4324.000000	64.066505 
4323.000000	64.075279 
4322.000000	64.069151 
4321.000000	64.046716 
4320.000000	64.008307 
4319.000000	63.956165 
4318.000000	63.894486 
4317.000000	63.828730 
4316.000000	63.764476 
4315.000000	63.706970 
4314.000000	63.660359 
4313.000000	63.627147 
4312.000000	63.608169 
4311.000000	63.602852 
4310.000000	63.609242 
4309.000000	63.624954 
4308.000000	63.647580 
4307.000000	63.674688 
4306.000000	63.704109 
4305.000000	63.733863 
4304.000000	63.762211 
4303.000000	63.787269 
4302.000000	63.807320 
4301.000000	63.821125 
4300.000000	63.828349 
4299.000000	63.829684 
4298.000000	63.827204 
4297.000000	63.824176 
4296.000000	63.824319 
4295.000000	63.831210 
4294.000000	63.847112 
4293.000000	63.872575 
4292.000000	63.905763 
4291.000000	63.943243 
4290.000000	63.980412 
4289.000000	64.012527 
4288.000000	64.035797 
4287.000000	64.048743 
4286.000000	64.051461 
4285.000000	64.045357 
4284.000000	64.032721 
4283.000000	64.015960 
4282.000000	63.996815 
4281.000000	63.975930 
4280.000000	63.953185 
4279.000000	63.927984 
4278.000000	63.899827 
4277.000000	63.868784 
4276.000000	63.835573 
4275.000000	63.801646 
4274.000000	63.768863 
4273.000000	63.739323 
4272.000000	63.714504 
4271.000000	63.695454 
4270.000000	63.682627 
4269.000000	63.676500 
4268.000000	63.676834 
4267.000000	63.683819 
4266.000000	63.697695 
4265.000000	63.719344 
4264.000000	63.749074 
4263.000000	63.787555 
4262.000000	63.834881 
4261.000000	63.890767 
4260.000000	63.953781 
4259.000000	64.021396 
4258.000000	64.090061 
4257.000000	64.154839 
4256.000000	64.210343 
4255.000000	64.251208 
4254.000000	64.273285 
4253.000000	64.274334 
4252.000000	64.254736 
4251.000000	64.217782 
4250.000000	64.169096 
4249.000000	64.116334 
4248.000000	64.067459 
4247.000000	64.029598 
4246.000000	64.007139 
4245.000000	64.001631 
4244.000000	64.011168 
4243.000000	64.031028 
4242.000000	64.054536 
4241.000000	64.074683 
4240.000000	64.086055 
4239.000000	64.085245 
4238.000000	64.072227 
4237.000000	64.049291 
4236.000000	64.020895 
4235.000000	63.992023 
4234.000000	63.966989 
4233.000000	63.948154 
4232.000000	63.935542 
4231.000000	63.927197 
4230.000000	63.919472 
4229.000000	63.908529 
4228.000000	63.891315 
4227.000000	63.866901 
4226.000000	63.836479 
4225.000000	63.803315 
4224.000000	63.772320 
4223.000000	63.749122 
4222.000000	63.738536 
4221.000000	63.743567 
4220.000000	63.764524 
4219.000000	63.798809 
4218.000000	63.841867 
4217.000000	63.887381 
4216.000000	63.928556 
4215.000000	63.959455 
4214.000000	63.976049 
4213.000000	63.976812 
4212.000000	63.962364 
4211.000000	63.935756 
4210.000000	63.901352 
4209.000000	63.864302 
4208.000000	63.829588 
4207.000000	63.801240 
4206.000000	63.782143 
4205.000000	63.773465 
4204.000000	63.774633 
4203.000000	63.783764 
4202.000000	63.798236 
4201.000000	63.814949 
4200.000000	63.830900 
4199.000000	63.843679 
4198.000000	63.851976 
4197.000000	63.855886 
4196.000000	63.857030 
4195.000000	63.857889 
4194.000000	63.861441 
4193.000000	63.870429 
4192.000000	63.886809 
4191.000000	63.911199 
4190.000000	63.942933 
4189.000000	63.980507 
4188.000000	64.021611 
4187.000000	64.063811 
4186.000000	64.104771 
4185.000000	64.142632 
4184.000000	64.176130 
4183.000000	64.204311 
4182.000000	64.227223 
4181.000000	64.245772 
4180.000000	64.261722 
4179.000000	64.277362 
4178.000000	64.294862 
4177.000000	64.315938 
4176.000000	64.340972 
4175.000000	64.368915 
4174.000000	64.397025 
4173.000000	64.421439 
4172.000000	64.437794 
4171.000000	64.442229 
4170.000000	64.432382 
4169.000000	64.407825 
4168.000000	64.370512 
4167.000000	64.324164 
4166.000000	64.273333 
4165.000000	64.222645 
4164.000000	64.175844 
4163.000000	64.135599 
4162.000000	64.103293 
4161.000000	64.078998 
4160.000000	64.062309 
4159.000000	64.052104 
4158.000000	64.047169 
4157.000000	64.046168 
4156.000000	64.047002 
4155.000000	64.047598 
4154.000000	64.045786 
4153.000000	64.039444 
4152.000000	64.026784 
4151.000000	64.006996 
4150.000000	63.980340 
4149.000000	63.948202 
4148.000000	63.912892 
4147.000000	63.877034 
4146.000000	63.843464 
4145.000000	63.814878 
4144.000000	63.793611 
4143.000000	63.782119 
4142.000000	63.782763 
4141.000000	63.797616 
4140.000000	63.827800 
4139.000000	63.872861 
4138.000000	63.930368 
4137.000000	63.995337 
4136.000000	64.061188 
4135.000000	64.120674 
4134.000000	64.167380 
4133.000000	64.197468 
4132.000000	64.209914 
4131.000000	64.206743 
4130.000000	64.191961 
4129.000000	64.171195 
4128.000000	64.149546 
4127.000000	64.130687 
4126.000000	64.116096 
4125.000000	64.105534 
4124.000000	64.097237 
4123.000000	64.089322 
4122.000000	64.080405 
4121.000000	64.070630 
4120.000000	64.061093 
4119.000000	64.053726 
4118.000000	64.050316 
4117.000000	64.052033 
4116.000000	64.058566 
4115.000000	64.068174 
4114.000000	64.078307 
4113.000000	64.085984 
4112.000000	64.088416 
4111.000000	64.083862 
4110.000000	64.071702 
4109.000000	64.053130 
4108.000000	64.030814 
4107.000000	64.008665 
4106.000000	63.990759 
4105.000000	63.980722 
4104.000000	63.980984 
4103.000000	63.991975 
4102.000000	64.012098 
4101.000000	64.037799 
4100.000000	64.064526 
4099.000000	64.087629 
4098.000000	64.103269 
4097.000000	64.109611 
4096.000000	64.106941 
4095.000000	64.097905 
4094.000000	64.086532 
4093.000000	64.077281 
4092.000000	64.073824 
4091.000000	64.077997 
4090.000000	64.089441 
4089.000000	64.105963 
4088.000000	64.123868 
4087.000000	64.139151 
4086.000000	64.148497 
4085.000000	64.149880 
4084.000000	64.143085 
4083.000000	64.129352 
4082.000000	64.111304 
4081.000000	64.092278 
4080.000000	64.075803 
4079.000000	64.064884 
4078.000000	64.061594 
4077.000000	64.066791 
4076.000000	64.079952 
4075.000000	64.099574 
4074.000000	64.123058 
4073.000000	64.147186 
4072.000000	64.168334 
4071.000000	64.183330 
4070.000000	64.189648 
4069.000000	64.186096 
4068.000000	64.172768 
4067.000000	64.150953 
4066.000000	64.123177 
4065.000000	64.092445 
4064.000000	64.061951 
4063.000000	64.034366 
4062.000000	64.011549 
4061.000000	63.994503 
4060.000000	63.983416 
4059.000000	63.977527 
4058.000000	63.975620 
4057.000000	63.976216 
4056.000000	63.977527 
4055.000000	63.978195 
4054.000000	63.977289 
4053.000000	63.974881 
4052.000000	63.971376 
4051.000000	63.968229 
4050.000000	63.967204 
4049.000000	63.970470 
4048.000000	63.979792 
4047.000000	63.996338 
4046.000000	64.020252 
4045.000000	64.050340 
4044.000000	64.084339 
4043.000000	64.119005 
4042.000000	64.150929 
4041.000000	64.176797 
4040.000000	64.193964 
4039.000000	64.201021 
4038.000000	64.197969 
4037.000000	64.186072 
4036.000000	64.167404 
4035.000000	64.144635 
4034.000000	64.120101 
4033.000000	64.096140 
4032.000000	64.074420 
4031.000000	64.055776 
4030.000000	64.040279 
4029.000000	64.027667 
4028.000000	64.017391 
4027.000000	64.008951 
4026.000000	64.002084 
4025.000000	63.996601 
4024.000000	63.992595 
4023.000000	63.990068 
4022.000000	63.989090 
4021.000000	63.989663 
4020.000000	63.991689 
4019.000000	63.994956 
4018.000000	63.998794 
4017.000000	64.002561 
4016.000000	64.004969 
4015.000000	64.004492 
4014.000000	63.999390 
4013.000000	63.987970 
4012.000000	63.969397 
4011.000000	63.944196 
4010.000000	63.914418 
4009.000000	63.883471 
4008.000000	63.856077 
4007.000000	63.837075 
4006.000000	63.830637 
4005.000000	63.839054 
4004.000000	63.861799 
4003.000000	63.895416 
4002.000000	63.934516 
4001.000000	63.972640 
4000.000000	64.003610 
3999.000000	64.023232 
3998.000000	64.030075 
3997.000000	64.025712 
3996.000000	64.014244 
3995.000000	64.000916 
3994.000000	63.990783 
3993.000000	63.987159 
3992.000000	63.991165 
3991.000000	64.001250 
3990.000000	64.014196 
3989.000000	64.025545 
3988.000000	64.031028 
3987.000000	64.027667 
3986.000000	64.014387 
3985.000000	63.992047 
3984.000000	63.963437 
3983.000000	63.932228 
3982.000000	63.902592 
3981.000000	63.878488 
3980.000000	63.863420 
3979.000000	63.860177 
3978.000000	63.870620 
3977.000000	63.895797 
3976.000000	63.935446 
3975.000000	63.988113 
3974.000000	64.050459 
3973.000000	64.117288 
3972.000000	64.181661 
3971.000000	64.235711 
3970.000000	64.272069 
3969.000000	64.284777 
3968.000000	64.271235 
3967.000000	64.232563 
3966.000000	64.174032 
3965.000000	64.104342 
3964.000000	64.034104 
3963.000000	63.973903 
3962.000000	63.932085 
3961.000000	63.913178 
3960.000000	63.917112 
3959.000000	63.939929 
3958.000000	63.974499 
3957.000000	64.012479 
3956.000000	64.046001 
3955.000000	64.069581 
3954.000000	64.080667 
3953.000000	64.079999 
3952.000000	64.070558 
3951.000000	64.056825 
3950.000000	64.043593 
3949.000000	64.035201 
3948.000000	64.034771 
3947.000000	64.043593 
3946.000000	64.062047 
3945.000000	64.088869 
3944.000000	64.122009 
3943.000000	64.158344 
3942.000000	64.194226 
3941.000000	64.225769 
3940.000000	64.249086 
3939.000000	64.261484 
3938.000000	64.261507 
3937.000000	64.250063 
3936.000000	64.230179 
3935.000000	64.206814 
3934.000000	64.185595 
3933.000000	64.172005 
3932.000000	64.170098 
3931.000000	64.181137 
3930.000000	64.203190 
3929.000000	64.231538 
3928.000000	64.259624 
3927.000000	64.280200 
3926.000000	64.286994 
3925.000000	64.275646 
3924.000000	64.244771 
3923.000000	64.196062 
3922.000000	64.134097 
3921.000000	64.064741 
3920.000000	63.994693 
3919.000000	63.930201 
3918.000000	63.876748 
3917.000000	63.838028 
3916.000000	63.816642 
3915.000000	63.813781 
3914.000000	63.829755 
3913.000000	63.863396 
3912.000000	63.912773 
3911.000000	63.974475 
3910.000000	64.044117 
3909.000000	64.115881 
3908.000000	64.183878 
3907.000000	64.242267 
3906.000000	64.286565 
3905.000000	64.314222 
3904.000000	64.325046 
3903.000000	64.321112 
3902.000000	64.306545 
3901.000000	64.286351 
3900.000000	64.265322 
3899.000000	64.246511 
3898.000000	64.231371 
3897.000000	64.218854 
3896.000000	64.206361 
3895.000000	64.190125 
3894.000000	64.166617 
3893.000000	64.133429 
3892.000000	64.089727 
3891.000000	64.037156 
3890.000000	63.979029 
3889.000000	63.920664 
3888.000000	63.867592 
3887.000000	63.825392 
3886.000000	63.798189 
3885.000000	63.788437 
3884.000000	63.795948 
3883.000000	63.818430 
3882.000000	63.851499 
3881.000000	63.890361 
3880.000000	63.930392 
3879.000000	63.968420 
3878.000000	64.002728 
3877.000000	64.033842 
3876.000000	64.063644 
3875.000000	64.094638 
3874.000000	64.128589 
3873.000000	64.165616 
3872.000000	64.203715 
3871.000000	64.239263 
3870.000000	64.267396 
3869.000000	64.283585 
3868.000000	64.284467 
3867.000000	64.269566 
3866.000000	64.241051 
3865.000000	64.203405 
3864.000000	64.162492 
3863.000000	64.124155 
3862.000000	64.093232 
3861.000000	64.072370 
3860.000000	64.061832 
3859.000000	64.060163 
3858.000000	64.064526 
3857.000000	64.071583 
3856.000000	64.078545 
3855.000000	64.083623 
3854.000000	64.086365 
3853.000000	64.087343 
3852.000000	64.087843 
3851.000000	64.088940 
3850.000000	64.092111 
3849.000000	64.098477 
3848.000000	64.108729 
3847.000000	64.123058 
3846.000000	64.141583 
3845.000000	64.164137 
3844.000000	64.190101 
3843.000000	64.218306 
3842.000000	64.247202 
3841.000000	64.274978 
3840.000000	64.299416 
3839.000000	64.318466 
3838.000000	64.330744 
3837.000000	64.335751 
3836.000000	64.333891 
3835.000000	64.326357 
3834.000000	64.315390 
3833.000000	64.303374 
3832.000000	64.292883 
3831.000000	64.285874 
3830.000000	64.283394 
3829.000000	64.285326 
3828.000000	64.290690 
3827.000000	64.297318 
3826.000000	64.302492 
3825.000000	64.303207 
3824.000000	64.297056 
3823.000000	64.282727 
3822.000000	64.260435 
3821.000000	64.232206 
3820.000000	64.201402 
3819.000000	64.172196 
3818.000000	64.148545 
3817.000000	64.133381 
3816.000000	64.127540 
3815.000000	64.129495 
3814.000000	64.135241 
3813.000000	64.139366 
3812.000000	64.136219 
3811.000000	64.120793 
3810.000000	64.090633 
3809.000000	64.045953 
3808.000000	63.990211 
3807.000000	63.928937 
3806.000000	63.869118 
3805.000000	63.817477 
3804.000000	63.779187 
3803.000000	63.757061 
3802.000000	63.751268 
3801.000000	63.759541 
3800.000000	63.778018 
3799.000000	63.802170 
3798.000000	63.827872 
3797.000000	63.852024 
3796.000000	63.873124 
3795.000000	63.890814 
3794.000000	63.905835 
3793.000000	63.919377 
3792.000000	63.932776 
3791.000000	63.947248 
3790.000000	63.963747 
3789.000000	63.982796 
3788.000000	64.004635 
3787.000000	64.028930 
3786.000000	64.055252 
3785.000000	64.082646 
3784.000000	64.109945 
3783.000000	64.135551 
3782.000000	64.157915 
3781.000000	64.175724 
3780.000000	64.188122 
3779.000000	64.194726 
3778.000000	64.196157 
3777.000000	64.193558 
3776.000000	64.188623 
3775.000000	64.183282 
3774.000000	64.179658 
3773.000000	64.179253 
3772.000000	64.182925 
3771.000000	64.190578 
3770.000000	64.201378 
3769.000000	64.213657 
3768.000000	64.225292 
3767.000000	64.233827 
3766.000000	64.237093 
3765.000000	64.233398 
3764.000000	64.222049 
3763.000000	64.203476 
3762.000000	64.179587 
3761.000000	64.153575 
3760.000000	64.129447 
3759.000000	64.111399 
3758.000000	64.102792 
3757.000000	64.105510 
3756.000000	64.119291 
3755.000000	64.141535 
3754.000000	64.167785 
3753.000000	64.192891 
3752.000000	64.211702 
3751.000000	64.220404 
3750.000000	64.217114 
3749.000000	64.202237 
3748.000000	64.178299 
3747.000000	64.148974 
3746.000000	64.118599 
3745.000000	64.090919 
3744.000000	64.068889 
3743.000000	64.054155 
3742.000000	64.047336 
3741.000000	64.048242 
3740.000000	64.056181 
3739.000000	64.070343 
3738.000000	64.089536 
3737.000000	64.112353 
3736.000000	64.136838 
3735.000000	64.160799 
3734.000000	64.181804 
3733.000000	64.198088 
3732.000000	64.208364 
3731.000000	64.212465 
3730.000000	64.211153 
3729.000000	64.205837 
3728.000000	64.198493 
3727.000000	64.190936 
3726.000000	64.184379 
3725.000000	64.179491 
3724.000000	64.176321 
3723.000000	64.174675 
3722.000000	64.174485 
3721.000000	64.176058 
3720.000000	64.180111 
3719.000000	64.187455 
3718.000000	64.198660 
3717.000000	64.213633 
3716.000000	64.231419 
3715.000000	64.250183 
3714.000000	64.267301 
3713.000000	64.280295 
3712.000000	64.287328 
3711.000000	64.287304 
3710.000000	64.280271 
3709.000000	64.267349 
3708.000000	64.250493 
3707.000000	64.232158 
3706.000000	64.214897 
3705.000000	64.200782 
3704.000000	64.191102 
3703.000000	64.186549 
3702.000000	64.186811 
3701.000000	64.190983 
3700.000000	64.197325 
3699.000000	64.204144 
3698.000000	64.209842 
3697.000000	64.212942 
3696.000000	64.212822 
3695.000000	64.209675 
3694.000000	64.204668 
3693.000000	64.199542 
3692.000000	64.196276 
3691.000000	64.196801 
3690.000000	64.202356 
3689.000000	64.213132 
3688.000000	64.228630 
3687.000000	64.247488 
3686.000000	64.267921 
3685.000000	64.288139 
3684.000000	64.306354 
3683.000000	64.321303 
3682.000000	64.332127 
3681.000000	64.338517 
3680.000000	64.340519 
3679.000000	64.338564 
3678.000000	64.333438 
3677.000000	64.326071 
3676.000000	64.317679 
3675.000000	64.309215 
3674.000000	64.301776 
3673.000000	64.296054 
3672.000000	64.292526 
3671.000000	64.290809 
3670.000000	64.290165 
3669.000000	64.289236 
3668.000000	64.286398 
3667.000000	64.280033 
3666.000000	64.268994 
3665.000000	64.252614 
3664.000000	64.231157 
3663.000000	64.205646 
3662.000000	64.177918 
3661.000000	64.150238 
3660.000000	64.125227 
3659.000000	64.105296 
3658.000000	64.092350 
3657.000000	64.087438 
3656.000000	64.090824 
3655.000000	64.101505 
3654.000000	64.117646 
3653.000000	64.136934 
3652.000000	64.156866 
3651.000000	64.174866 
3650.000000	64.188933 
3649.000000	64.197683 
3648.000000	64.200663 
3647.000000	64.198327 
3646.000000	64.191794 
3645.000000	64.182591 
3644.000000	64.172434 
3643.000000	64.163160 
3642.000000	64.156270 
3641.000000	64.152836 
3640.000000	64.153265 
3639.000000	64.157557 
3638.000000	64.164876 
3637.000000	64.173793 
3636.000000	64.182448 
3635.000000	64.189004 
3634.000000	64.191889 
3633.000000	64.190030 
3632.000000	64.183378 
3631.000000	64.172697 
3630.000000	64.159274 
3629.000000	64.144611 
3628.000000	64.130163 
3627.000000	64.117050 
3626.000000	64.105796 
3625.000000	64.096307 
3624.000000	64.088320 
3623.000000	64.081573 
3622.000000	64.076137 
3621.000000	64.072632 
3620.000000	64.071869 
3619.000000	64.074921 
3618.000000	64.082598 
3617.000000	64.095330 
3616.000000	64.112639 
3615.000000	64.133477 
3614.000000	64.156246 
3613.000000	64.179301 
3612.000000	64.201164 
3611.000000	64.220738 
3610.000000	64.237642 
3609.000000	64.251995 
3608.000000	64.264035 
3607.000000	64.274072 
3606.000000	64.282274 
3605.000000	64.288640 
3604.000000	64.293074 
3603.000000	64.295649 
3602.000000	64.296555 
3601.000000	64.296603 
3600.000000	64.296650 
3599.000000	64.297699 
3598.000000	64.300346 
3597.000000	64.304566 
3596.000000	64.309597 
3595.000000	64.314055 
3594.000000	64.316201 
3593.000000	64.314579 
3592.000000	64.308357 
3591.000000	64.297771 
3590.000000	64.284086 
3589.000000	64.269304 
3588.000000	64.255380 
3587.000000	64.243888 
3586.000000	64.235138 
3585.000000	64.228129 
3584.000000	64.220833 
3583.000000	64.210987 
3582.000000	64.196562 
3581.000000	64.176797 
3580.000000	64.152622 
3579.000000	64.126777 
3578.000000	64.103174 
3577.000000	64.085984 
3576.000000	64.078807 
3575.000000	64.083695 
3574.000000	64.100670 
3573.000000	64.127516 
3572.000000	64.160203 
3571.000000	64.193463 
3570.000000	64.222216 
3569.000000	64.242100 
3568.000000	64.250063 
3567.000000	64.244961 
3566.000000	64.227318 
3565.000000	64.199209 
3564.000000	64.163517 
3563.000000	64.123535 
3562.000000	64.082622 
3561.000000	64.043760 
3560.000000	64.009141 
3559.000000	63.980245 
3558.000000	63.957929 
3557.000000	63.942146 
3556.000000	63.932228 
3555.000000	63.926720 
3554.000000	63.923811 
3553.000000	63.921642 
3552.000000	63.918495 
3551.000000	63.913297 
3550.000000	63.905811 
3549.000000	63.896894 
3548.000000	63.888692 
3547.000000	63.883876 
3546.000000	63.885331 
3545.000000	63.895153 
3544.000000	63.914251 
3543.000000	63.941979 
3542.000000	63.976192 
3541.000000	64.013695 
3540.000000	64.050793 
3539.000000	64.084291 
3538.000000	64.112305 
3537.000000	64.134287 
3536.000000	64.151334 
3535.000000	64.165735 
3534.000000	64.180016 
3533.000000	64.196205 
3532.000000	64.215016 
3531.000000	64.236187 
3530.000000	64.257478 
3529.000000	64.275527 
3528.000000	64.286136 
3527.000000	64.285731 
3526.000000	64.271640 
3525.000000	64.242863 
3524.000000	64.200305 
3523.000000	64.146924 
3522.000000	64.087104 
3521.000000	64.026260 
3520.000000	63.970088 
3519.000000	63.923811 
3518.000000	63.891649 
3517.000000	63.876295 
3516.000000	63.878536 
3515.000000	63.897514 
3514.000000	63.930273 
3513.000000	63.972854 
3512.000000	64.020156 
3511.000000	64.067482 
3510.000000	64.110946 
3509.000000	64.148592 
3508.000000	64.179778 
3507.000000	64.205360 
3506.000000	64.227223 
3505.000000	64.247155 
3504.000000	64.266443 
3503.000000	64.284944 
3502.000000	64.301443 
3501.000000	64.313554 
3500.000000	64.318895 
3499.000000	64.315485 
3498.000000	64.302754 
3497.000000	64.281725 
3496.000000	64.255189 
3495.000000	64.227390 
3494.000000	64.203333 
3493.000000	64.187932 
3492.000000	64.184856 
3491.000000	64.195990 
3490.000000	64.220952 
3489.000000	64.257264 
3488.000000	64.300537 
3487.000000	64.345121 
3486.000000	64.385104 
3485.000000	64.415168 
3484.000000	64.431905 
3483.000000	64.434075 
3482.000000	64.423203 
3481.000000	64.402866 
3480.000000	64.378309 
3479.000000	64.355278 
3478.000000	64.338612 
3477.000000	64.331436 
3476.000000	64.334201 
3475.000000	64.345359 
3474.000000	64.361119 
3473.000000	64.376711 
3472.000000	64.387202 
3471.000000	64.388585 
3470.000000	64.378356 
3469.000000	64.356207 
3468.000000	64.323639 
3467.000000	64.283490 
3466.000000	64.239621 
3465.000000	64.195775 
3464.000000	64.155006 
3463.000000	64.119410 
3462.000000	64.090108 
3461.000000	64.067363 
3460.000000	64.051151 
3459.000000	64.041352 
3458.000000	64.037823 
3457.000000	64.040589 
3456.000000	64.049434 
3455.000000	64.063525 
3454.000000	64.080834 
3453.000000	64.098453 
3452.000000	64.112520 
3451.000000	64.119100 
3450.000000	64.114665 
3449.000000	64.097452 
3448.000000	64.068007 
3447.000000	64.029574 
3446.000000	63.987636 
3445.000000	63.948845 
3444.000000	63.919734 
3443.000000	63.905549 
3442.000000	63.909029 
3441.000000	63.930106 
3440.000000	63.965845 
3439.000000	64.011240 
3438.000000	64.060258 
3437.000000	64.106678 
3436.000000	64.145374 
3435.000000	64.172863 
3434.000000	64.187884 
3433.000000	64.191079 
3432.000000	64.184951 
3431.000000	64.173126 
3430.000000	64.159440 
3429.000000	64.147710 
3428.000000	64.140295 
3427.000000	64.138507 
3426.000000	64.141702 
3425.000000	64.148092 
3424.000000	64.154934 
3423.000000	64.159369 
3422.000000	64.159297 
3421.000000	64.154028 
3420.000000	64.144635 
3419.000000	64.133763 
3418.000000	64.124774 
3417.000000	64.120817 
3416.000000	64.124083 
3415.000000	64.135074 
3414.000000	64.152240 
3413.000000	64.172267 
3412.000000	64.191174 
3411.000000	64.205074 
3410.000000	64.211153 
3409.000000	64.208245 
3408.000000	64.196777 
3407.000000	64.178609 
3406.000000	64.156436 
3405.000000	64.132905 
3404.000000	64.109802 
3403.000000	64.087963 
3402.000000	64.067482 
3401.000000	64.047884 
3400.000000	64.028644 
3399.000000	64.009881 
3398.000000	63.992357 
3397.000000	63.977527 
3396.000000	63.967204 
3395.000000	63.963103 
3394.000000	63.966345 
3393.000000	63.977193 
3392.000000	63.994836 
3391.000000	64.017820 
3390.000000	64.044213 
3389.000000	64.071941 
3388.000000	64.098978 
3387.000000	64.123582 
3386.000000	64.144349 
3385.000000	64.160203 
3384.000000	64.170265 
3383.000000	64.174103 
3382.000000	64.171504 
3381.000000	64.163017 
3380.000000	64.149594 
3379.000000	64.132714 
3378.000000	64.114141 
3377.000000	64.095640 
3376.000000	64.078760 
3375.000000	64.064502 
3374.000000	64.053392 
3373.000000	64.045572 
3372.000000	64.041066 
3371.000000	64.039731 
3370.000000	64.041662 
3369.000000	64.047002 
3368.000000	64.055752 
3367.000000	64.067411 
3366.000000	64.080905 
3365.000000	64.094424 
3364.000000	64.105749 
3363.000000	64.112734 
3362.000000	64.113807 
3361.000000	64.108347 
3360.000000	64.097285 
3359.000000	64.082956 
3358.000000	64.068460 
3357.000000	64.056968 
3356.000000	64.051270 
3355.000000	64.052796 
3354.000000	64.061427 
3353.000000	64.075350 
3352.000000	64.091849 
3351.000000	64.107823 
3350.000000	64.120745 
3349.000000	64.128994 
3348.000000	64.132356 
3347.000000	64.131736 
3346.000000	64.128804 
3345.000000	64.125537 
3344.000000	64.123511 
3343.000000	64.123678 
3342.000000	64.126181 
3341.000000	64.130473 
3340.000000	64.135408 
3339.000000	64.139795 
3338.000000	64.142799 
3337.000000	64.143657 
3336.000000	64.141869 
3335.000000	64.137077 
3334.000000	64.129066 
3333.000000	64.117598 
3332.000000	64.102506 
3331.000000	64.084124 
3330.000000	64.063096 
3329.000000	64.040565 
3328.000000	64.018273 
3327.000000	63.998317 
3326.000000	63.982772 
3325.000000	63.973355 
3324.000000	63.971066 
3323.000000	63.975882 
3322.000000	63.986587 
3321.000000	64.000868 
3320.000000	64.015746 
3319.000000	64.028048 
3318.000000	64.035296 
3317.000000	64.036178 
3316.000000	64.031171 
3315.000000	64.022135 
3314.000000	64.012193 
3313.000000	64.004969 
3312.000000	64.003634 
3311.000000	64.010238 
3310.000000	64.025187 
3309.000000	64.047145 
3308.000000	64.073300 
3307.000000	64.100170 
3306.000000	64.124345 
3305.000000	64.143347 
3304.000000	64.156007 
3303.000000	64.162778 
3302.000000	64.165568 
3301.000000	64.166951 
3300.000000	64.169597 
3299.000000	64.175438 
3298.000000	64.185237 
3297.000000	64.198017 
3296.000000	64.212059 
3295.000000	64.224720 
3294.000000	64.233446 
3293.000000	64.236068 
3292.000000	64.231777 
3291.000000	64.220881 
3290.000000	64.204788 
3289.000000	64.185500 
3288.000000	64.165258 
3287.000000	64.146089 
3286.000000	64.129257 
3285.000000	64.115500 
3284.000000	64.104843 
3283.000000	64.096808 
3282.000000	64.090704 
3281.000000	64.085698 
3280.000000	64.080977 
3279.000000	64.075779 
3278.000000	64.069628 
3277.000000	64.061808 
3276.000000	64.051866 
3275.000000	64.039707 
3274.000000	64.025998 
3273.000000	64.011764 
3272.000000	63.998675 
3271.000000	63.988804 
3270.000000	63.984346 
3269.000000	63.986992 
3268.000000	63.997483 
3267.000000	64.015245 
3266.000000	64.038872 
3265.000000	64.065623 
3264.000000	64.092636 
3263.000000	64.117288 
3262.000000	64.137911 
3261.000000	64.154028 
3260.000000	64.166402 
3259.000000	64.176583 
3258.000000	64.186429 
3257.000000	64.197421 
3256.000000	64.209914 
3255.000000	64.222812 
3254.000000	64.233946 
3253.000000	64.240527 
3252.000000	64.239788 
3251.000000	64.229893 
3250.000000	64.210581 
3249.000000	64.183425 
3248.000000	64.151597 
3247.000000	64.119267 
3246.000000	64.090728 
3245.000000	64.069294 
3244.000000	64.056873 
3243.000000	64.053201 
3242.000000	64.056372 
3241.000000	64.063048 
3240.000000	64.069414 
3239.000000	64.072275 
3238.000000	64.069437 
3237.000000	64.060783 
3236.000000	64.047670 
3235.000000	64.033126 
3234.000000	64.020752 
3233.000000	64.013934 
3232.000000	64.015150 
3231.000000	64.025282 
3230.000000	64.043283 
3229.000000	64.066433 
3228.000000	64.090824 
3227.000000	64.112091 
3226.000000	64.126539 
3225.000000	64.131593 
3224.000000	64.126491 
3223.000000	64.112329 
3222.000000	64.091515 
3221.000000	64.067387 
3220.000000	64.043235 
3219.000000	64.021635 
3218.000000	64.004015 
3217.000000	63.990449 
3216.000000	63.980054 
3215.000000	63.971543 
3214.000000	63.963794 
3213.000000	63.956332 
3212.000000	63.949584 
3211.000000	63.944673 
3210.000000	63.943457 
3209.000000	63.947343 
3208.000000	63.957428 
3207.000000	63.973569 
3206.000000	63.994836 
3205.000000	64.019560 
3204.000000	64.045691 
3203.000000	64.071297 
3202.000000	64.094710 
3201.000000	64.114546 
3200.000000	64.129829 
3199.000000	64.139890 
3198.000000	64.144325 
3197.000000	64.143013 
3196.000000	64.136171 
3195.000000	64.124274 
3194.000000	64.108443 
3193.000000	64.090085 
3192.000000	64.071059 
3191.000000	64.053273 
3190.000000	64.038205 
3189.000000	64.026975 
3188.000000	64.020085 
3187.000000	64.017462 
3186.000000	64.018440 
3185.000000	64.021968 
3184.000000	64.027166 
3183.000000	64.032983 
3182.000000	64.038562 
3181.000000	64.043188 
3180.000000	64.046263 
3179.000000	64.047551 
3178.000000	64.047098 
3177.000000	64.045357 
3176.000000	64.043021 
3175.000000	64.040708 
3174.000000	64.038848 
3173.000000	64.037299 
3172.000000	64.035463 
3171.000000	64.032220 
3170.000000	64.026474 
3169.000000	64.017319 
3168.000000	64.004564 
3167.000000	63.988947 
3166.000000	63.972020 
3165.000000	63.956069 
3164.000000	63.943362 
3163.000000	63.935565 
3162.000000	63.933396 
3161.000000	63.936495 
3160.000000	63.943314 
3159.000000	63.951802 
3158.000000	63.959932 
3157.000000	63.966488 
3156.000000	63.970994 
3155.000000	63.973641 
3154.000000	63.975191 
3153.000000	63.976430 
3152.000000	63.978028 
3151.000000	63.980126 
3150.000000	63.982534 
3149.000000	63.984799 
3148.000000	63.986206 
3147.000000	63.986253 
3146.000000	63.984727 
3145.000000	63.981986 
3144.000000	63.978767 
3143.000000	63.976025 
3142.000000	63.974785 
3141.000000	63.975834 
3140.000000	63.979244 
3139.000000	63.984417 
3138.000000	63.990068 
3137.000000	63.994741 
3136.000000	63.996982 
3135.000000	63.996291 
3134.000000	63.992881 
3133.000000	63.988280 
3132.000000	63.984894 
3131.000000	63.985300 
3130.000000	63.991665 
3129.000000	64.004826 
3128.000000	64.023852 
3127.000000	64.045977 
3126.000000	64.067006 
3125.000000	64.082551 
3124.000000	64.089131 
3123.000000	64.085125 
3122.000000	64.071393 
3121.000000	64.051032 
3120.000000	64.028644 
3119.000000	64.009308 
3118.000000	63.997197 
3117.000000	63.994979 
3116.000000	64.003038 
3115.000000	64.019823 
3114.000000	64.042115 
3113.000000	64.065933 
3112.000000	64.087414 
3111.000000	64.103412 
3110.000000	64.112138 
3109.000000	64.113068 
3108.000000	64.106988 
3107.000000	64.095354 
3106.000000	64.080214 
3105.000000	64.063644 
3104.000000	64.047384 
3103.000000	64.032864 
3102.000000	64.020872 
3101.000000	64.011812 
3100.000000	64.005517 
3099.000000	64.001584 
3098.000000	63.999462 
3097.000000	63.998675 
3096.000000	63.998961 
3095.000000	64.000248 
3094.000000	64.002513 
3093.000000	64.005684 
3092.000000	64.009380 
3091.000000	64.012837 
3090.000000	64.014840 
3089.000000	64.014101 
3088.000000	64.009428 
3087.000000	64.000320 
3086.000000	63.987159 
3085.000000	63.971352 
3084.000000	63.955187 
3083.000000	63.941478 
3082.000000	63.932967 
3081.000000	63.931703 
3080.000000	63.938522 
3079.000000	63.952732 
3078.000000	63.972330 
3077.000000	63.994264 
3076.000000	64.015197 
3075.000000	64.032363 
3074.000000	64.043879 
3073.000000	64.049315 
3072.000000	64.049458 
3071.000000	64.046168 
3070.000000	64.041543 
3069.000000	64.037418 
3068.000000	64.035010 
3067.000000	64.034748 
3066.000000	64.036464 
3065.000000	64.039492 
3064.000000	64.043068 
3063.000000	64.046478 
3062.000000	64.049243 
3061.000000	64.051008 
3060.000000	64.051747 
3059.000000	64.051508 
3058.000000	64.050674 
3057.000000	64.049768 
3056.000000	64.049696 
3055.000000	64.051628 
3054.000000	64.056658 
3053.000000	64.065909 
3052.000000	64.079737 
3051.000000	64.097690 
3050.000000	64.118242 
3049.000000	64.139127 
3048.000000	64.157438 
3047.000000	64.170360 
3046.000000	64.175653 
3045.000000	64.172124 
3044.000000	64.159774 
3043.000000	64.139771 
3042.000000	64.114022 
3041.000000	64.085030 
3040.000000	64.055252 
3039.000000	64.027047 
3038.000000	64.002633 
3037.000000	63.983678 
3036.000000	63.971328 
3035.000000	63.966250 
3034.000000	63.968324 
3033.000000	63.976955 
3032.000000	63.990712 
3031.000000	64.007782 
3030.000000	64.025878 
3029.000000	64.042782 
3028.000000	64.056730 
3027.000000	64.066791 
3026.000000	64.072680 
3025.000000	64.075064 
3024.000000	64.075255 
3023.000000	64.074873 
3022.000000	64.075279 
3021.000000	64.077448 
3020.000000	64.081859 
3019.000000	64.088129 
3018.000000	64.095497 
3017.000000	64.102625 
3016.000000	64.108204 
3015.000000	64.110994 
3014.000000	64.110112 
3013.000000	64.105367 
3012.000000	64.097213 
3011.000000	64.086866 
3010.000000	64.076185 
3009.000000	64.067125 
3008.000000	64.061522 
3007.000000	64.060592 
3006.000000	64.064717 
3005.000000	64.073252 
3004.000000	64.084553 
3003.000000	64.096188 
3002.000000	64.105510 
3001.000000	64.110374 
3000.000000	64.109230 
2999.000000	64.101505 
2998.000000	64.087605 
2997.000000	64.068865 
2996.000000	64.047026 
2995.000000	64.023804 
2994.000000	64.000821 
2993.000000	63.979434 
2992.000000	63.960599 
2991.000000	63.945055 
2990.000000	63.933587 
2989.000000	63.926792 
2988.000000	63.925194 
2987.000000	63.928961 
2986.000000	63.937950 
2985.000000	63.951182 
2984.000000	63.967084 
2983.000000	63.983488 
2982.000000	63.998055 
2981.000000	64.008617 
2980.000000	64.013552 
2979.000000	64.012193 
2978.000000	64.004826 
2977.000000	63.992428 
2976.000000	63.976669 
2975.000000	63.959145 
2974.000000	63.941311 
2973.000000	63.924002 
2972.000000	63.907599 
2971.000000	63.891935 
2970.000000	63.877034 
2969.000000	63.862895 
2968.000000	63.849759 
2967.000000	63.838028 
2966.000000	63.828134 
2965.000000	63.820314 
2964.000000	63.814353 
2963.000000	63.809609 
2962.000000	63.805127 
2961.000000	63.800024 
2960.000000	63.793754 
2959.000000	63.786435 
2958.000000	63.778829 
2957.000000	63.772320 
2956.000000	63.768553 
2955.000000	63.769149 
2954.000000	63.775134 
2953.000000	63.786792 
2952.000000	63.803482 
2951.000000	63.823866 
2950.000000	63.846206 
2949.000000	63.868594 
2948.000000	63.889455 
2947.000000	63.907551 
2946.000000	63.922095 
2945.000000	63.932704 
2944.000000	63.939166 
2943.000000	63.941550 
2942.000000	63.939905 
2941.000000	63.934564 
2940.000000	63.925886 
2939.000000	63.914322 
2938.000000	63.900613 
2937.000000	63.885974 
2936.000000	63.872003 
2935.000000	63.860511 
2934.000000	63.853430 
2933.000000	63.852310 
2932.000000	63.857698 
2931.000000	63.869071 
2930.000000	63.884496 
2929.000000	63.901281 
2928.000000	63.916420 
2927.000000	63.927435 
2926.000000	63.932895 
2925.000000	63.932800 
2924.000000	63.928246 
2923.000000	63.920998 
2922.000000	63.912796 
2921.000000	63.904809 
2920.000000	63.897132 
2919.000000	63.888931 
2918.000000	63.878703 
2917.000000	63.865113 
2916.000000	63.847637 
2915.000000	63.827085 
2914.000000	63.805389 
2913.000000	63.785839 
2912.000000	63.771891 
2911.000000	63.766765 
2910.000000	63.772201 
2909.000000	63.788104 
2908.000000	63.812541 
2907.000000	63.842010 
2906.000000	63.872313 
2905.000000	63.899207 
2904.000000	63.919496 
2903.000000	63.931584 
2902.000000	63.935589 
2901.000000	63.933181 
2900.000000	63.927102 
2899.000000	63.920569 
2898.000000	63.916492 
2897.000000	63.917183 
2896.000000	63.923931 
2895.000000	63.936972 
2894.000000	63.955211 
2893.000000	63.976812 
2892.000000	63.998937 
2891.000000	64.018583 
2890.000000	64.032816 
2889.000000	64.039278 
2888.000000	64.036726 
2887.000000	64.025211 
2886.000000	64.006209 
2885.000000	63.982200 
2884.000000	63.956427 
2883.000000	63.932132 
2882.000000	63.911795 
2881.000000	63.896894 
2880.000000	63.887476 
2879.000000	63.882493 
2878.000000	63.880062 
2877.000000	63.878154 
2876.000000	63.875031 
2875.000000	63.869667 
2874.000000	63.862085 
2873.000000	63.853335 
2872.000000	63.844776 
2871.000000	63.837742 
2870.000000	63.833260 
2869.000000	63.831686 
2868.000000	63.832592 
2867.000000	63.835287 
2866.000000	63.838839 
2865.000000	63.842678 
2864.000000	63.846755 
2863.000000	63.851380 
2862.000000	63.857269 
2861.000000	63.864827 
2860.000000	63.874197 
2859.000000	63.884711 
2858.000000	63.895010 
2857.000000	63.903379 
2856.000000	63.908195 
2855.000000	63.908481 
2854.000000	63.904047 
2853.000000	63.895916 
2852.000000	63.886094 
2851.000000	63.877010 
2850.000000	63.870811 
2849.000000	63.869071 
2848.000000	63.872218 
2847.000000	63.879489 
2846.000000	63.889217 
2845.000000	63.899350 
2844.000000	63.907957 
2843.000000	63.913631 
2842.000000	63.915777 
2841.000000	63.914752 
2840.000000	63.911533 
2839.000000	63.907504 
2838.000000	63.904023 
2837.000000	63.902068 
2836.000000	63.902306 
2835.000000	63.904833 
2834.000000	63.909387 
2833.000000	63.915443 
2832.000000	63.922429 
2831.000000	63.929772 
2830.000000	63.937044 
2829.000000	63.943886 
2828.000000	63.950109 
2827.000000	63.955521 
2826.000000	63.960075 
2825.000000	63.963747 
2824.000000	63.966560 
2823.000000	63.968515 
2822.000000	63.969635 
2821.000000	63.969874 
2820.000000	63.969230 
2819.000000	63.967680 
2818.000000	63.965249 
2817.000000	63.962197 
2816.000000	63.958811 
2815.000000	63.955450 
2814.000000	63.952589 
2813.000000	63.950681 
2812.000000	63.950204 
2811.000000	63.951349 
2810.000000	63.954162 
2809.000000	63.958358 
2808.000000	63.963294 
2807.000000	63.968181 
2806.000000	63.972187 
2805.000000	63.974690 
2804.000000	63.975429 
2803.000000	63.974523 
2802.000000	63.972640 
2801.000000	63.970685 
2800.000000	63.969731 
2799.000000	63.970637 
2798.000000	63.973808 
2797.000000	63.979125 
2796.000000	63.985753 
2795.000000	63.992476 
2794.000000	63.997983 
2793.000000	64.001393 
2792.000000	64.002442 
2791.000000	64.001584 
2790.000000	64.000058 
2789.000000	63.999438 
2788.000000	64.001464 
2787.000000	64.007425 
2786.000000	64.017868 
2785.000000	64.032506 
2784.000000	64.050245 
2783.000000	64.069390 
2782.000000	64.087939 
2781.000000	64.103913 
2780.000000	64.115643 
2779.000000	64.122056 
2778.000000	64.122676 
2777.000000	64.117956 
2776.000000	64.108967 
2775.000000	64.097380 
2774.000000	64.085102 
2773.000000	64.074134 
2772.000000	64.066171 
2771.000000	64.062285 
2770.000000	64.062857 
2769.000000	64.067387 
2768.000000	64.074659 
2767.000000	64.083003 
2766.000000	64.090657 
2765.000000	64.096188 
2764.000000	64.098882 
2763.000000	64.098644 
2762.000000	64.096093 
2761.000000	64.092206 
2760.000000	64.087915 
2759.000000	64.083862 
2758.000000	64.080119 
2757.000000	64.075970 
2756.000000	64.070487 
2755.000000	64.062500 
2754.000000	64.051127 
2753.000000	64.035844 
2752.000000	64.017009 
2751.000000	63.995456 
2750.000000	63.972663 
2749.000000	63.950371 
2748.000000	63.930106 
2747.000000	63.912892 
2746.000000	63.899183 
2745.000000	63.888859 
2744.000000	63.881301 
2743.000000	63.875770 
2742.000000	63.871550 
2741.000000	63.868188 
2740.000000	63.865637 
2739.000000	63.864111 
2738.000000	63.864231 
2737.000000	63.866424 
2736.000000	63.871192 
2735.000000	63.878774 
2734.000000	63.889288 
2733.000000	63.902878 
2732.000000	63.919401 
2731.000000	63.938760 
2730.000000	63.960576 
2729.000000	63.984513 
2728.000000	64.009547 
2727.000000	64.034152 
2726.000000	64.056158 
2725.000000	64.073419 
2724.000000	64.083981 
2723.000000	64.086580 
2722.000000	64.081120 
2721.000000	64.068865 
2720.000000	64.052343 
2719.000000	64.034581 
2718.000000	64.018845 
2717.000000	64.007854 
2716.000000	64.003062 
2715.000000	64.004397 
2714.000000	64.010477 
2713.000000	64.019060 
2712.000000	64.027428 
2711.000000	64.033293 
2710.000000	64.035105 
2709.000000	64.032411 
2708.000000	64.025878 
2707.000000	64.016890 
2706.000000	64.007377 
2705.000000	63.999152 
2704.000000	63.993978 
2703.000000	63.993096 
2702.000000	63.997149 
2701.000000	64.005970 
2700.000000	64.018487 
2699.000000	64.032888 
2698.000000	64.046692 
2697.000000	64.057207 
2696.000000	64.061903 
2695.000000	64.059209 
2694.000000	64.048624 
2693.000000	64.031124 
2692.000000	64.009118 
2691.000000	63.985967 
2690.000000	63.965344 
2689.000000	63.950300 
2688.000000	63.942599 
2687.000000	63.942408 
2686.000000	63.948535 
2685.000000	63.958501 
2684.000000	63.969373 
2683.000000	63.978505 
2682.000000	63.984251 
2681.000000	63.985919 
2680.000000	63.983869 
2679.000000	63.978934 
2678.000000	63.972473 
2677.000000	63.965654 
2676.000000	63.959622 
2675.000000	63.955116 
2674.000000	63.952660 
2673.000000	63.952612 
2672.000000	63.955211 
2671.000000	63.960623 
2670.000000	63.968443 
2669.000000	63.978075 
2668.000000	63.988208 
2667.000000	63.997149 
2666.000000	64.003205 
2665.000000	64.005088 
2664.000000	64.002299 
2663.000000	63.995242 
2662.000000	63.985466 
2661.000000	63.974976 
2660.000000	63.966083 
2659.000000	63.960909 
2658.000000	63.960909 
2657.000000	63.966655 
2656.000000	63.977861 
2655.000000	63.993287 
2654.000000	64.011025 
2653.000000	64.028835 
2652.000000	64.044308 
2651.000000	64.055418 
2650.000000	64.060783 
2649.000000	64.059805 
2648.000000	64.052844 
2647.000000	64.041042 
2646.000000	64.026165 
2645.000000	64.010167 
2644.000000	63.994932 
2643.000000	63.981986 
2642.000000	63.972091 
2641.000000	63.965225 
2640.000000	63.960742 
2639.000000	63.957691 
2638.000000	63.954997 
2637.000000	63.951873 
2636.000000	63.947892 
2635.000000	63.943099 
2634.000000	63.937950 
2633.000000	63.933086 
2632.000000	63.928985 
2631.000000	63.926124 
2630.000000	63.924551 
2629.000000	63.924288 
2628.000000	63.925123 
2627.000000	63.926649 
2626.000000	63.928341 
2625.000000	63.929724 
2624.000000	63.930487 
2623.000000	63.930439 
2622.000000	63.929677 
2621.000000	63.928461 
2620.000000	63.927316 
2619.000000	63.926792 
2618.000000	63.927507 
2617.000000	63.929772 
2616.000000	63.933396 
2615.000000	63.937640 
2614.000000	63.941240 
2613.000000	63.942790 
2612.000000	63.941097 
2611.000000	63.935375 
2610.000000	63.925766 
2609.000000	63.913369 
2608.000000	63.899898 
2607.000000	63.887286 
2606.000000	63.877344 
2605.000000	63.871383 
2604.000000	63.869953 
2603.000000	63.872957 
2602.000000	63.879823 
2601.000000	63.889694 
2600.000000	63.901710 
2599.000000	63.914966 
2598.000000	63.928699 
2597.000000	63.941907 
2596.000000	63.953375 
2595.000000	63.961696 
2594.000000	63.965249 
2593.000000	63.962936 
2592.000000	63.954377 
2591.000000	63.940405 
2590.000000	63.923001 
2589.000000	63.905072 
2588.000000	63.890027 
2587.000000	63.880729 
2586.000000	63.879132 
2585.000000	63.885617 
2584.000000	63.898873 
2583.000000	63.916373 
2582.000000	63.935017 
2581.000000	63.951730 
2580.000000	63.964176 
2579.000000	63.971090 
2578.000000	63.972377 
2577.000000	63.969111 
2576.000000	63.962888 
2575.000000	63.955426 
2574.000000	63.948035 
2573.000000	63.941383 
2572.000000	63.935399 
2571.000000	63.929510 
2570.000000	63.922858 
2569.000000	63.914537 
2568.000000	63.903808 
2567.000000	63.890290 
2566.000000	63.874006 
2565.000000	63.855600 
2564.000000	63.836216 
2563.000000	63.817214 
2562.000000	63.800072 
2561.000000	63.786268 
2560.000000	63.777160 
2559.000000	63.773632 
2558.000000	63.776183 
2557.000000	63.784575 
2556.000000	63.798046 
2555.000000	63.815164 
2554.000000	63.833808 
2553.000000	63.851475 
2552.000000	63.865447 
2551.000000	63.873362 
2550.000000	63.873600 
2549.000000	63.865876 
2548.000000	63.851094 
2547.000000	63.831567 
2546.000000	63.810729 
2545.000000	63.792228 
2544.000000	63.779520 
2543.000000	63.774824 
2542.000000	63.778734 
2541.000000	63.789868 
2540.000000	63.805532 
2539.000000	63.822007 
2538.000000	63.835787 
2537.000000	63.844299 
2536.000000	63.846230 
2535.000000	63.842058 
2534.000000	63.833403 
2533.000000	63.822698 
2532.000000	63.812375 
2531.000000	63.804268 
2530.000000	63.799262 
2529.000000	63.797354 
2528.000000	63.797831 
2527.000000	63.799715 
2526.000000	63.802194 
2525.000000	63.804841 
2524.000000	63.807654 
2523.000000	63.810944 
2522.000000	63.815093 
2521.000000	63.820314 
2520.000000	63.826441 
2519.000000	63.832998 
2518.000000	63.839197 
2517.000000	63.844370 
2516.000000	63.847780 
2515.000000	63.848924 
2514.000000	63.847446 
2513.000000	63.843202 
2512.000000	63.836336 
2511.000000	63.827300 
2510.000000	63.816976 
2509.000000	63.806581 
2508.000000	63.797664 
2507.000000	63.791942 
2506.000000	63.790941 
2505.000000	63.795661 
2504.000000	63.806343 
2503.000000	63.822340 
2502.000000	63.842082 
2501.000000	63.863468 
2500.000000	63.884162 
2499.000000	63.902115 
2498.000000	63.915896 
2497.000000	63.925027 
2496.000000	63.929820 
2495.000000	63.931155 
2494.000000	63.930249 
2493.000000	63.928151 
2492.000000	63.925695 
2491.000000	63.923048 
2490.000000	63.920140 
2489.000000	63.916349 
2488.000000	63.910818 
2487.000000	63.902807 
2486.000000	63.891649 
2485.000000	63.877201 
2484.000000	63.859868 
2483.000000	63.840675 
2482.000000	63.821077 
2481.000000	63.802933 
2480.000000	63.788080 
2479.000000	63.778042 
2478.000000	63.773775 
2477.000000	63.775348 
2476.000000	63.781929 
2475.000000	63.791942 
2474.000000	63.803362 
2473.000000	63.814306 
2472.000000	63.823366 
2471.000000	63.829946 
2470.000000	63.834071 
2469.000000	63.836336 
2468.000000	63.837575 
2467.000000	63.838458 
2466.000000	63.839197 
2465.000000	63.839697 
2464.000000	63.839626 
2463.000000	63.838815 
2462.000000	63.837075 
2461.000000	63.834619 
2460.000000	63.831806 
2459.000000	63.829112 
2458.000000	63.826894 
2457.000000	63.825154 
2456.000000	63.823747 
2455.000000	63.822102 
2454.000000	63.819766 
2453.000000	63.816428 
2452.000000	63.812255 
2451.000000	63.807773 
2450.000000	63.803791 
2449.000000	63.801074 
2448.000000	63.800096 
2447.000000	63.800859 
2446.000000	63.803100 
2445.000000	63.806295 
2444.000000	63.809823 
2443.000000	63.813304 
2442.000000	63.816428 
2441.000000	63.819050 
2440.000000	63.820958 
2439.000000	63.821911 
2438.000000	63.821721 
2437.000000	63.820290 
2436.000000	63.817691 
2435.000000	63.814234 
2434.000000	63.810420 
2433.000000	63.806962 
2432.000000	63.804435 
2431.000000	63.803291 
2430.000000	63.803505 
2429.000000	63.804697 
2428.000000	63.806271 
2427.000000	63.807654 
2426.000000	63.808465 
2425.000000	63.808727 
2424.000000	63.808917 
2423.000000	63.809728 
2422.000000	63.811850 
2421.000000	63.815474 
2420.000000	63.820290 
2419.000000	63.825321 
2418.000000	63.829326 
2417.000000	63.831067 
2416.000000	63.829660 
2415.000000	63.824725 
2414.000000	63.816332 
2413.000000	63.805103 
2412.000000	63.792014 
2411.000000	63.778042 
2410.000000	63.764405 
2409.000000	63.751912 
2408.000000	63.741350 
2407.000000	63.733267 
2406.000000	63.728332 
2405.000000	63.726902 
2404.000000	63.729286 
2403.000000	63.735723 
2402.000000	63.745927 
2401.000000	63.759279 
2400.000000	63.774585 
2399.000000	63.790106 
2398.000000	63.803863 
2397.000000	63.813805 
2396.000000	63.818287 
2395.000000	63.816356 
2394.000000	63.808083 
2393.000000	63.794851 
2392.000000	63.779211 
2391.000000	63.764595 
2390.000000	63.754725 
2389.000000	63.752865 
2388.000000	63.760948 
2387.000000	63.778924 
2386.000000	63.804602 
2385.000000	63.834095 
2384.000000	63.862180 
2383.000000	63.883376 
2382.000000	63.893270 
2381.000000	63.889241 
2380.000000	63.871073 
2379.000000	63.841056 
2378.000000	63.803482 
2377.000000	63.763785 
2376.000000	63.727545 
2375.000000	63.699483 
2374.000000	63.682723 
2373.000000	63.678336 
2372.000000	63.685727 
2371.000000	63.702726 
2370.000000	63.726186 
2369.000000	63.752675 
2368.000000	63.779187 
2367.000000	63.803195 
2366.000000	63.823032 
2365.000000	63.838124 
2364.000000	63.848829 
2363.000000	63.856244 
2362.000000	63.861823 
2361.000000	63.866972 
2360.000000	63.872814 
2359.000000	63.879847 
2358.000000	63.887691 
2357.000000	63.895392 
2356.000000	63.901281 
2355.000000	63.903903 
2354.000000	63.901734 
2353.000000	63.894200 
2352.000000	63.881111 
2351.000000	63.863182 
2350.000000	63.841533 
2349.000000	63.817429 
2348.000000	63.791966 
2347.000000	63.766074 
2346.000000	63.740324 
2345.000000	63.715195 
2344.000000	63.691282 
2343.000000	63.669466 
2342.000000	63.651013 
2341.000000	63.637089 
2340.000000	63.628888 
2339.000000	63.626956 
2338.000000	63.631248 
2337.000000	63.640928 
2336.000000	63.654518 
2335.000000	63.670063 
2334.000000	63.685798 
2333.000000	63.700461 
2332.000000	63.713645 
2331.000000	63.725662 
2330.000000	63.737368 
2329.000000	63.749933 
2328.000000	63.764262 
2327.000000	63.780522 
2326.000000	63.798093 
2325.000000	63.815212 
2324.000000	63.829612 
2323.000000	63.838887 
2322.000000	63.840889 
2321.000000	63.834214 
2320.000000	63.818788 
2319.000000	63.795924 
2318.000000	63.767862 
2317.000000	63.737821 
2316.000000	63.709282 
2315.000000	63.685321 
2314.000000	63.668155 
2313.000000	63.658785 
2312.000000	63.657093 
2311.000000	63.661956 
2310.000000	63.671541 
2309.000000	63.683891 
2308.000000	63.697218 
2307.000000	63.710451 
2306.000000	63.723158 
2305.000000	63.735413 
2304.000000	63.747644 
2303.000000	63.760352 
2302.000000	63.773798 
2301.000000	63.787794 
2300.000000	63.801765 
2299.000000	63.814783 
2298.000000	63.825941 
2297.000000	63.834452 
2296.000000	63.839864 
2295.000000	63.842010 
2294.000000	63.840985 
2293.000000	63.837337 
2292.000000	63.831543 
2291.000000	63.824224 
2290.000000	63.815808 
2289.000000	63.806962 
2288.000000	63.798093 
2287.000000	63.789534 
2286.000000	63.781476 
2285.000000	63.774132 
2284.000000	63.767647 
2283.000000	63.761854 
2282.000000	63.756632 
2281.000000	63.751983 
2280.000000	63.747978 
2279.000000	63.744854 
2278.000000	63.742876 
2277.000000	63.742470 
2276.000000	63.743710 
2275.000000	63.746428 
2274.000000	63.750052 
2273.000000	63.753533 
2272.000000	63.755774 
2271.000000	63.755798 
2270.000000	63.753080 
2269.000000	63.747692 
2268.000000	63.740372 
2267.000000	63.732552 
2266.000000	63.725829 
2265.000000	63.721847 
2264.000000	63.722038 
2263.000000	63.727164 
2262.000000	63.737368 
2261.000000	63.752102 
2260.000000	63.770270 
2259.000000	63.790535 
2258.000000	63.811612 
2257.000000	63.832330 
2256.000000	63.851904 
2255.000000	63.869857 
2254.000000	63.885879 
2253.000000	63.899636 
2252.000000	63.910651 
2251.000000	63.918185 
2250.000000	63.921523 
2249.000000	63.919830 
2248.000000	63.912534 
2247.000000	63.899636 
2246.000000	63.881754 
2245.000000	63.860297 
2244.000000	63.836908 
2243.000000	63.813734 
2242.000000	63.792419 
2241.000000	63.774204 
2240.000000	63.759374 
2239.000000	63.747572 
2238.000000	63.737797 
2237.000000	63.728952 
2236.000000	63.720178 
2235.000000	63.711214 
2234.000000	63.702225 
2233.000000	63.693785 
2232.000000	63.686394 
2231.000000	63.680315 
2230.000000	63.675379 
2229.000000	63.671135 
2228.000000	63.666749 
2227.000000	63.661408 
2226.000000	63.654685 
2225.000000	63.646984 
2224.000000	63.639044 
2223.000000	63.632130 
2222.000000	63.627648 
2221.000000	63.627004 
2220.000000	63.630795 
2219.000000	63.638997 
2218.000000	63.650751 
2217.000000	63.664722 
2216.000000	63.679361 
2215.000000	63.693070 
2214.000000	63.704442 
2213.000000	63.712525 
2212.000000	63.717031 
2211.000000	63.718247 
2210.000000	63.716793 
2209.000000	63.713645 
2208.000000	63.709998 
2207.000000	63.706874 
2206.000000	63.704895 
2205.000000	63.704061 
2204.000000	63.704013 
2203.000000	63.703942 
2202.000000	63.702845 
2201.000000	63.699865 
2200.000000	63.694572 
2199.000000	63.686943 
2198.000000	63.677358 
2197.000000	63.666510 
2196.000000	63.655257 
2195.000000	63.644242 
2194.000000	63.633847 
2193.000000	63.624143 
2192.000000	63.615036 
2191.000000	63.606381 
2190.000000	63.598585 
2189.000000	63.592267 
2188.000000	63.588643 
2187.000000	63.589096 
2186.000000	63.594961 
2185.000000	63.607048 
2184.000000	63.625311 
2183.000000	63.648653 
2182.000000	63.674950 
2181.000000	63.701415 
2180.000000	63.725018 
2179.000000	63.743114 
2178.000000	63.754081 
2177.000000	63.757395 
2176.000000	63.753962 
2175.000000	63.745641 
2174.000000	63.735198 
2173.000000	63.725352 
2172.000000	63.718318 
2171.000000	63.715219 
2170.000000	63.716125 
2169.000000	63.720011 
2168.000000	63.725042 
2167.000000	63.728880 
2166.000000	63.729524 
2165.000000	63.725590 
2164.000000	63.716459 
2163.000000	63.702583 
2162.000000	63.685059 
2161.000000	63.665747 
2160.000000	63.646697 
2159.000000	63.629841 
2158.000000	63.616681 
2157.000000	63.608074 
2156.000000	63.604044 
2155.000000	63.603949 
2154.000000	63.606572 
2153.000000	63.610458 
2152.000000	63.614249 
2151.000000	63.617157 
2150.000000	63.618755 
2149.000000	63.619399 
2148.000000	63.620114 
2147.000000	63.622093 
2146.000000	63.626551 
2145.000000	63.634324 
2144.000000	63.645553 
2143.000000	63.659715 
2142.000000	63.675475 
2141.000000	63.690948 
2140.000000	63.704061 
2139.000000	63.712882 
2138.000000	63.716125 
2137.000000	63.713145 
2136.000000	63.704228 
2135.000000	63.690495 
2134.000000	63.673758 
2133.000000	63.655972 
2132.000000	63.639163 
2131.000000	63.625192 
2130.000000	63.615202 
2129.000000	63.609623 
2128.000000	63.608169 
2127.000000	63.610005 
2126.000000	63.613915 
2125.000000	63.618516 
2124.000000	63.622570 
2123.000000	63.625144 
2122.000000	63.625931 
2121.000000	63.624978 
2120.000000	63.622665 
2119.000000	63.619494 
2118.000000	63.616085 
2117.000000	63.612937 
2116.000000	63.610315 
2115.000000	63.608336 
2114.000000	63.607048 
2113.000000	63.606619 
2112.000000	63.607048 
2111.000000	63.608551 
2110.000000	63.611388 
2109.000000	63.615918 
2108.000000	63.622236 
2107.000000	63.630318 
2106.000000	63.639879 
2105.000000	63.650608 
2104.000000	63.662219 
2103.000000	63.674402 
2102.000000	63.687062 
2101.000000	63.700151 
2100.000000	63.713598 
2099.000000	63.727092 
2098.000000	63.739895 
2097.000000	63.750791 
2096.000000	63.758420 
2095.000000	63.761305 
2094.000000	63.758230 
2093.000000	63.748621 
2092.000000	63.732790 
2091.000000	63.711762 
2090.000000	63.687109 
2089.000000	63.660764 
2088.000000	63.634347 
2087.000000	63.609004 
2086.000000	63.585138 
2085.000000	63.562703 
2084.000000	63.541555 
2083.000000	63.521647 
2082.000000	63.503623 
2081.000000	63.488388 
2080.000000	63.477373 
2079.000000	63.471722 
2078.000000	63.472127 
2077.000000	63.477921 
2076.000000	63.487815 
2075.000000	63.499665 
2074.000000	63.511538 
2073.000000	63.521552 
2072.000000	63.529133 
2071.000000	63.534688 
2070.000000	63.539743 
2069.000000	63.546156 
2068.000000	63.555574 
2067.000000	63.569092 
2066.000000	63.586592 
2065.000000	63.606953 
2064.000000	63.628411 
2063.000000	63.649106 
2062.000000	63.667750 
2061.000000	63.683819 
2060.000000	63.697552 
2059.000000	63.709640 
2058.000000	63.721013 
2057.000000	63.732123 
2056.000000	63.742804 
2055.000000	63.751888 
2054.000000	63.758206 
2053.000000	63.760185 
2052.000000	63.756728 
2051.000000	63.747143 
2050.000000	63.731932 
2049.000000	63.712191 
2048.000000	63.689732 
2047.000000	63.666486 
2046.000000	63.644313 
2045.000000	63.624525 
2044.000000	63.607978 
2043.000000	63.594794 
2042.000000	63.584542 
2041.000000	63.576459 
2040.000000	63.569593 
2039.000000	63.562917 
2038.000000	63.555479 
2037.000000	63.546609 
2036.000000	63.535928 
2035.000000	63.523387 
2034.000000	63.509440 
2033.000000	63.494801 
2032.000000	63.480782 
2031.000000	63.468623 
2030.000000	63.459730 
2029.000000	63.455510 
2028.000000	63.457012 
2027.000000	63.464689 
2026.000000	63.478350 
2025.000000	63.496971 
2024.000000	63.519048 
2023.000000	63.542389 
2022.000000	63.564610 
2021.000000	63.583564 
2020.000000	63.597464 
2019.000000	63.605213 
2018.000000	63.606524 
2017.000000	63.601970 
2016.000000	63.592767 
2015.000000	63.580703 
2014.000000	63.567495 
2013.000000	63.554763 
2012.000000	63.543844 
2011.000000	63.535666 
2010.000000	63.530635 
2009.000000	63.528728 
2008.000000	63.529610 
2007.000000	63.532829 
2006.000000	63.537812 
2005.000000	63.544011 
2004.000000	63.550806 
2003.000000	63.557744 
2002.000000	63.564348 
2001.000000	63.570308 
2000.000000	63.575339 
1999.000000	63.579320 
1998.000000	63.582253 
1997.000000	63.584303 
1996.000000	63.585758 
1995.000000	63.586878 
1994.000000	63.587880 
1993.000000	63.588714 
1992.000000	63.589215 
1991.000000	63.588976 
1990.000000	63.587665 
1989.000000	63.584852 
1988.000000	63.580369 
1987.000000	63.574361 
1986.000000	63.567352 
1985.000000	63.560056 
1984.000000	63.553428 
1983.000000	63.548254 
1982.000000	63.545107 
1981.000000	63.544154 
1980.000000	63.545131 
1979.000000	63.547515 
1978.000000	63.550281 
1977.000000	63.552403 
1976.000000	63.552761 
1975.000000	63.550519 
1974.000000	63.545298 
1973.000000	63.537001 
1972.000000	63.526177 
1971.000000	63.513875 
1970.000000	63.501572 
1969.000000	63.490915 
1968.000000	63.483452 
1967.000000	63.480472 
1966.000000	63.482451 
1965.000000	63.489103 
1964.000000	63.499402 
1963.000000	63.511824 
1962.000000	63.524627 
1961.000000	63.535928 
1960.000000	63.544416 
1959.000000	63.549399 
1958.000000	63.550829 
1957.000000	63.549113 
1956.000000	63.545107 
1955.000000	63.539481 
1954.000000	63.532876 
1953.000000	63.525414 
1952.000000	63.516926 
1951.000000	63.507103 
1950.000000	63.495659 
1949.000000	63.482856 
1948.000000	63.469409 
1947.000000	63.456797 
1946.000000	63.446855 
1945.000000	63.441681 
1944.000000	63.442945 
1943.000000	63.451552 
1942.000000	63.467454 
1941.000000	63.489198 
1940.000000	63.514161 
1939.000000	63.538908 
1938.000000	63.559770 
1937.000000	63.573408 
1936.000000	63.577461 
1935.000000	63.570976 
1934.000000	63.554549 
1933.000000	63.530230 
1932.000000	63.501071 
1931.000000	63.470792 
1930.000000	63.442921 
1929.000000	63.420438 
1928.000000	63.405275 
1927.000000	63.398170 
1926.000000	63.398718 
1925.000000	63.405394 
1924.000000	63.415980 
1923.000000	63.427948 
1922.000000	63.439154 
1921.000000	63.447666 
1920.000000	63.452744 
1919.000000	63.454270 
1918.000000	63.452959 
1917.000000	63.450121 
1916.000000	63.447260 
1915.000000	63.445806 
1914.000000	63.446640 
1913.000000	63.450121 
1912.000000	63.455772 
1911.000000	63.462638 
1910.000000	63.469338 
1909.000000	63.474607 
1908.000000	63.477373 
1907.000000	63.476967 
1906.000000	63.473439 
1905.000000	63.467383 
1904.000000	63.459873 
1903.000000	63.452196 
1902.000000	63.445711 
1901.000000	63.441562 
1900.000000	63.440775 
1899.000000	63.443851 
1898.000000	63.450956 
1897.000000	63.461565 
1896.000000	63.474750 
1895.000000	63.489222 
1894.000000	63.503432 
1893.000000	63.515782 
1892.000000	63.524794 
1891.000000	63.529324 
1890.000000	63.528943 
1889.000000	63.523721 
1888.000000	63.514351 
1887.000000	63.501977 
1886.000000	63.487982 
1885.000000	63.473701 
1884.000000	63.460230 
1883.000000	63.448143 
1882.000000	63.437795 
1881.000000	63.429117 
1880.000000	63.421916 
1879.000000	63.416004 
1878.000000	63.411545 
1877.000000	63.408851 
1876.000000	63.408327 
1875.000000	63.410401 
1874.000000	63.415455 
1873.000000	63.423252 
1872.000000	63.433170 
1871.000000	63.444018 
1870.000000	63.454484 
1869.000000	63.463139 
1868.000000	63.469099 
1867.000000	63.471961 
1866.000000	63.472008 
1865.000000	63.470172 
1864.000000	63.467931 
1863.000000	63.466811 
1862.000000	63.468050 
1861.000000	63.472342 
1860.000000	63.479471 
1859.000000	63.488507 
1858.000000	63.497829 
1857.000000	63.505625 
1856.000000	63.509941 
1855.000000	63.509488 
1854.000000	63.503599 
1853.000000	63.492369 
1852.000000	63.476657 
1851.000000	63.457751 
1850.000000	63.437104 
1849.000000	63.416194 
1848.000000	63.396406 
1847.000000	63.379096 
1846.000000	63.365364 
1845.000000	63.356280 
1844.000000	63.352751 
1843.000000	63.355565 
1842.000000	63.365030 
1841.000000	63.380813 
1840.000000	63.401746 
1839.000000	63.426113 
1838.000000	63.451290 
1837.000000	63.474583 
1836.000000	63.493537 
1835.000000	63.506269 
1834.000000	63.511800 
1833.000000	63.510274 
1832.000000	63.502907 
1831.000000	63.491702 
1830.000000	63.479042 
1829.000000	63.467264 
1828.000000	63.458347 
1827.000000	63.453626 
1826.000000	63.453674 
1825.000000	63.458061 
1824.000000	63.465595 
1823.000000	63.474440 
1822.000000	63.482379 
1821.000000	63.487291 
1820.000000	63.487601 
1819.000000	63.482594 
1818.000000	63.472700 
1817.000000	63.459396 
1816.000000	63.445091 
1815.000000	63.432598 
1814.000000	63.424396 
1813.000000	63.422203 
1812.000000	63.426280 
1811.000000	63.435506 
1810.000000	63.447451 
1809.000000	63.459038 
1808.000000	63.467264 
1807.000000	63.469743 
1806.000000	63.465356 
1805.000000	63.454556 
1804.000000	63.439106 
1803.000000	63.421535 
1802.000000	63.404583 
1801.000000	63.390636 
1800.000000	63.381242 
1799.000000	63.376855 
1798.000000	63.376903 
1797.000000	63.380146 
1796.000000	63.385057 
1795.000000	63.390207 
1794.000000	63.394427 
1793.000000	63.397145 
1792.000000	63.398003 
1791.000000	63.397002 
1790.000000	63.394522 
1789.000000	63.390898 
1788.000000	63.386631 
1787.000000	63.382172 
1786.000000	63.378000 
1785.000000	63.374423 
1784.000000	63.371634 
1783.000000	63.369727 
1782.000000	63.368415 
1781.000000	63.367462 
1780.000000	63.366460 
1779.000000	63.365006 
1778.000000	63.363027 
1777.000000	63.360571 
1776.000000	63.357806 
1775.000000	63.355064 
1774.000000	63.352704 
1773.000000	63.350772 
1772.000000	63.349080 
1771.000000	63.347077 
1770.000000	63.344120 
1769.000000	63.339591 
1768.000000	63.332962 
1767.000000	63.324236 
1766.000000	63.313746 
1765.000000	63.302206 
1764.000000	63.290476 
1763.000000	63.279271 
1762.000000	63.268971 
1761.000000	63.259744 
1760.000000	63.251090 
1759.000000	63.242292 
1758.000000	63.232517 
1757.000000	63.221263 
1756.000000	63.208246 
1755.000000	63.193702 
1754.000000	63.177990 
1753.000000	63.161754 
1752.000000	63.145637 
1751.000000	63.130068 
1750.000000	63.115119 
1749.000000	63.100767 
1748.000000	63.086724 
1747.000000	63.072562 
1746.000000	63.058090 
1745.000000	63.043117 
1744.000000	63.027620 
1743.000000	63.011574 
1742.000000	62.995004 
1741.000000	62.978076 
1740.000000	62.961077 
1739.000000	62.944388 
1738.000000	62.928843 
1737.000000	62.915563 
1736.000000	62.905955 
1735.000000	62.901568 
1734.000000	62.903547 
1733.000000	62.912702 
1732.000000	62.928795 
1731.000000	62.950825 
1730.000000	62.976670 
1729.000000	63.003802 
1728.000000	63.029456 
1727.000000	63.051390 
1726.000000	63.068079 
1725.000000	63.078999 
1724.000000	63.084483 
1723.000000	63.085675 
1722.000000	63.084149 
1721.000000	63.081622 
1720.000000	63.079619 
1719.000000	63.079261 
1718.000000	63.081407 
1717.000000	63.086485 
1716.000000	63.094687 
1715.000000	63.105916 
1714.000000	63.119912 
1713.000000	63.136076 
1712.000000	63.153529 
1711.000000	63.171029 
1710.000000	63.187170 
1709.000000	63.200449 
1708.000000	63.209462 
1707.000000	63.213324 
1706.000000	63.211727 
1705.000000	63.204813 
1704.000000	63.193726 
1703.000000	63.179945 
1702.000000	63.165402 
1701.000000	63.152289 
1700.000000	63.142657 
1699.000000	63.138079 
1698.000000	63.139247 
1697.000000	63.145971 
1696.000000	63.157010 
1695.000000	63.170170 
1694.000000	63.182830 
1693.000000	63.192296 
1692.000000	63.196706 
1691.000000	63.194990 
1690.000000	63.187527 
1689.000000	63.175749 
1688.000000	63.161897 
1687.000000	63.148474 
1686.000000	63.137578 
1685.000000	63.130354 
1684.000000	63.126897 
1683.000000	63.126206 
1682.000000	63.126707 
1681.000000	63.126683 
1680.000000	63.124918 
1679.000000	63.120937 
1678.000000	63.115024 
1677.000000	63.108110 
1676.000000	63.101196 
1675.000000	63.095307 
1674.000000	63.091087 
1673.000000	63.088917 
1672.000000	63.088679 
1671.000000	63.090467 
1670.000000	63.094210 
1669.000000	63.100242 
1668.000000	63.109040 
1667.000000	63.121128 
1666.000000	63.136672 
1665.000000	63.155341 
1664.000000	63.176107 
1663.000000	63.197374 
1662.000000	63.217186 
1661.000000	63.233733 
1660.000000	63.245582 
1659.000000	63.252162 
1658.000000	63.254022 
1657.000000	63.252663 
1656.000000	63.250231 
1655.000000	63.249039 
1654.000000	63.250994 
1653.000000	63.257312 
1652.000000	63.267922 
1651.000000	63.281607 
1650.000000	63.296008 
1649.000000	63.308286 
1648.000000	63.315725 
1647.000000	63.316345 
1646.000000	63.309407 
1645.000000	63.295578 
1644.000000	63.276886 
1643.000000	63.256239 
1642.000000	63.236761 
1641.000000	63.221001 
1640.000000	63.210487 
1639.000000	63.205480 
1638.000000	63.204693 
1637.000000	63.205981 
1636.000000	63.206934 
1635.000000	63.205385 
1634.000000	63.200283 
1633.000000	63.191533 
1632.000000	63.180327 
1631.000000	63.168716 
1630.000000	63.158869 
1629.000000	63.152670 
1628.000000	63.151288 
1627.000000	63.154935 
1626.000000	63.162803 
1625.000000	63.173317 
1624.000000	63.184428 
1623.000000	63.193941 
1622.000000	63.200283 
1621.000000	63.202404 
1620.000000	63.200020 
1619.000000	63.193750 
1618.000000	63.184690 
1617.000000	63.174462 
1616.000000	63.164710 
1615.000000	63.156867 
1614.000000	63.152003 
1613.000000	63.150453 
1612.000000	63.152003 
1611.000000	63.155817 
1610.000000	63.160872 
1609.000000	63.166022 
1608.000000	63.170480 
1607.000000	63.173818 
1606.000000	63.176059 
1605.000000	63.177704 
1604.000000	63.179349 
1603.000000	63.181591 
1602.000000	63.184762 
1601.000000	63.188910 
1600.000000	63.193964 
1599.000000	63.199734 
1598.000000	63.206028 
1597.000000	63.212847 
1596.000000	63.220286 
1595.000000	63.228464 
1594.000000	63.237333 
1593.000000	63.246679 
1592.000000	63.255763 
1591.000000	63.263654 
1590.000000	63.269090 
1589.000000	63.270950 
1588.000000	63.268280 
1587.000000	63.260865 
1586.000000	63.248896 
1585.000000	63.233280 
1584.000000	63.215374 
1583.000000	63.196492 
1582.000000	63.178086 
1581.000000	63.161325 
1580.000000	63.146972 
1579.000000	63.135504 
1578.000000	63.127303 
1577.000000	63.122558 
1576.000000	63.121533 
1575.000000	63.124465 
1574.000000	63.131403 
1573.000000	63.142204 
1572.000000	63.156223 
1571.000000	63.172268 
1570.000000	63.188862 
1569.000000	63.204312 
1568.000000	63.216900 
1567.000000	63.225388 
1566.000000	63.229441 
1565.000000	63.229465 
1564.000000	63.226699 
1563.000000	63.222694 
1562.000000	63.219022 
1561.000000	63.216638 
1560.000000	63.215923 
1559.000000	63.216209 
1558.000000	63.216304 
1557.000000	63.214659 
1556.000000	63.210034 
1555.000000	63.201737 
1554.000000	63.189959 
1553.000000	63.175773 
1552.000000	63.160824 
1551.000000	63.146924 
1550.000000	63.135623 
1549.000000	63.127851 
1548.000000	63.123703 
1547.000000	63.122439 
1546.000000	63.122510 
1545.000000	63.122296 
1544.000000	63.120055 
1543.000000	63.114500 
1542.000000	63.105058 
1541.000000	63.091611 
1540.000000	63.075017 
1539.000000	63.056540 
1538.000000	63.037943 
1537.000000	63.021111 
1536.000000	63.007831 
1535.000000	62.999796 
1534.000000	62.998247 
1533.000000	63.003659 
1532.000000	63.015770 
1531.000000	63.033485 
1530.000000	63.055086 
1529.000000	63.078284 
1528.000000	63.100671 
1527.000000	63.119935 
1526.000000	63.134431 
1525.000000	63.143396 
1524.000000	63.146948 
1523.000000	63.146066 
1522.000000	63.142323 
1521.000000	63.137388 
1520.000000	63.132691 
1519.000000	63.129186 
1518.000000	63.127183 
1517.000000	63.126373 
1516.000000	63.126230 
1515.000000	63.125944 
1514.000000	63.124966 
1513.000000	63.122916 
1512.000000	63.119697 
1511.000000	63.115215 
1510.000000	63.109374 
1509.000000	63.102054 
1508.000000	63.092947 
1507.000000	63.081955 
1506.000000	63.069248 
1505.000000	63.055729 
1504.000000	63.042736 
1503.000000	63.032197 
1502.000000	63.026142 
1501.000000	63.026094 
1500.000000	63.032865 
1499.000000	63.045883 
1498.000000	63.063263 
1497.000000	63.082146 
1496.000000	63.099384 
1495.000000	63.111972 
1494.000000	63.117527 
1493.000000	63.115143 
1492.000000	63.105297 
1491.000000	63.089632 
1490.000000	63.070535 
1489.000000	63.050603 
1488.000000	63.032078 
1487.000000	63.016510 
1486.000000	63.004827 
1485.000000	62.997102 
1484.000000	62.993073 
1483.000000	62.992095 
1482.000000	62.993669 
1481.000000	62.997198 
1480.000000	63.002228 
1479.000000	63.008236 
1478.000000	63.014769 
1477.000000	63.021302 
1476.000000	63.027262 
1475.000000	63.032078 
1474.000000	63.034892 
1473.000000	63.034534 
1472.000000	63.029694 
1471.000000	63.019299 
1470.000000	63.002514 
1469.000000	62.979364 
1468.000000	62.950944 
1467.000000	62.919497 
1466.000000	62.888026 
1465.000000	62.859916 
1464.000000	62.838244 
1463.000000	62.825274 
1462.000000	62.822222 
1461.000000	62.828803 
1460.000000	62.843322 
1459.000000	62.863183 
1458.000000	62.884998 
1457.000000	62.905645 
1456.000000	62.922358 
1455.000000	62.933349 
1454.000000	62.937784 
1453.000000	62.936019 
1452.000000	62.929058 
1451.000000	62.918615 
1450.000000	62.906432 
1449.000000	62.894368 
1448.000000	62.884044 
1447.000000	62.876749 
1446.000000	62.873530 
1445.000000	62.875270 
1444.000000	62.882447 
1443.000000	62.895226 
1442.000000	62.913417 
1441.000000	62.936091 
1440.000000	62.961745 
1439.000000	62.988090 
1438.000000	63.012313 
1437.000000	63.031649 
1436.000000	63.043594 
1435.000000	63.046288 
1434.000000	63.039374 
1433.000000	63.023781 
1432.000000	63.001942 
1431.000000	62.977123 
1430.000000	62.952971 
1429.000000	62.932872 
1428.000000	62.919211 
1427.000000	62.913084 
1426.000000	62.914156 
1425.000000	62.920880 
1424.000000	62.930846 
1423.000000	62.941551 
1422.000000	62.950730 
1421.000000	62.956786 
1420.000000	62.958931 
1419.000000	62.957048 
1418.000000	62.951636 
1417.000000	62.943434 
1416.000000	62.933421 
1415.000000	62.922525 
1414.000000	62.911581 
1413.000000	62.901520 
1412.000000	62.893342 
1411.000000	62.888002 
1410.000000	62.886357 
1409.000000	62.888646 
1408.000000	62.894701 
1407.000000	62.903714 
1406.000000	62.913918 
1405.000000	62.923431 
1404.000000	62.930512 
1403.000000	62.934088 
1402.000000	62.933850 
1401.000000	62.930369 
1400.000000	62.925004 
1399.000000	62.919402 
1398.000000	62.915182 
1397.000000	62.913393 
1396.000000	62.914299 
1395.000000	62.917470 
1394.000000	62.921881 
1393.000000	62.926387 
1392.000000	62.930059 
1391.000000	62.932491 
1390.000000	62.933683 
1389.000000	62.934017 
1388.000000	62.934184 
1387.000000	62.934803 
1386.000000	62.936139 
1385.000000	62.938046 
1384.000000	62.939810 
1383.000000	62.940669 
1382.000000	62.939667 
1381.000000	62.935781 
1380.000000	62.928223 
1379.000000	62.916588 
1378.000000	62.901115 
1377.000000	62.882709 
1376.000000	62.862992 
1375.000000	62.843918 
1374.000000	62.827706 
1373.000000	62.816238 
1372.000000	62.810897 
1371.000000	62.811994 
1370.000000	62.818861 
1369.000000	62.829780 
1368.000000	62.842512 
1367.000000	62.854552 
1366.000000	62.863874 
1365.000000	62.869143 
1364.000000	62.870001 
1363.000000	62.867021 
1362.000000	62.861347 
1361.000000	62.854480 
1360.000000	62.847781 
1359.000000	62.842392 
1358.000000	62.839150 
1357.000000	62.838554 
1356.000000	62.841081 
1355.000000	62.846851 
1354.000000	62.855648 
1353.000000	62.866830 
1352.000000	62.879157 
1351.000000	62.891221 
1350.000000	62.901282 
1349.000000	62.907934 
1348.000000	62.910366 
1347.000000	62.908387 
1346.000000	62.902474 
1345.000000	62.893629 
1344.000000	62.883210 
1343.000000	62.872385 
1342.000000	62.861943 
1341.000000	62.852263 
1340.000000	62.843489 
1339.000000	62.835860 
1338.000000	62.829756 
1337.000000	62.825989 
1336.000000	62.825512 
1335.000000	62.829279 
1334.000000	62.837743 
1333.000000	62.850475 
1332.000000	62.866115 
1331.000000	62.882614 
1330.000000	62.897658 
1329.000000	62.909197 
1328.000000	62.916040 
1327.000000	62.917900 
1326.000000	62.915611 
1325.000000	62.910604 
1324.000000	62.904667 
1323.000000	62.899351 
1322.000000	62.895727 
1321.000000	62.894153 
1320.000000	62.894558 
1319.000000	62.896561 
1318.000000	62.899756 
1317.000000	62.903904 
1316.000000	62.908816 
1315.000000	62.914466 
1314.000000	62.920522 
1313.000000	62.926387 
1312.000000	62.931084 
1311.000000	62.933349 
1310.000000	62.932014 
1309.000000	62.926244 
1308.000000	62.915921 
1307.000000	62.901425 
1306.000000	62.883758 
1305.000000	62.864184 
1304.000000	62.844085 
1303.000000	62.824368 
1302.000000	62.805557 
1301.000000	62.787842 
1300.000000	62.771296 
1299.000000	62.756037 
1298.000000	62.742447 
1297.000000	62.731075 
1296.000000	62.722611 
1295.000000	62.717580 
1294.000000	62.716007 
1293.000000	62.717318 
1292.000000	62.720179 
1291.000000	62.722897 
1290.000000	62.723731 
1289.000000	62.721419 
1288.000000	62.715315 
1287.000000	62.705683 
1286.000000	62.693524 
1285.000000	62.680363 
1284.000000	62.667703 
1283.000000	62.656760 
1282.000000	62.648129 
1281.000000	62.641930 
1280.000000	62.637710 
1279.000000	62.634968 
1278.000000	62.633347 
1277.000000	62.632656 
1276.000000	62.632799 
1275.000000	62.633800 
1274.000000	62.635636 
1273.000000	62.638068 
1272.000000	62.640786 
1271.000000	62.643289 
1270.000000	62.645363 
1269.000000	62.646889 
1268.000000	62.648320 
1267.000000	62.650346 
1266.000000	62.653875 
1265.000000	62.659668 
1264.000000	62.668251 
1263.000000	62.679600 
1262.000000	62.693095 
1261.000000	62.707686 
1260.000000	62.722182 
1259.000000	62.735509 
1258.000000	62.747073 
1257.000000	62.756729 
1256.000000	62.764835 
1255.000000	62.772226 
1254.000000	62.779736 
1253.000000	62.787914 
1252.000000	62.797045 
1251.000000	62.806773 
1250.000000	62.816333 
1249.000000	62.824511 
1248.000000	62.830114 
1247.000000	62.832140 
1246.000000	62.830042 
1245.000000	62.823677 
1244.000000	62.813425 
1243.000000	62.800049 
1242.000000	62.784528 
1241.000000	62.767839 
1240.000000	62.750864 
1239.000000	62.734365 
1238.000000	62.718915 
1237.000000	62.704992 
1236.000000	62.692999 
1235.000000	62.683415 
1234.000000	62.676906 
1233.000000	62.674212 
1232.000000	62.675905 
1231.000000	62.682604 
1230.000000	62.694573 
1229.000000	62.711691 
1228.000000	62.733221 
1227.000000	62.757968 
1226.000000	62.784075 
1225.000000	62.809395 
1224.000000	62.831735 
1223.000000	62.849116 
1222.000000	62.860083 
1221.000000	62.864017 
1220.000000	62.860918 
1219.000000	62.851738 
1218.000000	62.837719 
1217.000000	62.820649 
1216.000000	62.802243 
1215.000000	62.784337 
1214.000000	62.768268 
1213.000000	62.755179 
1212.000000	62.745428 
1211.000000	62.739014 
1210.000000	62.735223 
1209.000000	62.733030 
1208.000000	62.731170 
1207.000000	62.728476 
1206.000000	62.724184 
1205.000000	62.717986 
1204.000000	62.710356 
1203.000000	62.702155 
1202.000000	62.694644 
1201.000000	62.689065 
1200.000000	62.686324 
1199.000000	62.686896 
1198.000000	62.690448 
1197.000000	62.695908 
1196.000000	62.702083 
1195.000000	62.707686 
1194.000000	62.711548 
1193.000000	62.713027 
1192.000000	62.711930 
1191.000000	62.708520 
1190.000000	62.703347 
1189.000000	62.697076 
1188.000000	62.690281 
1187.000000	62.683391 
1186.000000	62.676930 
1185.000000	62.671208 
1184.000000	62.666392 
1183.000000	62.662696 
1182.000000	62.660241 
1181.000000	62.659192 
1180.000000	62.659478 
1179.000000	62.661027 
1178.000000	62.663555 
1177.000000	62.666702 
1176.000000	62.669658 
1175.000000	62.671661 
1174.000000	62.671732 
1173.000000	62.668943 
1172.000000	62.662458 
1171.000000	62.651824 
1170.000000	62.636971 
1169.000000	62.618350 
1168.000000	62.596988 
1167.000000	62.574315 
1166.000000	62.552380 
1165.000000	62.533259 
1164.000000	62.519001 
1163.000000	62.511229 
1162.000000	62.510800 
1161.000000	62.517619 
1160.000000	62.530779 
1159.000000	62.548398 
1158.000000	62.568378 
1157.000000	62.588334 
1156.000000	62.606525 
1155.000000	62.621760 
1154.000000	62.633895 
1153.000000	62.643527 
1152.000000	62.651777 
1151.000000	62.659859 
1150.000000	62.668561 
1149.000000	62.678050 
1148.000000	62.687730 
1147.000000	62.696456 
1146.000000	62.702918 
1145.000000	62.706041 
1144.000000	62.705421 
1143.000000	62.701487 
1142.000000	62.695312 
1141.000000	62.688136 
1140.000000	62.681174 
1139.000000	62.675023 
1138.000000	62.669682 
1137.000000	62.664437 
1136.000000	62.658190 
1135.000000	62.650179 
1134.000000	62.639808 
1133.000000	62.627339 
1132.000000	62.613940 
1131.000000	62.601327 
1130.000000	62.591242 
1129.000000	62.585210 
1128.000000	62.583875 
1127.000000	62.586998 
1126.000000	62.593317 
1125.000000	62.600851 
1124.000000	62.607359 
1123.000000	62.611150 
1122.000000	62.611460 
1121.000000	62.608528 
1120.000000	62.603497 
1119.000000	62.598037 
1118.000000	62.593913 
1117.000000	62.592244 
1116.000000	62.593150 
1115.000000	62.595748 
1114.000000	62.598443 
1113.000000	62.599062 
1112.000000	62.596035 
1111.000000	62.588834 
1110.000000	62.578535 
1109.000000	62.567448 
1108.000000	62.559056 
1107.000000	62.556958 
1106.000000	62.564277 
1105.000000	62.582755 
1104.000000	62.612175 
1103.000000	62.650442 
1102.000000	62.693667 
1101.000000	62.737250 
1100.000000	62.776112 
1099.000000	62.805724 
1098.000000	62.822699 
1097.000000	62.825393 
1096.000000	62.813901 
1095.000000	62.789893 
1094.000000	62.756180 
1093.000000	62.716460 
1092.000000	62.674474 
1091.000000	62.633466 
1090.000000	62.595796 
1089.000000	62.562751 
1088.000000	62.534332 
1087.000000	62.509584 
1086.000000	62.487006 
1085.000000	62.465071 
1084.000000	62.442541 
1083.000000	62.419414 
1082.000000	62.396311 
1081.000000	62.375068 
1080.000000	62.357831 
1079.000000	62.347030 
1078.000000	62.344312 
1077.000000	62.350463 
1076.000000	62.364864 
1075.000000	62.385988 
1074.000000	62.411093 
1073.000000	62.437367 
1072.000000	62.462162 
1071.000000	62.483644 
1070.000000	62.501049 
1069.000000	62.514591 
1068.000000	62.525248 
1067.000000	62.534403 
1066.000000	62.543177 
1065.000000	62.552189 
1064.000000	62.561225 
1063.000000	62.569499 
1062.000000	62.575864 
1061.000000	62.578892 
1060.000000	62.577438 
1059.000000	62.571072 
1058.000000	62.560224 
1057.000000	62.546181 
1056.000000	62.530660 
1055.000000	62.515759 
1054.000000	62.503314 
1053.000000	62.494349 
1052.000000	62.489032 
1051.000000	62.486624 
1050.000000	62.485814 
1049.000000	62.485146 
1048.000000	62.483644 
1047.000000	62.480974 
1046.000000	62.478017 
1045.000000	62.476420 
1044.000000	62.478399 
1043.000000	62.485742 
1042.000000	62.499451 
1041.000000	62.519526 
1040.000000	62.544393 
1039.000000	62.571430 
1038.000000	62.597322 
1037.000000	62.618899 
1036.000000	62.633514 
1035.000000	62.639737 
1034.000000	62.637424 
1033.000000	62.627458 
1032.000000	62.611651 
1031.000000	62.592267 
1030.000000	62.571668 
1029.000000	62.551975 
1028.000000	62.535047 
1027.000000	62.522006 
1026.000000	62.513685 
1025.000000	62.510108 
1024.000000	62.510776 
1023.000000	62.514638 
1022.000000	62.519812 
1021.000000	62.524294 
1020.000000	62.525963 
1019.000000	62.523412 
1018.000000	62.515926 
1017.000000	62.503933 
1016.000000	62.489008 
1015.000000	62.473392 
1014.000000	62.459301 
1013.000000	62.448620 
1012.000000	62.442445 
1011.000000	62.441039 
1010.000000	62.443780 
1009.000000	62.449622 
1008.000000	62.457346 
1007.000000	62.465906 
1006.000000	62.474298 
1005.000000	62.481641 
1004.000000	62.486958 
1003.000000	62.489247 
1002.000000	62.487602 
1001.000000	62.481117 
1000.000000	62.469577 
999.000000	 62.453746 
998.000000	 62.435460 
997.000000	 62.417483 
996.000000	 62.403297 
995.000000	 62.396168 
994.000000	 62.398672 
993.000000	 62.411785 
992.000000	 62.435126 
991.000000	 62.466859 
990.000000	 62.504339 
989.000000	 62.544560 
988.000000	 62.584900 
987.000000	 62.623620 
986.000000	 62.659716 
985.000000	 62.692809 
984.000000	 62.722706 
983.000000	 62.749147 
982.000000	 62.771439 
981.000000	 62.788391 
980.000000	 62.798953 
979.000000	 62.802100 
978.000000	 62.797951 
977.000000	 62.787199 
976.000000	 62.771344 
975.000000	 62.752318 
974.000000	 62.732148 
973.000000	 62.712311 
972.000000	 62.693881 
971.000000	 62.677049 
970.000000	 62.661838 
969.000000	 62.647819 
968.000000	 62.634801 
967.000000	 62.622714 
966.000000	 62.611770 
965.000000	 62.602400 
964.000000	 62.594985 
963.000000	 62.589669 
962.000000	 62.586236 
961.000000	 62.583637 
960.000000	 62.580370 
959.000000	 62.574529 
958.000000	 62.564182 
957.000000	 62.547969 
956.000000	 62.525558 
955.000000	 62.497496 
954.000000	 62.465691 
953.000000	 62.433099 
952.000000	 62.403464 
951.000000	 62.380456 
950.000000	 62.367320 
949.000000	 62.366080 
948.000000	 62.377357 
947.000000	 62.399911 
946.000000	 62.431049 
945.000000	 62.466931 
944.000000	 62.503314 
943.000000	 62.536025 
942.000000	 62.561869 
941.000000	 62.578463 
940.000000	 62.585091 
939.000000	 62.582468 
938.000000	 62.572765 
937.000000	 62.559080 
936.000000	 62.544989 
935.000000	 62.534260 
934.000000	 62.529826 
933.000000	 62.533521 
932.000000	 62.545800 
931.000000	 62.565493 
930.000000	 62.590050 
929.000000	 62.616109 
928.000000	 62.639880 
927.000000	 62.658190 
926.000000	 62.668871 
925.000000	 62.671113 
924.000000	 62.665534 
923.000000	 62.653732 
922.000000	 62.637805 
921.000000	 62.619709 
920.000000	 62.601113 
919.000000	 62.582874 
918.000000	 62.565326 
917.000000	 62.548661 
916.000000	 62.533187 
915.000000	 62.519574 
914.000000	 62.509226 
913.000000	 62.503743 
912.000000	 62.504315 
911.000000	 62.511420 
910.000000	 62.524318 
909.000000	 62.541055 
908.000000	 62.558579 
907.000000	 62.573552 
906.000000	 62.582993 
905.000000	 62.585282 
904.000000	 62.580370 
903.000000	 62.569618 
902.000000	 62.555146 
901.000000	 62.539362 
900.000000	 62.524247 
899.000000	 62.510824 
898.000000	 62.499046 
897.000000	 62.488150 
896.000000	 62.477016 
895.000000	 62.464547 
894.000000	 62.450242 
893.000000	 62.434339 
892.000000	 62.417793 
891.000000	 62.402009 
890.000000	 62.388515 
889.000000	 62.378454 
888.000000	 62.372374 
887.000000	 62.369751 
886.000000	 62.369680 
885.000000	 62.370729 
884.000000	 62.371945 
883.000000	 62.372946 
882.000000	 62.374281 
881.000000	 62.377023 
880.000000	 62.382793 
879.000000	 62.393045 
878.000000	 62.408351 
877.000000	 62.428021 
876.000000	 62.450242 
875.000000	 62.472462 
874.000000	 62.491965 
873.000000	 62.506628 
872.000000	 62.515926 
871.000000	 62.520813 
870.000000	 62.523770 
869.000000	 62.527990 
868.000000	 62.536239 
867.000000	 62.549996 
866.000000	 62.569046 
865.000000	 62.591385 
864.000000	 62.613773 
863.000000	 62.632775 
862.000000	 62.645840 
861.000000	 62.651681 
860.000000	 62.650847 
859.000000	 62.644791 
858.000000	 62.635731 
857.000000	 62.625384 
856.000000	 62.614369 
855.000000	 62.601876 
854.000000	 62.586092 
853.000000	 62.564992 
852.000000	 62.537240 
851.000000	 62.503099 
850.000000	 62.464666 
849.000000	 62.425589 
848.000000	 62.390518 
847.000000	 62.363648 
846.000000	 62.348008 
845.000000	 62.344574 
844.000000	 62.352204 
843.000000	 62.367844 
842.000000	 62.387657 
841.000000	 62.407755 
840.000000	 62.425446 
839.000000	 62.439155 
838.000000	 62.449097 
837.000000	 62.456393 
836.000000	 62.462902 
835.000000	 62.470054 
834.000000	 62.478709 
833.000000	 62.489032 
832.000000	 62.500262 
831.000000	 62.511277 
830.000000	 62.520503 
829.000000	 62.526655 
828.000000	 62.528824 
827.000000	 62.526726 
826.000000	 62.520742 
825.000000	 62.511706 
824.000000	 62.501168 
823.000000	 62.491178 
822.000000	 62.483716 
821.000000	 62.480449 
820.000000	 62.482571 
819.000000	 62.490630 
818.000000	 62.504291 
817.000000	 62.522220 
816.000000	 62.542557 
815.000000	 62.562966 
814.000000	 62.581300 
813.000000	 62.595486 
812.000000	 62.604069 
811.000000	 62.605857 
810.000000	 62.600421 
809.000000	 62.587714 
808.000000	 62.567973 
807.000000	 62.542128 
806.000000	 62.511992 
805.000000	 62.480211 
804.000000	 62.450146 
803.000000	 62.425613 
802.000000	 62.410306 
801.000000	 62.407255 
800.000000	 62.418007 
799.000000	 62.442779 
798.000000	 62.480115 
797.000000	 62.527012 
796.000000	 62.579345 
795.000000	 62.632513 
794.000000	 62.681698 
793.000000	 62.722659 
792.000000	 62.751674 
791.000000	 62.765860 
790.000000	 62.763166 
789.000000	 62.742948 
788.000000	 62.705731 
787.000000	 62.653589 
786.000000	 62.589716 
785.000000	 62.519001 
784.000000	 62.446737 
783.000000	 62.378621 
782.000000	 62.319517 
781.000000	 62.273192 
780.000000	 62.241673 
779.000000	 62.225151 
778.000000	 62.222313 
777.000000	 62.230443 
776.000000	 62.246203 
775.000000	 62.265801 
774.000000	 62.285900 
773.000000	 62.303328 
772.000000	 62.315893 
771.000000	 62.322330 
770.000000	 62.322187 
769.000000	 62.315940 
768.000000	 62.304878 
767.000000	 62.291026 
766.000000	 62.276911 
765.000000	 62.264943 
764.000000	 62.257623 
763.000000	 62.256741 
762.000000	 62.263059 
761.000000	 62.276339 
760.000000	 62.295293 
759.000000	 62.318134 
758.000000	 62.342715 
757.000000	 62.367153 
756.000000	 62.389993 
755.000000	 62.410640 
754.000000	 62.429380 
753.000000	 62.446713 
752.000000	 62.463235 
751.000000	 62.478923 
750.000000	 62.493371 
749.000000	 62.505054 
748.000000	 62.511777 
747.000000	 62.511062 
746.000000	 62.500977 
745.000000	 62.480688 
744.000000	 62.451100 
743.000000	 62.414717 
742.000000	 62.375307 
741.000000	 62.337207 
740.000000	 62.304592 
739.000000	 62.280225 
738.000000	 62.265348 
737.000000	 62.259626 
736.000000	 62.261271 
735.000000	 62.267780 
734.000000	 62.276244 
733.000000	 62.283992 
732.000000	 62.288832 
731.000000	 62.289142 
730.000000	 62.284183 
729.000000	 62.274122 
728.000000	 62.259912 
727.000000	 62.242960 
726.000000	 62.225294 
725.000000	 62.209296 
724.000000	 62.197279 
723.000000	 62.190914 
722.000000	 62.190985 
721.000000	 62.197136 
720.000000	 62.207770 
719.000000	 62.220501 
718.000000	 62.232518 
717.000000	 62.241244 
716.000000	 62.244963 
715.000000	 62.243080 
714.000000	 62.235784 
713.000000	 62.224054 
712.000000	 62.209272 
711.000000	 62.193179 
710.000000	 62.177920 
709.000000	 62.165927 
708.000000	 62.159991 
707.000000	 62.162089 
706.000000	 62.173199 
705.000000	 62.192225 
704.000000	 62.216138 
703.000000	 62.240338 
702.000000	 62.259578 
701.000000	 62.268900 
700.000000	 62.265133 
699.000000	 62.247300 
698.000000	 62.216782 
697.000000	 62.177205 
696.000000	 62.133312 
695.000000	 62.090373 
694.000000	 62.053179 
693.000000	 62.025284 
692.000000	 62.008714 
691.000000	 62.003707 
690.000000	 62.009024 
689.000000	 62.022089 
688.000000	 62.039661 
687.000000	 62.058043 
686.000000	 62.073564 
685.000000	 62.082886 
684.000000	 62.083554 
683.000000	 62.074327 
682.000000	 62.055587 
681.000000	 62.029099 
680.000000	 61.998105 
679.000000	 61.966466 
678.000000	 61.938261 
677.000000	 61.917233 
676.000000	 61.905908 
675.000000	 61.905384 
674.000000	 61.915016 
673.000000	 61.932754 
672.000000	 61.955523 
671.000000	 61.979484 
670.000000	 62.000966 
669.000000	 62.016677 
668.000000	 62.024760 
667.000000	 62.024545 
666.000000	 62.017273 
665.000000	 62.005448 
664.000000	 61.992573 
663.000000	 61.982440 
662.000000	 61.978387 
661.000000	 61.982464 
660.000000	 61.994528 
659.000000	 62.012147 
658.000000	 62.030863 
657.000000	 62.045478 
656.000000	 62.051510 
655.000000	 62.046456 
654.000000	 62.030410 
653.000000	 62.006378 
652.000000	 61.979413 
651.000000	 61.955499 
650.000000	 61.939883 
649.000000	 61.935877 
648.000000	 61.944246 
647.000000	 61.963081 
646.000000	 61.988711 
645.000000	 62.016129 
644.000000	 62.040448 
643.000000	 62.057733 
642.000000	 62.065672 
641.000000	 62.063789 
640.000000	 62.052845 
639.000000	 62.035155 
638.000000	 62.013649 
637.000000	 61.991667 
636.000000	 61.972308 
635.000000	 61.958289 
634.000000	 61.951351 
633.000000	 61.951613 
632.000000	 61.957430 
631.000000	 61.965489 
630.000000	 61.971616 
629.000000	 61.971282 
628.000000	 61.960840 
627.000000	 61.938476 
626.000000	 61.904978 
625.000000	 61.863684 
624.000000	 61.819887 
623.000000	 61.779212 
622.000000	 61.746668 
621.000000	 61.725187 
620.000000	 61.715769 
619.000000	 61.716651 
618.000000	 61.725306 
617.000000	 61.739110 
616.000000	 61.757040 
615.000000	 61.779332 
614.000000	 61.808204 
613.000000	 61.846613 
612.000000	 61.896705 
611.000000	 61.958312 
610.000000	 62.028479 
609.000000	 62.101531 
608.000000	 62.170314 
607.000000	 62.227606 
606.000000	 62.268519 
605.000000	 62.291407 
604.000000	 62.298655 
603.000000	 62.295436 
602.000000	 62.287878 
601.000000	 62.280631 
600.000000	 62.275958 
599.000000	 62.272739 
598.000000	 62.267327 
597.000000	 62.254476 
596.000000	 62.230730 
595.000000	 62.194180 
594.000000	 62.146091 
593.000000	 62.089610 
592.000000	 62.029933 
591.000000	 61.971807 
590.000000	 61.918163 
589.000000	 61.869812 
588.000000	 61.825680 
587.000000	 61.783409 
586.000000	 61.740446 
585.000000	 61.695265 
584.000000	 61.647891 
583.000000	 61.600351 
582.000000	 61.556267 
581.000000	 61.519312 
580.000000	 61.491990 
579.000000	 61.476016 
578.000000	 61.472272 
577.000000	 61.480331 
576.000000	 61.499214 
575.000000	 61.528038 
574.000000	 61.566519 
573.000000	 61.614155 
572.000000	 61.670589 
571.000000	 61.734652 
570.000000	 61.804819 
569.000000	 61.878609 
568.000000	 61.953687 
567.000000	 62.026643 
566.000000	 62.095260 
565.000000	 62.159132 
564.000000	 62.219214 
563.000000	 62.277650 
562.000000	 62.336301 
561.000000	 62.397217 
560.000000	 62.459111 
559.000000	 62.518143 
558.000000	 62.566471 
557.000000	 62.594699 
556.000000	 62.592673 
555.000000	 62.552762 
554.000000	 62.471675 
553.000000	 62.352490 
552.000000	 62.205028 
551.000000	 62.044644 
550.000000	 61.889290 
549.000000	 61.756443 
548.000000	 61.659526 
547.000000	 61.606359 
546.000000	 61.596488 
545.000000	 61.624383 
544.000000	 61.680626 
543.000000	 61.756801 
542.000000	 61.845993 
541.000000	 61.946082 
540.000000	 62.057542 
539.000000	 62.183070 
538.000000	 62.324309 
537.000000	 62.479162 
536.000000	 62.640309 
535.000000	 62.794566 
534.000000	 62.925505 
533.000000	 63.015842 
532.000000	 63.053274 
531.000000	 63.031244 
530.000000	 62.951683 
529.000000	 62.824583 
528.000000	 62.666916 
527.000000	 62.497901 
526.000000	 62.335109 
525.000000	 62.191700 
524.000000	 62.074112 
523.000000	 61.982202 
522.000000	 61.910462 
521.000000	 61.848878 
520.000000	 61.787772 
519.000000	 61.720085 
518.000000	 61.646342 
517.000000	 61.572384 
516.000000	 61.512184 
515.000000	 61.482048 
514.000000	 61.499333 
513.000000	 61.577582 
512.000000	 61.721158 
511.000000	 61.924481 
510.000000	 62.167859 
509.000000	 62.421345 
508.000000	 62.646889 
507.000000	 62.807369 
506.000000	 62.870979 
505.000000	 62.818813 
504.000000	 62.647342 
503.000000	 62.370133 
502.000000	 62.014079 
501.000000	 61.614990 
500.000000	 61.211395 
499.000000	 60.839104 
498.000000	 60.530686 
497.000000	 60.312342 
496.000000	 60.203313 
495.000000	 60.213160 
494.000000	 60.339760 
493.000000	 60.568141 
492.000000	 60.869097 
491.000000	 61.204171 
490.000000	 61.527419 
489.000000	 61.796784 
488.000000	 61.977458 
487.000000	 62.053751 
486.000000	 62.028264 
485.000000	 61.925506 
484.000000	 61.784648 
483.000000	 61.652636 
482.000000	 61.574864 
481.000000	 61.583042 
480.000000	 61.691355 
479.000000	 61.889410 
478.000000	 62.148690 
477.000000	 62.423682 
476.000000	 62.665009 
475.000000	 62.825918 
474.000000	 62.873315 
473.000000	 62.792110 
472.000000	 62.588119 
471.000000	 62.285995 
470.000000	 61.923933 
469.000000	 61.547946 
468.000000	 61.203050 
467.000000	 60.925841 
466.000000	 60.738968 
465.000000	 60.651350 
464.000000	 60.657429 
463.000000	 60.740470 
462.000000	 60.877132 
461.000000	 61.040186 
460.000000	 61.205697 
459.000000	 61.355829 
458.000000	 61.480045 
457.000000	 61.571955 
456.000000	 61.629223 
455.000000	 61.649322 
454.000000	 61.630892 
453.000000	 61.573863 
452.000000	 61.480522 
451.000000	 61.356425 
450.000000	 61.212801 
449.000000	 61.069226 
448.000000	 60.942196 
447.000000	 60.841751 
446.000000	 60.770082 
445.000000	 60.722136 
444.000000	 60.687470 
443.000000	 60.654997 
442.000000	 60.619521 
441.000000	 60.583806 
440.000000	 60.558271 
439.000000	 60.556745 
438.000000	 60.590100 
437.000000	 60.661196 
436.000000	 60.760736 
435.000000	 60.869288 
434.000000	 60.959362 
433.000000	 61.006069 
432.000000	 60.992026 
431.000000	 60.918378 
430.000000	 60.801005 
429.000000	 60.676789 
428.000000	 60.591959 
427.000000	 60.598635 
426.000000	 60.734581 
425.000000	 61.027836 
424.000000	 61.488032 
423.000000	 62.108087 
422.000000	 62.863659 
421.000000	 63.717627 
420.000000	 64.623641 
419.000000	 65.531015 
418.000000	 66.388654 
417.000000	 67.147707 
416.000000	 67.763328 
415.000000	 68.203353 
414.000000	 68.447470 
413.000000	 68.483281 
412.000000	 68.308496 
411.000000	 67.942237 
410.000000	 67.419862 
409.000000	 66.797852 
408.000000	 66.140890 
407.000000	 65.519523 
406.000000	 64.990305 
405.000000	 64.604330 
404.000000	 64.377951 
403.000000	 64.286041 
402.000000	 64.271545 
401.000000	 64.268708 
400.000000	 64.210033 
399.000000	 64.030051 
398.000000	 63.703489 
397.000000	 63.250589 
396.000000	 62.734746 
395.000000	 62.246322 
394.000000	 61.871838 
393.000000	 61.669754 
392.000000	 61.656332 
391.000000	 61.802983 
390.000000	 62.086749 
389.000000	 62.503099 
388.000000	 63.067770 
387.000000	 63.809132 
386.000000	 64.755511 
385.000000	 65.902018 
384.000000	 67.208957 
383.000000	 68.565535 
382.000000	 69.806838 
381.000000	 70.706868 
380.000000	 71.061730 
379.000000	 70.676493 
378.000000	 69.429707 
377.000000	 67.266845 
376.000000	 64.259481 
375.000000	 60.558772 
374.000000	 56.334590 
373.000000	 51.843070 
372.000000	 47.383093 
371.000000	 43.339204 
370.000000	 40.149116 

