PE IR       SPECTRUM    SPECTRUM    ASCII       PEDS        1.60        
  -1
BZ6821~1.ASC
17/04/07
18:08:58.00
17/04/07
18:08:58.00
tln
$BZ1503107-1_t0060$<tbV0>[2.6,0.0,8.0,0.0,27,1,0]
370.000000
64









2002,4.07    
MIRTGS : RIGHTBACK : INTERNAL 2
MIR : ON : INTERNAL 2
OPTKBR

0.200000
8
8.000000
FILLER
RATIO
SPECTRUM
UNLOCKED 256

DOUBLE
64
COMBINED
1
0
0


1.000000
RATIO


1
0
TRUE
51149
0
LEFT NOT FITTED RIGHT NOT FITTED 0
NONE
NONE
15600
12.000000
4.427000
51148
TRUE
1 0 8 72 0 0 0 0 

15798.010000






#HDR
-1
-1
#GR
CM-1
%T
0.00002384185791015625
0.0
5000.000000
-1.000000
4631
8
81.288671
57.214546
#DATA
5000.000000	65.345454 
4999.000000	65.229749 
4998.000000	65.013432 
4997.000000	64.703536 
4996.000000	64.326143 
4995.000000	63.918781 
4994.000000	63.529157 
4993.000000	63.204169 
4992.000000	62.984561 
4991.000000	62.898230 
4990.000000	62.952923 
4989.000000	63.136601 
4988.000000	63.414168 
4987.000000	63.734388 
4986.000000	64.035940 
4985.000000	64.258790 
4984.000000	64.356040 
4983.000000	64.303207 
4982.000000	64.105534 
4981.000000	63.797259 
4980.000000	63.435983 
4979.000000	63.090133 
4978.000000	62.825393 
4977.000000	62.689566 
4976.000000	62.703418 
4975.000000	62.856698 
4974.000000	63.112902 
4973.000000	63.419842 
4972.000000	63.722944 
4971.000000	63.979482 
4970.000000	64.165949 
4969.000000	64.282178 
4968.000000	64.344501 
4967.000000	64.379763 
4966.000000	64.411950 
4965.000000	64.457130 
4964.000000	64.516735 
4963.000000	64.582681 
4962.000000	64.642930 
4961.000000	64.689397 
4960.000000	64.724397 
4959.000000	64.761829 
4958.000000	64.824795 
4957.000000	64.936423 
4956.000000	65.111064 
4955.000000	65.344309 
4954.000000	65.610480 
4953.000000	65.866422 
4952.000000	66.060948 
4951.000000	66.147780 
4950.000000	66.098356 
4949.000000	65.911197 
4948.000000	65.613341 
4947.000000	65.255951 
4946.000000	64.901447 
4945.000000	64.608359 
4944.000000	64.418482 
4943.000000	64.348983 
4942.000000	64.389848 
4941.000000	64.511656 
4940.000000	64.671778 
4939.000000	64.828348 
4938.000000	64.947080 
4937.000000	65.008401 
4936.000000	65.007233 
4935.000000	64.948534 
4934.000000	64.844608 
4933.000000	64.707922 
4932.000000	64.550209 
4931.000000	64.380216 
4930.000000	64.206171 
4929.000000	64.036870 
4928.000000	63.882637 
4927.000000	63.754653 
4926.000000	63.661932 
4925.000000	63.609337 
4924.000000	63.593173 
4923.000000	63.603258 
4922.000000	63.624000 
4921.000000	63.640213 
4920.000000	63.639473 
4919.000000	63.618159 
4918.000000	63.580703 
4917.000000	63.540816 
4916.000000	63.515257 
4915.000000	63.521838 
4914.000000	63.572216 
4913.000000	63.670992 
4912.000000	63.813996 
4911.000000	63.989138 
4910.000000	64.179229 
4909.000000	64.365196 
4908.000000	64.530539 
4907.000000	64.663314 
4906.000000	64.757847 
4905.000000	64.814209 
4904.000000	64.836883 
4903.000000	64.832997 
4902.000000	64.809775 
4901.000000	64.774727 
4900.000000	64.734148 
4899.000000	64.691829 
4898.000000	64.649319 
4897.000000	64.607691 
4896.000000	64.568209 
4895.000000	64.533901 
4894.000000	64.508843 
4893.000000	64.498782 
4892.000000	64.507961 
4891.000000	64.537429 
4890.000000	64.582991 
4889.000000	64.635062 
4888.000000	64.680552 
4887.000000	64.705657 
4886.000000	64.699697 
4885.000000	64.657855 
4884.000000	64.583325 
4883.000000	64.486742 
4882.000000	64.384555 
4881.000000	64.294695 
4880.000000	64.233613 
4879.000000	64.212489 
4878.000000	64.235329 
4877.000000	64.298105 
4876.000000	64.391326 
4875.000000	64.502453 
4874.000000	64.618062 
4873.000000	64.726209 
4872.000000	64.816927 
4871.000000	64.883327 
4870.000000	64.920616 
4869.000000	64.927148 
4868.000000	64.904713 
4867.000000	64.858484 
4866.000000	64.797401 
4865.000000	64.731907 
4864.000000	64.673280 
4863.000000	64.630508 
4862.000000	64.609336 
4861.000000	64.611053 
4860.000000	64.632892 
4859.000000	64.668965 
4858.000000	64.712452 
4857.000000	64.756608 
4856.000000	64.796257 
4855.000000	64.828515 
4854.000000	64.852356 
4853.000000	64.868783 
4852.000000	64.879560 
4851.000000	64.887142 
4850.000000	64.893794 
4849.000000	64.901614 
4848.000000	64.911985 
4847.000000	64.925956 
4846.000000	64.943289 
4845.000000	64.961862 
4844.000000	64.977240 
4843.000000	64.982867 
4842.000000	64.971470 
4841.000000	64.936995 
4840.000000	64.876818 
4839.000000	64.792847 
4838.000000	64.692020 
4837.000000	64.585328 
4836.000000	64.486432 
4835.000000	64.407896 
4834.000000	64.359855 
4833.000000	64.347267 
4832.000000	64.369750 
4831.000000	64.421749 
4830.000000	64.493942 
4829.000000	64.575028 
4828.000000	64.654088 
4827.000000	64.721775 
4826.000000	64.772248 
4825.000000	64.803075 
4824.000000	64.815211 
4823.000000	64.811563 
4822.000000	64.797091 
4821.000000	64.777278 
4820.000000	64.757800 
4819.000000	64.743304 
4818.000000	64.737176 
4817.000000	64.740824 
4816.000000	64.753866 
4815.000000	64.774227 
4814.000000	64.798688 
4813.000000	64.823460 
4812.000000	64.845013 
4811.000000	64.861083 
4810.000000	64.870476 
4809.000000	64.873576 
4808.000000	64.872050 
4807.000000	64.868283 
4806.000000	64.864540 
4805.000000	64.862298 
4804.000000	64.862513 
4803.000000	64.864468 
4802.000000	64.866113 
4801.000000	64.864397 
4800.000000	64.856576 
4799.000000	64.840030 
4798.000000	64.813256 
4797.000000	64.776110 
4796.000000	64.729881 
4795.000000	64.677381 
4794.000000	64.622449 
4793.000000	64.569163 
4792.000000	64.521431 
4791.000000	64.482164 
4790.000000	64.453148 
4789.000000	64.434742 
4788.000000	64.426207 
4787.000000	64.425849 
4786.000000	64.431715 
4785.000000	64.441490 
4784.000000	64.453363 
4783.000000	64.465761 
4782.000000	64.477944 
4781.000000	64.488816 
4780.000000	64.498066 
4779.000000	64.505577 
4778.000000	64.512276 
4777.000000	64.519119 
4776.000000	64.528393 
4775.000000	64.542436 
4774.000000	64.564037 
4773.000000	64.595770 
4772.000000	64.638662 
4771.000000	64.691805 
4770.000000	64.752149 
4769.000000	64.815044 
4768.000000	64.874601 
4767.000000	64.925122 
4766.000000	64.962315 
4765.000000	64.984059 
4764.000000	64.990735 
4763.000000	64.984679 
4762.000000	64.970159 
4761.000000	64.951753 
4760.000000	64.933538 
4759.000000	64.917516 
4758.000000	64.904236 
4757.000000	64.892172 
4756.000000	64.878726 
4755.000000	64.860844 
4754.000000	64.836025 
4753.000000	64.803338 
4752.000000	64.763689 
4751.000000	64.720487 
4750.000000	64.678382 
4749.000000	64.643669 
4748.000000	64.622497 
4747.000000	64.620113 
4746.000000	64.639353 
4745.000000	64.680027 
4744.000000	64.738559 
4743.000000	64.808344 
4742.000000	64.880752 
4741.000000	64.947104 
4740.000000	65.000510 
4739.000000	65.037131 
4738.000000	65.056824 
4737.000000	65.063381 
4736.000000	65.062856 
4735.000000	65.061926 
4734.000000	65.065264 
4733.000000	65.074968 
4732.000000	65.089154 
4731.000000	65.103220 
4730.000000	65.110611 
4729.000000	65.105175 
4728.000000	65.082907 
4727.000000	65.043878 
4726.000000	64.991927 
4725.000000	64.934086 
4724.000000	64.878654 
4723.000000	64.833354 
4722.000000	64.803361 
4721.000000	64.790153 
4720.000000	64.791679 
4719.000000	64.803314 
4718.000000	64.819431 
4717.000000	64.835023 
4716.000000	64.846944 
4715.000000	64.854407 
4714.000000	64.858126 
4713.000000	64.859318 
4712.000000	64.858317 
4711.000000	64.853930 
4710.000000	64.843201 
4709.000000	64.822340 
4708.000000	64.788055 
4707.000000	64.739346 
4706.000000	64.678788 
4705.000000	64.612770 
4704.000000	64.550375 
4703.000000	64.501452 
4702.000000	64.474511 
4701.000000	64.474725 
4700.000000	64.501762 
4699.000000	64.550971 
4698.000000	64.614152 
4697.000000	64.681673 
4696.000000	64.744615 
4695.000000	64.796519 
4694.000000	64.834189 
4693.000000	64.857912 
4692.000000	64.870381 
4691.000000	64.875841 
4690.000000	64.878153 
4689.000000	64.881062 
4688.000000	64.887452 
4687.000000	64.899420 
4686.000000	64.918398 
4685.000000	64.945411 
4684.000000	64.980697 
4683.000000	65.023612 
4682.000000	65.071773 
4681.000000	65.120935 
4680.000000	65.164899 
4679.000000	65.196871 
4678.000000	65.210103 
4677.000000	65.200161 
4676.000000	65.165328 
4675.000000	65.107512 
4674.000000	65.031981 
4673.000000	64.946746 
4672.000000	64.861202 
4671.000000	64.784193 
4670.000000	64.723110 
4669.000000	64.682650 
4668.000000	64.664983 
4667.000000	64.669442 
4666.000000	64.693856 
4665.000000	64.734482 
4664.000000	64.787769 
4663.000000	64.850330 
4662.000000	64.918994 
4661.000000	64.990329 
4660.000000	65.059995 
4659.000000	65.122437 
4658.000000	65.171122 
4657.000000	65.199470 
4656.000000	65.202307 
4655.000000	65.177130 
4654.000000	65.125346 
4653.000000	65.052270 
4652.000000	64.966750 
4651.000000	64.879512 
4650.000000	64.801549 
4649.000000	64.741969 
4648.000000	64.706611 
4647.000000	64.697122 
4646.000000	64.711022 
4645.000000	64.742732 
4644.000000	64.784717 
4643.000000	64.829540 
4642.000000	64.870667 
4641.000000	64.904379 
4640.000000	64.929103 
4639.000000	64.946627 
4638.000000	64.960289 
4637.000000	64.974832 
4636.000000	64.994764 
4635.000000	65.023207 
4634.000000	65.061092 
4633.000000	65.105986 
4632.000000	65.152335 
4631.000000	65.192270 
4630.000000	65.217638 
4629.000000	65.222215 
4628.000000	65.203428 
4627.000000	65.163540 
4626.000000	65.109300 
4625.000000	65.050506 
4624.000000	64.997649 
4623.000000	64.959549 
4622.000000	64.941263 
4621.000000	64.943075 
4620.000000	64.960789 
4619.000000	64.987826 
4618.000000	65.016698 
4617.000000	65.040731 
4616.000000	65.055966 
4615.000000	65.061116 
4614.000000	65.058088 
4613.000000	65.050196 
4612.000000	65.041732 
4611.000000	65.035533 
4610.000000	65.034031 
4609.000000	65.038537 
4608.000000	65.049934 
4607.000000	65.068936 
4606.000000	65.095758 
4605.000000	65.129995 
4604.000000	65.170049 
4603.000000	65.213131 
4602.000000	65.255117 
4601.000000	65.291523 
4600.000000	65.317964 
4599.000000	65.331506 
4598.000000	65.331625 
4597.000000	65.320801 
4596.000000	65.304017 
4595.000000	65.287733 
4594.000000	65.279006 
4593.000000	65.282893 
4592.000000	65.302228 
4591.000000	65.335464 
4590.000000	65.377354 
4589.000000	65.419483 
4588.000000	65.452527 
4587.000000	65.468335 
4586.000000	65.461921 
4585.000000	65.433263 
4584.000000	65.387201 
4583.000000	65.333008 
4582.000000	65.282201 
4581.000000	65.246272 
4580.000000	65.234160 
4579.000000	65.249586 
4578.000000	65.290403 
4577.000000	65.349030 
4576.000000	65.414261 
4575.000000	65.473604 
4574.000000	65.516281 
4573.000000	65.534973 
4572.000000	65.527272 
4571.000000	65.495395 
4570.000000	65.445590 
4569.000000	65.385675 
4568.000000	65.323686 
4567.000000	65.266799 
4566.000000	65.219807 
4565.000000	65.185904 
4564.000000	65.165781 
4563.000000	65.158510 
4562.000000	65.162110 
4561.000000	65.174078 
4560.000000	65.192437 
4559.000000	65.215134 
4558.000000	65.241360 
4557.000000	65.270495 
4556.000000	65.303158 
4555.000000	65.340495 
4554.000000	65.384006 
4553.000000	65.434384 
4552.000000	65.491628 
4551.000000	65.554165 
4550.000000	65.618920 
4549.000000	65.681385 
4548.000000	65.736079 
4547.000000	65.777277 
4546.000000	65.800285 
4545.000000	65.802097 
4544.000000	65.782284 
4543.000000	65.743064 
4542.000000	65.689158 
4541.000000	65.627336 
4540.000000	65.565657 
4539.000000	65.512609 
4538.000000	65.476202 
4537.000000	65.462517 
4536.000000	65.474557 
4535.000000	65.511727 
4534.000000	65.570354 
4533.000000	65.643382 
4532.000000	65.721487 
4531.000000	65.794372 
4530.000000	65.852355 
4529.000000	65.887951 
4528.000000	65.896987 
4527.000000	65.879225 
4526.000000	65.837931 
4525.000000	65.780067 
4524.000000	65.714764 
4523.000000	65.651655 
4522.000000	65.598869 
4521.000000	65.561676 
4520.000000	65.541601 
4519.000000	65.536308 
4518.000000	65.540766 
4517.000000	65.548729 
4516.000000	65.555143 
4515.000000	65.556883 
4514.000000	65.554666 
4513.000000	65.551781 
4512.000000	65.554308 
4511.000000	65.568065 
4510.000000	65.598487 
4509.000000	65.648841 
4508.000000	65.719079 
4507.000000	65.805983 
4506.000000	65.902543 
4505.000000	65.999674 
4504.000000	66.086673 
4503.000000	66.153335 
4502.000000	66.191267 
4501.000000	66.195702 
4500.000000	66.165924 
4499.000000	66.105580 
4498.000000	66.022133 
4497.000000	65.925717 
4496.000000	65.827417 
4495.000000	65.737819 
4494.000000	65.666294 
4493.000000	65.620422 
4492.000000	65.605211 
4491.000000	65.622401 
4490.000000	65.670728 
4489.000000	65.745139 
4488.000000	65.838551 
4487.000000	65.941095 
4486.000000	66.041135 
4485.000000	66.126203 
4484.000000	66.183304 
4483.000000	66.202306 
4482.000000	66.179013 
4481.000000	66.115093 
4480.000000	66.016745 
4479.000000	65.895152 
4478.000000	65.766954 
4477.000000	65.647673 
4476.000000	65.546560 
4475.000000	65.470814 
4474.000000	65.426754 
4473.000000	65.415978 
4472.000000	65.436911 
4471.000000	65.477395 
4470.000000	65.516662 
4469.000000	65.532112 
4468.000000	65.505790 
4467.000000	65.430164 
4466.000000	65.312027 
4465.000000	65.172886 
4464.000000	65.042924 
4463.000000	64.955735 
4462.000000	64.936137 
4461.000000	64.989614 
4460.000000	65.099859 
4459.000000	65.236234 
4458.000000	65.355467 
4457.000000	65.421867 
4456.000000	65.400481 
4455.000000	65.274715 
4454.000000	65.028429 
4453.000000	64.654779 
4452.000000	64.140462 
4451.000000	63.462615 
4450.000000	62.608766 
4449.000000	61.578536 
4448.000000	60.422158 
4447.000000	59.239411 
4446.000000	58.188056 
4445.000000	57.454848 
4444.000000	57.214546 
4443.000000	57.580685 
4442.000000	58.563613 
4441.000000	60.051083 
4440.000000	61.810851 
4439.000000	63.535594 
4438.000000	64.903211 
4437.000000	65.653991 
4436.000000	65.649104 
4435.000000	64.904880 
4434.000000	63.586187 
4433.000000	61.963701 
4432.000000	60.338759 
4431.000000	58.980083 
4430.000000	58.064460 
4429.000000	57.654380 
4428.000000	57.715725 
4427.000000	58.133935 
4426.000000	58.778572 
4425.000000	59.517097 
4424.000000	60.244536 
4423.000000	60.895347 
4422.000000	61.426353 
4421.000000	61.834359 
4420.000000	62.129712 
4419.000000	62.347722 
4418.000000	62.531328 
4417.000000	62.724709 
4416.000000	62.961125 
4415.000000	63.259220 
4414.000000	63.618493 
4413.000000	64.018034 
4412.000000	64.421248 
4411.000000	64.786148 
4410.000000	65.074157 
4409.000000	65.260434 
4408.000000	65.338230 
4407.000000	65.318036 
4406.000000	65.225315 
4405.000000	65.097308 
4404.000000	64.971947 
4403.000000	64.879131 
4402.000000	64.836525 
4401.000000	64.847660 
4400.000000	64.905714 
4399.000000	65.005660 
4398.000000	65.138220 
4397.000000	65.292406 
4396.000000	65.456128 
4395.000000	65.615582 
4394.000000	65.758204 
4393.000000	65.873956 
4392.000000	65.954518 
4391.000000	65.993428 
4390.000000	65.989279 
4389.000000	65.946292 
4388.000000	65.871310 
4387.000000	65.773129 
4386.000000	65.663290 
4385.000000	65.554380 
4384.000000	65.458297 
4383.000000	65.384674 
4382.000000	65.340876 
4381.000000	65.330362 
4380.000000	65.351223 
4379.000000	65.396833 
4378.000000	65.458130 
4377.000000	65.524697 
4376.000000	65.584611 
4375.000000	65.628862 
4374.000000	65.651583 
4373.000000	65.652489 
4372.000000	65.635704 
4371.000000	65.609741 
4370.000000	65.585136 
4369.000000	65.572047 
4368.000000	65.577769 
4367.000000	65.604853 
4366.000000	65.651106 
4365.000000	65.709185 
4364.000000	65.768766 
4363.000000	65.818881 
4362.000000	65.851116 
4361.000000	65.860819 
4360.000000	65.848278 
4359.000000	65.818452 
4358.000000	65.779471 
4357.000000	65.740942 
4356.000000	65.711402 
4355.000000	65.696787 
4354.000000	65.698814 
4353.000000	65.716361 
4352.000000	65.744662 
4351.000000	65.777420 
4350.000000	65.807127 
4349.000000	65.827345 
4348.000000	65.832877 
4347.000000	65.820646 
4346.000000	65.789961 
4345.000000	65.741848 
4344.000000	65.679669 
4343.000000	65.608859 
4342.000000	65.536046 
4341.000000	65.468263 
4340.000000	65.411758 
4339.000000	65.371179 
4338.000000	65.348672 
4337.000000	65.343904 
4336.000000	65.354323 
4335.000000	65.375995 
4334.000000	65.404772 
4333.000000	65.437126 
4332.000000	65.470433 
4331.000000	65.503096 
4330.000000	65.534138 
4329.000000	65.562844 
4328.000000	65.588665 
4327.000000	65.610718 
4326.000000	65.628051 
4325.000000	65.639114 
4324.000000	65.643048 
4323.000000	65.638923 
4322.000000	65.626478 
4321.000000	65.605568 
4320.000000	65.576696 
4319.000000	65.540409 
4318.000000	65.497565 
4317.000000	65.449619 
4316.000000	65.398836 
4315.000000	65.348410 
4314.000000	65.302109 
4313.000000	65.264105 
4312.000000	65.237975 
4311.000000	65.226817 
4310.000000	65.232253 
4309.000000	65.254902 
4308.000000	65.294003 
4307.000000	65.348100 
4306.000000	65.414524 
4305.000000	65.489387 
4304.000000	65.567183 
4303.000000	65.641236 
4302.000000	65.703701 
4301.000000	65.746378 
4300.000000	65.761804 
4299.000000	65.745282 
4298.000000	65.695452 
4297.000000	65.615773 
4296.000000	65.513682 
4295.000000	65.400314 
4294.000000	65.287709 
4293.000000	65.187358 
4292.000000	65.107512 
4291.000000	65.052103 
4290.000000	65.020346 
4289.000000	65.008068 
4288.000000	65.008759 
4287.000000	65.015363 
4286.000000	65.022444 
4285.000000	65.026783 
4284.000000	65.028023 
4283.000000	65.027356 
4282.000000	65.027880 
4281.000000	65.032958 
4280.000000	65.045809 
4279.000000	65.068674 
4278.000000	65.102720 
4277.000000	65.147876 
4276.000000	65.203070 
4275.000000	65.265917 
4274.000000	65.333199 
4273.000000	65.400815 
4272.000000	65.464019 
4271.000000	65.517759 
4270.000000	65.557432 
4269.000000	65.579295 
4268.000000	65.582013 
4267.000000	65.565586 
4266.000000	65.532183 
4265.000000	65.484690 
4264.000000	65.427494 
4263.000000	65.363955 
4262.000000	65.296459 
4261.000000	65.225887 
4260.000000	65.152812 
4259.000000	65.077519 
4258.000000	65.000844 
4257.000000	64.925074 
4256.000000	64.854025 
4255.000000	64.792609 
4254.000000	64.745950 
4253.000000	64.717864 
4252.000000	64.709877 
4251.000000	64.720511 
4250.000000	64.745783 
4249.000000	64.779210 
4248.000000	64.814066 
4247.000000	64.844393 
4246.000000	64.867162 
4245.000000	64.881801 
4244.000000	64.891099 
4243.000000	64.899730 
4242.000000	64.913105 
4241.000000	64.935588 
4240.000000	64.969205 
4239.000000	65.013432 
4238.000000	65.064764 
4237.000000	65.117979 
4236.000000	65.167021 
4235.000000	65.206313 
4234.000000	65.232133 
4233.000000	65.243506 
4232.000000	65.242195 
4231.000000	65.232014 
4230.000000	65.218329 
4229.000000	65.206670 
4228.000000	65.201282 
4227.000000	65.204191 
4226.000000	65.214824 
4225.000000	65.230154 
4224.000000	65.245294 
4223.000000	65.254878 
4222.000000	65.254330 
4221.000000	65.241122 
4220.000000	65.215373 
4219.000000	65.180134 
4218.000000	65.140604 
4217.000000	65.103054 
4216.000000	65.073513 
4215.000000	65.056490 
4214.000000	65.053582 
4213.000000	65.063905 
4212.000000	65.084457 
4211.000000	65.110754 
4210.000000	65.138030 
4209.000000	65.162205 
4208.000000	65.180802 
4207.000000	65.192675 
4206.000000	65.197944 
4205.000000	65.197348 
4204.000000	65.191984 
4203.000000	65.182423 
4202.000000	65.168499 
4201.000000	65.149521 
4200.000000	65.124559 
4199.000000	65.092945 
4198.000000	65.055036 
4197.000000	65.012097 
4196.000000	64.966464 
4195.000000	64.921522 
4194.000000	64.881014 
4193.000000	64.848852 
4192.000000	64.828109 
4191.000000	64.820575 
4190.000000	64.826035 
4189.000000	64.841890 
4188.000000	64.863562 
4187.000000	64.885139 
4186.000000	64.900612 
4185.000000	64.904856 
4184.000000	64.894986 
4183.000000	64.870691 
4182.000000	64.834308 
4181.000000	64.790272 
4180.000000	64.743852 
4179.000000	64.699697 
4178.000000	64.661502 
4177.000000	64.631485 
4176.000000	64.610409 
4175.000000	64.597916 
4174.000000	64.593219 
4173.000000	64.595723 
4172.000000	64.605021 
4171.000000	64.621067 
4170.000000	64.642953 
4169.000000	64.669108 
4168.000000	64.696907 
4167.000000	64.723587 
4166.000000	64.746594 
4165.000000	64.764618 
4164.000000	64.778304 
4163.000000	64.789819 
4162.000000	64.802002 
4161.000000	64.816999 
4160.000000	64.835858 
4159.000000	64.856934 
4158.000000	64.876651 
4157.000000	64.889526 
4156.000000	64.890384 
4155.000000	64.874982 
4154.000000	64.841771 
4153.000000	64.792108 
4152.000000	64.730501 
4151.000000	64.663386 
4150.000000	64.597845 
4149.000000	64.540505 
4148.000000	64.496326 
4147.000000	64.468669 
4146.000000	64.458894 
4145.000000	64.466834 
4144.000000	64.490962 
4143.000000	64.528632 
4142.000000	64.576363 
4141.000000	64.629387 
4140.000000	64.682793 
4139.000000	64.731812 
4138.000000	64.773130 
4137.000000	64.804840 
4136.000000	64.826750 
4135.000000	64.840364 
4134.000000	64.848041 
4133.000000	64.852571 
4132.000000	64.856243 
4131.000000	64.860630 
4130.000000	64.866447 
4129.000000	64.873909 
4128.000000	64.882874 
4127.000000	64.893484 
4126.000000	64.905810 
4125.000000	64.920186 
4124.000000	64.936065 
4123.000000	64.951944 
4122.000000	64.965057 
4121.000000	64.972090 
4120.000000	64.969539 
4119.000000	64.954686 
4118.000000	64.926838 
4117.000000	64.887619 
4116.000000	64.840149 
4115.000000	64.788436 
4114.000000	64.736700 
4113.000000	64.688730 
4112.000000	64.647531 
4111.000000	64.615392 
4110.000000	64.594054 
4109.000000	64.584541 
4108.000000	64.587593 
4107.000000	64.603090 
4106.000000	64.629411 
4105.000000	64.663600 
4104.000000	64.701104 
4103.000000	64.736843 
4102.000000	64.765238 
4101.000000	64.782238 
4100.000000	64.786028 
4099.000000	64.777779 
4098.000000	64.761400 
4097.000000	64.742779 
4096.000000	64.728355 
4095.000000	64.723587 
4094.000000	64.731693 
4093.000000	64.753484 
4092.000000	64.787602 
4091.000000	64.831161 
4090.000000	64.880752 
4089.000000	64.932942 
4088.000000	64.984726 
4087.000000	65.033721 
4086.000000	65.078067 
4085.000000	65.116143 
4084.000000	65.146303 
4083.000000	65.167450 
4082.000000	65.178537 
4081.000000	65.178966 
4080.000000	65.168452 
4079.000000	65.148377 
4078.000000	65.120410 
4077.000000	65.087294 
4076.000000	65.051603 
4075.000000	65.016174 
4074.000000	64.983129 
4073.000000	64.953970 
4072.000000	64.929032 
4071.000000	64.907813 
4070.000000	64.889025 
4069.000000	64.871263 
4068.000000	64.853453 
4067.000000	64.834976 
4066.000000	64.816641 
4065.000000	64.800524 
4064.000000	64.789628 
4063.000000	64.787054 
4062.000000	64.794993 
4061.000000	64.813685 
4060.000000	64.840936 
4059.000000	64.872527 
4058.000000	64.903044 
4057.000000	64.927387 
4056.000000	64.942026 
4055.000000	64.945888 
4054.000000	64.940714 
4053.000000	64.930534 
4052.000000	64.920616 
4051.000000	64.915800 
4050.000000	64.919281 
4049.000000	64.931607 
4048.000000	64.950776 
4047.000000	64.972543 
4046.000000	64.991545 
4045.000000	65.002942 
4044.000000	65.004038 
4043.000000	64.994454 
4042.000000	64.976406 
4041.000000	64.954161 
4040.000000	64.932703 
4039.000000	64.916801 
4038.000000	64.909625 
4037.000000	64.912223 
4036.000000	64.923429 
4035.000000	64.940428 
4034.000000	64.959621 
4033.000000	64.977526 
4032.000000	64.991879 
4031.000000	65.002059 
4030.000000	65.009260 
4029.000000	65.015625 
4028.000000	65.023565 
4027.000000	65.034651 
4026.000000	65.049099 
4025.000000	65.065503 
4024.000000	65.081405 
4023.000000	65.094208 
4022.000000	65.101766 
4021.000000	65.103650 
4020.000000	65.100932 
4019.000000	65.095949 
4018.000000	65.091395 
4017.000000	65.089774 
4016.000000	65.092325 
4015.000000	65.098834 
4014.000000	65.107464 
4013.000000	65.115571 
4012.000000	65.120387 
4011.000000	65.119743 
4010.000000	65.112900 
4009.000000	65.100550 
4008.000000	65.084266 
4007.000000	65.066123 
4006.000000	65.048193 
4005.000000	65.031981 
4004.000000	65.018296 
4003.000000	65.007233 
4002.000000	64.998531 
4001.000000	64.991831 
4000.000000	64.987182 
3999.000000	64.985084 
3998.000000	64.985871 
3997.000000	64.990353 
3996.000000	64.999222 
3995.000000	65.013027 
3994.000000	65.031909 
3993.000000	65.055346 
3992.000000	65.082311 
3991.000000	65.111041 
3990.000000	65.139174 
3989.000000	65.164160 
3988.000000	65.183520 
3987.000000	65.195322 
3986.000000	65.198564 
3985.000000	65.193843 
3984.000000	65.183496 
3983.000000	65.171241 
3982.000000	65.161561 
3981.000000	65.159153 
3980.000000	65.167689 
3979.000000	65.188980 
3978.000000	65.222191 
3977.000000	65.263724 
3976.000000	65.307545 
3975.000000	65.346717 
3974.000000	65.374302 
3973.000000	65.385055 
3972.000000	65.376138 
3971.000000	65.348076 
3970.000000	65.304565 
3969.000000	65.251660 
3968.000000	65.196657 
3967.000000	65.146827 
3966.000000	65.107822 
3965.000000	65.083241 
3964.000000	65.073490 
3963.000000	65.076613 
3962.000000	65.087985 
3961.000000	65.101957 
3960.000000	65.112137 
3959.000000	65.112996 
3958.000000	65.100431 
3957.000000	65.072774 
3956.000000	65.030980 
3955.000000	64.978599 
3954.000000	64.921712 
3953.000000	64.867854 
3952.000000	64.824891 
3951.000000	64.799404 
3950.000000	64.795589 
3949.000000	64.813995 
3948.000000	64.851450 
3947.000000	64.901876 
3946.000000	64.957332 
3945.000000	65.010023 
3944.000000	65.053415 
3943.000000	65.083575 
3942.000000	65.099549 
3941.000000	65.102958 
3940.000000	65.097284 
3939.000000	65.086436 
3938.000000	65.073752 
3937.000000	65.061235 
3936.000000	65.049815 
3935.000000	65.039062 
3934.000000	65.028166 
3933.000000	65.016245 
3932.000000	65.003371 
3931.000000	64.990329 
3930.000000	64.978599 
3929.000000	64.969873 
3928.000000	64.965677 
3927.000000	64.966988 
3926.000000	64.973998 
3925.000000	64.986371 
3924.000000	65.003037 
3923.000000	65.022063 
3922.000000	65.041041 
3921.000000	65.057325 
3920.000000	65.068888 
3919.000000	65.074443 
3918.000000	65.074038 
3917.000000	65.068984 
3916.000000	65.061640 
3915.000000	65.055274 
3914.000000	65.053081 
3913.000000	65.057182 
3912.000000	65.068125 
3911.000000	65.085053 
3910.000000	65.105319 
3909.000000	65.125298 
3908.000000	65.141010 
3907.000000	65.149021 
3906.000000	65.147256 
3905.000000	65.135550 
3904.000000	65.115690 
3903.000000	65.091204 
3902.000000	65.066838 
3901.000000	65.047693 
3900.000000	65.038442 
3899.000000	65.042662 
3898.000000	65.062189 
3897.000000	65.096592 
3896.000000	65.143275 
3895.000000	65.197443 
3894.000000	65.252995 
3893.000000	65.302944 
3892.000000	65.340685 
3891.000000	65.360903 
3890.000000	65.360522 
3889.000000	65.339350 
3888.000000	65.300202 
3887.000000	65.248537 
3886.000000	65.191769 
3885.000000	65.137434 
3884.000000	65.092325 
3883.000000	65.060973 
3882.000000	65.045690 
3881.000000	65.045762 
3880.000000	65.058255 
3879.000000	65.078878 
3878.000000	65.103054 
3877.000000	65.126657 
3876.000000	65.146899 
3875.000000	65.161991 
3874.000000	65.171313 
3873.000000	65.175080 
3872.000000	65.174174 
3871.000000	65.169501 
3870.000000	65.162134 
3869.000000	65.153121 
3868.000000	65.143442 
3867.000000	65.134239 
3866.000000	65.126276 
3865.000000	65.120315 
3864.000000	65.116715 
3863.000000	65.115022 
3862.000000	65.114808 
3861.000000	65.115690 
3860.000000	65.117979 
3859.000000	65.122222 
3858.000000	65.130066 
3857.000000	65.143704 
3856.000000	65.165352 
3855.000000	65.196514 
3854.000000	65.236902 
3853.000000	65.284228 
3852.000000	65.334010 
3851.000000	65.380430 
3850.000000	65.417051 
3849.000000	65.438389 
3848.000000	65.440988 
3847.000000	65.424251 
3846.000000	65.390706 
3845.000000	65.345239 
3844.000000	65.294194 
3843.000000	65.243768 
3842.000000	65.199398 
3841.000000	65.164351 
3840.000000	65.139865 
3839.000000	65.125012 
3838.000000	65.117406 
3837.000000	65.114068 
3836.000000	65.112042 
3835.000000	65.109205 
3834.000000	65.104269 
3833.000000	65.096950 
3832.000000	65.087366 
3831.000000	65.076184 
3830.000000	65.063834 
3829.000000	65.050673 
3828.000000	65.036916 
3827.000000	65.022850 
3826.000000	65.009188 
3825.000000	64.996910 
3824.000000	64.987063 
3823.000000	64.980626 
3822.000000	64.978122 
3821.000000	64.979124 
3820.000000	64.982271 
3819.000000	64.985537 
3818.000000	64.986753 
3817.000000	64.984059 
3816.000000	64.976501 
3815.000000	64.964175 
3814.000000	64.948368 
3813.000000	64.931440 
3812.000000	64.916419 
3811.000000	64.905691 
3810.000000	64.901161 
3809.000000	64.903831 
3808.000000	64.913630 
3807.000000	64.929747 
3806.000000	64.950442 
3805.000000	64.973735 
3804.000000	64.997076 
3803.000000	65.017867 
3802.000000	65.033292 
3801.000000	65.040731 
3800.000000	65.038204 
3799.000000	65.024828 
3798.000000	65.001225 
3797.000000	64.969611 
3796.000000	64.933538 
3795.000000	64.897322 
3794.000000	64.865398 
3793.000000	64.841771 
3792.000000	64.829492 
3791.000000	64.830493 
3790.000000	64.845490 
3789.000000	64.873909 
3788.000000	64.914345 
3787.000000	64.964509 
3786.000000	65.021467 
3785.000000	65.081477 
3784.000000	65.140318 
3783.000000	65.193414 
3782.000000	65.236473 
3781.000000	65.265822 
3780.000000	65.279436 
3779.000000	65.276861 
3778.000000	65.260004 
3777.000000	65.232086 
3776.000000	65.197467 
3775.000000	65.160441 
3774.000000	65.124845 
3773.000000	65.093469 
3772.000000	65.068125 
3771.000000	65.049457 
3770.000000	65.037226 
3769.000000	65.030407 
3768.000000	65.027618 
3767.000000	65.026903 
3766.000000	65.026187 
3765.000000	65.023398 
3764.000000	65.016984 
3763.000000	65.006232 
3762.000000	64.991545 
3761.000000	64.974427 
3760.000000	64.957237 
3759.000000	64.942693 
3758.000000	64.933419 
3757.000000	64.931392 
3756.000000	64.937376 
3755.000000	64.950513 
3754.000000	64.968824 
3753.000000	64.989686 
3752.000000	65.010285 
3751.000000	65.028166 
3750.000000	65.041446 
3749.000000	65.049338 
3748.000000	65.051484 
3747.000000	65.048193 
3746.000000	65.039849 
3745.000000	65.026903 
3744.000000	65.010070 
3743.000000	64.990544 
3742.000000	64.969754 
3741.000000	64.949607 
3740.000000	64.932346 
3739.000000	64.920330 
3738.000000	64.915466 
3737.000000	64.918780 
3736.000000	64.930129 
3735.000000	64.948129 
3734.000000	64.970374 
3733.000000	64.993810 
3732.000000	65.015435 
3731.000000	65.032863 
3730.000000	65.044474 
3729.000000	65.050005 
3728.000000	65.050053 
3727.000000	65.045976 
3726.000000	65.039253 
3725.000000	65.031409 
3724.000000	65.023446 
3723.000000	65.016102 
3722.000000	65.009832 
3721.000000	65.004825 
3720.000000	65.001511 
3719.000000	65.000224 
3718.000000	65.001273 
3717.000000	65.004849 
3716.000000	65.010857 
3715.000000	65.018773 
3714.000000	65.027832 
3713.000000	65.037131 
3712.000000	65.045881 
3711.000000	65.053629 
3710.000000	65.060138 
3709.000000	65.065693 
3708.000000	65.070629 
3707.000000	65.074896 
3706.000000	65.077996 
3705.000000	65.079021 
3704.000000	65.076756 
3703.000000	65.070128 
3702.000000	65.058445 
3701.000000	65.041899 
3700.000000	65.021610 
3699.000000	64.999437 
3698.000000	64.977931 
3697.000000	64.959335 
3696.000000	64.945793 
3695.000000	64.938712 
3694.000000	64.938664 
3693.000000	64.945411 
3692.000000	64.958000 
3691.000000	64.974856 
3690.000000	64.994049 
3689.000000	65.013599 
3688.000000	65.031647 
3687.000000	65.046834 
3686.000000	65.058302 
3685.000000	65.066075 
3684.000000	65.070915 
3683.000000	65.074372 
3682.000000	65.078425 
3681.000000	65.084838 
3680.000000	65.094852 
3679.000000	65.108609 
3678.000000	65.125179 
3677.000000	65.142583 
3676.000000	65.158462 
3675.000000	65.170407 
3674.000000	65.176868 
3673.000000	65.177297 
3672.000000	65.172028 
3671.000000	65.162467 
3670.000000	65.150475 
3669.000000	65.138149 
3668.000000	65.127205 
3667.000000	65.118908 
3666.000000	65.114045 
3665.000000	65.112590 
3664.000000	65.113854 
3663.000000	65.116572 
3662.000000	65.119266 
3661.000000	65.120506 
3660.000000	65.119266 
3659.000000	65.114951 
3658.000000	65.107369 
3657.000000	65.097022 
3656.000000	65.084886 
3655.000000	65.072083 
3654.000000	65.059733 
3653.000000	65.048837 
3652.000000	65.040111 
3651.000000	65.033793 
3650.000000	65.029954 
3649.000000	65.028452 
3648.000000	65.029311 
3647.000000	65.032410 
3646.000000	65.038061 
3645.000000	65.046596 
3644.000000	65.058708 
3643.000000	65.074634 
3642.000000	65.094685 
3641.000000	65.118885 
3640.000000	65.146660 
3639.000000	65.177083 
3638.000000	65.208077 
3637.000000	65.236639 
3636.000000	65.259361 
3635.000000	65.272855 
3634.000000	65.274524 
3633.000000	65.263080 
3632.000000	65.239262 
3631.000000	65.205764 
3630.000000	65.166735 
3629.000000	65.126848 
3628.000000	65.090489 
3627.000000	65.060853 
3626.000000	65.039467 
3625.000000	65.025901 
3624.000000	65.018463 
3623.000000	65.014505 
3622.000000	65.011334 
3621.000000	65.006804 
3620.000000	64.999508 
3619.000000	64.988994 
3618.000000	64.975285 
3617.000000	64.959168 
3616.000000	64.941120 
3615.000000	64.922380 
3614.000000	64.904427 
3613.000000	64.889383 
3612.000000	64.879679 
3611.000000	64.877843 
3610.000000	64.885830 
3609.000000	64.904451 
3608.000000	64.932870 
3607.000000	64.968657 
3606.000000	65.008044 
3605.000000	65.046668 
3604.000000	65.080261 
3603.000000	65.105462 
3602.000000	65.120148 
3601.000000	65.123939 
3600.000000	65.117883 
3599.000000	65.103840 
3598.000000	65.083813 
3597.000000	65.060114 
3596.000000	65.034627 
3595.000000	65.008950 
3594.000000	64.984273 
3593.000000	64.961981 
3592.000000	64.943265 
3591.000000	64.929127 
3590.000000	64.920091 
3589.000000	64.916014 
3588.000000	64.916181 
3587.000000	64.919185 
3586.000000	64.923429 
3585.000000	64.927291 
3584.000000	64.929628 
3583.000000	64.929866 
3582.000000	64.928245 
3581.000000	64.925742 
3580.000000	64.923739 
3579.000000	64.923954 
3578.000000	64.928007 
3577.000000	64.937043 
3576.000000	64.951968 
3575.000000	64.973258 
3574.000000	65.000772 
3573.000000	65.033602 
3572.000000	65.070557 
3571.000000	65.109705 
3570.000000	65.148758 
3569.000000	65.185213 
3568.000000	65.216732 
3567.000000	65.241622 
3566.000000	65.258979 
3565.000000	65.268635 
3564.000000	65.271162 
3563.000000	65.267395 
3562.000000	65.258741 
3561.000000	65.246510 
3560.000000	65.232205 
3559.000000	65.217256 
3558.000000	65.203261 
3557.000000	65.191721 
3556.000000	65.184068 
3555.000000	65.181255 
3554.000000	65.183639 
3553.000000	65.190482 
3552.000000	65.200018 
3551.000000	65.209722 
3550.000000	65.216708 
3549.000000	65.218377 
3548.000000	65.213274 
3547.000000	65.201330 
3546.000000	65.184116 
3545.000000	65.164399 
3544.000000	65.145564 
3543.000000	65.130710 
3542.000000	65.121936 
3541.000000	65.120124 
3540.000000	65.124630 
3539.000000	65.133643 
3538.000000	65.144419 
3537.000000	65.154218 
3536.000000	65.160369 
3535.000000	65.161108 
3534.000000	65.155673 
3533.000000	65.144181 
3532.000000	65.127849 
3531.000000	65.108561 
3530.000000	65.088748 
3529.000000	65.070843 
3528.000000	65.057086 
3527.000000	65.049338 
3526.000000	65.048575 
3525.000000	65.054750 
3524.000000	65.066742 
3523.000000	65.082454 
3522.000000	65.099239 
3521.000000	65.114426 
3520.000000	65.125536 
3519.000000	65.130949 
3518.000000	65.130019 
3517.000000	65.123271 
3516.000000	65.112018 
3515.000000	65.098285 
3514.000000	65.084171 
3513.000000	65.071773 
3512.000000	65.062665 
3511.000000	65.058016 
3510.000000	65.058231 
3509.000000	65.063238 
3508.000000	65.072536 
3507.000000	65.085268 
3506.000000	65.100526 
3505.000000	65.117263 
3504.000000	65.134406 
3503.000000	65.151095 
3502.000000	65.166497 
3501.000000	65.180063 
3500.000000	65.191340 
3499.000000	65.199804 
3498.000000	65.204787 
3497.000000	65.205645 
3496.000000	65.201687 
3495.000000	65.192294 
3494.000000	65.177226 
3493.000000	65.156888 
3492.000000	65.132641 
3491.000000	65.106749 
3490.000000	65.082168 
3489.000000	65.062189 
3488.000000	65.049648 
3487.000000	65.046405 
3486.000000	65.052819 
3485.000000	65.067648 
3484.000000	65.088224 
3483.000000	65.110969 
3482.000000	65.132236 
3481.000000	65.149044 
3480.000000	65.159893 
3479.000000	65.164756 
3478.000000	65.165066 
3477.000000	65.163183 
3476.000000	65.161514 
3475.000000	65.161895 
3474.000000	65.165042 
3473.000000	65.170454 
3472.000000	65.176820 
3471.000000	65.182709 
3470.000000	65.187025 
3469.000000	65.189337 
3468.000000	65.190219 
3467.000000	65.190935 
3466.000000	65.192985 
3465.000000	65.197539 
3464.000000	65.205144 
3463.000000	65.215611 
3462.000000	65.228056 
3461.000000	65.241193 
3460.000000	65.253829 
3459.000000	65.265011 
3458.000000	65.274333 
3457.000000	65.281558 
3456.000000	65.286612 
3455.000000	65.289378 
3454.000000	65.289378 
3453.000000	65.286254 
3452.000000	65.279817 
3451.000000	65.270185 
3450.000000	65.258169 
3449.000000	65.244746 
3448.000000	65.231108 
3447.000000	65.218019 
3446.000000	65.205788 
3445.000000	65.193986 
3444.000000	65.181779 
3443.000000	65.168142 
3442.000000	65.152502 
3441.000000	65.134906 
3440.000000	65.116238 
3439.000000	65.097832 
3438.000000	65.081167 
3437.000000	65.067219 
3436.000000	65.056180 
3435.000000	65.046787 
3434.000000	65.037345 
3433.000000	65.025520 
3432.000000	65.009832 
3431.000000	64.989781 
3430.000000	64.966535 
3429.000000	64.942646 
3428.000000	64.921927 
3427.000000	64.908075 
3426.000000	64.904403 
3425.000000	64.912748 
3424.000000	64.932894 
3423.000000	64.962863 
3422.000000	64.998865 
3421.000000	65.036320 
3420.000000	65.070629 
3419.000000	65.098047 
3418.000000	65.116429 
3417.000000	65.125560 
3416.000000	65.127015 
3415.000000	65.123653 
3414.000000	65.118718 
3413.000000	65.114831 
3412.000000	65.113711 
3411.000000	65.115427 
3410.000000	65.118598 
3409.000000	65.120768 
3408.000000	65.119361 
3407.000000	65.112233 
3406.000000	65.098452 
3405.000000	65.078425 
3404.000000	65.054178 
3403.000000	65.028572 
3402.000000	65.004420 
3401.000000	64.984059 
3400.000000	64.968943 
3399.000000	64.959311 
3398.000000	64.954423 
3397.000000	64.953088 
3396.000000	64.954209 
3395.000000	64.956951 
3394.000000	64.960980 
3393.000000	64.966344 
3392.000000	64.973092 
3391.000000	64.981031 
3390.000000	64.989519 
3389.000000	64.997267 
3388.000000	65.002512 
3387.000000	65.003490 
3386.000000	64.999032 
3385.000000	64.988470 
3384.000000	64.972352 
3383.000000	64.952087 
3382.000000	64.930248 
3381.000000	64.909768 
3380.000000	64.894008 
3379.000000	64.886164 
3378.000000	64.888668 
3377.000000	64.903211 
3376.000000	64.929771 
3375.000000	64.966869 
3374.000000	65.011382 
3373.000000	65.058827 
3372.000000	65.104198 
3371.000000	65.142393 
3370.000000	65.169596 
3369.000000	65.183734 
3368.000000	65.184974 
3367.000000	65.175461 
3366.000000	65.158724 
3365.000000	65.139102 
3364.000000	65.120196 
3363.000000	65.104174 
3362.000000	65.091443 
3361.000000	65.080833 
3360.000000	65.069961 
3359.000000	65.056490 
3358.000000	65.038967 
3357.000000	65.017342 
3356.000000	64.993071 
3355.000000	64.968967 
3354.000000	64.947986 
3353.000000	64.932918 
3352.000000	64.925408 
3351.000000	64.925742 
3350.000000	64.932870 
3349.000000	64.944958 
3348.000000	64.959645 
3347.000000	64.974808 
3346.000000	64.988780 
3345.000000	65.000653 
3344.000000	65.009999 
3343.000000	65.016794 
3342.000000	65.020871 
3341.000000	65.022397 
3340.000000	65.021634 
3339.000000	65.019273 
3338.000000	65.016293 
3337.000000	65.014052 
3336.000000	65.014100 
3335.000000	65.017652 
3334.000000	65.025329 
3333.000000	65.036678 
3332.000000	65.050196 
3331.000000	65.063714 
3330.000000	65.074634 
3329.000000	65.080618 
3328.000000	65.080237 
3327.000000	65.073227 
3326.000000	65.060925 
3325.000000	65.045714 
3324.000000	65.030646 
3323.000000	65.018773 
3322.000000	65.012454 
3321.000000	65.012645 
3320.000000	65.018916 
3319.000000	65.029644 
3318.000000	65.042328 
3317.000000	65.054225 
3316.000000	65.062952 
3315.000000	65.066957 
3314.000000	65.065836 
3313.000000	65.059924 
3312.000000	65.050220 
3311.000000	65.038084 
3310.000000	65.024709 
3309.000000	65.011096 
3308.000000	64.997887 
3307.000000	64.985537 
3306.000000	64.974761 
3305.000000	64.966464 
3304.000000	64.961647 
3303.000000	64.961338 
3302.000000	64.966058 
3301.000000	64.975762 
3300.000000	64.989042 
3299.000000	65.003657 
3298.000000	65.017008 
3297.000000	65.026736 
3296.000000	65.031051 
3295.000000	65.029811 
3294.000000	65.024089 
3293.000000	65.016603 
3292.000000	65.010881 
3291.000000	65.010690 
3290.000000	65.019035 
3289.000000	65.037369 
3288.000000	65.065383 
3287.000000	65.100717 
3286.000000	65.139412 
3285.000000	65.176534 
3284.000000	65.207028 
3283.000000	65.226674 
3282.000000	65.232706 
3281.000000	65.224432 
3280.000000	65.202975 
3279.000000	65.171146 
3278.000000	65.132784 
3277.000000	65.091872 
3276.000000	65.051746 
3275.000000	65.014743 
3274.000000	64.981627 
3273.000000	64.952135 
3272.000000	64.925503 
3271.000000	64.901137 
3270.000000	64.879441 
3269.000000	64.861655 
3268.000000	64.850091 
3267.000000	64.847135 
3266.000000	64.854836 
3265.000000	64.873623 
3264.000000	64.902424 
3263.000000	64.938282 
3262.000000	64.977049 
3261.000000	65.014076 
3260.000000	65.045166 
3259.000000	65.067219 
3258.000000	65.078783 
3257.000000	65.080142 
3256.000000	65.072822 
3255.000000	65.058946 
3254.000000	65.040802 
3253.000000	65.020179 
3252.000000	64.998459 
3251.000000	64.976596 
3250.000000	64.955472 
3249.000000	64.935922 
3248.000000	64.918804 
3247.000000	64.905214 
3246.000000	64.895939 
3245.000000	64.891624 
3244.000000	64.892292 
3243.000000	64.897489 
3242.000000	64.906120 
3241.000000	64.917063 
3240.000000	64.928913 
3239.000000	64.940595 
3238.000000	64.951229 
3237.000000	64.960765 
3236.000000	64.969658 
3235.000000	64.979004 
3234.000000	64.990186 
3233.000000	65.004658 
3232.000000	65.023517 
3231.000000	65.046906 
3230.000000	65.074014 
3229.000000	65.102744 
3228.000000	65.130138 
3227.000000	65.152573 
3226.000000	65.166521 
3225.000000	65.169143 
3224.000000	65.159273 
3223.000000	65.137600 
3222.000000	65.106701 
3221.000000	65.070557 
3220.000000	65.033984 
3219.000000	65.001487 
3218.000000	64.976668 
3217.000000	64.961433 
3216.000000	64.956092 
3215.000000	64.959192 
3214.000000	64.968490 
3213.000000	64.981126 
3212.000000	64.994859 
3211.000000	65.008020 
3210.000000	65.020179 
3209.000000	65.031695 
3208.000000	65.043425 
3207.000000	65.056133 
3206.000000	65.070176 
3205.000000	65.085029 
3204.000000	65.099453 
3203.000000	65.111660 
3202.000000	65.119791 
3201.000000	65.122532 
3200.000000	65.119409 
3199.000000	65.110969 
3198.000000	65.098810 
3197.000000	65.085196 
3196.000000	65.072464 
3195.000000	65.062308 
3194.000000	65.055537 
3193.000000	65.051770 
3192.000000	65.049695 
3191.000000	65.047621 
3190.000000	65.044093 
3189.000000	65.038418 
3188.000000	65.031218 
3187.000000	65.024113 
3186.000000	65.019083 
3185.000000	65.018153 
3184.000000	65.022540 
3183.000000	65.032362 
3182.000000	65.046525 
3181.000000	65.062952 
3180.000000	65.079092 
3179.000000	65.092515 
3178.000000	65.101575 
3177.000000	65.105628 
3176.000000	65.104913 
3175.000000	65.100598 
3174.000000	65.094256 
3173.000000	65.087532 
3172.000000	65.081620 
3171.000000	65.077161 
3170.000000	65.074181 
3169.000000	65.072059 
3168.000000	65.069961 
3167.000000	65.067076 
3166.000000	65.062642 
3165.000000	65.056228 
3164.000000	65.048003 
3163.000000	65.038585 
3162.000000	65.028929 
3161.000000	65.020346 
3160.000000	65.013933 
3159.000000	65.010476 
3158.000000	65.010023 
3157.000000	65.012097 
3156.000000	65.015602 
3155.000000	65.018916 
3154.000000	65.020298 
3153.000000	65.018415 
3152.000000	65.012407 
3151.000000	65.002274 
3150.000000	64.988756 
3149.000000	64.973092 
3148.000000	64.957022 
3147.000000	64.942359 
3146.000000	64.930582 
3145.000000	64.922595 
3144.000000	64.918828 
3143.000000	64.918994 
3142.000000	64.922308 
3141.000000	64.927697 
3140.000000	64.933776 
3139.000000	64.939451 
3138.000000	64.943814 
3137.000000	64.946842 
3136.000000	64.949035 
3135.000000	64.952135 
3134.000000	64.958286 
3133.000000	64.969897 
3132.000000	64.989066 
3131.000000	65.016579 
3130.000000	65.052008 
3129.000000	65.092992 
3128.000000	65.135717 
3127.000000	65.175294 
3126.000000	65.206861 
3125.000000	65.226316 
3124.000000	65.231275 
3123.000000	65.221261 
3122.000000	65.198040 
3121.000000	65.164828 
3120.000000	65.125632 
3119.000000	65.084457 
3118.000000	65.044641 
3117.000000	65.008378 
3116.000000	64.976882 
3115.000000	64.950513 
3114.000000	64.929366 
3113.000000	64.913392 
3112.000000	64.902877 
3111.000000	64.898014 
3110.000000	64.899182 
3109.000000	64.906191 
3108.000000	64.918446 
3107.000000	64.934492 
3106.000000	64.952468 
3105.000000	64.970421 
3104.000000	64.986610 
3103.000000	64.999938 
3102.000000	65.009784 
3101.000000	65.016245 
3100.000000	65.019798 
3099.000000	65.020871 
3098.000000	65.019774 
3097.000000	65.016627 
3096.000000	65.011262 
3095.000000	65.003585 
3094.000000	64.993453 
3093.000000	64.981269 
3092.000000	64.967846 
3091.000000	64.954614 
3090.000000	64.943027 
3089.000000	64.934611 
3088.000000	64.930677 
3087.000000	64.932107 
3086.000000	64.938926 
3085.000000	64.950609 
3084.000000	64.965963 
3083.000000	64.983510 
3082.000000	65.001487 
3081.000000	65.018296 
3080.000000	65.032553 
3079.000000	65.043330 
3078.000000	65.050363 
3077.000000	65.053677 
3076.000000	65.053772 
3075.000000	65.051031 
3074.000000	65.045928 
3073.000000	65.038609 
3072.000000	65.029001 
3071.000000	65.017008 
3070.000000	65.002894 
3069.000000	64.987373 
3068.000000	64.971756 
3067.000000	64.957976 
3066.000000	64.948201 
3065.000000	64.944314 
3064.000000	64.947581 
3063.000000	64.958143 
3062.000000	64.974808 
3061.000000	64.995312 
3060.000000	65.016627 
3059.000000	65.035748 
3058.000000	65.050172 
3057.000000	65.058350 
3056.000000	65.060043 
3055.000000	65.055918 
3054.000000	65.047383 
3053.000000	65.035939 
3052.000000	65.022921 
3051.000000	65.009427 
3050.000000	64.995956 
3049.000000	64.982914 
3048.000000	64.970541 
3047.000000	64.959287 
3046.000000	64.949679 
3045.000000	64.942693 
3044.000000	64.938998 
3043.000000	64.939069 
3042.000000	64.942812 
3041.000000	64.949631 
3040.000000	64.958262 
3039.000000	64.967060 
3038.000000	64.974188 
3037.000000	64.978146 
3036.000000	64.977884 
3035.000000	64.972996 
3034.000000	64.963865 
3033.000000	64.951467 
3032.000000	64.937448 
3031.000000	64.923834 
3030.000000	64.912676 
3029.000000	64.905762 
3028.000000	64.904379 
3027.000000	64.909219 
3026.000000	64.919972 
3025.000000	64.935755 
3024.000000	64.955067 
3023.000000	64.976239 
3022.000000	64.997458 
3021.000000	65.017247 
3020.000000	65.034580 
3019.000000	65.048813 
3018.000000	65.059900 
3017.000000	65.067982 
3016.000000	65.073442 
3015.000000	65.076613 
3014.000000	65.077972 
3013.000000	65.077805 
3012.000000	65.076255 
3011.000000	65.073418 
3010.000000	65.069293 
3009.000000	65.063810 
3008.000000	65.056657 
3007.000000	65.047430 
3006.000000	65.035724 
3005.000000	65.021419 
3004.000000	65.004754 
3003.000000	64.986324 
3002.000000	64.967179 
3001.000000	64.948725 
3000.000000	64.932417 
2999.000000	64.919495 
2998.000000	64.910578 
2997.000000	64.905667 
2996.000000	64.903998 
2995.000000	64.904284 
2994.000000	64.905047 
2993.000000	64.905047 
2992.000000	64.903593 
2991.000000	64.900565 
2990.000000	64.896774 
2989.000000	64.893412 
2988.000000	64.892125 
2987.000000	64.894199 
2986.000000	64.900541 
2985.000000	64.911389 
2984.000000	64.926004 
2983.000000	64.942812 
2982.000000	64.959454 
2981.000000	64.973068 
2980.000000	64.980792 
2979.000000	64.980459 
2978.000000	64.970588 
2977.000000	64.951252 
2976.000000	64.924025 
2975.000000	64.891982 
2974.000000	64.859104 
2973.000000	64.829444 
2972.000000	64.806771 
2971.000000	64.793109 
2970.000000	64.788675 
2969.000000	64.791703 
2968.000000	64.798808 
2967.000000	64.806222 
2966.000000	64.810538 
2965.000000	64.809799 
2964.000000	64.803814 
2963.000000	64.794230 
2962.000000	64.783549 
2961.000000	64.774727 
2960.000000	64.769744 
2959.000000	64.769363 
2958.000000	64.772963 
2957.000000	64.778804 
2956.000000	64.784860 
2955.000000	64.789485 
2954.000000	64.791989 
2953.000000	64.792847 
2952.000000	64.793229 
2951.000000	64.794540 
2950.000000	64.797711 
2949.000000	64.802622 
2948.000000	64.808058 
2947.000000	64.812326 
2946.000000	64.813566 
2945.000000	64.810895 
2944.000000	64.804410 
2943.000000	64.795517 
2942.000000	64.786314 
2941.000000	64.779186 
2940.000000	64.776229 
2939.000000	64.778256 
2938.000000	64.785051 
2937.000000	64.795255 
2936.000000	64.806842 
2935.000000	64.817690 
2934.000000	64.826226 
2933.000000	64.831709 
2932.000000	64.834260 
2931.000000	64.834785 
2930.000000	64.834547 
2929.000000	64.834713 
2928.000000	64.836049 
2927.000000	64.838647 
2926.000000	64.842271 
2925.000000	64.846229 
2924.000000	64.849781 
2923.000000	64.852237 
2922.000000	64.853215 
2921.000000	64.852929 
2920.000000	64.851784 
2919.000000	64.850449 
2918.000000	64.849758 
2917.000000	64.850306 
2916.000000	64.852428 
2915.000000	64.856028 
2914.000000	64.860606 
2913.000000	64.865255 
2912.000000	64.869189 
2911.000000	64.871644 
2910.000000	64.872145 
2909.000000	64.870309 
2908.000000	64.866065 
2907.000000	64.859485 
2906.000000	64.850783 
2905.000000	64.840292 
2904.000000	64.828538 
2903.000000	64.816260 
2902.000000	64.804506 
2901.000000	64.794397 
2900.000000	64.787292 
2899.000000	64.784479 
2898.000000	64.787054 
2897.000000	64.795708 
2896.000000	64.810633 
2895.000000	64.831376 
2894.000000	64.856791 
2893.000000	64.885139 
2892.000000	64.913988 
2891.000000	64.940619 
2890.000000	64.962387 
2889.000000	64.976763 
2888.000000	64.981937 
2887.000000	64.977097 
2886.000000	64.962530 
2885.000000	64.939880 
2884.000000	64.911770 
2883.000000	64.881706 
2882.000000	64.853262 
2881.000000	64.829564 
2880.000000	64.812779 
2879.000000	64.803981 
2878.000000	64.802956 
2877.000000	64.808678 
2876.000000	64.819431 
2875.000000	64.833426 
2874.000000	64.848899 
2873.000000	64.864706 
2872.000000	64.880061 
2871.000000	64.894628 
2870.000000	64.908337 
2869.000000	64.921379 
2868.000000	64.933943 
2867.000000	64.946126 
2866.000000	64.958000 
2865.000000	64.969563 
2864.000000	64.980745 
2863.000000	64.991450 
2862.000000	65.001487 
2861.000000	65.010905 
2860.000000	65.019702 
2859.000000	65.028190 
2858.000000	65.036773 
2857.000000	65.045952 
2856.000000	65.056300 
2855.000000	65.067815 
2854.000000	65.080022 
2853.000000	65.091586 
2852.000000	65.100646 
2851.000000	65.104985 
2850.000000	65.102481 
2849.000000	65.091824 
2848.000000	65.072894 
2847.000000	65.047001 
2846.000000	65.016746 
2845.000000	64.985466 
2844.000000	64.956688 
2843.000000	64.933228 
2842.000000	64.916896 
2841.000000	64.907908 
2840.000000	64.905166 
2839.000000	64.906620 
2838.000000	64.910101 
2837.000000	64.913630 
2836.000000	64.916396 
2835.000000	64.918327 
2834.000000	64.920353 
2833.000000	64.923596 
2832.000000	64.929056 
2831.000000	64.936923 
2830.000000	64.946627 
2829.000000	64.956617 
2828.000000	64.964938 
2827.000000	64.969873 
2826.000000	64.970302 
2825.000000	64.966011 
2824.000000	64.957666 
2823.000000	64.946413 
2822.000000	64.933633 
2821.000000	64.920592 
2820.000000	64.908051 
2819.000000	64.896297 
2818.000000	64.885425 
2817.000000	64.875459 
2816.000000	64.866614 
2815.000000	64.859461 
2814.000000	64.854812 
2813.000000	64.853596 
2812.000000	64.856386 
2811.000000	64.863228 
2810.000000	64.873790 
2809.000000	64.886975 
2808.000000	64.901494 
2807.000000	64.915823 
2806.000000	64.928603 
2805.000000	64.938759 
2804.000000	64.945435 
2803.000000	64.948153 
2802.000000	64.946556 
2801.000000	64.940714 
2800.000000	64.931154 
2799.000000	64.918923 
2798.000000	64.905261 
2797.000000	64.891862 
2796.000000	64.880347 
2795.000000	64.872050 
2794.000000	64.867854 
2793.000000	64.867877 
2792.000000	64.871668 
2791.000000	64.878296 
2790.000000	64.886641 
2789.000000	64.895534 
2788.000000	64.904212 
2787.000000	64.912199 
2786.000000	64.919614 
2785.000000	64.926767 
2784.000000	64.934229 
2783.000000	64.942312 
2782.000000	64.951038 
2781.000000	64.960217 
2780.000000	64.969086 
2779.000000	64.976787 
2778.000000	64.981985 
2777.000000	64.983558 
2776.000000	64.980387 
2775.000000	64.971804 
2774.000000	64.957904 
2773.000000	64.939451 
2772.000000	64.917993 
2771.000000	64.895629 
2770.000000	64.874792 
2769.000000	64.857697 
2768.000000	64.845967 
2767.000000	64.840292 
2766.000000	64.840483 
2765.000000	64.845466 
2764.000000	64.853620 
2763.000000	64.863109 
2762.000000	64.872312 
2761.000000	64.880156 
2760.000000	64.885997 
2759.000000	64.889740 
2758.000000	64.891648 
2757.000000	64.892339 
2756.000000	64.892220 
2755.000000	64.891743 
2754.000000	64.891409 
2753.000000	64.891743 
2752.000000	64.893412 
2751.000000	64.897060 
2750.000000	64.903235 
2749.000000	64.912080 
2748.000000	64.923310 
2747.000000	64.935970 
2746.000000	64.948534 
2745.000000	64.959144 
2744.000000	64.966106 
2743.000000	64.968347 
2742.000000	64.965534 
2741.000000	64.958572 
2740.000000	64.949178 
2739.000000	64.939713 
2738.000000	64.932441 
2737.000000	64.929103 
2736.000000	64.930438 
2735.000000	64.936232 
2734.000000	64.945149 
2733.000000	64.955019 
2732.000000	64.963555 
2731.000000	64.968609 
2730.000000	64.968681 
2729.000000	64.963078 
2728.000000	64.952087 
2727.000000	64.936876 
2726.000000	64.919567 
2725.000000	64.902472 
2724.000000	64.888262 
2723.000000	64.879250 
2722.000000	64.877176 
2721.000000	64.883017 
2720.000000	64.896726 
2719.000000	64.917159 
2718.000000	64.942383 
2717.000000	64.970016 
2716.000000	64.997649 
2715.000000	65.023231 
2714.000000	65.045237 
2713.000000	65.062832 
2712.000000	65.075612 
2711.000000	65.083289 
2710.000000	65.085601 
2709.000000	65.082001 
2708.000000	65.071940 
2707.000000	65.054988 
2706.000000	65.031433 
2705.000000	65.002298 
2704.000000	64.969563 
2703.000000	64.935803 
2702.000000	64.903879 
2701.000000	64.876604 
2700.000000	64.855957 
2699.000000	64.842987 
2698.000000	64.837455 
2697.000000	64.838290 
2696.000000	64.843678 
2695.000000	64.852023 
2694.000000	64.861965 
2693.000000	64.872908 
2692.000000	64.884877 
2691.000000	64.898324 
2690.000000	64.913654 
2689.000000	64.930987 
2688.000000	64.949631 
2687.000000	64.968204 
2686.000000	64.984607 
2685.000000	64.996790 
2684.000000	65.003108 
2683.000000	65.002751 
2682.000000	64.995980 
2681.000000	64.984321 
2680.000000	64.970016 
2679.000000	64.955782 
2678.000000	64.943957 
2677.000000	64.936041 
2676.000000	64.932227 
2675.000000	64.931631 
2674.000000	64.932298 
2673.000000	64.932036 
2672.000000	64.928722 
2671.000000	64.921188 
2670.000000	64.909529 
2669.000000	64.894771 
2668.000000	64.879155 
2667.000000	64.865183 
2666.000000	64.855217 
2665.000000	64.850783 
2664.000000	64.852118 
2663.000000	64.858293 
2662.000000	64.867329 
2661.000000	64.876651 
2660.000000	64.883732 
2659.000000	64.886689 
2658.000000	64.884734 
2657.000000	64.878511 
2656.000000	64.869666 
2655.000000	64.860534 
2654.000000	64.853405 
2653.000000	64.850044 
2652.000000	64.851069 
2651.000000	64.856052 
2650.000000	64.863371 
2649.000000	64.870858 
2648.000000	64.876461 
2647.000000	64.878678 
2646.000000	64.876961 
2645.000000	64.871764 
2644.000000	64.864563 
2643.000000	64.857172 
2642.000000	64.851403 
2641.000000	64.848589 
2640.000000	64.849281 
2639.000000	64.853048 
2638.000000	64.858865 
2637.000000	64.865326 
2636.000000	64.871239 
2635.000000	64.875483 
2634.000000	64.877533 
2633.000000	64.877319 
2632.000000	64.875245 
2631.000000	64.871883 
2630.000000	64.867877 
2629.000000	64.863920 
2628.000000	64.860749 
2627.000000	64.858913 
2626.000000	64.859080 
2625.000000	64.861798 
2624.000000	64.867472 
2623.000000	64.876198 
2622.000000	64.887499 
2621.000000	64.900517 
2620.000000	64.913797 
2619.000000	64.925551 
2618.000000	64.934182 
2617.000000	64.938163 
2616.000000	64.936757 
2615.000000	64.929962 
2614.000000	64.918613 
2613.000000	64.904236 
2612.000000	64.888906 
2611.000000	64.874887 
2610.000000	64.864230 
2609.000000	64.858484 
2608.000000	64.858412 
2607.000000	64.864301 
2606.000000	64.875531 
2605.000000	64.891171 
2604.000000	64.910078 
2603.000000	64.931130 
2602.000000	64.953327 
2601.000000	64.975738 
2600.000000	64.997434 
2599.000000	65.017437 
2598.000000	65.034508 
2597.000000	65.047454 
2596.000000	65.055322 
2595.000000	65.057659 
2594.000000	65.054726 
2593.000000	65.047335 
2592.000000	65.037250 
2591.000000	65.026354 
2590.000000	65.016531 
2589.000000	65.008974 
2588.000000	65.004253 
2587.000000	65.001797 
2586.000000	65.000319 
2585.000000	64.998078 
2584.000000	64.993572 
2583.000000	64.985752 
2582.000000	64.974570 
2581.000000	64.961075 
2580.000000	64.947032 
2579.000000	64.934515 
2578.000000	64.925432 
2577.000000	64.920783 
2576.000000	64.920377 
2575.000000	64.922833 
2574.000000	64.925980 
2573.000000	64.927268 
2572.000000	64.924478 
2571.000000	64.916133 
2570.000000	64.901852 
2569.000000	64.882373 
2568.000000	64.859342 
2567.000000	64.834785 
2566.000000	64.810705 
2565.000000	64.788913 
2564.000000	64.770770 
2563.000000	64.757108 
2562.000000	64.748430 
2561.000000	64.744973 
2560.000000	64.746761 
2559.000000	64.753651 
2558.000000	64.765024 
2557.000000	64.779973 
2556.000000	64.797019 
2555.000000	64.814281 
2554.000000	64.829945 
2553.000000	64.842557 
2552.000000	64.851355 
2551.000000	64.856290 
2550.000000	64.858222 
2549.000000	64.858365 
2548.000000	64.858078 
2547.000000	64.858531 
2546.000000	64.860153 
2545.000000	64.862465 
2544.000000	64.864397 
2543.000000	64.864587 
2542.000000	64.861845 
2541.000000	64.855432 
2540.000000	64.845561 
2539.000000	64.833140 
2538.000000	64.819765 
2537.000000	64.807319 
2536.000000	64.797449 
2535.000000	64.791440 
2534.000000	64.789795 
2533.000000	64.792394 
2532.000000	64.798545 
2531.000000	64.807176 
2530.000000	64.816927 
2529.000000	64.826440 
2528.000000	64.834666 
2527.000000	64.840912 
2526.000000	64.845013 
2525.000000	64.847373 
2524.000000	64.848923 
2523.000000	64.850926 
2522.000000	64.854717 
2521.000000	64.861416 
2520.000000	64.871644 
2519.000000	64.885258 
2518.000000	64.901185 
2517.000000	64.917659 
2516.000000	64.932489 
2515.000000	64.943456 
2514.000000	64.948725 
2513.000000	64.947199 
2512.000000	64.938616 
2511.000000	64.923620 
2510.000000	64.903402 
2509.000000	64.879703 
2508.000000	64.854478 
2507.000000	64.829802 
2506.000000	64.807772 
2505.000000	64.790248 
2504.000000	64.778709 
2503.000000	64.774012 
2502.000000	64.776301 
2501.000000	64.784884 
2500.000000	64.798474 
2499.000000	64.815425 
2498.000000	64.833998 
2497.000000	64.852523 
2496.000000	64.869928 
2495.000000	64.885663 
2494.000000	64.899563 
2493.000000	64.911723 
2492.000000	64.922332 
2491.000000	64.931297 
2490.000000	64.938306 
2489.000000	64.942622 
2488.000000	64.943671 
2487.000000	64.940738 
2486.000000	64.933800 
2485.000000	64.923000 
2484.000000	64.909100 
2483.000000	64.892959 
2482.000000	64.875698 
2481.000000	64.858174 
2480.000000	64.841032 
2479.000000	64.824557 
2478.000000	64.808797 
2477.000000	64.793729 
2476.000000	64.779186 
2475.000000	64.765214 
2474.000000	64.752054 
2473.000000	64.740085 
2472.000000	64.729762 
2471.000000	64.721632 
2470.000000	64.716029 
2469.000000	64.713025 
2468.000000	64.712595 
2467.000000	64.714288 
2466.000000	64.717578 
2465.000000	64.721822 
2464.000000	64.726448 
2463.000000	64.730763 
2462.000000	64.734220 
2461.000000	64.736390 
2460.000000	64.737224 
2459.000000	64.736747 
2458.000000	64.735317 
2457.000000	64.733695 
2456.000000	64.732933 
2455.000000	64.734005 
2454.000000	64.737772 
2453.000000	64.744758 
2452.000000	64.754939 
2451.000000	64.767622 
2450.000000	64.781546 
2449.000000	64.795064 
2448.000000	64.806652 
2447.000000	64.815258 
2446.000000	64.820694 
2445.000000	64.823555 
2444.000000	64.825391 
2443.000000	64.828109 
2442.000000	64.833521 
2441.000000	64.842867 
2440.000000	64.856147 
2439.000000	64.872312 
2438.000000	64.889359 
2437.000000	64.904594 
2436.000000	64.915442 
2435.000000	64.919924 
2434.000000	64.916968 
2433.000000	64.906644 
2432.000000	64.890027 
2431.000000	64.868783 
2430.000000	64.844751 
2429.000000	64.819550 
2428.000000	64.794397 
2427.000000	64.770007 
2426.000000	64.746785 
2425.000000	64.724802 
2424.000000	64.704322 
2423.000000	64.685869 
2422.000000	64.670109 
2421.000000	64.657807 
2420.000000	64.649438 
2419.000000	64.645504 
2418.000000	64.645981 
2417.000000	64.650416 
2416.000000	64.657950 
2415.000000	64.667487 
2414.000000	64.678049 
2413.000000	64.688682 
2412.000000	64.698648 
2411.000000	64.707589 
2410.000000	64.715576 
2409.000000	64.722800 
2408.000000	64.729571 
2407.000000	64.736247 
2406.000000	64.742898 
2405.000000	64.749479 
2404.000000	64.755702 
2403.000000	64.761090 
2402.000000	64.765119 
2401.000000	64.767503 
2400.000000	64.768171 
2399.000000	64.767289 
2398.000000	64.765238 
2397.000000	64.762759 
2396.000000	64.760494 
2395.000000	64.758801 
2394.000000	64.757800 
2393.000000	64.757204 
2392.000000	64.756584 
2391.000000	64.755272 
2390.000000	64.752793 
2389.000000	64.748954 
2388.000000	64.743638 
2387.000000	64.736938 
2386.000000	64.729046 
2385.000000	64.720177 
2384.000000	64.710402 
2383.000000	64.699912 
2382.000000	64.688920 
2381.000000	64.677834 
2380.000000	64.667177 
2379.000000	64.657926 
2378.000000	64.650893 
2377.000000	64.646863 
2376.000000	64.646315 
2375.000000	64.649343 
2374.000000	64.655280 
2373.000000	64.663052 
2372.000000	64.671564 
2371.000000	64.679646 
2370.000000	64.686465 
2369.000000	64.691615 
2368.000000	64.695143 
2367.000000	64.697575 
2366.000000	64.699459 
2365.000000	64.701414 
2364.000000	64.703774 
2363.000000	64.706635 
2362.000000	64.709830 
2361.000000	64.713239 
2360.000000	64.716815 
2359.000000	64.720726 
2358.000000	64.725542 
2357.000000	64.731955 
2356.000000	64.740729 
2355.000000	64.752364 
2354.000000	64.766788 
2353.000000	64.783120 
2352.000000	64.799451 
2351.000000	64.813423 
2350.000000	64.822030 
2349.000000	64.822673 
2348.000000	64.813446 
2347.000000	64.793705 
2346.000000	64.764595 
2345.000000	64.728784 
2344.000000	64.690494 
2343.000000	64.654421 
2342.000000	64.625048 
2341.000000	64.605784 
2340.000000	64.598298 
2339.000000	64.602255 
2338.000000	64.615464 
2337.000000	64.634633 
2336.000000	64.656019 
2335.000000	64.676308 
2334.000000	64.693164 
2333.000000	64.705705 
2332.000000	64.714097 
2331.000000	64.719486 
2330.000000	64.723253 
2329.000000	64.726591 
2328.000000	64.729928 
2327.000000	64.732980 
2326.000000	64.735078 
2325.000000	64.735221 
2324.000000	64.732623 
2323.000000	64.726877 
2322.000000	64.718198 
2321.000000	64.707303 
2320.000000	64.695239 
2319.000000	64.683151 
2318.000000	64.672040 
2317.000000	64.662766 
2316.000000	64.655804 
2315.000000	64.651441 
2314.000000	64.649629 
2313.000000	64.650344 
2312.000000	64.653587 
2311.000000	64.659500 
2310.000000	64.668297 
2309.000000	64.680218 
2308.000000	64.695453 
2307.000000	64.714026 
2306.000000	64.735317 
2305.000000	64.758110 
2304.000000	64.780449 
2303.000000	64.799833 
2302.000000	64.813542 
2301.000000	64.818978 
2300.000000	64.814281 
2299.000000	64.798855 
2298.000000	64.773607 
2297.000000	64.741063 
2296.000000	64.704895 
2295.000000	64.669466 
2294.000000	64.638662 
2293.000000	64.615821 
2292.000000	64.602756 
2291.000000	64.599657 
2290.000000	64.605379 
2289.000000	64.617705 
2288.000000	64.634037 
2287.000000	64.651775 
2286.000000	64.668941 
2285.000000	64.684247 
2284.000000	64.697170 
2283.000000	64.707565 
2282.000000	64.715600 
2281.000000	64.721369 
2280.000000	64.724922 
2279.000000	64.726090 
2278.000000	64.724802 
2277.000000	64.721035 
2276.000000	64.715218 
2275.000000	64.708089 
2274.000000	64.700675 
2273.000000	64.694190 
2272.000000	64.689898 
2271.000000	64.688873 
2270.000000	64.691853 
2269.000000	64.698815 
2268.000000	64.709186 
2267.000000	64.721846 
2266.000000	64.735317 
2265.000000	64.747977 
2264.000000	64.758229 
2263.000000	64.765048 
2262.000000	64.768123 
2261.000000	64.767694 
2260.000000	64.764642 
2259.000000	64.759945 
2258.000000	64.754796 
2257.000000	64.750003 
2256.000000	64.745998 
2255.000000	64.742612 
2254.000000	64.739227 
2253.000000	64.734864 
2252.000000	64.728474 
2251.000000	64.719271 
2250.000000	64.706802 
2249.000000	64.691114 
2248.000000	64.672613 
2247.000000	64.652180 
2246.000000	64.630842 
2245.000000	64.609885 
2244.000000	64.590573 
2243.000000	64.573955 
2242.000000	64.561009 
2241.000000	64.552187 
2240.000000	64.547777 
2239.000000	64.547610 
2238.000000	64.551305 
2237.000000	64.558100 
2236.000000	64.567232 
2235.000000	64.577698 
2234.000000	64.588737 
2233.000000	64.599609 
2232.000000	64.609885 
2231.000000	64.619207 
2230.000000	64.627575 
2229.000000	64.635229 
2228.000000	64.642596 
2227.000000	64.650392 
2226.000000	64.659142 
2225.000000	64.669322 
2224.000000	64.681124 
2223.000000	64.694356 
2222.000000	64.708471 
2221.000000	64.722323 
2220.000000	64.734601 
2219.000000	64.743876 
2218.000000	64.749002 
2217.000000	64.749073 
2216.000000	64.744091 
2215.000000	64.734673 
2214.000000	64.722180 
2213.000000	64.708375 
2212.000000	64.695239 
2211.000000	64.684486 
2210.000000	64.677143 
2209.000000	64.673256 
2208.000000	64.672183 
2207.000000	64.672541 
2206.000000	64.672923 
2205.000000	64.672040 
2204.000000	64.669251 
2203.000000	64.664864 
2202.000000	64.660000 
2201.000000	64.656424 
2200.000000	64.655828 
2199.000000	64.659714 
2198.000000	64.668679 
2197.000000	64.682316 
2196.000000	64.699053 
2195.000000	64.716649 
2194.000000	64.732599 
2193.000000	64.744567 
2192.000000	64.750885 
2191.000000	64.750766 
2190.000000	64.744663 
2189.000000	64.733815 
2188.000000	64.720368 
2187.000000	64.706683 
2186.000000	64.694929 
2185.000000	64.687013 
2184.000000	64.683699 
2183.000000	64.685082 
2182.000000	64.690089 
2181.000000	64.697074 
2180.000000	64.703917 
2179.000000	64.708304 
2178.000000	64.708447 
2177.000000	64.703369 
2176.000000	64.693403 
2175.000000	64.680099 
2174.000000	64.665818 
2173.000000	64.653372 
2172.000000	64.645123 
2171.000000	64.642333 
2170.000000	64.644932 
2169.000000	64.651513 
2168.000000	64.660143 
2167.000000	64.668631 
2166.000000	64.675545 
2165.000000	64.680147 
2164.000000	64.682531 
2163.000000	64.683222 
2162.000000	64.682555 
2161.000000	64.680767 
2160.000000	64.677596 
2159.000000	64.672899 
2158.000000	64.666509 
2157.000000	64.659047 
2156.000000	64.651584 
2155.000000	64.645886 
2154.000000	64.643836 
2153.000000	64.647030 
2152.000000	64.656257 
2151.000000	64.670896 
2150.000000	64.689135 
2149.000000	64.708137 
2148.000000	64.724612 
2147.000000	64.735817 
2146.000000	64.740061 
2145.000000	64.737176 
2144.000000	64.728498 
2143.000000	64.716506 
2142.000000	64.704036 
2141.000000	64.693450 
2140.000000	64.685964 
2139.000000	64.681625 
2138.000000	64.679288 
2137.000000	64.677381 
2136.000000	64.674425 
2135.000000	64.669847 
2134.000000	64.663934 
2133.000000	64.657998 
2132.000000	64.653706 
2131.000000	64.652395 
2130.000000	64.654612 
2129.000000	64.659523 
2128.000000	64.665222 
2127.000000	64.669203 
2126.000000	64.669013 
2125.000000	64.663267 
2124.000000	64.652037 
2123.000000	64.636921 
2122.000000	64.620757 
2121.000000	64.606881 
2120.000000	64.598155 
2119.000000	64.596152 
2118.000000	64.600992 
2117.000000	64.611101 
2116.000000	64.623975 
2115.000000	64.636659 
2114.000000	64.646530 
2113.000000	64.651918 
2112.000000	64.652371 
2111.000000	64.648580 
2110.000000	64.641928 
2109.000000	64.634156 
2108.000000	64.626622 
2107.000000	64.620375 
2106.000000	64.615869 
2105.000000	64.612936 
2104.000000	64.611315 
2103.000000	64.610528 
2102.000000	64.610409 
2101.000000	64.610934 
2100.000000	64.612126 
2099.000000	64.614009 
2098.000000	64.616513 
2097.000000	64.619159 
2096.000000	64.621257 
2095.000000	64.622092 
2094.000000	64.621114 
2093.000000	64.618182 
2092.000000	64.613699 
2091.000000	64.608526 
2090.000000	64.603853 
2089.000000	64.601063 
2088.000000	64.601278 
2087.000000	64.605236 
2086.000000	64.612793 
2085.000000	64.623093 
2084.000000	64.634704 
2083.000000	64.645671 
2082.000000	64.654064 
2081.000000	64.658164 
2080.000000	64.656996 
2079.000000	64.650630 
2078.000000	64.639925 
2077.000000	64.626455 
2076.000000	64.611983 
2075.000000	64.597964 
2074.000000	64.585161 
2073.000000	64.573526 
2072.000000	64.562320 
2071.000000	64.550614 
2070.000000	64.537668 
2069.000000	64.523649 
2068.000000	64.509701 
2067.000000	64.497876 
2066.000000	64.490699 
2065.000000	64.490509 
2064.000000	64.498734 
2063.000000	64.515423 
2062.000000	64.539122 
2061.000000	64.567089 
2060.000000	64.596033 
2059.000000	64.622855 
2058.000000	64.645338 
2057.000000	64.662361 
2056.000000	64.673972 
2055.000000	64.680981 
2054.000000	64.684319 
2053.000000	64.684486 
2052.000000	64.681529 
2051.000000	64.674830 
2050.000000	64.663672 
2049.000000	64.647459 
2048.000000	64.626598 
2047.000000	64.602303 
2046.000000	64.576935 
2045.000000	64.553117 
2044.000000	64.533305 
2043.000000	64.519119 
2042.000000	64.511060 
2041.000000	64.508557 
2040.000000	64.510107 
2039.000000	64.514040 
2038.000000	64.518857 
2037.000000	64.523696 
2036.000000	64.528608 
2035.000000	64.533901 
2034.000000	64.540290 
2033.000000	64.548134 
2032.000000	64.557456 
2031.000000	64.567589 
2030.000000	64.577317 
2029.000000	64.585566 
2028.000000	64.591264 
2027.000000	64.593911 
2026.000000	64.593577 
2025.000000	64.590764 
2024.000000	64.586234 
2023.000000	64.580869 
2022.000000	64.575552 
2021.000000	64.570832 
2020.000000	64.567208 
2019.000000	64.565062 
2018.000000	64.564704 
2017.000000	64.566063 
2016.000000	64.568781 
2015.000000	64.572215 
2014.000000	64.575195 
2013.000000	64.576387 
2012.000000	64.574456 
2011.000000	64.568424 
2010.000000	64.558100 
2009.000000	64.544010 
2008.000000	64.527678 
2007.000000	64.511060 
2006.000000	64.496469 
2005.000000	64.485859 
2004.000000	64.480495 
2003.000000	64.480566 
2002.000000	64.485526 
2001.000000	64.494132 
2000.000000	64.504742 
1999.000000	64.515900 
1998.000000	64.526629 
1997.000000	64.536738 
1996.000000	64.546346 
1995.000000	64.556097 
1994.000000	64.566826 
1993.000000	64.579224 
1992.000000	64.593648 
1991.000000	64.609599 
1990.000000	64.626049 
1989.000000	64.641356 
1988.000000	64.653754 
1987.000000	64.661455 
1986.000000	64.663100 
1985.000000	64.658045 
1984.000000	64.646601 
1983.000000	64.629650 
1982.000000	64.608788 
1981.000000	64.585995 
1980.000000	64.563345 
1979.000000	64.542889 
1978.000000	64.526033 
1977.000000	64.513921 
1976.000000	64.506840 
1975.000000	64.504432 
1974.000000	64.505457 
1973.000000	64.508390 
1972.000000	64.511370 
1971.000000	64.512515 
1970.000000	64.510345 
1969.000000	64.503788 
1968.000000	64.492607 
1967.000000	64.477372 
1966.000000	64.459347 
1965.000000	64.440035 
1964.000000	64.421057 
1963.000000	64.403605 
1962.000000	64.388537 
1961.000000	64.375996 
1960.000000	64.365959 
1959.000000	64.358353 
1958.000000	64.353322 
1957.000000	64.351272 
1956.000000	64.352846 
1955.000000	64.358830 
1954.000000	64.369630 
1953.000000	64.385128 
1952.000000	64.404582 
1951.000000	64.426732 
1950.000000	64.450073 
1949.000000	64.473080 
1948.000000	64.494442 
1947.000000	64.513444 
1946.000000	64.529800 
1945.000000	64.543628 
1944.000000	64.555096 
1943.000000	64.564180 
1942.000000	64.570784 
1941.000000	64.574527 
1940.000000	64.575004 
1939.000000	64.572000 
1938.000000	64.565873 
1937.000000	64.557313 
1936.000000	64.547348 
1935.000000	64.537119 
1934.000000	64.527726 
1933.000000	64.519786 
1932.000000	64.513444 
1931.000000	64.508461 
1930.000000	64.504194 
1929.000000	64.499998 
1928.000000	64.495396 
1927.000000	64.490103 
1926.000000	64.484310 
1925.000000	64.478325 
1924.000000	64.472556 
1923.000000	64.467334 
1922.000000	64.462614 
1921.000000	64.458227 
1920.000000	64.453983 
1919.000000	64.449501 
1918.000000	64.444708 
1917.000000	64.439940 
1916.000000	64.435887 
1915.000000	64.433360 
1914.000000	64.433360 
1913.000000	64.436721 
1912.000000	64.443683 
1911.000000	64.454030 
1910.000000	64.466905 
1909.000000	64.480805 
1908.000000	64.493894 
1907.000000	64.504361 
1906.000000	64.510607 
1905.000000	64.511632 
1904.000000	64.507102 
1903.000000	64.497613 
1902.000000	64.484429 
1901.000000	64.469242 
1900.000000	64.454078 
1899.000000	64.440727 
1898.000000	64.430522 
1897.000000	64.424061 
1896.000000	64.421081 
1895.000000	64.420700 
1894.000000	64.421463 
1893.000000	64.421987 
1892.000000	64.421129 
1891.000000	64.418244 
1890.000000	64.413428 
1889.000000	64.407444 
1888.000000	64.401507 
1887.000000	64.397072 
1886.000000	64.395427 
1885.000000	64.397335 
1884.000000	64.402914 
1883.000000	64.411449 
1882.000000	64.421653 
1881.000000	64.431715 
1880.000000	64.439654 
1879.000000	64.443778 
1878.000000	64.442992 
1877.000000	64.436912 
1876.000000	64.425992 
1875.000000	64.411306 
1874.000000	64.394545 
1873.000000	64.377570 
1872.000000	64.362144 
1871.000000	64.349627 
1870.000000	64.340949 
1869.000000	64.336442 
1868.000000	64.336061 
1867.000000	64.339447 
1866.000000	64.346170 
1865.000000	64.355731 
1864.000000	64.367604 
1863.000000	64.381027 
1862.000000	64.395117 
1861.000000	64.408683 
1860.000000	64.420485 
1859.000000	64.429378 
1858.000000	64.434576 
1857.000000	64.435935 
1856.000000	64.433884 
1855.000000	64.429450 
1854.000000	64.423918 
1853.000000	64.418792 
1852.000000	64.415335 
1851.000000	64.414429 
1850.000000	64.416313 
1849.000000	64.420723 
1848.000000	64.426803 
1847.000000	64.433455 
1846.000000	64.439463 
1845.000000	64.443659 
1844.000000	64.445233 
1843.000000	64.443659 
1842.000000	64.438915 
1841.000000	64.431381 
1840.000000	64.421868 
1839.000000	64.411425 
1838.000000	64.401221 
1837.000000	64.392566 
1836.000000	64.386534 
1835.000000	64.383864 
1834.000000	64.384841 
1833.000000	64.389300 
1832.000000	64.396977 
1831.000000	64.407157 
1830.000000	64.418935 
1829.000000	64.431309 
1828.000000	64.443230 
1827.000000	64.453649 
1826.000000	64.461565 
1825.000000	64.466333 
1824.000000	64.467692 
1823.000000	64.465951 
1822.000000	64.461946 
1821.000000	64.456939 
1820.000000	64.452314 
1819.000000	64.449429 
1818.000000	64.449191 
1817.000000	64.451885 
1816.000000	64.457011 
1815.000000	64.463353 
1814.000000	64.469385 
1813.000000	64.473605 
1812.000000	64.474821 
1811.000000	64.472579 
1810.000000	64.466953 
1809.000000	64.458823 
1808.000000	64.449167 
1807.000000	64.439034 
1806.000000	64.429140 
1805.000000	64.419698 
1804.000000	64.410448 
1803.000000	64.400935 
1802.000000	64.390659 
1801.000000	64.379525 
1800.000000	64.367866 
1799.000000	64.356541 
1798.000000	64.346933 
1797.000000	64.340686 
1796.000000	64.339280 
1795.000000	64.343523 
1794.000000	64.353489 
1793.000000	64.368486 
1792.000000	64.386916 
1791.000000	64.406704 
1790.000000	64.425563 
1789.000000	64.441442 
1788.000000	64.452815 
1787.000000	64.458847 
1786.000000	64.459776 
1785.000000	64.456391 
1784.000000	64.450168 
1783.000000	64.442801 
1782.000000	64.436006 
1781.000000	64.431047 
1780.000000	64.428734 
1779.000000	64.429140 
1778.000000	64.431715 
1777.000000	64.435315 
1776.000000	64.438557 
1775.000000	64.439964 
1774.000000	64.438343 
1773.000000	64.432978 
1772.000000	64.423704 
1771.000000	64.410924 
1770.000000	64.395475 
1769.000000	64.378547 
1768.000000	64.361453 
1767.000000	64.345526 
1766.000000	64.331817 
1765.000000	64.321136 
1764.000000	64.313817 
1763.000000	64.309763 
1762.000000	64.308261 
1761.000000	64.308118 
1760.000000	64.307904 
1759.000000	64.306044 
1758.000000	64.301514 
1757.000000	64.293456 
1756.000000	64.281940 
1755.000000	64.267802 
1754.000000	64.252495 
1753.000000	64.237952 
1752.000000	64.225935 
1751.000000	64.217686 
1750.000000	64.213585 
1749.000000	64.213228 
1748.000000	64.215326 
1747.000000	64.218163 
1746.000000	64.220094 
1745.000000	64.219737 
1744.000000	64.216470 
1743.000000	64.210391 
1742.000000	64.202094 
1741.000000	64.192724 
1740.000000	64.183402 
1739.000000	64.175009 
1738.000000	64.168143 
1737.000000	64.163064 
1736.000000	64.159560 
1735.000000	64.157223 
1734.000000	64.155530 
1733.000000	64.154052 
1732.000000	64.152479 
1731.000000	64.150738 
1730.000000	64.148902 
1729.000000	64.147496 
1728.000000	64.147281 
1727.000000	64.149475 
1726.000000	64.155173 
1725.000000	64.165425 
1724.000000	64.180684 
1723.000000	64.200639 
1722.000000	64.224100 
1721.000000	64.249038 
1720.000000	64.273023 
1719.000000	64.293408 
1718.000000	64.308142 
1717.000000	64.315986 
1716.000000	64.316892 
1715.000000	64.312028 
1714.000000	64.303255 
1713.000000	64.292883 
1712.000000	64.282894 
1711.000000	64.274787 
1710.000000	64.269113 
1709.000000	64.265584 
1708.000000	64.263176 
1707.000000	64.260721 
1706.000000	64.257192 
1705.000000	64.252018 
1704.000000	64.245176 
1703.000000	64.237165 
1702.000000	64.228963 
1701.000000	64.221572 
1700.000000	64.216184 
1699.000000	64.213514 
1698.000000	64.213871 
1697.000000	64.217233 
1696.000000	64.222979 
1695.000000	64.230084 
1694.000000	64.237070 
1693.000000	64.242219 
1692.000000	64.243841 
1691.000000	64.240455 
1690.000000	64.231395 
1689.000000	64.216923 
1688.000000	64.198374 
1687.000000	64.178061 
1686.000000	64.158868 
1685.000000	64.143896 
1684.000000	64.135694 
1683.000000	64.135742 
1682.000000	64.144039 
1681.000000	64.159250 
1680.000000	64.178895 
1679.000000	64.199852 
1678.000000	64.218902 
1677.000000	64.233517 
1676.000000	64.242267 
1675.000000	64.245009 
1674.000000	64.242434 
1673.000000	64.235949 
1672.000000	64.227247 
1671.000000	64.217782 
1670.000000	64.208745 
1669.000000	64.200735 
1668.000000	64.194059 
1667.000000	64.188742 
1666.000000	64.184808 
1665.000000	64.182281 
1664.000000	64.181232 
1663.000000	64.181828 
1662.000000	64.184165 
1661.000000	64.188170 
1660.000000	64.193582 
1659.000000	64.199781 
1658.000000	64.206075 
1657.000000	64.211702 
1656.000000	64.216232 
1655.000000	64.219689 
1654.000000	64.222669 
1653.000000	64.226078 
1652.000000	64.231181 
1651.000000	64.238953 
1650.000000	64.250111 
1649.000000	64.264488 
1648.000000	64.281034 
1647.000000	64.298081 
1646.000000	64.313340 
1645.000000	64.324712 
1644.000000	64.330267 
1643.000000	64.328908 
1642.000000	64.320254 
1641.000000	64.305090 
1640.000000	64.284801 
1639.000000	64.261293 
1638.000000	64.236474 
1637.000000	64.212322 
1636.000000	64.190530 
1635.000000	64.172387 
1634.000000	64.158773 
1633.000000	64.150142 
1632.000000	64.146375 
1631.000000	64.146900 
1630.000000	64.150476 
1629.000000	64.155364 
1628.000000	64.159584 
1627.000000	64.161300 
1626.000000	64.158844 
1625.000000	64.151573 
1624.000000	64.139723 
1623.000000	64.124822 
1622.000000	64.109134 
1621.000000	64.095282 
1620.000000	64.085865 
1619.000000	64.082670 
1618.000000	64.086580 
1617.000000	64.097118 
1616.000000	64.112758 
1615.000000	64.131188 
1614.000000	64.150023 
1613.000000	64.167213 
1612.000000	64.181375 
1611.000000	64.191985 
1610.000000	64.199256 
1609.000000	64.203858 
1608.000000	64.206457 
1607.000000	64.207553 
1606.000000	64.207148 
1605.000000	64.204812 
1604.000000	64.199900 
1603.000000	64.191889 
1602.000000	64.180588 
1601.000000	64.166402 
1600.000000	64.150381 
1599.000000	64.133954 
1598.000000	64.118742 
1597.000000	64.106369 
1596.000000	64.098072 
1595.000000	64.094519 
1594.000000	64.095926 
1593.000000	64.102053 
1592.000000	64.112210 
1591.000000	64.125657 
1590.000000	64.141321 
1589.000000	64.158010 
1588.000000	64.174199 
1587.000000	64.188408 
1586.000000	64.198994 
1585.000000	64.204454 
1584.000000	64.203715 
1583.000000	64.196348 
1582.000000	64.182829 
1581.000000	64.164566 
1580.000000	64.143824 
1579.000000	64.123225 
1578.000000	64.105343 
1577.000000	64.092350 
1576.000000	64.085435 
1575.000000	64.084553 
1574.000000	64.088773 
1573.000000	64.096093 
1572.000000	64.104270 
1571.000000	64.111161 
1570.000000	64.114904 
1569.000000	64.114785 
1568.000000	64.110851 
1567.000000	64.104270 
1566.000000	64.096951 
1565.000000	64.091157 
1564.000000	64.089202 
1563.000000	64.092564 
1562.000000	64.101719 
1561.000000	64.115667 
1560.000000	64.132189 
1559.000000	64.148426 
1558.000000	64.161348 
1557.000000	64.168667 
1556.000000	64.169144 
1555.000000	64.162969 
1554.000000	64.151763 
1553.000000	64.138031 
1552.000000	64.124512 
1551.000000	64.113879 
1550.000000	64.107751 
1549.000000	64.106822 
1548.000000	64.110755 
1547.000000	64.118242 
1546.000000	64.127469 
1545.000000	64.136600 
1544.000000	64.143896 
1543.000000	64.148044 
1542.000000	64.148235 
1541.000000	64.144110 
1540.000000	64.135932 
1539.000000	64.124417 
1538.000000	64.110803 
1537.000000	64.096689 
1536.000000	64.083671 
1535.000000	64.073348 
1534.000000	64.066743 
1533.000000	64.064383 
1532.000000	64.065980 
1531.000000	64.070558 
1530.000000	64.076685 
1529.000000	64.082646 
1528.000000	64.087104 
1527.000000	64.089274 
1526.000000	64.088988 
1525.000000	64.086556 
1524.000000	64.082860 
1523.000000	64.078998 
1522.000000	64.075851 
1521.000000	64.074206 
1520.000000	64.074397 
1519.000000	64.076519 
1518.000000	64.080643 
1517.000000	64.086651 
1516.000000	64.094281 
1515.000000	64.103102 
1514.000000	64.112472 
1513.000000	64.121770 
1512.000000	64.130234 
1511.000000	64.137434 
1510.000000	64.143180 
1509.000000	64.147710 
1508.000000	64.151549 
1507.000000	64.155268 
1506.000000	64.159297 
1505.000000	64.163732 
1504.000000	64.168190 
1503.000000	64.171671 
1502.000000	64.172840 
1501.000000	64.170217 
1500.000000	64.162540 
1499.000000	64.149045 
1498.000000	64.129924 
1497.000000	64.106392 
1496.000000	64.080810 
1495.000000	64.055991 
1494.000000	64.035034 
1493.000000	64.020419 
1492.000000	64.013743 
1491.000000	64.015269 
1490.000000	64.024281 
1489.000000	64.039278 
1488.000000	64.058423 
1487.000000	64.079880 
1486.000000	64.102220 
1485.000000	64.124298 
1484.000000	64.145183 
1483.000000	64.163804 
1482.000000	64.178967 
1481.000000	64.189481 
1480.000000	64.194178 
1479.000000	64.192342 
1478.000000	64.183855 
1477.000000	64.169454 
1476.000000	64.150714 
1475.000000	64.129996 
1474.000000	64.109849 
1473.000000	64.092636 
1472.000000	64.080166 
1471.000000	64.073467 
1470.000000	64.072561 
1469.000000	64.076590 
1468.000000	64.084172 
1467.000000	64.093732 
1466.000000	64.103603 
1465.000000	64.112472 
1464.000000	64.119315 
1463.000000	64.123368 
1462.000000	64.124131 
1461.000000	64.121007 
1460.000000	64.113759 
1459.000000	64.102125 
1458.000000	64.086222 
1457.000000	64.066576 
1456.000000	64.044165 
1455.000000	64.020490 
1454.000000	63.997459 
1453.000000	63.977074 
1452.000000	63.961005 
1451.000000	63.950467 
1450.000000	63.945770 
1449.000000	63.946485 
1448.000000	63.951396 
1447.000000	63.958907 
1446.000000	63.967466 
1445.000000	63.975763 
1444.000000	63.983058 
1443.000000	63.989019 
1442.000000	63.993692 
1441.000000	63.997316 
1440.000000	64.000058 
1439.000000	64.001941 
1438.000000	64.002871 
1437.000000	64.002633 
1436.000000	64.001035 
1435.000000	63.997960 
1434.000000	63.993620 
1433.000000	63.988232 
1432.000000	63.982343 
1431.000000	63.976526 
1430.000000	63.971590 
1429.000000	63.968276 
1428.000000	63.967466 
1427.000000	63.969826 
1426.000000	63.976001 
1425.000000	63.986253 
1424.000000	64.000391 
1423.000000	64.017581 
1422.000000	64.036321 
1421.000000	64.054799 
1420.000000	64.070963 
1419.000000	64.083075 
1418.000000	64.089989 
1417.000000	64.091515 
1416.000000	64.088439 
1415.000000	64.082384 
1414.000000	64.075446 
1413.000000	64.069581 
1412.000000	64.066410 
1411.000000	64.066720 
1410.000000	64.070510 
1409.000000	64.076662 
1408.000000	64.083695 
1407.000000	64.089584 
1406.000000	64.092469 
1405.000000	64.091062 
1404.000000	64.084720 
1403.000000	64.073634 
1402.000000	64.058732 
1401.000000	64.041709 
1400.000000	64.024591 
1399.000000	64.009428 
1398.000000	63.998103 
1397.000000	63.991737 
1396.000000	63.990688 
1395.000000	63.994288 
1394.000000	64.001178 
1393.000000	64.009189 
1392.000000	64.016032 
1391.000000	64.019536 
1390.000000	64.018177 
1389.000000	64.011478 
1388.000000	64.000010 
1387.000000	63.985204 
1386.000000	63.969087 
1385.000000	63.953828 
1384.000000	63.941073 
1383.000000	63.931798 
1382.000000	63.925957 
1381.000000	63.922810 
1380.000000	63.920927 
1379.000000	63.918900 
1378.000000	63.915181 
1377.000000	63.908767 
1376.000000	63.899207 
1375.000000	63.886356 
1374.000000	63.870859 
1373.000000	63.853645 
1372.000000	63.836288 
1371.000000	63.820433 
1370.000000	63.807940 
1369.000000	63.800382 
1368.000000	63.799166 
1367.000000	63.805007 
1366.000000	63.817906 
1365.000000	63.836979 
1364.000000	63.860535 
1363.000000	63.886332 
1362.000000	63.911962 
1361.000000	63.935208 
1360.000000	63.954257 
1359.000000	63.967943 
1358.000000	63.975691 
1357.000000	63.977241 
1356.000000	63.972878 
1355.000000	63.963055 
1354.000000	63.948273 
1353.000000	63.929390 
1352.000000	63.907718 
1351.000000	63.884830 
1350.000000	63.862490 
1349.000000	63.842511 
1348.000000	63.826465 
1347.000000	63.815641 
1346.000000	63.810729 
1345.000000	63.811802 
1344.000000	63.818359 
1343.000000	63.829231 
1342.000000	63.843083 
1341.000000	63.858342 
1340.000000	63.873481 
1339.000000	63.887071 
1338.000000	63.897871 
1337.000000	63.905048 
1336.000000	63.908100 
1335.000000	63.906955 
1334.000000	63.901829 
1333.000000	63.893318 
1332.000000	63.882112 
1331.000000	63.869047 
1330.000000	63.854837 
1329.000000	63.840150 
1328.000000	63.825488 
1327.000000	63.811469 
1326.000000	63.798785 
1325.000000	63.788390 
1324.000000	63.781166 
1323.000000	63.778066 
1322.000000	63.779807 
1321.000000	63.786435 
1320.000000	63.797450 
1319.000000	63.811516 
1318.000000	63.826894 
1317.000000	63.841509 
1316.000000	63.853454 
1315.000000	63.861322 
1314.000000	63.864564 
1313.000000	63.863515 
1312.000000	63.859248 
1311.000000	63.853263 
1310.000000	63.847231 
1309.000000	63.842535 
1308.000000	63.840246 
1307.000000	63.840937 
1306.000000	63.844776 
1305.000000	63.851451 
1304.000000	63.860464 
1303.000000	63.871002 
1302.000000	63.882160 
1301.000000	63.893079 
1300.000000	63.902807 
1299.000000	63.910555 
1298.000000	63.916015 
1297.000000	63.919138 
1296.000000	63.920235 
1295.000000	63.919854 
1294.000000	63.918757 
1293.000000	63.917446 
1292.000000	63.916277 
1291.000000	63.915181 
1290.000000	63.913679 
1289.000000	63.911128 
1288.000000	63.906955 
1287.000000	63.900876 
1286.000000	63.892960 
1285.000000	63.883876 
1284.000000	63.874816 
1283.000000	63.867020 
1282.000000	63.861584 
1281.000000	63.858985 
1280.000000	63.859152 
1279.000000	63.861322 
1278.000000	63.864398 
1277.000000	63.867378 
1276.000000	63.869762 
1275.000000	63.871693 
1274.000000	63.874006 
1273.000000	63.878059 
1272.000000	63.885021 
1271.000000	63.895511 
1270.000000	63.909196 
1269.000000	63.924789 
1268.000000	63.939976 
1267.000000	63.952016 
1266.000000	63.958477 
1265.000000	63.958001 
1264.000000	63.950371 
1263.000000	63.936781 
1262.000000	63.919258 
1261.000000	63.900184 
1260.000000	63.881754 
1259.000000	63.865280 
1258.000000	63.851428 
1257.000000	63.840198 
1256.000000	63.831329 
1255.000000	63.824486 
1254.000000	63.819599 
1253.000000	63.816857 
1252.000000	63.816308 
1251.000000	63.817977 
1250.000000	63.821673 
1249.000000	63.827180 
1248.000000	63.834118 
1247.000000	63.841938 
1246.000000	63.850164 
1245.000000	63.858294 
1244.000000	63.865828 
1243.000000	63.871979 
1242.000000	63.875794 
1241.000000	63.876199 
1240.000000	63.872361 
1239.000000	63.863539 
1238.000000	63.849663 
1237.000000	63.831424 
1236.000000	63.810396 
1235.000000	63.788580 
1234.000000	63.768362 
1233.000000	63.751673 
1232.000000	63.739752 
1231.000000	63.732695 
1230.000000	63.729500 
1229.000000	63.728141 
1228.000000	63.726353 
1227.000000	63.721847 
1226.000000	63.713073 
1225.000000	63.699483 
1224.000000	63.681721 
1223.000000	63.661360 
1222.000000	63.640666 
1221.000000	63.622045 
1220.000000	63.607668 
1219.000000	63.599181 
1218.000000	63.597536 
1217.000000	63.602828 
1216.000000	63.614749 
1215.000000	63.632488 
1214.000000	63.655018 
1213.000000	63.680958 
1212.000000	63.708782 
1211.000000	63.736867 
1210.000000	63.763523 
1209.000000	63.786959 
1208.000000	63.805818 
1207.000000	63.819026 
1206.000000	63.826346 
1205.000000	63.828301 
1204.000000	63.826012 
1203.000000	63.820910 
1202.000000	63.814520 
1201.000000	63.808298 
1200.000000	63.803148 
1199.000000	63.799500 
1198.000000	63.797330 
1197.000000	63.796281 
1196.000000	63.796091 
1195.000000	63.796663 
1194.000000	63.798069 
1193.000000	63.800644 
1192.000000	63.804674 
1191.000000	63.810205 
1190.000000	63.817000 
1189.000000	63.824200 
1188.000000	63.830542 
1187.000000	63.834381 
1186.000000	63.834142 
1185.000000	63.828659 
1184.000000	63.817286 
1183.000000	63.800287 
1182.000000	63.778758 
1181.000000	63.754796 
1180.000000	63.731050 
1179.000000	63.710379 
1178.000000	63.695192 
1177.000000	63.687205 
1176.000000	63.686990 
1175.000000	63.693714 
1174.000000	63.705182 
1173.000000	63.718414 
1172.000000	63.730144 
1171.000000	63.737368 
1170.000000	63.738083 
1169.000000	63.731408 
1168.000000	63.718128 
1167.000000	63.700222 
1166.000000	63.680505 
1165.000000	63.661837 
1164.000000	63.646864 
1163.000000	63.637351 
1162.000000	63.634252 
1161.000000	63.637542 
1160.000000	63.646554 
1159.000000	63.660407 
1158.000000	63.677954 
1157.000000	63.698005 
1156.000000	63.719105 
1155.000000	63.739895 
1154.000000	63.758659 
1153.000000	63.773417 
1152.000000	63.782167 
1151.000000	63.783240 
1150.000000	63.775253 
1149.000000	63.757705 
1148.000000	63.731050 
1147.000000	63.696980 
1146.000000	63.657879 
1145.000000	63.616967 
1144.000000	63.577771 
1143.000000	63.543725 
1142.000000	63.517880 
1141.000000	63.502168 
1140.000000	63.497447 
1139.000000	63.503241 
1138.000000	63.517785 
1137.000000	63.538193 
1136.000000	63.560724 
1135.000000	63.581776 
1134.000000	63.598036 
1133.000000	63.607645 
1132.000000	63.610053 
1131.000000	63.606500 
1130.000000	63.599371 
1129.000000	63.591933 
1128.000000	63.587450 
1127.000000	63.588380 
1126.000000	63.595819 
1125.000000	63.609194 
1124.000000	63.626503 
1123.000000	63.644742 
1122.000000	63.660931 
1121.000000	63.672614 
1120.000000	63.678646 
1119.000000	63.679504 
1118.000000	63.677120 
1117.000000	63.674449 
1116.000000	63.674521 
1115.000000	63.679885 
1114.000000	63.691735 
1113.000000	63.710021 
1112.000000	63.733148 
1111.000000	63.758349 
1110.000000	63.782310 
1109.000000	63.802218 
1108.000000	63.815999 
1107.000000	63.822960 
1106.000000	63.823604 
1105.000000	63.819670 
1104.000000	63.813424 
1103.000000	63.807368 
1102.000000	63.803291 
1101.000000	63.802266 
1100.000000	63.803839 
1099.000000	63.806676 
1098.000000	63.808369 
1097.000000	63.806486 
1096.000000	63.798928 
1095.000000	63.784742 
1094.000000	63.764071 
1093.000000	63.738465 
1092.000000	63.710403 
1091.000000	63.682818 
1090.000000	63.658475 
1089.000000	63.639402 
1088.000000	63.627004 
1087.000000	63.622117 
1086.000000	63.624668 
1085.000000	63.634181 
1084.000000	63.650107 
1083.000000	63.671588 
1082.000000	63.697481 
1081.000000	63.726401 
1080.000000	63.756537 
1079.000000	63.786005 
1078.000000	63.812518 
1077.000000	63.833928 
1076.000000	63.848733 
1075.000000	63.856029 
1074.000000	63.855934 
1073.000000	63.849258 
1072.000000	63.837528 
1071.000000	63.822460 
1070.000000	63.806033 
1069.000000	63.789987 
1068.000000	63.775634 
1067.000000	63.763880 
1066.000000	63.755130 
1065.000000	63.749051 
1064.000000	63.744735 
1063.000000	63.740706 
1062.000000	63.735032 
1061.000000	63.725829 
1060.000000	63.711500 
1059.000000	63.691306 
1058.000000	63.665509 
1057.000000	63.635540 
1056.000000	63.603806 
1055.000000	63.573241 
1054.000000	63.546919 
1053.000000	63.527131 
1052.000000	63.515305 
1051.000000	63.511347 
1050.000000	63.514328 
1049.000000	63.522601 
1048.000000	63.534474 
1047.000000	63.548326 
1046.000000	63.563060 
1045.000000	63.577914 
1044.000000	63.592433 
1043.000000	63.606023 
1042.000000	63.618040 
1041.000000	63.627529 
1040.000000	63.633489 
1039.000000	63.635182 
1038.000000	63.632035 
1037.000000	63.624095 
1036.000000	63.612008 
1035.000000	63.597226 
1034.000000	63.581728 
1033.000000	63.568043 
1032.000000	63.558816 
1031.000000	63.556480 
1030.000000	63.562583 
1029.000000	63.577532 
1028.000000	63.600564 
1027.000000	63.629555 
1026.000000	63.660979 
1025.000000	63.690733 
1024.000000	63.714838 
1023.000000	63.730192 
1022.000000	63.735103 
1021.000000	63.729953 
1020.000000	63.717007 
1019.000000	63.699936 
1018.000000	63.683176 
1017.000000	63.670587 
1016.000000	63.664913 
1015.000000	63.666868 
1014.000000	63.675236 
1013.000000	63.686966 
1012.000000	63.698196 
1011.000000	63.704919 
1010.000000	63.704252 
1009.000000	63.694834 
1008.000000	63.677549 
1007.000000	63.655090 
1006.000000	63.631868 
1005.000000	63.612675 
1004.000000	63.601899 
1003.000000	63.602709 
1002.000000	63.616466 
1001.000000	63.642215 
1000.000000	63.677120 
999.000000	 63.717198 
998.000000	 63.757538 
997.000000	 63.793492 
996.000000	 63.821339 
995.000000	 63.838648 
994.000000	 63.844704 
993.000000	 63.840150 
992.000000	 63.827061 
991.000000	 63.808250 
990.000000	 63.786911 
989.000000	 63.766050 
988.000000	 63.748121 
987.000000	 63.734626 
986.000000	 63.726186 
985.000000	 63.722705 
984.000000	 63.723134 
983.000000	 63.725948 
982.000000	 63.729381 
981.000000	 63.731861 
980.000000	 63.732004 
979.000000	 63.728857 
978.000000	 63.721823 
977.000000	 63.710689 
976.000000	 63.695335 
975.000000	 63.676071 
974.000000	 63.653111 
973.000000	 63.627171 
972.000000	 63.599300 
971.000000	 63.571095 
970.000000	 63.544368 
969.000000	 63.521027 
968.000000	 63.503098 
967.000000	 63.491964 
966.000000	 63.487863 
965.000000	 63.490200 
964.000000	 63.497519 
963.000000	 63.507962 
962.000000	 63.519525 
961.000000	 63.530898 
960.000000	 63.541603 
959.000000	 63.552260 
958.000000	 63.564348 
957.000000	 63.579583 
956.000000	 63.599324 
955.000000	 63.623952 
954.000000	 63.652467 
953.000000	 63.682651 
952.000000	 63.710975 
951.000000	 63.733959 
950.000000	 63.748335 
949.000000	 63.751792 
948.000000	 63.743281 
947.000000	 63.723516 
946.000000	 63.694047 
945.000000	 63.657283 
944.000000	 63.615584 
943.000000	 63.571429 
942.000000	 63.526892 
941.000000	 63.483619 
940.000000	 63.443064 
939.000000	 63.406944 
938.000000	 63.377118 
937.000000	 63.355541 
936.000000	 63.344144 
935.000000	 63.344335 
934.000000	 63.356685 
933.000000	 63.380575 
932.000000	 63.414049 
931.000000	 63.453888 
930.000000	 63.496422 
929.000000	 63.537788 
928.000000	 63.574528 
927.000000	 63.603925 
926.000000	 63.624334 
925.000000	 63.635492 
924.000000	 63.637971 
923.000000	 63.633036 
922.000000	 63.622641 
921.000000	 63.608980 
920.000000	 63.594150 
919.000000	 63.580298 
918.000000	 63.569426 
917.000000	 63.563251 
916.000000	 63.562989 
915.000000	 63.569355 
914.000000	 63.582205 
913.000000	 63.600802 
912.000000	 63.623952 
911.000000	 63.650465 
910.000000	 63.678979 
909.000000	 63.708353 
908.000000	 63.737702 
907.000000	 63.765668 
906.000000	 63.790297 
905.000000	 63.809061 
904.000000	 63.819026 
903.000000	 63.817405 
902.000000	 63.802242 
901.000000	 63.773274 
900.000000	 63.732194 
899.000000	 63.682699 
898.000000	 63.629865 
897.000000	 63.579010 
896.000000	 63.534736 
895.000000	 63.500070 
894.000000	 63.476037 
893.000000	 63.461613 
892.000000	 63.454484 
891.000000	 63.451933 
890.000000	 63.451933 
889.000000	 63.453435 
888.000000	 63.456916 
887.000000	 63.463377 
886.000000	 63.474440 
885.000000	 63.490867 
884.000000	 63.512587 
883.000000	 63.538289 
882.000000	 63.565850 
881.000000	 63.592767 
880.000000	 63.616728 
879.000000	 63.636326 
878.000000	 63.651108 
877.000000	 63.661551 
876.000000	 63.668584 
875.000000	 63.673162 
874.000000	 63.675832 
873.000000	 63.676691 
872.000000	 63.675475 
871.000000	 63.671708 
870.000000	 63.665413 
869.000000	 63.657140 
868.000000	 63.647961 
867.000000	 63.639235 
866.000000	 63.632488 
865.000000	 63.629055 
864.000000	 63.629579 
863.000000	 63.634133 
862.000000	 63.642287 
861.000000	 63.653016 
860.000000	 63.665175 
859.000000	 63.677573 
858.000000	 63.688993 
857.000000	 63.698458 
856.000000	 63.705372 
855.000000	 63.709521 
854.000000	 63.710737 
853.000000	 63.709568 
852.000000	 63.706922 
851.000000	 63.704037 
850.000000	 63.702225 
849.000000	 63.702511 
848.000000	 63.705492 
847.000000	 63.710951 
846.000000	 63.717985 
845.000000	 63.725280 
844.000000	 63.731479 
843.000000	 63.735389 
842.000000	 63.736486 
841.000000	 63.734889 
840.000000	 63.731312 
839.000000	 63.726878 
838.000000	 63.722610 
837.000000	 63.719344 
836.000000	 63.717317 
835.000000	 63.716340 
834.000000	 63.715362 
833.000000	 63.713192 
832.000000	 63.708138 
831.000000	 63.698673 
830.000000	 63.683199 
829.000000	 63.660478 
828.000000	 63.629913 
827.000000	 63.591694 
826.000000	 63.547468 
825.000000	 63.500118 
824.000000	 63.453698 
823.000000	 63.412880 
822.000000	 63.381719 
821.000000	 63.362765 
820.000000	 63.356256 
819.000000	 63.360142 
818.000000	 63.370299 
817.000000	 63.381671 
816.000000	 63.389205 
815.000000	 63.389492 
814.000000	 63.381028 
813.000000	 63.365054 
812.000000	 63.344430 
811.000000	 63.323688 
810.000000	 63.307476 
809.000000	 63.299584 
808.000000	 63.302278 
807.000000	 63.315701 
806.000000	 63.338017 
805.000000	 63.365912 
804.000000	 63.395404 
803.000000	 63.422679 
802.000000	 63.444900 
801.000000	 63.460731 
800.000000	 63.470220 
799.000000	 63.474845 
798.000000	 63.476562 
797.000000	 63.477802 
796.000000	 63.480544 
795.000000	 63.486099 
794.000000	 63.494634 
793.000000	 63.505697 
792.000000	 63.518285 
791.000000	 63.530969 
790.000000	 63.542222 
789.000000	 63.550901 
788.000000	 63.556408 
787.000000	 63.558864 
786.000000	 63.558888 
785.000000	 63.557529 
784.000000	 63.555836 
783.000000	 63.554620 
782.000000	 63.554072 
781.000000	 63.553738 
780.000000	 63.552331 
779.000000	 63.548541 
778.000000	 63.541030 
777.000000	 63.529038 
776.000000	 63.512659 
775.000000	 63.492894 
774.000000	 63.471722 
773.000000	 63.451504 
772.000000	 63.434958 
771.000000	 63.424587 
770.000000	 63.422060 
769.000000	 63.427758 
768.000000	 63.441038 
767.000000	 63.460159 
766.000000	 63.482475 
765.000000	 63.504958 
764.000000	 63.524985 
763.000000	 63.540577 
762.000000	 63.550782 
761.000000	 63.555383 
760.000000	 63.555216 
759.000000	 63.550996 
758.000000	 63.543629 
757.000000	 63.533067 
756.000000	 63.518524 
755.000000	 63.498353 
754.000000	 63.471341 
753.000000	 63.437032 
752.000000	 63.396549 
751.000000	 63.352632 
750.000000	 63.310003 
749.000000	 63.273835 
748.000000	 63.248705 
747.000000	 63.237261 
746.000000	 63.239312 
745.000000	 63.251543 
744.000000	 63.268470 
743.000000	 63.283205 
742.000000	 63.289332 
741.000000	 63.282370 
740.000000	 63.260984 
739.000000	 63.226771 
738.000000	 63.183903 
737.000000	 63.138127 
736.000000	 63.095450 
735.000000	 63.060545 
734.000000	 63.036537 
733.000000	 63.024806 
732.000000	 63.025712 
731.000000	 63.038802 
730.000000	 63.063406 
729.000000	 63.098621 
728.000000	 63.143396 
727.000000	 63.195800 
726.000000	 63.253307 
725.000000	 63.312101 
724.000000	 63.367915 
723.000000	 63.416385 
722.000000	 63.453602 
721.000000	 63.476681 
720.000000	 63.484239 
719.000000	 63.477039 
718.000000	 63.456964 
717.000000	 63.426399 
716.000000	 63.387966 
715.000000	 63.344192 
714.000000	 63.296675 
713.000000	 63.246226 
712.000000	 63.193535 
711.000000	 63.139533 
710.000000	 63.085436 
709.000000	 63.033056 
708.000000	 62.984728 
707.000000	 62.943339 
706.000000	 62.911510 
705.000000	 62.891602 
704.000000	 62.884354 
703.000000	 62.889575 
702.000000	 62.905383 
701.000000	 62.929320 
700.000000	 62.957572 
699.000000	 62.987136 
698.000000	 63.016080 
697.000000	 63.044166 
696.000000	 63.072061 
695.000000	 63.101649 
694.000000	 63.134908 
693.000000	 63.173222 
692.000000	 63.216662 
691.000000	 63.263797 
690.000000	 63.311767 
689.000000	 63.357853 
688.000000	 63.400006 
687.000000	 63.437843 
686.000000	 63.472437 
685.000000	 63.506484 
684.000000	 63.542938 
683.000000	 63.583469 
682.000000	 63.627076 
681.000000	 63.670229 
680.000000	 63.706588 
679.000000	 63.728666 
678.000000	 63.729286 
677.000000	 63.704466 
676.000000	 63.653540 
675.000000	 63.580513 
674.000000	 63.492202 
673.000000	 63.397479 
672.000000	 63.304901 
671.000000	 63.221311 
670.000000	 63.151025 
669.000000	 63.095235 
668.000000	 63.054251 
667.000000	 63.028120 
666.000000	 63.018131 
665.000000	 63.026475 
664.000000	 63.056468 
663.000000	 63.111042 
662.000000	 63.190340 
661.000000	 63.290262 
660.000000	 63.402390 
659.000000	 63.514900 
658.000000	 63.614463 
657.000000	 63.688898 
656.000000	 63.730430 
655.000000	 63.736963 
654.000000	 63.713288 
653.000000	 63.668847 
652.000000	 63.615274 
651.000000	 63.562726 
650.000000	 63.518548 
649.000000	 63.484954 
648.000000	 63.459849 
647.000000	 63.438010 
646.000000	 63.413977 
645.000000	 63.383960 
644.000000	 63.348031 
643.000000	 63.309717 
642.000000	 63.274669 
641.000000	 63.248562 
640.000000	 63.234829 
639.000000	 63.233065 
638.000000	 63.238525 
637.000000	 63.243484 
636.000000	 63.239145 
635.000000	 63.218665 
634.000000	 63.179254 
633.000000	 63.123202 
632.000000	 63.058161 
631.000000	 62.994980 
630.000000	 62.946128 
629.000000	 62.923741 
628.000000	 62.937426 
627.000000	 62.992167 
626.000000	 63.087034 
625.000000	 63.216471 
624.000000	 63.369417 
623.000000	 63.531470 
622.000000	 63.685584 
621.000000	 63.815212 
620.000000	 63.905525 
619.000000	 63.946247 
618.000000	 63.932323 
617.000000	 63.864469 
616.000000	 63.749480 
615.000000	 63.599872 
614.000000	 63.431382 
613.000000	 63.261270 
612.000000	 63.105845 
611.000000	 62.979149 
610.000000	 62.890219 
609.000000	 62.842822 
608.000000	 62.835454 
607.000000	 62.862229 
606.000000	 62.913393 
605.000000	 62.977099 
604.000000	 63.040661 
603.000000	 63.092875 
602.000000	 63.125014 
601.000000	 63.132166 
600.000000	 63.113307 
599.000000	 63.071107 
598.000000	 63.010334 
597.000000	 62.937521 
596.000000	 62.859702 
595.000000	 62.783861 
594.000000	 62.717461 
593.000000	 62.666749 
592.000000	 62.636280 
591.000000	 62.628364 
590.000000	 62.642884 
589.000000	 62.677121 
588.000000	 62.724709 
587.000000	 62.779188 
586.000000	 62.834310 
585.000000	 62.886881 
584.000000	 62.936878 
583.000000	 62.987375 
582.000000	 63.042640 
581.000000	 63.107156 
580.000000	 63.183450 
579.000000	 63.269591 
578.000000	 63.359093 
577.000000	 63.442635 
576.000000	 63.510227 
575.000000	 63.554811 
574.000000	 63.573503 
573.000000	 63.569521 
572.000000	 63.549876 
571.000000	 63.524246 
570.000000	 63.500523 
569.000000	 63.482642 
568.000000	 63.468575 
567.000000	 63.451552 
566.000000	 63.421726 
565.000000	 63.371205 
564.000000	 63.295388 
563.000000	 63.195180 
562.000000	 63.078022 
561.000000	 62.956213 
560.000000	 62.845325 
559.000000	 62.759923 
558.000000	 62.711572 
557.000000	 62.705755 
556.000000	 62.742137 
555.000000	 62.815070 
554.000000	 62.914752 
553.000000	 63.029122 
552.000000	 63.146090 
551.000000	 63.254976 
550.000000	 63.346147 
549.000000	 63.411426 
548.000000	 63.444542 
547.000000	 63.441419 
546.000000	 63.399577 
545.000000	 63.320016 
544.000000	 63.208246 
543.000000	 63.075137 
542.000000	 62.936019 
541.000000	 62.809586 
540.000000	 62.715482 
539.000000	 62.670254 
538.000000	 62.684893 
537.000000	 62.761139 
536.000000	 62.890553 
535.000000	 63.055276 
534.000000	 63.231182 
533.000000	 63.392400 
532.000000	 63.515639 
531.000000	 63.585400 
530.000000	 63.596200 
529.000000	 63.553285 
528.000000	 63.470220 
527.000000	 63.365268 
526.000000	 63.256382 
525.000000	 63.156723 
524.000000	 63.071608 
523.000000	 62.998580 
522.000000	 62.929105 
521.000000	 62.852668 
520.000000	 62.761044 
519.000000	 62.651991 
518.000000	 62.530565 
517.000000	 62.406945 
516.000000	 62.295174 
515.000000	 62.207174 
514.000000	 62.152123 
513.000000	 62.133097 
512.000000	 62.147903 
511.000000	 62.188935 
510.000000	 62.245988 
509.000000	 62.308645 
508.000000	 62.368369 
507.000000	 62.419629 
506.000000	 62.460017 
505.000000	 62.489128 
504.000000	 62.507176 
503.000000	 62.514090 
502.000000	 62.507581 
501.000000	 62.483668 
500.000000	 62.437105 
499.000000	 62.364029 
498.000000	 62.265610 
497.000000	 62.150335 
496.000000	 62.033820 
495.000000	 61.937046 
494.000000	 61.883401 
493.000000	 61.892580 
492.000000	 61.976599 
491.000000	 62.133669 
490.000000	 62.347388 
489.000000	 62.587022 
488.000000	 62.813758 
487.000000	 62.987971 
486.000000	 63.075685 
485.000000	 63.058590 
484.000000	 62.936949 
483.000000	 62.732410 
482.000000	 62.480735 
481.000000	 62.228226 
480.000000	 62.022423 
479.000000	 61.901593 
478.000000	 61.888289 
477.000000	 61.983203 
476.000000	 62.167596 
475.000000	 62.404775 
474.000000	 62.649822 
473.000000	 62.855362 
472.000000	 62.981629 
471.000000	 63.003253 
470.000000	 62.914204 
469.000000	 62.727260 
468.000000	 62.471461 
467.000000	 62.186551 
466.000000	 61.914682 
465.000000	 61.693191 
464.000000	 61.547660 
463.000000	 61.488246 
462.000000	 61.510729 
461.000000	 61.598062 
460.000000	 61.729574 
459.000000	 61.884522 
458.000000	 62.051606 
457.000000	 62.226819 
456.000000	 62.416911 
455.000000	 62.634372 
454.000000	 62.889456 
453.000000	 63.183212 
452.000000	 63.501000 
451.000000	 63.813543 
450.000000	 64.079570 
449.000000	 64.256191 
448.000000	 64.308238 
447.000000	 64.218997 
446.000000	 63.996291 
445.000000	 63.672852 
444.000000	 63.298678 
443.000000	 62.929868 
442.000000	 62.615489 
441.000000	 62.387156 
440.000000	 62.254357 
439.000000	 62.205648 
438.000000	 62.213706 
437.000000	 62.246489 
436.000000	 62.278532 
435.000000	 62.297105 
434.000000	 62.305951 
433.000000	 62.318968 
432.000000	 62.346267 
431.000000	 62.392020 
430.000000	 62.449598 
429.000000	 62.501382 
428.000000	 62.521672 
427.000000	 62.485599 
426.000000	 62.380337 
425.000000	 62.205743 
424.000000	 61.975073 
423.000000	 61.715197 
422.000000	 61.462140 
421.000000	 61.248922 
420.000000	 61.096692 
419.000000	 61.016368 
418.000000	 61.006236 
417.000000	 61.057424 
416.000000	 61.155009 
415.000000	 61.272788 
414.000000	 61.378097 
413.000000	 61.434102 
412.000000	 61.413073 
411.000000	 61.287713 
410.000000	 61.058568 
409.000000	 60.757327 
408.000000	 60.454511 
407.000000	 60.252499 
406.000000	 60.259890 
405.000000	 60.556554 
404.000000	 61.175727 
403.000000	 62.091398 
402.000000	 63.221073 
401.000000	 64.425444 
400.000000	 65.567517 
399.000000	 66.532635 
398.000000	 67.283272 
397.000000	 67.867684 
396.000000	 68.401145 
395.000000	 69.027996 
394.000000	 69.861507 
393.000000	 70.943140 
392.000000	 72.190523 
391.000000	 73.406314 
390.000000	 74.328136 
389.000000	 74.689292 
388.000000	 74.313855 
387.000000	 73.159575 
386.000000	 71.280455 
385.000000	 68.849062 
384.000000	 66.113734 
383.000000	 63.390398 
382.000000	 61.013793 
381.000000	 59.305167 
380.000000	 58.513855 
379.000000	 58.790183 
378.000000	 60.168766 
377.000000	 62.548828 
376.000000	 65.699315 
375.000000	 69.289779 
374.000000	 72.933125 
373.000000	 76.238179 
372.000000	 78.888797 
371.000000	 80.627059 
370.000000	 81.288671 

