PE IR       SPECTRUM    SPECTRUM    ASCII       PEDS        1.60        
  -1
BZ6132~1.ASC
17/04/07
13:57:25.00
17/04/07
13:57:25.00
tln
$BZ1503107-1_t0009$<tbV0>[-7.8,-13.0,8.0,0.0,27,1,0]
370.000000
64









2002,4.07    
MIRTGS : RIGHTBACK : INTERNAL 2
MIR : ON : INTERNAL 2
OPTKBR

0.200000
8
8.000000
FILLER
RATIO
SPECTRUM
UNLOCKED 256

DOUBLE
64
COMBINED
1
0
0


1.000000
RATIO


1
0
TRUE
51149
0
LEFT NOT FITTED RIGHT NOT FITTED 0
NONE
NONE
15600
12.000000
4.427000
51148
TRUE
1 0 8 72 0 0 0 0 

15798.010000






#HDR
-1
-1
#GR
CM-1
%T
0.00002384185791015625
0.0
5000.000000
-1.000000
4631
8
91.746520
56.467461
#DATA
5000.000000	64.022064 
4999.000000	64.100503 
4998.000000	64.188647 
4997.000000	64.287090 
4996.000000	64.396691 
4995.000000	64.515280 
4994.000000	64.640617 
4993.000000	64.769172 
4992.000000	64.899301 
4991.000000	65.031504 
4990.000000	65.168738 
4989.000000	65.315651 
4988.000000	65.475034 
4987.000000	65.645837 
4986.000000	65.821599 
4985.000000	65.991759 
4984.000000	66.139507 
4983.000000	66.244769 
4982.000000	66.289973 
4981.000000	66.263413 
4980.000000	66.160869 
4979.000000	65.986394 
4978.000000	65.753126 
4977.000000	65.479731 
4976.000000	65.188121 
4975.000000	64.898467 
4974.000000	64.627480 
4973.000000	64.385128 
4972.000000	64.176559 
4971.000000	64.000940 
4970.000000	63.853764 
4969.000000	63.729166 
4968.000000	63.620686 
4967.000000	63.525128 
4966.000000	63.438820 
4965.000000	63.364624 
4964.000000	63.306999 
4963.000000	63.277006 
4962.000000	63.284754 
4961.000000	63.345432 
4960.000000	63.473558 
4959.000000	63.681530 
4958.000000	63.973760 
4957.000000	64.345383 
4956.000000	64.779329 
4955.000000	65.246248 
4954.000000	65.706634 
4953.000000	66.116189 
4952.000000	66.431570 
4951.000000	66.618037 
4950.000000	66.655182 
4949.000000	66.541337 
4948.000000	66.293907 
4947.000000	65.948438 
4946.000000	65.551638 
4945.000000	65.154695 
4944.000000	64.804148 
4943.000000	64.539957 
4942.000000	64.384984 
4941.000000	64.344930 
4940.000000	64.406156 
4939.000000	64.542579 
4938.000000	64.718055 
4937.000000	64.892935 
4936.000000	65.032315 
4935.000000	65.109062 
4934.000000	65.112185 
4933.000000	65.045452 
4932.000000	64.928054 
4931.000000	64.787960 
4930.000000	64.657497 
4929.000000	64.564847 
4928.000000	64.527559 
4927.000000	64.547777 
4926.000000	64.611959 
4925.000000	64.694285 
4924.000000	64.761352 
4923.000000	64.782547 
4922.000000	64.738225 
4921.000000	64.626979 
4920.000000	64.464187 
4919.000000	64.281630 
4918.000000	64.118862 
4917.000000	64.015054 
4916.000000	63.999104 
4915.000000	64.082551 
4914.000000	64.256453 
4913.000000	64.493465 
4912.000000	64.756703 
4911.000000	65.005016 
4910.000000	65.202236 
4909.000000	65.324020 
4908.000000	65.361595 
4907.000000	65.321660 
4906.000000	65.222358 
4905.000000	65.088272 
4904.000000	64.943647 
4903.000000	64.809250 
4902.000000	64.698982 
4901.000000	64.619803 
4900.000000	64.572525 
4899.000000	64.553165 
4898.000000	64.555454 
4897.000000	64.572787 
4896.000000	64.600110 
4895.000000	64.632654 
4894.000000	64.667654 
4893.000000	64.702391 
4892.000000	64.735770 
4891.000000	64.767098 
4890.000000	64.797019 
4889.000000	64.826440 
4888.000000	64.856743 
4887.000000	64.889550 
4886.000000	64.925861 
4885.000000	64.966130 
4884.000000	65.009427 
4883.000000	65.054345 
4882.000000	65.097665 
4881.000000	65.135550 
4880.000000	65.163230 
4879.000000	65.176391 
4878.000000	65.170884 
4877.000000	65.144038 
4876.000000	65.096068 
4875.000000	65.030860 
4874.000000	64.956378 
4873.000000	64.883780 
4872.000000	64.825415 
4871.000000	64.792442 
4870.000000	64.793086 
4869.000000	64.830589 
4868.000000	64.902067 
4867.000000	64.998722 
4866.000000	65.107774 
4865.000000	65.214109 
4864.000000	65.303874 
4863.000000	65.365743 
4862.000000	65.392732 
4861.000000	65.382432 
4860.000000	65.336513 
4859.000000	65.260338 
4858.000000	65.161442 
4857.000000	65.049290 
4856.000000	64.933991 
4855.000000	64.826226 
4854.000000	64.736771 
4853.000000	64.674806 
4852.000000	64.647316 
4851.000000	64.656829 
4850.000000	64.700818 
4849.000000	64.771652 
4848.000000	64.857983 
4847.000000	64.946413 
4846.000000	65.024375 
4845.000000	65.082550 
4844.000000	65.116620 
4843.000000	65.127730 
4842.000000	65.121126 
4841.000000	65.104556 
4840.000000	65.084981 
4839.000000	65.066528 
4838.000000	65.049457 
4837.000000	65.030479 
4836.000000	65.005469 
4835.000000	64.971709 
4834.000000	64.930891 
4833.000000	64.889883 
4832.000000	64.860033 
4831.000000	64.854907 
4830.000000	64.885330 
4829.000000	64.955663 
4828.000000	65.061044 
4827.000000	65.187358 
4826.000000	65.314149 
4825.000000	65.419125 
4824.000000	65.484905 
4823.000000	65.503334 
4822.000000	65.478038 
4821.000000	65.422892 
4820.000000	65.358400 
4819.000000	65.305185 
4818.000000	65.276956 
4817.000000	65.276312 
4816.000000	65.293598 
4815.000000	65.310359 
4814.000000	65.305709 
4813.000000	65.263867 
4812.000000	65.179061 
4811.000000	65.059661 
4810.000000	64.926552 
4809.000000	64.808964 
4808.000000	64.735341 
4807.000000	64.727234 
4806.000000	64.793133 
4805.000000	64.926171 
4804.000000	65.106010 
4803.000000	65.303111 
4802.000000	65.486526 
4801.000000	65.630054 
4800.000000	65.717339 
4799.000000	65.745306 
4798.000000	65.722870 
4797.000000	65.668272 
4796.000000	65.602970 
4795.000000	65.547633 
4794.000000	65.517044 
4793.000000	65.519094 
4792.000000	65.553212 
4791.000000	65.611577 
4790.000000	65.680623 
4789.000000	65.744924 
4788.000000	65.789413 
4787.000000	65.801334 
4786.000000	65.772819 
4785.000000	65.700697 
4784.000000	65.588617 
4783.000000	65.445899 
4782.000000	65.286922 
4781.000000	65.128970 
4780.000000	64.988422 
4779.000000	64.879179 
4778.000000	64.808297 
4777.000000	64.775919 
4776.000000	64.773774 
4775.000000	64.787149 
4774.000000	64.798808 
4773.000000	64.792203 
4772.000000	64.757943 
4771.000000	64.695119 
4770.000000	64.613795 
4769.000000	64.531230 
4768.000000	64.471101 
4767.000000	64.456820 
4766.000000	64.505863 
4765.000000	64.624166 
4764.000000	64.803361 
4763.000000	65.020966 
4762.000000	65.244722 
4761.000000	65.438556 
4760.000000	65.570497 
4759.000000	65.619349 
4758.000000	65.579009 
4757.000000	65.459537 
4756.000000	65.283727 
4755.000000	65.082192 
4754.000000	64.886474 
4753.000000	64.722919 
4752.000000	64.608836 
4751.000000	64.549994 
4750.000000	64.543557 
4749.000000	64.578461 
4748.000000	64.640450 
4747.000000	64.714574 
4746.000000	64.788675 
4745.000000	64.853596 
4744.000000	64.902615 
4743.000000	64.931845 
4742.000000	64.938783 
4741.000000	64.923262 
4740.000000	64.886808 
4739.000000	64.833569 
4738.000000	64.769411 
4737.000000	64.701294 
4736.000000	64.636158 
4735.000000	64.579772 
4734.000000	64.536070 
4733.000000	64.507055 
4732.000000	64.492607 
4731.000000	64.491200 
4730.000000	64.500164 
4729.000000	64.516544 
4728.000000	64.536857 
4727.000000	64.556503 
4726.000000	64.571261 
4725.000000	64.576530 
4724.000000	64.569973 
4723.000000	64.551115 
4722.000000	64.523434 
4721.000000	64.492845 
4720.000000	64.468002 
4719.000000	64.458870 
4718.000000	64.472889 
4717.000000	64.513087 
4716.000000	64.576315 
4715.000000	64.653515 
4714.000000	64.731717 
4713.000000	64.797067 
4712.000000	64.838576 
4711.000000	64.850807 
4710.000000	64.835119 
4709.000000	64.799118 
4708.000000	64.754772 
4707.000000	64.715099 
4706.000000	64.690780 
4705.000000	64.687418 
4704.000000	64.705252 
4703.000000	64.738631 
4702.000000	64.778423 
4701.000000	64.813876 
4700.000000	64.835786 
4699.000000	64.838433 
4698.000000	64.820766 
4697.000000	64.786648 
4696.000000	64.742517 
4695.000000	64.697456 
4694.000000	64.660596 
4693.000000	64.639997 
4692.000000	64.640688 
4691.000000	64.664483 
4690.000000	64.709782 
4689.000000	64.772057 
4688.000000	64.845013 
4687.000000	64.921689 
4686.000000	64.995908 
4685.000000	65.063095 
4684.000000	65.120816 
4683.000000	65.169048 
4682.000000	65.209388 
4681.000000	65.244388 
4680.000000	65.275931 
4679.000000	65.305209 
4678.000000	65.331196 
4677.000000	65.352129 
4676.000000	65.364456 
4675.000000	65.364742 
4674.000000	65.349316 
4673.000000	65.316629 
4672.000000	65.266299 
4671.000000	65.199780 
4670.000000	65.119957 
4669.000000	65.030598 
4668.000000	64.936637 
4667.000000	64.843654 
4666.000000	64.757776 
4665.000000	64.684963 
4664.000000	64.630508 
4663.000000	64.598417 
4662.000000	64.590191 
4661.000000	64.604520 
4660.000000	64.637255 
4659.000000	64.682054 
4658.000000	64.730978 
4657.000000	64.776277 
4656.000000	64.812612 
4655.000000	64.838171 
4654.000000	64.854431 
4653.000000	64.865636 
4652.000000	64.877676 
4651.000000	64.895844 
4650.000000	64.923048 
4649.000000	64.958620 
4648.000000	64.998865 
4647.000000	65.037393 
4646.000000	65.067863 
4645.000000	65.084743 
4644.000000	65.085411 
4643.000000	65.070390 
4642.000000	65.043735 
4641.000000	65.011358 
4640.000000	64.979219 
4639.000000	64.951992 
4638.000000	64.932227 
4637.000000	64.919304 
4636.000000	64.909934 
4635.000000	64.899444 
4634.000000	64.883589 
4633.000000	64.859175 
4632.000000	64.825177 
4631.000000	64.782857 
4630.000000	64.735364 
4629.000000	64.686965 
4628.000000	64.642000 
4627.000000	64.603495 
4626.000000	64.572668 
4625.000000	64.548945 
4624.000000	64.530420 
4623.000000	64.514350 
4622.000000	64.498686 
4621.000000	64.482402 
4620.000000	64.466619 
4619.000000	64.453864 
4618.000000	64.448475 
4617.000000	64.454340 
4616.000000	64.474773 
4615.000000	64.510655 
4614.000000	64.560723 
4613.000000	64.621186 
4612.000000	64.686536 
4611.000000	64.750361 
4610.000000	64.806842 
4609.000000	64.851784 
4608.000000	64.882993 
4607.000000	64.900302 
4606.000000	64.904785 
4605.000000	64.897918 
4604.000000	64.881110 
4603.000000	64.855575 
4602.000000	64.822602 
4601.000000	64.783906 
4600.000000	64.742422 
4599.000000	64.702439 
4598.000000	64.669418 
4597.000000	64.649319 
4596.000000	64.647412 
4595.000000	64.667367 
4594.000000	64.710044 
4593.000000	64.773344 
4592.000000	64.852070 
4591.000000	64.938402 
4590.000000	65.023541 
4589.000000	65.098285 
4588.000000	65.154623 
4587.000000	65.186309 
4586.000000	65.189933 
4585.000000	65.165233 
4584.000000	65.115094 
4583.000000	65.045809 
4582.000000	64.966297 
4581.000000	64.886951 
4580.000000	64.818024 
4579.000000	64.767313 
4578.000000	64.738941 
4577.000000	64.732146 
4576.000000	64.741873 
4575.000000	64.759778 
4574.000000	64.776492 
4573.000000	64.784073 
4572.000000	64.777994 
4571.000000	64.757156 
4570.000000	64.724349 
4569.000000	64.684867 
4568.000000	64.644813 
4567.000000	64.608812 
4566.000000	64.579272 
4565.000000	64.555811 
4564.000000	64.535903 
4563.000000	64.516305 
4562.000000	64.494204 
4561.000000	64.468073 
4560.000000	64.438581 
4559.000000	64.408302 
4558.000000	64.380979 
4557.000000	64.359641 
4556.000000	64.346861 
4555.000000	64.343833 
4554.000000	64.350628 
4553.000000	64.365983 
4552.000000	64.388895 
4551.000000	64.418983 
4550.000000	64.456534 
4549.000000	64.502382 
4548.000000	64.556956 
4547.000000	64.619922 
4546.000000	64.690065 
4545.000000	64.765167 
4544.000000	64.842748 
4543.000000	64.919877 
4542.000000	64.994597 
4541.000000	65.064454 
4540.000000	65.126609 
4539.000000	65.176844 
4538.000000	65.210843 
4537.000000	65.224123 
4536.000000	65.213608 
4535.000000	65.178275 
4534.000000	65.121603 
4533.000000	65.049386 
4532.000000	64.969778 
4531.000000	64.890432 
4530.000000	64.818120 
4529.000000	64.755153 
4528.000000	64.699316 
4527.000000	64.645171 
4526.000000	64.586615 
4525.000000	64.518761 
4524.000000	64.439964 
4523.000000	64.354920 
4522.000000	64.273858 
4521.000000	64.208102 
4520.000000	64.168024 
4519.000000	64.159154 
4518.000000	64.182066 
4517.000000	64.232587 
4516.000000	64.303541 
4515.000000	64.387965 
4514.000000	64.479470 
4513.000000	64.570689 
4512.000000	64.655780 
4511.000000	64.729285 
4510.000000	64.788484 
4509.000000	64.833617 
4508.000000	64.867544 
4507.000000	64.894247 
4506.000000	64.918756 
4505.000000	64.946103 
4504.000000	64.980483 
4503.000000	65.022301 
4502.000000	65.074396 
4501.000000	65.142130 
4500.000000	65.235567 
4499.000000	65.366911 
4498.000000	65.551185 
4497.000000	65.800905 
4496.000000	66.118860 
4495.000000	66.494178 
4494.000000	66.899037 
4493.000000	67.295026 
4492.000000	67.637133 
4491.000000	67.889261 
4490.000000	68.038153 
4489.000000	68.097519 
4488.000000	68.110847 
4487.000000	68.133187 
4486.000000	68.220067 
4485.000000	68.401408 
4484.000000	68.673706 
4483.000000	68.992543 
4482.000000	69.289398 
4481.000000	69.481515 
4480.000000	69.499659 
4479.000000	69.301819 
4478.000000	68.892669 
4477.000000	68.314051 
4476.000000	67.635416 
4475.000000	66.936659 
4474.000000	66.288590 
4473.000000	65.741991 
4472.000000	65.323328 
4471.000000	65.021181 
4470.000000	64.793848 
4469.000000	64.598107 
4468.000000	64.403963 
4467.000000	64.193916 
4466.000000	63.968873 
4465.000000	63.741755 
4464.000000	63.532662 
4463.000000	63.358283 
4462.000000	63.227677 
4461.000000	63.131666 
4460.000000	63.050198 
4459.000000	62.967205 
4458.000000	62.865614 
4457.000000	62.739539 
4456.000000	62.579083 
4455.000000	62.380957 
4454.000000	62.126159 
4453.000000	61.777544 
4452.000000	61.292457 
4451.000000	60.619783 
4450.000000	59.754872 
4449.000000	58.728766 
4448.000000	57.679867 
4447.000000	56.827640 
4446.000000	56.467461 
4445.000000	56.898069 
4444.000000	58.354973 
4443.000000	60.930323 
4442.000000	64.523577 
4441.000000	68.830180 
4440.000000	73.379778 
4439.000000	77.616548 
4438.000000	81.012797 
4437.000000	83.167982 
4436.000000	83.889579 
4435.000000	83.214282 
4434.000000	81.400609 
4433.000000	78.841733 
4432.000000	75.984096 
4431.000000	73.215723 
4430.000000	70.828795 
4429.000000	68.953776 
4428.000000	67.606449 
4427.000000	66.689300 
4426.000000	66.084694 
4425.000000	65.669131 
4424.000000	65.357327 
4423.000000	65.110087 
4422.000000	64.909482 
4421.000000	64.769625 
4420.000000	64.696788 
4419.000000	64.697146 
4418.000000	64.754891 
4417.000000	64.848208 
4416.000000	64.949417 
4415.000000	65.034008 
4414.000000	65.084886 
4413.000000	65.096497 
4412.000000	65.074896 
4411.000000	65.025067 
4410.000000	64.951920 
4409.000000	64.867448 
4408.000000	64.785552 
4407.000000	64.712429 
4406.000000	64.650678 
4405.000000	64.608907 
4404.000000	64.593601 
4403.000000	64.606022 
4402.000000	64.643335 
4401.000000	64.692592 
4400.000000	64.741253 
4399.000000	64.788246 
4398.000000	64.834737 
4397.000000	64.877009 
4396.000000	64.914345 
4395.000000	64.949297 
4394.000000	64.983940 
4393.000000	65.018224 
4392.000000	65.051770 
4391.000000	65.083956 
4390.000000	65.113043 
4389.000000	65.136551 
4388.000000	65.152049 
4387.000000	65.157580 
4386.000000	65.151834 
4385.000000	65.134263 
4384.000000	65.105009 
4383.000000	65.065073 
4382.000000	65.016651 
4381.000000	64.963269 
4380.000000	64.909148 
4379.000000	64.859223 
4378.000000	64.818358 
4377.000000	64.791131 
4376.000000	64.781141 
4375.000000	64.790582 
4374.000000	64.819431 
4373.000000	64.865493 
4372.000000	64.924621 
4371.000000	64.990758 
4370.000000	65.056610 
4369.000000	65.114593 
4368.000000	65.157532 
4367.000000	65.180444 
4366.000000	65.181398 
4365.000000	65.161705 
4364.000000	65.125560 
4363.000000	65.079307 
4362.000000	65.030050 
4361.000000	64.983797 
4360.000000	64.944410 
4359.000000	64.913034 
4358.000000	64.888358 
4357.000000	64.867162 
4356.000000	64.845776 
4355.000000	64.821314 
4354.000000	64.793038 
4353.000000	64.762115 
4352.000000	64.732360 
4351.000000	64.708900 
4350.000000	64.697480 
4349.000000	64.702391 
4348.000000	64.725661 
4347.000000	64.765977 
4346.000000	64.819073 
4345.000000	64.878511 
4344.000000	64.936947 
4343.000000	64.987421 
4342.000000	65.024828 
4341.000000	65.046858 
4340.000000	65.053462 
4339.000000	65.046477 
4338.000000	65.028572 
4337.000000	65.002799 
4336.000000	64.971280 
4335.000000	64.935231 
4334.000000	64.895415 
4333.000000	64.852643 
4332.000000	64.808201 
4331.000000	64.763665 
4330.000000	64.721059 
4329.000000	64.682316 
4328.000000	64.648151 
4327.000000	64.618206 
4326.000000	64.590144 
4325.000000	64.561462 
4324.000000	64.529895 
4323.000000	64.495205 
4322.000000	64.459085 
4321.000000	64.425849 
4320.000000	64.401102 
4319.000000	64.391040 
4318.000000	64.400076 
4317.000000	64.430379 
4316.000000	64.480352 
4315.000000	64.546036 
4314.000000	64.621114 
4313.000000	64.699649 
4312.000000	64.777088 
4311.000000	64.851164 
4310.000000	64.921736 
4309.000000	64.989662 
4308.000000	65.055656 
4307.000000	65.118813 
4306.000000	65.176033 
4305.000000	65.222167 
4304.000000	65.250682 
4303.000000	65.256404 
4302.000000	65.236020 
4301.000000	65.189599 
4300.000000	65.120434 
4299.000000	65.035057 
4298.000000	64.942002 
4297.000000	64.850020 
4296.000000	64.767408 
4295.000000	64.700555 
4294.000000	64.653754 
4293.000000	64.629244 
4292.000000	64.627027 
4291.000000	64.645195 
4290.000000	64.680147 
4289.000000	64.726591 
4288.000000	64.778256 
4287.000000	64.827990 
4286.000000	64.869475 
4285.000000	64.897727 
4284.000000	64.910364 
4283.000000	64.907622 
4282.000000	64.892411 
4281.000000	64.869523 
4280.000000	64.844131 
4279.000000	64.820718 
4278.000000	64.802408 
4277.000000	64.790320 
4276.000000	64.784002 
4275.000000	64.781737 
4274.000000	64.781665 
4273.000000	64.782166 
4272.000000	64.782333 
4271.000000	64.782047 
4270.000000	64.781093 
4269.000000	64.779257 
4268.000000	64.775729 
4267.000000	64.769577 
4266.000000	64.759421 
4265.000000	64.744448 
4264.000000	64.725232 
4263.000000	64.703440 
4262.000000	64.681577 
4261.000000	64.662671 
4260.000000	64.649438 
4259.000000	64.644074 
4258.000000	64.647626 
4257.000000	64.660120 
4256.000000	64.680290 
4255.000000	64.706373 
4254.000000	64.736294 
4253.000000	64.767885 
4252.000000	64.799189 
4251.000000	64.828658 
4250.000000	64.855337 
4249.000000	64.878726 
4248.000000	64.898729 
4247.000000	64.915680 
4246.000000	64.930248 
4245.000000	64.943623 
4244.000000	64.956974 
4243.000000	64.971399 
4242.000000	64.987421 
4241.000000	65.005183 
4240.000000	65.024137 
4239.000000	65.043139 
4238.000000	65.060567 
4237.000000	65.074825 
4236.000000	65.084528 
4235.000000	65.089011 
4234.000000	65.088295 
4233.000000	65.083312 
4232.000000	65.075564 
4231.000000	65.067005 
4230.000000	65.059471 
4229.000000	65.054464 
4228.000000	65.052509 
4227.000000	65.053224 
4226.000000	65.055108 
4225.000000	65.055775 
4224.000000	65.052342 
4223.000000	65.042257 
4222.000000	65.023612 
4221.000000	64.996290 
4220.000000	64.962339 
4219.000000	64.925932 
4218.000000	64.892554 
4217.000000	64.867806 
4216.000000	64.856219 
4215.000000	64.859819 
4214.000000	64.877533 
4213.000000	64.905214 
4212.000000	64.936566 
4211.000000	64.964604 
4210.000000	64.983463 
4209.000000	64.989948 
4208.000000	64.984154 
4207.000000	64.969491 
4206.000000	64.951348 
4205.000000	64.935517 
4204.000000	64.926147 
4203.000000	64.924931 
4202.000000	64.930486 
4201.000000	64.939498 
4200.000000	64.947938 
4199.000000	64.952659 
4198.000000	64.952325 
4197.000000	64.947867 
4196.000000	64.942049 
4195.000000	64.938116 
4194.000000	64.939260 
4193.000000	64.947175 
4192.000000	64.962029 
4191.000000	64.982604 
4190.000000	65.006899 
4189.000000	65.033030 
4188.000000	65.059447 
4187.000000	65.085625 
4186.000000	65.111374 
4185.000000	65.136361 
4184.000000	65.160083 
4183.000000	65.181159 
4182.000000	65.198373 
4181.000000	65.210962 
4180.000000	65.218877 
4179.000000	65.223407 
4178.000000	65.226054 
4177.000000	65.228605 
4176.000000	65.231680 
4175.000000	65.234684 
4174.000000	65.235304 
4173.000000	65.230321 
4172.000000	65.216875 
4171.000000	65.193676 
4170.000000	65.161752 
4169.000000	65.124630 
4168.000000	65.087556 
4167.000000	65.056324 
4166.000000	65.035510 
4165.000000	65.027451 
4164.000000	65.031075 
4163.000000	65.042781 
4162.000000	65.057635 
4161.000000	65.070915 
4160.000000	65.079498 
4159.000000	65.082216 
4158.000000	65.079760 
4157.000000	65.073847 
4156.000000	65.065717 
4155.000000	65.056037 
4154.000000	65.044188 
4153.000000	65.029335 
4152.000000	65.010714 
4151.000000	64.989137 
4150.000000	64.967370 
4149.000000	64.950013 
4148.000000	64.942622 
4147.000000	64.950084 
4146.000000	64.975142 
4145.000000	65.017032 
4144.000000	65.071105 
4143.000000	65.129089 
4142.000000	65.180778 
4141.000000	65.216374 
4140.000000	65.228652 
4139.000000	65.214419 
4138.000000	65.175485 
4137.000000	65.118145 
4136.000000	65.051770 
4135.000000	64.986705 
4134.000000	64.932203 
4133.000000	64.894843 
4132.000000	64.877629 
4131.000000	64.879965 
4130.000000	64.898228 
4129.000000	64.926958 
4128.000000	64.960026 
4127.000000	64.991855 
4126.000000	65.018153 
4125.000000	65.035891 
4124.000000	65.044069 
4123.000000	65.042901 
4122.000000	65.034294 
4121.000000	65.020990 
4120.000000	65.006756 
4119.000000	64.995551 
4118.000000	64.991259 
4117.000000	64.996933 
4116.000000	65.014100 
4115.000000	65.042519 
4114.000000	65.079951 
4113.000000	65.122675 
4112.000000	65.166115 
4111.000000	65.205645 
4110.000000	65.237545 
4109.000000	65.259313 
4108.000000	65.270185 
4107.000000	65.270614 
4106.000000	65.262317 
4105.000000	65.247130 
4104.000000	65.226697 
4103.000000	65.202379 
4102.000000	65.175437 
4101.000000	65.147089 
4100.000000	65.118646 
4099.000000	65.091657 
4098.000000	65.067887 
4097.000000	65.048980 
4096.000000	65.036225 
4095.000000	65.030097 
4094.000000	65.029907 
4093.000000	65.034389 
4092.000000	65.042042 
4091.000000	65.051436 
4090.000000	65.061807 
4089.000000	65.073227 
4088.000000	65.086388 
4087.000000	65.102243 
4086.000000	65.121388 
4085.000000	65.143609 
4084.000000	65.167808 
4083.000000	65.192008 
4082.000000	65.214109 
4081.000000	65.232658 
4080.000000	65.247058 
4079.000000	65.258073 
4078.000000	65.267157 
4077.000000	65.276026 
4076.000000	65.285634 
4075.000000	65.295767 
4074.000000	65.304875 
4073.000000	65.310454 
4072.000000	65.309858 
4071.000000	65.301442 
4070.000000	65.284681 
4069.000000	65.260696 
4068.000000	65.231943 
4067.000000	65.201687 
4066.000000	65.173149 
4065.000000	65.148830 
4064.000000	65.129995 
4063.000000	65.116691 
4062.000000	65.108084 
4061.000000	65.102958 
4060.000000	65.100288 
4059.000000	65.099573 
4058.000000	65.100955 
4057.000000	65.105199 
4056.000000	65.112829 
4055.000000	65.124106 
4054.000000	65.138602 
4053.000000	65.155315 
4052.000000	65.172338 
4051.000000	65.187668 
4050.000000	65.199398 
4049.000000	65.206241 
4048.000000	65.207576 
4047.000000	65.203881 
4046.000000	65.196561 
4045.000000	65.187501 
4044.000000	65.178871 
4043.000000	65.172481 
4042.000000	65.169262 
4041.000000	65.169143 
4040.000000	65.171170 
4039.000000	65.173721 
4038.000000	65.175032 
4037.000000	65.173792 
4036.000000	65.169596 
4035.000000	65.163064 
4034.000000	65.155673 
4033.000000	65.149664 
4032.000000	65.147209 
4031.000000	65.149641 
4030.000000	65.156888 
4029.000000	65.167450 
4028.000000	65.178418 
4027.000000	65.186190 
4026.000000	65.187120 
4025.000000	65.178656 
4024.000000	65.160083 
4023.000000	65.132761 
4022.000000	65.100240 
4021.000000	65.067243 
4020.000000	65.038847 
4019.000000	65.019464 
4018.000000	65.011715 
4017.000000	65.015792 
4016.000000	65.029478 
4015.000000	65.048885 
4014.000000	65.069031 
4013.000000	65.085172 
4012.000000	65.093779 
4011.000000	65.093111 
4010.000000	65.083765 
4009.000000	65.068197 
4008.000000	65.050244 
4007.000000	65.033984 
4006.000000	65.023136 
4005.000000	65.020012 
4004.000000	65.025424 
4003.000000	65.038275 
4002.000000	65.056347 
4001.000000	65.076375 
4000.000000	65.094757 
3999.000000	65.108418 
3998.000000	65.115070 
3997.000000	65.113568 
3996.000000	65.104246 
3995.000000	65.088319 
3994.000000	65.067815 
3993.000000	65.044665 
3992.000000	65.020632 
3991.000000	64.996981 
3990.000000	64.974355 
3989.000000	64.953207 
3988.000000	64.933872 
3987.000000	64.917421 
3986.000000	64.905691 
3985.000000	64.900851 
3984.000000	64.904880 
3983.000000	64.919209 
3982.000000	64.944052 
3981.000000	64.977741 
3980.000000	65.016794 
3979.000000	65.056514 
3978.000000	65.091943 
3977.000000	65.118861 
3976.000000	65.134429 
3975.000000	65.138316 
3974.000000	65.131878 
3973.000000	65.117716 
3972.000000	65.098381 
3971.000000	65.076041 
3970.000000	65.051412 
3969.000000	65.024065 
3968.000000	64.992499 
3967.000000	64.955449 
3966.000000	64.912486 
3965.000000	64.864563 
3964.000000	64.814686 
3963.000000	64.767098 
3962.000000	64.727377 
3961.000000	64.701104 
3960.000000	64.693093 
3959.000000	64.705920 
3958.000000	64.739918 
3957.000000	64.792633 
3956.000000	64.859175 
3955.000000	64.932847 
3954.000000	65.006232 
3953.000000	65.072274 
3952.000000	65.125131 
3951.000000	65.161180 
3950.000000	65.179371 
3949.000000	65.181207 
3948.000000	65.170478 
3947.000000	65.152144 
3946.000000	65.131664 
3945.000000	65.113663 
3944.000000	65.101647 
3943.000000	65.097308 
3942.000000	65.101099 
3941.000000	65.111756 
3940.000000	65.127563 
3939.000000	65.145468 
3938.000000	65.162181 
3937.000000	65.173983 
3936.000000	65.177392 
3935.000000	65.169787 
3934.000000	65.149664 
3933.000000	65.117502 
3932.000000	65.075635 
3931.000000	65.027976 
3930.000000	64.979362 
3929.000000	64.934873 
3928.000000	64.899039 
3927.000000	64.874768 
3926.000000	64.863133 
3925.000000	64.863371 
3924.000000	64.873409 
3923.000000	64.890742 
3922.000000	64.912796 
3921.000000	64.937138 
3920.000000	64.961504 
3919.000000	64.984011 
3918.000000	65.002727 
3917.000000	65.015316 
3916.000000	65.019750 
3915.000000	65.014481 
3914.000000	64.999270 
3913.000000	64.975619 
3912.000000	64.946174 
3911.000000	64.914631 
3910.000000	64.884686 
3909.000000	64.859414 
3908.000000	64.840817 
3907.000000	64.829540 
3906.000000	64.825510 
3905.000000	64.828228 
3904.000000	64.837813 
3903.000000	64.855265 
3902.000000	64.882493 
3901.000000	64.921593 
3900.000000	64.973688 
3899.000000	65.037894 
3898.000000	65.110635 
3897.000000	65.185713 
3896.000000	65.254878 
3895.000000	65.309453 
3894.000000	65.342307 
3893.000000	65.349221 
3892.000000	65.330243 
3891.000000	65.289473 
3890.000000	65.234613 
3889.000000	65.175080 
3888.000000	65.120291 
3887.000000	65.077662 
3886.000000	65.051865 
3885.000000	65.043616 
3884.000000	65.050506 
3883.000000	65.067696 
3882.000000	65.089607 
3881.000000	65.111064 
3880.000000	65.128540 
3879.000000	65.140604 
3878.000000	65.147709 
3877.000000	65.151858 
3876.000000	65.155625 
3875.000000	65.161609 
3874.000000	65.171360 
3873.000000	65.185356 
3872.000000	65.202474 
3871.000000	65.220570 
3870.000000	65.236568 
3869.000000	65.247297 
3868.000000	65.249991 
3867.000000	65.242743 
3866.000000	65.225434 
3865.000000	65.199851 
3864.000000	65.169858 
3863.000000	65.140581 
3862.000000	65.117859 
3861.000000	65.107393 
3860.000000	65.113139 
3859.000000	65.136623 
3858.000000	65.175652 
3857.000000	65.224504 
3856.000000	65.275001 
3855.000000	65.318012 
3854.000000	65.345716 
3853.000000	65.353393 
3852.000000	65.340709 
3851.000000	65.311765 
3850.000000	65.274095 
3849.000000	65.236687 
3848.000000	65.207743 
3847.000000	65.192747 
3846.000000	65.193653 
3845.000000	65.208768 
3844.000000	65.233778 
3843.000000	65.262889 
3842.000000	65.290570 
3841.000000	65.312623 
3840.000000	65.326571 
3839.000000	65.332007 
3838.000000	65.329837 
3837.000000	65.322089 
3836.000000	65.310668 
3835.000000	65.297317 
3834.000000	65.283274 
3833.000000	65.269112 
3832.000000	65.255570 
3831.000000	65.242862 
3830.000000	65.231418 
3829.000000	65.221095 
3828.000000	65.211582 
3827.000000	65.202283 
3826.000000	65.192747 
3825.000000	65.182685 
3824.000000	65.171957 
3823.000000	65.161013 
3822.000000	65.150547 
3821.000000	65.141367 
3820.000000	65.134167 
3819.000000	65.129160 
3818.000000	65.126061 
3817.000000	65.124154 
3816.000000	65.122556 
3815.000000	65.120315 
3814.000000	65.116882 
3813.000000	65.112304 
3812.000000	65.107417 
3811.000000	65.104079 
3810.000000	65.104365 
3809.000000	65.110230 
3808.000000	65.122318 
3807.000000	65.140080 
3806.000000	65.160989 
3805.000000	65.181088 
3804.000000	65.195465 
3803.000000	65.199375 
3802.000000	65.189266 
3801.000000	65.164160 
3800.000000	65.125775 
3799.000000	65.078091 
3798.000000	65.027379 
3797.000000	64.980721 
3796.000000	64.944577 
3795.000000	64.923572 
3794.000000	64.919781 
3793.000000	64.932417 
3792.000000	64.958286 
3791.000000	64.992141 
3790.000000	65.028214 
3789.000000	65.060973 
3788.000000	65.086030 
3787.000000	65.100693 
3786.000000	65.103936 
3785.000000	65.096449 
3784.000000	65.079951 
3783.000000	65.056729 
3782.000000	65.029335 
3781.000000	65.000271 
3780.000000	64.971566 
3779.000000	64.945149 
3778.000000	64.922690 
3777.000000	64.906358 
3776.000000	64.898324 
3775.000000	64.901018 
3774.000000	64.916348 
3773.000000	64.945507 
3772.000000	64.988327 
3771.000000	65.042805 
3770.000000	65.104961 
3769.000000	65.169429 
3768.000000	65.230059 
3767.000000	65.281009 
3766.000000	65.317916 
3765.000000	65.338540 
3764.000000	65.343236 
3763.000000	65.335011 
3762.000000	65.318655 
3761.000000	65.300154 
3760.000000	65.285229 
3759.000000	65.278363 
3758.000000	65.282034 
3757.000000	65.296745 
3756.000000	65.320897 
3755.000000	65.351676 
3754.000000	65.385484 
3753.000000	65.418863 
3752.000000	65.448856 
3751.000000	65.473556 
3750.000000	65.491867 
3749.000000	65.503358 
3748.000000	65.507912 
3747.000000	65.505790 
3746.000000	65.497159 
3745.000000	65.482306 
3744.000000	65.461707 
3743.000000	65.436315 
3742.000000	65.407395 
3741.000000	65.376615 
3740.000000	65.345740 
3739.000000	65.316224 
3738.000000	65.288949 
3737.000000	65.264010 
3736.000000	65.240454 
3735.000000	65.216732 
3734.000000	65.191388 
3733.000000	65.163683 
3732.000000	65.133571 
3731.000000	65.102672 
3730.000000	65.073680 
3729.000000	65.050172 
3728.000000	65.035581 
3727.000000	65.032601 
3726.000000	65.042257 
3725.000000	65.063738 
3724.000000	65.094017 
3723.000000	65.128731 
3722.000000	65.162968 
3721.000000	65.192151 
3720.000000	65.212917 
3719.000000	65.223789 
3718.000000	65.225434 
3717.000000	65.220475 
3716.000000	65.212535 
3715.000000	65.205907 
3714.000000	65.204262 
3713.000000	65.210270 
3712.000000	65.225005 
3711.000000	65.247726 
3710.000000	65.275907 
3709.000000	65.306115 
3708.000000	65.334630 
3707.000000	65.357804 
3706.000000	65.372896 
3705.000000	65.378427 
3704.000000	65.374493 
3703.000000	65.362405 
3702.000000	65.344500 
3701.000000	65.323615 
3700.000000	65.302467 
3699.000000	65.283656 
3698.000000	65.268993 
3697.000000	65.259575 
3696.000000	65.255594 
3695.000000	65.256857 
3694.000000	65.262532 
3693.000000	65.271496 
3692.000000	65.282368 
3691.000000	65.293693 
3690.000000	65.303945 
3689.000000	65.311670 
3688.000000	65.316009 
3687.000000	65.317034 
3686.000000	65.315723 
3685.000000	65.313911 
3684.000000	65.313816 
3683.000000	65.317606 
3682.000000	65.327000 
3681.000000	65.342402 
3680.000000	65.362834 
3679.000000	65.385508 
3678.000000	65.406656 
3677.000000	65.421557 
3676.000000	65.425682 
3675.000000	65.415453 
3674.000000	65.389084 
3673.000000	65.346884 
3672.000000	65.291666 
3671.000000	65.228247 
3670.000000	65.162873 
3669.000000	65.102100 
3668.000000	65.051794 
3667.000000	65.015769 
3666.000000	64.995598 
3665.000000	64.989852 
3664.000000	64.994597 
3663.000000	65.004467 
3662.000000	65.013742 
3661.000000	65.018057 
3660.000000	65.015482 
3659.000000	65.006899 
3658.000000	64.995646 
3657.000000	64.986515 
3656.000000	64.984273 
3655.000000	64.992237 
3654.000000	65.011262 
3653.000000	65.039706 
3652.000000	65.073704 
3651.000000	65.108442 
3650.000000	65.139317 
3649.000000	65.163350 
3648.000000	65.179491 
3647.000000	65.188741 
3646.000000	65.193605 
3645.000000	65.196847 
3644.000000	65.200591 
3643.000000	65.205931 
3642.000000	65.212368 
3641.000000	65.218496 
3640.000000	65.222406 
3639.000000	65.223050 
3638.000000	65.220236 
3637.000000	65.214681 
3636.000000	65.208196 
3635.000000	65.203022 
3634.000000	65.201377 
3633.000000	65.204715 
3632.000000	65.213513 
3631.000000	65.227174 
3630.000000	65.244030 
3629.000000	65.261507 
3628.000000	65.276575 
3627.000000	65.286111 
3626.000000	65.287470 
3625.000000	65.279102 
3624.000000	65.260577 
3623.000000	65.232992 
3622.000000	65.199041 
3621.000000	65.162515 
3620.000000	65.127778 
3619.000000	65.098977 
3618.000000	65.079665 
3617.000000	65.071821 
3616.000000	65.075421 
3615.000000	65.088796 
3614.000000	65.108847 
3613.000000	65.131950 
3612.000000	65.154719 
3611.000000	65.174627 
3610.000000	65.190482 
3609.000000	65.202522 
3608.000000	65.211915 
3607.000000	65.220189 
3606.000000	65.228366 
3605.000000	65.236783 
3604.000000	65.244698 
3603.000000	65.250420 
3602.000000	65.251684 
3601.000000	65.246534 
3600.000000	65.233993 
3599.000000	65.214323 
3598.000000	65.189242 
3597.000000	65.161323 
3596.000000	65.134000 
3595.000000	65.110468 
3594.000000	65.093278 
3593.000000	65.083861 
3592.000000	65.082335 
3591.000000	65.087699 
3590.000000	65.098261 
3589.000000	65.111804 
3588.000000	65.126514 
3587.000000	65.140724 
3586.000000	65.153503 
3585.000000	65.164494 
3584.000000	65.173935 
3583.000000	65.182304 
3582.000000	65.190553 
3581.000000	65.199542 
3580.000000	65.210294 
3579.000000	65.223646 
3578.000000	65.240263 
3577.000000	65.260100 
3576.000000	65.282320 
3575.000000	65.305280 
3574.000000	65.326499 
3573.000000	65.343165 
3572.000000	65.352773 
3571.000000	65.353369 
3570.000000	65.344405 
3569.000000	65.326690 
3568.000000	65.301990 
3567.000000	65.272831 
3566.000000	65.242123 
3565.000000	65.212368 
3564.000000	65.185403 
3563.000000	65.162205 
3562.000000	65.143442 
3561.000000	65.129256 
3560.000000	65.119528 
3559.000000	65.114188 
3558.000000	65.113043 
3557.000000	65.115928 
3556.000000	65.122413 
3555.000000	65.131878 
3554.000000	65.142917 
3553.000000	65.154147 
3552.000000	65.164518 
3551.000000	65.173149 
3550.000000	65.179562 
3549.000000	65.183925 
3548.000000	65.186667 
3547.000000	65.188241 
3546.000000	65.189099 
3545.000000	65.189504 
3544.000000	65.189719 
3543.000000	65.189981 
3542.000000	65.190911 
3541.000000	65.193200 
3540.000000	65.197968 
3539.000000	65.206456 
3538.000000	65.219855 
3537.000000	65.239167 
3536.000000	65.264439 
3535.000000	65.295171 
3534.000000	65.329146 
3533.000000	65.363144 
3532.000000	65.392637 
3531.000000	65.413045 
3530.000000	65.419960 
3529.000000	65.410137 
3528.000000	65.382146 
3527.000000	65.337085 
3526.000000	65.278339 
3525.000000	65.211176 
3524.000000	65.141963 
3523.000000	65.077209 
3522.000000	65.022325 
3521.000000	64.981222 
3520.000000	64.955401 
3519.000000	64.944434 
3518.000000	64.946150 
3517.000000	64.957547 
3516.000000	64.975214 
3515.000000	64.996027 
3514.000000	65.017294 
3513.000000	65.037155 
3512.000000	65.053892 
3511.000000	65.066623 
3510.000000	65.074467 
3509.000000	65.077257 
3508.000000	65.075230 
3507.000000	65.069293 
3506.000000	65.061116 
3505.000000	65.052866 
3504.000000	65.046811 
3503.000000	65.045070 
3502.000000	65.049052 
3501.000000	65.059041 
3500.000000	65.074086 
3499.000000	65.092158 
3498.000000	65.110611 
3497.000000	65.126729 
3496.000000	65.138292 
3495.000000	65.143942 
3494.000000	65.143609 
3493.000000	65.138411 
3492.000000	65.130352 
3491.000000	65.121388 
3490.000000	65.113210 
3489.000000	65.107035 
3488.000000	65.103411 
3487.000000	65.102219 
3486.000000	65.102863 
3485.000000	65.104889 
3484.000000	65.107655 
3483.000000	65.110707 
3482.000000	65.113496 
3481.000000	65.115356 
3480.000000	65.115571 
3479.000000	65.113472 
3478.000000	65.108561 
3477.000000	65.100526 
3476.000000	65.089535 
3475.000000	65.076136 
3474.000000	65.061068 
3473.000000	65.045166 
3472.000000	65.029048 
3471.000000	65.012907 
3470.000000	64.996647 
3469.000000	64.980101 
3468.000000	64.963269 
3467.000000	64.946627 
3466.000000	64.931297 
3465.000000	64.918947 
3464.000000	64.911484 
3463.000000	64.910793 
3462.000000	64.917993 
3461.000000	64.933228 
3460.000000	64.955496 
3459.000000	64.982795 
3458.000000	65.012478 
3457.000000	65.041399 
3456.000000	65.066385 
3455.000000	65.084767 
3454.000000	65.094542 
3453.000000	65.094709 
3452.000000	65.085387 
3451.000000	65.067815 
3450.000000	65.044403 
3449.000000	65.018391 
3448.000000	64.993357 
3447.000000	64.972782 
3446.000000	64.959645 
3445.000000	64.955735 
3444.000000	64.961290 
3443.000000	64.975118 
3442.000000	64.994859 
3441.000000	65.017461 
3440.000000	65.039944 
3439.000000	65.059924 
3438.000000	65.076017 
3437.000000	65.087819 
3436.000000	65.095853 
3435.000000	65.101027 
3434.000000	65.104293 
3433.000000	65.106296 
3432.000000	65.107131 
3431.000000	65.106630 
3430.000000	65.104389 
3429.000000	65.100622 
3428.000000	65.095806 
3427.000000	65.091061 
3426.000000	65.087890 
3425.000000	65.088057 
3424.000000	65.092968 
3423.000000	65.103220 
3422.000000	65.118694 
3421.000000	65.138411 
3420.000000	65.160918 
3419.000000	65.184545 
3418.000000	65.207791 
3417.000000	65.229249 
3416.000000	65.248084 
3415.000000	65.263795 
3414.000000	65.275979 
3413.000000	65.284276 
3412.000000	65.288329 
3411.000000	65.287780 
3410.000000	65.282726 
3409.000000	65.273380 
3408.000000	65.260601 
3407.000000	65.245246 
3406.000000	65.228509 
3405.000000	65.211343 
3404.000000	65.194368 
3403.000000	65.177822 
3402.000000	65.161633 
3401.000000	65.145611 
3400.000000	65.129685 
3399.000000	65.114140 
3398.000000	65.099644 
3397.000000	65.087151 
3396.000000	65.077495 
3395.000000	65.071487 
3394.000000	65.069556 
3393.000000	65.071749 
3392.000000	65.077590 
3391.000000	65.086245 
3390.000000	65.096759 
3389.000000	65.108156 
3388.000000	65.119528 
3387.000000	65.130019 
3386.000000	65.138840 
3385.000000	65.145063 
3384.000000	65.147733 
3383.000000	65.146112 
3382.000000	65.140128 
3381.000000	65.130019 
3380.000000	65.117025 
3379.000000	65.103220 
3378.000000	65.091133 
3377.000000	65.083599 
3376.000000	65.082788 
3375.000000	65.089917 
3374.000000	65.104818 
3373.000000	65.125846 
3372.000000	65.150022 
3371.000000	65.173411 
3370.000000	65.192008 
3369.000000	65.202689 
3368.000000	65.203738 
3367.000000	65.195417 
3366.000000	65.179920 
3365.000000	65.161085 
3364.000000	65.143251 
3363.000000	65.130329 
3362.000000	65.125179 
3361.000000	65.128874 
3360.000000	65.140414 
3359.000000	65.157127 
3358.000000	65.175223 
3357.000000	65.190529 
3356.000000	65.199351 
3355.000000	65.199232 
3354.000000	65.188980 
3353.000000	65.169262 
3352.000000	65.141916 
3351.000000	65.109944 
3350.000000	65.077042 
3349.000000	65.046906 
3348.000000	65.022897 
3347.000000	65.007495 
3346.000000	65.002250 
3345.000000	65.007424 
3344.000000	65.022039 
3343.000000	65.044188 
3342.000000	65.071153 
3341.000000	65.100216 
3340.000000	65.129041 
3339.000000	65.156006 
3338.000000	65.179967 
3337.000000	65.200471 
3336.000000	65.217399 
3335.000000	65.230631 
3334.000000	65.239834 
3333.000000	65.244317 
3332.000000	65.243458 
3331.000000	65.236830 
3330.000000	65.224814 
3329.000000	65.208673 
3328.000000	65.190768 
3327.000000	65.174078 
3326.000000	65.161824 
3325.000000	65.156793 
3324.000000	65.160894 
3323.000000	65.174698 
3322.000000	65.197229 
3321.000000	65.226244 
3320.000000	65.258336 
3319.000000	65.289998 
3318.000000	65.317487 
3317.000000	65.337252 
3316.000000	65.346407 
3315.000000	65.342974 
3314.000000	65.326046 
3313.000000	65.295982 
3312.000000	65.254592 
3311.000000	65.205168 
3310.000000	65.152144 
3309.000000	65.100741 
3308.000000	65.055775 
3307.000000	65.021228 
3306.000000	64.999270 
3305.000000	64.990067 
3304.000000	64.991450 
3303.000000	64.999866 
3302.000000	65.011143 
3301.000000	65.021848 
3300.000000	65.029668 
3299.000000	65.034580 
3298.000000	65.038490 
3297.000000	65.044760 
3296.000000	65.056777 
3295.000000	65.077018 
3294.000000	65.105819 
3293.000000	65.141177 
3292.000000	65.178942 
3291.000000	65.213894 
3290.000000	65.241265 
3289.000000	65.257573 
3288.000000	65.261960 
3287.000000	65.255904 
3286.000000	65.242695 
3285.000000	65.226459 
3284.000000	65.211009 
3283.000000	65.198922 
3282.000000	65.190911 
3281.000000	65.186214 
3280.000000	65.183019 
3279.000000	65.179204 
3278.000000	65.172886 
3277.000000	65.163302 
3276.000000	65.150594 
3275.000000	65.135622 
3274.000000	65.119433 
3273.000000	65.103030 
3272.000000	65.087032 
3271.000000	65.071535 
3270.000000	65.056514 
3269.000000	65.041756 
3268.000000	65.027356 
3267.000000	65.013647 
3266.000000	65.001440 
3265.000000	64.991521 
3264.000000	64.984917 
3263.000000	64.982581 
3262.000000	64.985346 
3261.000000	64.993405 
3260.000000	65.006518 
3259.000000	65.023851 
3258.000000	65.043830 
3257.000000	65.064191 
3256.000000	65.082383 
3255.000000	65.095877 
3254.000000	65.102791 
3253.000000	65.102195 
3252.000000	65.094518 
3251.000000	65.081310 
3250.000000	65.065240 
3249.000000	65.049338 
3248.000000	65.036249 
3247.000000	65.027570 
3246.000000	65.023684 
3245.000000	65.023684 
3244.000000	65.025973 
3243.000000	65.028452 
3242.000000	65.029859 
3241.000000	65.029358 
3240.000000	65.026855 
3239.000000	65.022635 
3238.000000	65.017151 
3237.000000	65.010595 
3236.000000	65.002655 
3235.000000	64.992642 
3234.000000	64.979910 
3233.000000	64.964175 
3232.000000	64.945864 
3231.000000	64.926481 
3230.000000	64.908218 
3229.000000	64.893770 
3228.000000	64.885735 
3227.000000	64.885950 
3226.000000	64.895129 
3225.000000	64.912724 
3224.000000	64.937257 
3223.000000	64.966368 
3222.000000	64.997553 
3221.000000	65.028166 
3220.000000	65.056371 
3219.000000	65.080785 
3218.000000	65.101194 
3217.000000	65.118169 
3216.000000	65.133118 
3215.000000	65.148043 
3214.000000	65.164637 
3213.000000	65.183949 
3212.000000	65.205740 
3211.000000	65.228772 
3210.000000	65.250587 
3209.000000	65.268278 
3208.000000	65.278959 
3207.000000	65.280747 
3206.000000	65.272951 
3205.000000	65.256452 
3204.000000	65.233302 
3203.000000	65.206384 
3202.000000	65.178656 
3201.000000	65.152239 
3200.000000	65.128469 
3199.000000	65.107583 
3198.000000	65.089321 
3197.000000	65.073108 
3196.000000	65.058851 
3195.000000	65.046787 
3194.000000	65.037417 
3193.000000	65.031456 
3192.000000	65.029025 
3191.000000	65.029788 
3190.000000	65.032911 
3189.000000	65.037488 
3188.000000	65.042352 
3187.000000	65.046787 
3186.000000	65.050649 
3185.000000	65.054488 
3184.000000	65.058827 
3183.000000	65.064549 
3182.000000	65.072202 
3181.000000	65.081858 
3180.000000	65.093159 
3179.000000	65.105462 
3178.000000	65.118026 
3177.000000	65.130233 
3176.000000	65.141797 
3175.000000	65.152645 
3174.000000	65.163016 
3173.000000	65.173029 
3172.000000	65.182685 
3171.000000	65.191626 
3170.000000	65.199232 
3169.000000	65.205073 
3168.000000	65.208888 
3167.000000	65.210700 
3166.000000	65.210866 
3165.000000	65.210103 
3164.000000	65.209102 
3163.000000	65.208244 
3162.000000	65.207338 
3161.000000	65.205645 
3160.000000	65.202093 
3159.000000	65.195345 
3158.000000	65.184378 
3157.000000	65.168905 
3156.000000	65.149593 
3155.000000	65.128135 
3154.000000	65.106916 
3153.000000	65.088415 
3152.000000	65.074753 
3151.000000	65.067028 
3150.000000	65.065026 
3149.000000	65.067362 
3148.000000	65.071964 
3147.000000	65.076708 
3146.000000	65.079927 
3145.000000	65.080761 
3144.000000	65.079283 
3143.000000	65.076541 
3142.000000	65.073919 
3141.000000	65.072822 
3140.000000	65.074324 
3139.000000	65.078997 
3138.000000	65.086936 
3137.000000	65.097832 
3136.000000	65.111041 
3135.000000	65.125894 
3134.000000	65.141701 
3133.000000	65.157723 
3132.000000	65.173530 
3131.000000	65.188550 
3130.000000	65.202140 
3129.000000	65.213656 
3128.000000	65.222764 
3127.000000	65.229272 
3126.000000	65.233254 
3125.000000	65.234756 
3124.000000	65.233898 
3123.000000	65.230488 
3122.000000	65.224480 
3121.000000	65.215587 
3120.000000	65.203619 
3119.000000	65.188622 
3118.000000	65.171217 
3117.000000	65.152621 
3116.000000	65.134668 
3115.000000	65.119409 
3114.000000	65.109038 
3113.000000	65.105724 
3112.000000	65.110635 
3111.000000	65.124201 
3110.000000	65.145349 
3109.000000	65.171861 
3108.000000	65.199851 
3107.000000	65.224933 
3106.000000	65.242552 
3105.000000	65.248489 
3104.000000	65.240263 
3103.000000	65.217041 
3102.000000	65.180754 
3101.000000	65.135455 
3100.000000	65.086984 
3099.000000	65.041780 
3098.000000	65.005803 
3097.000000	64.983344 
3096.000000	64.976024 
3095.000000	64.982819 
3094.000000	65.000247 
3093.000000	65.023350 
3092.000000	65.046763 
3091.000000	65.066027 
3090.000000	65.078330 
3089.000000	65.083003 
3088.000000	65.081143 
3087.000000	65.075325 
3086.000000	65.068697 
3085.000000	65.064239 
3084.000000	65.064096 
3083.000000	65.069389 
3082.000000	65.080165 
3081.000000	65.095329 
3080.000000	65.113496 
3079.000000	65.132737 
3078.000000	65.151143 
3077.000000	65.166950 
3076.000000	65.178465 
3075.000000	65.184497 
3074.000000	65.184354 
3073.000000	65.178442 
3072.000000	65.167760 
3071.000000	65.154290 
3070.000000	65.140461 
3069.000000	65.128922 
3068.000000	65.122008 
3067.000000	65.121102 
3066.000000	65.126204 
3065.000000	65.136098 
3064.000000	65.148591 
3063.000000	65.161037 
3062.000000	65.170884 
3061.000000	65.176415 
3060.000000	65.176987 
3059.000000	65.173220 
3058.000000	65.166711 
3057.000000	65.159440 
3056.000000	65.153360 
3055.000000	65.149831 
3054.000000	65.149354 
3053.000000	65.151643 
3052.000000	65.155673 
3051.000000	65.160155 
3050.000000	65.163755 
3049.000000	65.165472 
3048.000000	65.164899 
3047.000000	65.162229 
3046.000000	65.158176 
3045.000000	65.153598 
3044.000000	65.149521 
3043.000000	65.146565 
3042.000000	65.145182 
3041.000000	65.145444 
3040.000000	65.147066 
3039.000000	65.149497 
3038.000000	65.152120 
3037.000000	65.154361 
3036.000000	65.155792 
3035.000000	65.156364 
3034.000000	65.156221 
3033.000000	65.155720 
3032.000000	65.155482 
3031.000000	65.156126 
3030.000000	65.158224 
3029.000000	65.161991 
3028.000000	65.167522 
3027.000000	65.174555 
3026.000000	65.182399 
3025.000000	65.190196 
3024.000000	65.196847 
3023.000000	65.201354 
3022.000000	65.202951 
3021.000000	65.201449 
3020.000000	65.197300 
3019.000000	65.191721 
3018.000000	65.186405 
3017.000000	65.183258 
3016.000000	65.183854 
3015.000000	65.189123 
3014.000000	65.199112 
3013.000000	65.212655 
3012.000000	65.227842 
3011.000000	65.242338 
3010.000000	65.253806 
3009.000000	65.260529 
3008.000000	65.261745 
3007.000000	65.257692 
3006.000000	65.249538 
3005.000000	65.238785 
3004.000000	65.226960 
3003.000000	65.215229 
3002.000000	65.204191 
3001.000000	65.193891 
3000.000000	65.183687 
2999.000000	65.172982 
2998.000000	65.161108 
2997.000000	65.147781 
2996.000000	65.133094 
2995.000000	65.117287 
2994.000000	65.101003 
2993.000000	65.085005 
2992.000000	65.070223 
2991.000000	65.057444 
2990.000000	65.047407 
2989.000000	65.040683 
2988.000000	65.037441 
2987.000000	65.037345 
2986.000000	65.039491 
2985.000000	65.042614 
2984.000000	65.045022 
2983.000000	65.045356 
2982.000000	65.042972 
2981.000000	65.038371 
2980.000000	65.033221 
2979.000000	65.029954 
2978.000000	65.031409 
2977.000000	65.039801 
2976.000000	65.056061 
2975.000000	65.079021 
2974.000000	65.105581 
2973.000000	65.131068 
2972.000000	65.150332 
2971.000000	65.158843 
2970.000000	65.153837 
2969.000000	65.134906 
2968.000000	65.104365 
2967.000000	65.066528 
2966.000000	65.026617 
2965.000000	64.989900 
2964.000000	64.960360 
2963.000000	64.940190 
2962.000000	64.929437 
2961.000000	64.926671 
2960.000000	64.929580 
2959.000000	64.935755 
2958.000000	64.943194 
2957.000000	64.950489 
2956.000000	64.957070 
2955.000000	64.963054 
2954.000000	64.968609 
2953.000000	64.973926 
2952.000000	64.978837 
2951.000000	64.982867 
2950.000000	64.985370 
2949.000000	64.985775 
2948.000000	64.983725 
2947.000000	64.979338 
2946.000000	64.972853 
2945.000000	64.964747 
2944.000000	64.955639 
2943.000000	64.945983 
2942.000000	64.936208 
2941.000000	64.926481 
2940.000000	64.917206 
2939.000000	64.908981 
2938.000000	64.902782 
2937.000000	64.899730 
2936.000000	64.901208 
2935.000000	64.908337 
2934.000000	64.921760 
2933.000000	64.941382 
2932.000000	64.966011 
2931.000000	64.993357 
2930.000000	65.020465 
2929.000000	65.044140 
2928.000000	65.061902 
2927.000000	65.072250 
2926.000000	65.075278 
2925.000000	65.072321 
2924.000000	65.065765 
2923.000000	65.058040 
2922.000000	65.051341 
2921.000000	65.046739 
2920.000000	65.044212 
2919.000000	65.042591 
2918.000000	65.040206 
2917.000000	65.035486 
2916.000000	65.027427 
2915.000000	65.015912 
2914.000000	65.001845 
2913.000000	64.986872 
2912.000000	64.973068 
2911.000000	64.962315 
2910.000000	64.955830 
2909.000000	64.953875 
2908.000000	64.955711 
2907.000000	64.959740 
2906.000000	64.964032 
2905.000000	64.966773 
2904.000000	64.966797 
2903.000000	64.963722 
2902.000000	64.958381 
2901.000000	64.952588 
2900.000000	64.948916 
2899.000000	64.950108 
2898.000000	64.958429 
2897.000000	64.975380 
2896.000000	65.001130 
2895.000000	65.034317 
2894.000000	65.071940 
2893.000000	65.110015 
2892.000000	65.143918 
2891.000000	65.169167 
2890.000000	65.182352 
2889.000000	65.181589 
2888.000000	65.166950 
2887.000000	65.140509 
2886.000000	65.105891 
2885.000000	65.067577 
2884.000000	65.030241 
2883.000000	64.997935 
2882.000000	64.973568 
2881.000000	64.958500 
2880.000000	64.952921 
2879.000000	64.955854 
2878.000000	64.965772 
2877.000000	64.981007 
2876.000000	64.999818 
2875.000000	65.020895 
2874.000000	65.042853 
2873.000000	65.064287 
2872.000000	65.083503 
2871.000000	65.098786 
2870.000000	65.108466 
2869.000000	65.111255 
2868.000000	65.106773 
2867.000000	65.095543 
2866.000000	65.079188 
2865.000000	65.060114 
2864.000000	65.041136 
2863.000000	65.024852 
2862.000000	65.013313 
2861.000000	65.007352 
2860.000000	65.006899 
2859.000000	65.010476 
2858.000000	65.016031 
2857.000000	65.021228 
2856.000000	65.024065 
2855.000000	65.023207 
2854.000000	65.018343 
2853.000000	65.010285 
2852.000000	65.000700 
2851.000000	64.991974 
2850.000000	64.986681 
2849.000000	64.986944 
2848.000000	64.994144 
2847.000000	65.008378 
2846.000000	65.028595 
2845.000000	65.052485 
2844.000000	65.077137 
2843.000000	65.099549 
2842.000000	65.117359 
2841.000000	65.129113 
2840.000000	65.134859 
2839.000000	65.135717 
2838.000000	65.133666 
2837.000000	65.131092 
2836.000000	65.129947 
2835.000000	65.131711 
2834.000000	65.136623 
2833.000000	65.144252 
2832.000000	65.152978 
2831.000000	65.160918 
2830.000000	65.165710 
2829.000000	65.165638 
2828.000000	65.159487 
2827.000000	65.146970 
2826.000000	65.128636 
2825.000000	65.105938 
2824.000000	65.081000 
2823.000000	65.056300 
2822.000000	65.034484 
2821.000000	65.017890 
2820.000000	65.008449 
2819.000000	65.007328 
2818.000000	65.014839 
2817.000000	65.030241 
2816.000000	65.051746 
2815.000000	65.076947 
2814.000000	65.102648 
2813.000000	65.125679 
2812.000000	65.143227 
2811.000000	65.153574 
2810.000000	65.156102 
2809.000000	65.151548 
2808.000000	65.141987 
2807.000000	65.130233 
2806.000000	65.119290 
2805.000000	65.111517 
2804.000000	65.108489 
2803.000000	65.110230 
2802.000000	65.115618 
2801.000000	65.122556 
2800.000000	65.128612 
2799.000000	65.131521 
2798.000000	65.129923 
2797.000000	65.123343 
2796.000000	65.112519 
2795.000000	65.098905 
2794.000000	65.084314 
2793.000000	65.070319 
2792.000000	65.058112 
2791.000000	65.048122 
2790.000000	65.040493 
2789.000000	65.035033 
2788.000000	65.031647 
2787.000000	65.030455 
2786.000000	65.031838 
2785.000000	65.036225 
2784.000000	65.043640 
2783.000000	65.053367 
2782.000000	65.063881 
2781.000000	65.073156 
2780.000000	65.078949 
2779.000000	65.079283 
2778.000000	65.073060 
2777.000000	65.060305 
2776.000000	65.042471 
2775.000000	65.022015 
2774.000000	65.002012 
2773.000000	64.985275 
2772.000000	64.973998 
2771.000000	64.969158 
2770.000000	64.970541 
2769.000000	64.976668 
2768.000000	64.985442 
2767.000000	64.994764 
2766.000000	65.002989 
2765.000000	65.009307 
2764.000000	65.013718 
2763.000000	65.016984 
2762.000000	65.019917 
2761.000000	65.023159 
2760.000000	65.026855 
2759.000000	65.030384 
2758.000000	65.032792 
2757.000000	65.032887 
2756.000000	65.029835 
2755.000000	65.023541 
2754.000000	65.014600 
2753.000000	65.004396 
2752.000000	64.994668 
2751.000000	64.987325 
2750.000000	64.983677 
2749.000000	64.984488 
2748.000000	64.989638 
2747.000000	64.998292 
2746.000000	65.009260 
2745.000000	65.021395 
2744.000000	65.033578 
2743.000000	65.045261 
2742.000000	65.056180 
2741.000000	65.066266 
2740.000000	65.075588 
2739.000000	65.084075 
2738.000000	65.091490 
2737.000000	65.097451 
2736.000000	65.101480 
2735.000000	65.103387 
2734.000000	65.103197 
2733.000000	65.101337 
2732.000000	65.098571 
2731.000000	65.095853 
2730.000000	65.094161 
2729.000000	65.094232 
2728.000000	65.096211 
2727.000000	65.099835 
2726.000000	65.104317 
2725.000000	65.108537 
2724.000000	65.111422 
2723.000000	65.112257 
2722.000000	65.110754 
2721.000000	65.107297 
2720.000000	65.102434 
2719.000000	65.096855 
2718.000000	65.090918 
2717.000000	65.084695 
2716.000000	65.077662 
2715.000000	65.068864 
2714.000000	65.057468 
2713.000000	65.042996 
2712.000000	65.025997 
2711.000000	65.008115 
2710.000000	64.991903 
2709.000000	64.980268 
2708.000000	64.975857 
2707.000000	64.980292 
2706.000000	64.993667 
2705.000000	65.014362 
2704.000000	65.039491 
2703.000000	65.065479 
2702.000000	65.088820 
2701.000000	65.106797 
2700.000000	65.118122 
2699.000000	65.122842 
2698.000000	65.122103 
2697.000000	65.117859 
2696.000000	65.111947 
2695.000000	65.106105 
2694.000000	65.101289 
2693.000000	65.098166 
2692.000000	65.096902 
2691.000000	65.097665 
2690.000000	65.100646 
2689.000000	65.105652 
2688.000000	65.112209 
2687.000000	65.119290 
2686.000000	65.125465 
2685.000000	65.128970 
2684.000000	65.128231 
2683.000000	65.122294 
2682.000000	65.111184 
2681.000000	65.096092 
2680.000000	65.078997 
2679.000000	65.062332 
2678.000000	65.048241 
2677.000000	65.038084 
2676.000000	65.032029 
2675.000000	65.029072 
2674.000000	65.027499 
2673.000000	65.025305 
2672.000000	65.021014 
2671.000000	65.013980 
2670.000000	65.004777 
2669.000000	64.994859 
2668.000000	64.986371 
2667.000000	64.981460 
2666.000000	64.981746 
2665.000000	64.988136 
2664.000000	65.000605 
2663.000000	65.018224 
2662.000000	65.039181 
2661.000000	65.061187 
2660.000000	65.081644 
2659.000000	65.098071 
2658.000000	65.108346 
2657.000000	65.111041 
2656.000000	65.105533 
2655.000000	65.092182 
2654.000000	65.072250 
2653.000000	65.047645 
2652.000000	65.020823 
2651.000000	64.994502 
2650.000000	64.971303 
2649.000000	64.953446 
2648.000000	64.942526 
2647.000000	64.939236 
2646.000000	64.943337 
2645.000000	64.953613 
2644.000000	64.968252 
2643.000000	64.984989 
2642.000000	65.001463 
2641.000000	65.015625 
2640.000000	65.025997 
2639.000000	65.031909 
2638.000000	65.033340 
2637.000000	65.031242 
2636.000000	65.026974 
2635.000000	65.022063 
2634.000000	65.018010 
2633.000000	65.015888 
2632.000000	65.016388 
2631.000000	65.019750 
2630.000000	65.025734 
2629.000000	65.033793 
2628.000000	65.043091 
2627.000000	65.052652 
2626.000000	65.061354 
2625.000000	65.068054 
2624.000000	65.071654 
2623.000000	65.071201 
2622.000000	65.066170 
2621.000000	65.056610 
2620.000000	65.043306 
2619.000000	65.027761 
2618.000000	65.011882 
2617.000000	64.998054 
2616.000000	64.988255 
2615.000000	64.983868 
2614.000000	64.985275 
2613.000000	64.991807 
2612.000000	65.001988 
2611.000000	65.013694 
2610.000000	65.024614 
2609.000000	65.032744 
2608.000000	65.036702 
2607.000000	65.035915 
2606.000000	65.030646 
2605.000000	65.021848 
2604.000000	65.011143 
2603.000000	65.000438 
2602.000000	64.991760 
2601.000000	64.986944 
2600.000000	64.987468 
2599.000000	64.994049 
2598.000000	65.006589 
2597.000000	65.024065 
2596.000000	65.044617 
2595.000000	65.065789 
2594.000000	65.085005 
2593.000000	65.099978 
2592.000000	65.109276 
2591.000000	65.112566 
2590.000000	65.110564 
2589.000000	65.104699 
2588.000000	65.096783 
2587.000000	65.088200 
2586.000000	65.079808 
2585.000000	65.071654 
2584.000000	65.063333 
2583.000000	65.054130 
2582.000000	65.043616 
2581.000000	65.031719 
2580.000000	65.019083 
2579.000000	65.006709 
2578.000000	64.995741 
2577.000000	64.987301 
2576.000000	64.982128 
2575.000000	64.980578 
2574.000000	64.982604 
2573.000000	64.987802 
2572.000000	64.995813 
2571.000000	65.006375 
2570.000000	65.019226 
2569.000000	65.034008 
2568.000000	65.050172 
2567.000000	65.066766 
2566.000000	65.082383 
2565.000000	65.095663 
2564.000000	65.105295 
2563.000000	65.110373 
2562.000000	65.110659 
2561.000000	65.106606 
2560.000000	65.099143 
2559.000000	65.089583 
2558.000000	65.079045 
2557.000000	65.068292 
2556.000000	65.057635 
2555.000000	65.047049 
2554.000000	65.036392 
2553.000000	65.025758 
2552.000000	65.015673 
2551.000000	65.007257 
2550.000000	65.001797 
2549.000000	65.000486 
2548.000000	65.004014 
2547.000000	65.012216 
2546.000000	65.024065 
2545.000000	65.037894 
2544.000000	65.051603 
2543.000000	65.063285 
2542.000000	65.071439 
2541.000000	65.075302 
2540.000000	65.075039 
2539.000000	65.071654 
2538.000000	65.066623 
2537.000000	65.061712 
2536.000000	65.058493 
2535.000000	65.057969 
2534.000000	65.060329 
2533.000000	65.064835 
2532.000000	65.069961 
2531.000000	65.073752 
2530.000000	65.074396 
2529.000000	65.070557 
2528.000000	65.061759 
2527.000000	65.048742 
2526.000000	65.033292 
2525.000000	65.017962 
2524.000000	65.005373 
2523.000000	64.997768 
2522.000000	64.996337 
2521.000000	65.001010 
2520.000000	65.010643 
2519.000000	65.023136 
2518.000000	65.036225 
2517.000000	65.047979 
2516.000000	65.057349 
2515.000000	65.064406 
2514.000000	65.070056 
2513.000000	65.075683 
2512.000000	65.082502 
2511.000000	65.090966 
2510.000000	65.100455 
2509.000000	65.109395 
2508.000000	65.115451 
2507.000000	65.116333 
2506.000000	65.110158 
2505.000000	65.096402 
2504.000000	65.075516 
2503.000000	65.048885 
2502.000000	65.018463 
2501.000000	64.986348 
2500.000000	64.954447 
2499.000000	64.924144 
2498.000000	64.896559 
2497.000000	64.872574 
2496.000000	64.853072 
2495.000000	64.839124 
2494.000000	64.831662 
2493.000000	64.831590 
2492.000000	64.839148 
2491.000000	64.854240 
2490.000000	64.875507 
2489.000000	64.900970 
2488.000000	64.928078 
2487.000000	64.954280 
2486.000000	64.977312 
2485.000000	64.995718 
2484.000000	65.008926 
2483.000000	65.017437 
2482.000000	65.022373 
2481.000000	65.025544 
2480.000000	65.028858 
2479.000000	65.034127 
2478.000000	65.042853 
2477.000000	65.055608 
2476.000000	65.072417 
2475.000000	65.092563 
2474.000000	65.114712 
2473.000000	65.137290 
2472.000000	65.158510 
2471.000000	65.176892 
2470.000000	65.191435 
2469.000000	65.201377 
2468.000000	65.206384 
2467.000000	65.206551 
2466.000000	65.202093 
2465.000000	65.193390 
2464.000000	65.180659 
2463.000000	65.164494 
2462.000000	65.145421 
2461.000000	65.124559 
2460.000000	65.103173 
2459.000000	65.082812 
2458.000000	65.064978 
2457.000000	65.051054 
2456.000000	65.041756 
2455.000000	65.036916 
2454.000000	65.035676 
2453.000000	65.036630 
2452.000000	65.038061 
2451.000000	65.038251 
2450.000000	65.036129 
2449.000000	65.031170 
2448.000000	65.023708 
2447.000000	65.014719 
2446.000000	65.005540 
2445.000000	64.997482 
2444.000000	64.991784 
2443.000000	64.989233 
2442.000000	64.990282 
2441.000000	64.995002 
2440.000000	65.003108 
2439.000000	65.013861 
2438.000000	65.026259 
2437.000000	65.038824 
2436.000000	65.049791 
2435.000000	65.057420 
2434.000000	65.060257 
2433.000000	65.057444 
2432.000000	65.049004 
2431.000000	65.035915 
2430.000000	65.019941 
2429.000000	65.003156 
2428.000000	64.987850 
2427.000000	64.975595 
2426.000000	64.967179 
2425.000000	64.962553 
2424.000000	64.960980 
2423.000000	64.961409 
2422.000000	64.962911 
2421.000000	64.965033 
2420.000000	64.967823 
2419.000000	64.971828 
2418.000000	64.977574 
2417.000000	64.985322 
2416.000000	64.994740 
2415.000000	65.004992 
2414.000000	65.014982 
2413.000000	65.023398 
2412.000000	65.029406 
2411.000000	65.032362 
2410.000000	65.032243 
2409.000000	65.029430 
2408.000000	65.024375 
2407.000000	65.017485 
2406.000000	65.009212 
2405.000000	64.999651 
2404.000000	64.988923 
2403.000000	64.977264 
2402.000000	64.965176 
2401.000000	64.953517 
2400.000000	64.943408 
2399.000000	64.936041 
2398.000000	64.932513 
2397.000000	64.933395 
2396.000000	64.938735 
2395.000000	64.947843 
2394.000000	64.959478 
2393.000000	64.971971 
2392.000000	64.983510 
2391.000000	64.992475 
2390.000000	64.997577 
2389.000000	64.998149 
2388.000000	64.994668 
2387.000000	64.988541 
2386.000000	64.981937 
2385.000000	64.977216 
2384.000000	64.976763 
2383.000000	64.982104 
2382.000000	64.993619 
2381.000000	65.010285 
2380.000000	65.029835 
2379.000000	65.049266 
2378.000000	65.065526 
2377.000000	65.076160 
2376.000000	65.079879 
2375.000000	65.076875 
2374.000000	65.068793 
2373.000000	65.058159 
2372.000000	65.047717 
2371.000000	65.039825 
2370.000000	65.035915 
2369.000000	65.036249 
2368.000000	65.040159 
2367.000000	65.046191 
2366.000000	65.052723 
2365.000000	65.057992 
2364.000000	65.060639 
2363.000000	65.059471 
2362.000000	65.053629 
2361.000000	65.042734 
2360.000000	65.026736 
2359.000000	65.006089 
2358.000000	64.981865 
2357.000000	64.955711 
2356.000000	64.930057 
2355.000000	64.907670 
2354.000000	64.891219 
2353.000000	64.882898 
2352.000000	64.883971 
2351.000000	64.894294 
2350.000000	64.912652 
2349.000000	64.936614 
2348.000000	64.963269 
2347.000000	64.989542 
2346.000000	65.012812 
2345.000000	65.031218 
2344.000000	65.043830 
2343.000000	65.050601 
2342.000000	65.052127 
2341.000000	65.049505 
2340.000000	65.043854 
2339.000000	65.036392 
2338.000000	65.028119 
2337.000000	65.019774 
2336.000000	65.011739 
2335.000000	65.004324 
2334.000000	64.997625 
2333.000000	64.991569 
2332.000000	64.986038 
2331.000000	64.980816 
2330.000000	64.975666 
2329.000000	64.970588 
2328.000000	64.965558 
2327.000000	64.961028 
2326.000000	64.957284 
2325.000000	64.955019 
2324.000000	64.954829 
2323.000000	64.957165 
2322.000000	64.962291 
2321.000000	64.970231 
2320.000000	64.980769 
2319.000000	64.993357 
2318.000000	65.007400 
2317.000000	65.022015 
2316.000000	65.036320 
2315.000000	65.049362 
2314.000000	65.060210 
2313.000000	65.067911 
2312.000000	65.071535 
2311.000000	65.070414 
2310.000000	65.063977 
2309.000000	65.052151 
2308.000000	65.035438 
2307.000000	65.014934 
2306.000000	64.992284 
2305.000000	64.969563 
2304.000000	64.948892 
2303.000000	64.932131 
2302.000000	64.920425 
2301.000000	64.914178 
2300.000000	64.912915 
2299.000000	64.915347 
2298.000000	64.919757 
2297.000000	64.924383 
2296.000000	64.928078 
2295.000000	64.930224 
2294.000000	64.931154 
2293.000000	64.931726 
2292.000000	64.933252 
2291.000000	64.936780 
2290.000000	64.942860 
2289.000000	64.951348 
2288.000000	64.961433 
2287.000000	64.971852 
2286.000000	64.981269 
2285.000000	64.988589 
2284.000000	64.993095 
2283.000000	64.994716 
2282.000000	64.993882 
2281.000000	64.991331 
2280.000000	64.987754 
2279.000000	64.983701 
2278.000000	64.979553 
2277.000000	64.975523 
2276.000000	64.971685 
2275.000000	64.968132 
2274.000000	64.965057 
2273.000000	64.962863 
2272.000000	64.961695 
2271.000000	64.961600 
2270.000000	64.962339 
2269.000000	64.963698 
2268.000000	64.965438 
2267.000000	64.967465 
2266.000000	64.969849 
2265.000000	64.972972 
2264.000000	64.977335 
2263.000000	64.983177 
2262.000000	64.990353 
2261.000000	64.998149 
2260.000000	65.005445 
2259.000000	65.010809 
2258.000000	65.012955 
2257.000000	65.011119 
2256.000000	65.005373 
2255.000000	64.996647 
2254.000000	64.986467 
2253.000000	64.976787 
2252.000000	64.969420 
2251.000000	64.965581 
2250.000000	64.965748 
2249.000000	64.969635 
2248.000000	64.976501 
2247.000000	64.985299 
2246.000000	64.994955 
2245.000000	65.004539 
2244.000000	65.013098 
2243.000000	65.019679 
2242.000000	65.023279 
2241.000000	65.022778 
2240.000000	65.017151 
2239.000000	65.005779 
2238.000000	64.988827 
2237.000000	64.967370 
2236.000000	64.943313 
2235.000000	64.919424 
2234.000000	64.898705 
2233.000000	64.883708 
2232.000000	64.876008 
2231.000000	64.875793 
2230.000000	64.881825 
2229.000000	64.891862 
2228.000000	64.903140 
2227.000000	64.913034 
2226.000000	64.919567 
2225.000000	64.922094 
2224.000000	64.920973 
2223.000000	64.917492 
2222.000000	64.913034 
2221.000000	64.908838 
2220.000000	64.905643 
2219.000000	64.903497 
2218.000000	64.902067 
2217.000000	64.900708 
2216.000000	64.899182 
2215.000000	64.897561 
2214.000000	64.896512 
2213.000000	64.896941 
2212.000000	64.899659 
2211.000000	64.904904 
2210.000000	64.912080 
2209.000000	64.919924 
2208.000000	64.926552 
2207.000000	64.929938 
2206.000000	64.928436 
2205.000000	64.921259 
2204.000000	64.908766 
2203.000000	64.892244 
2202.000000	64.873743 
2201.000000	64.855742 
2200.000000	64.840507 
2199.000000	64.829969 
2198.000000	64.825320 
2197.000000	64.827084 
2196.000000	64.835000 
2195.000000	64.848160 
2194.000000	64.865088 
2193.000000	64.883852 
2192.000000	64.902353 
2191.000000	64.918804 
2190.000000	64.931869 
2189.000000	64.940619 
2188.000000	64.944863 
2187.000000	64.945006 
2186.000000	64.942026 
2185.000000	64.937210 
2184.000000	64.931821 
2183.000000	64.927196 
2182.000000	64.924335 
2181.000000	64.923834 
2180.000000	64.925909 
2179.000000	64.930367 
2178.000000	64.936757 
2177.000000	64.944601 
2176.000000	64.953374 
2175.000000	64.962792 
2174.000000	64.972853 
2173.000000	64.983892 
2172.000000	64.996528 
2171.000000	65.011286 
2170.000000	65.028524 
2169.000000	65.047693 
2168.000000	65.067076 
2167.000000	65.083551 
2166.000000	65.093255 
2165.000000	65.092372 
2164.000000	65.078067 
2163.000000	65.049219 
2162.000000	65.007376 
2161.000000	64.956331 
2160.000000	64.901685 
2159.000000	64.849638 
2158.000000	64.805722 
2157.000000	64.773726 
2156.000000	64.754986 
2155.000000	64.748430 
2154.000000	64.751172 
2153.000000	64.759469 
2152.000000	64.769625 
2151.000000	64.779162 
2150.000000	64.786815 
2149.000000	64.792633 
2148.000000	64.797520 
2147.000000	64.802455 
2146.000000	64.808011 
2145.000000	64.814424 
2144.000000	64.821434 
2143.000000	64.828753 
2142.000000	64.836144 
2141.000000	64.843630 
2140.000000	64.851498 
2139.000000	64.860081 
2138.000000	64.869642 
2137.000000	64.880275 
2136.000000	64.891839 
2135.000000	64.903974 
2134.000000	64.916300 
2133.000000	64.928293 
2132.000000	64.939594 
2131.000000	64.950060 
2130.000000	64.959621 
2129.000000	64.968442 
2128.000000	64.976668 
2127.000000	64.984726 
2126.000000	64.992761 
2125.000000	65.000677 
2124.000000	65.007901 
2123.000000	65.014004 
2122.000000	65.018272 
2121.000000	65.019965 
2120.000000	65.018391 
2119.000000	65.013217 
2118.000000	65.004539 
2117.000000	64.992976 
2116.000000	64.979672 
2115.000000	64.965987 
2114.000000	64.953374 
2113.000000	64.942955 
2112.000000	64.935564 
2111.000000	64.931225 
2110.000000	64.929604 
2109.000000	64.929676 
2108.000000	64.930319 
2107.000000	64.930367 
2106.000000	64.928984 
2105.000000	64.925909 
2104.000000	64.921188 
2103.000000	64.915394 
2102.000000	64.909648 
2101.000000	64.905118 
2100.000000	64.902758 
2099.000000	64.903116 
2098.000000	64.906501 
2097.000000	64.912676 
2096.000000	64.920949 
2095.000000	64.930510 
2094.000000	64.940595 
2093.000000	64.950489 
2092.000000	64.959788 
2091.000000	64.968395 
2090.000000	64.976382 
2089.000000	64.983963 
2088.000000	64.991211 
2087.000000	64.997982 
2086.000000	65.003752 
2085.000000	65.008091 
2084.000000	65.010380 
2083.000000	65.010309 
2082.000000	65.007591 
2081.000000	65.002775 
2080.000000	64.996337 
2079.000000	64.988970 
2078.000000	64.980816 
2077.000000	64.971876 
2076.000000	64.961743 
2075.000000	64.949774 
2074.000000	64.935302 
2073.000000	64.917969 
2072.000000	64.898061 
2071.000000	64.876508 
2070.000000	64.854836 
2069.000000	64.834833 
2068.000000	64.818191 
2067.000000	64.806127 
2066.000000	64.798998 
2065.000000	64.796495 
2064.000000	64.797663 
2063.000000	64.801335 
2062.000000	64.806509 
2061.000000	64.812588 
2060.000000	64.819645 
2059.000000	64.828443 
2058.000000	64.840006 
2057.000000	64.855384 
2056.000000	64.875221 
2055.000000	64.899373 
2054.000000	64.926934 
2053.000000	64.956116 
2052.000000	64.984869 
2051.000000	65.010762 
2050.000000	65.031766 
2049.000000	65.046191 
2048.000000	65.053129 
2047.000000	65.052056 
2046.000000	65.043520 
2045.000000	65.028500 
2044.000000	65.008473 
2043.000000	64.985418 
2042.000000	64.961504 
2041.000000	64.938759 
2040.000000	64.919066 
2039.000000	64.903783 
2038.000000	64.893555 
2037.000000	64.888429 
2036.000000	64.887785 
2035.000000	64.890551 
2034.000000	64.895582 
2033.000000	64.901733 
2032.000000	64.908146 
2031.000000	64.914298 
2030.000000	64.919900 
2029.000000	64.924812 
2028.000000	64.928889 
2027.000000	64.931845 
2026.000000	64.933156 
2025.000000	64.932322 
2024.000000	64.928936 
2023.000000	64.922928 
2022.000000	64.914631 
2021.000000	64.904952 
2020.000000	64.895033 
2019.000000	64.886116 
2018.000000	64.879155 
2017.000000	64.874649 
2016.000000	64.872455 
2015.000000	64.871788 
2014.000000	64.871549 
2013.000000	64.870643 
2012.000000	64.868259 
2011.000000	64.864325 
2010.000000	64.859437 
2009.000000	64.854598 
2008.000000	64.851021 
2007.000000	64.849877 
2006.000000	64.851737 
2005.000000	64.856576 
2004.000000	64.863610 
2003.000000	64.871716 
2002.000000	64.879536 
2001.000000	64.886021 
2000.000000	64.890575 
1999.000000	64.893293 
1998.000000	64.894580 
1997.000000	64.895272 
1996.000000	64.896011 
1995.000000	64.897274 
1994.000000	64.898991 
1993.000000	64.900636 
1992.000000	64.901471 
1991.000000	64.900493 
1990.000000	64.897084 
1989.000000	64.891004 
1988.000000	64.882588 
1987.000000	64.872670 
1986.000000	64.862465 
1985.000000	64.853358 
1984.000000	64.846491 
1983.000000	64.842653 
1982.000000	64.842009 
1981.000000	64.844202 
1980.000000	64.848542 
1979.000000	64.854264 
1978.000000	64.860773 
1977.000000	64.867854 
1976.000000	64.875626 
1975.000000	64.884519 
1974.000000	64.895176 
1973.000000	64.907860 
1972.000000	64.922356 
1971.000000	64.937901 
1970.000000	64.952969 
1969.000000	64.965891 
1968.000000	64.974641 
1967.000000	64.977693 
1966.000000	64.974212 
1965.000000	64.964389 
1964.000000	64.949345 
1963.000000	64.930963 
1962.000000	64.911603 
1961.000000	64.893651 
1960.000000	64.879202 
1959.000000	64.869666 
1958.000000	64.865636 
1957.000000	64.866971 
1956.000000	64.872741 
1955.000000	64.881443 
1954.000000	64.891314 
1953.000000	64.900732 
1952.000000	64.908242 
1951.000000	64.912939 
1950.000000	64.914393 
1949.000000	64.912629 
1948.000000	64.908027 
1947.000000	64.901089 
1946.000000	64.892220 
1945.000000	64.881873 
1944.000000	64.870595 
1943.000000	64.859056 
1942.000000	64.848065 
1941.000000	64.838719 
1940.000000	64.832329 
1939.000000	64.830303 
1938.000000	64.833521 
1937.000000	64.842414 
1936.000000	64.856576 
1935.000000	64.874839 
1934.000000	64.895272 
1933.000000	64.915609 
1932.000000	64.933419 
1931.000000	64.946699 
1930.000000	64.954352 
1929.000000	64.956140 
1928.000000	64.952659 
1927.000000	64.945292 
1926.000000	64.935851 
1925.000000	64.926218 
1924.000000	64.917969 
1923.000000	64.912271 
1922.000000	64.909505 
1921.000000	64.909720 
1920.000000	64.912414 
1919.000000	64.916801 
1918.000000	64.921665 
1917.000000	64.925980 
1916.000000	64.928412 
1915.000000	64.927887 
1914.000000	64.923381 
1913.000000	64.914107 
1912.000000	64.899921 
1911.000000	64.881229 
1910.000000	64.859271 
1909.000000	64.836001 
1908.000000	64.813876 
1907.000000	64.795517 
1906.000000	64.783310 
1905.000000	64.778923 
1904.000000	64.783000 
1903.000000	64.794969 
1902.000000	64.813256 
1901.000000	64.835715 
1900.000000	64.859676 
1899.000000	64.882707 
1898.000000	64.902830 
1897.000000	64.918875 
1896.000000	64.930272 
1895.000000	64.937186 
1894.000000	64.940166 
1893.000000	64.940023 
1892.000000	64.937615 
1891.000000	64.933657 
1890.000000	64.928650 
1889.000000	64.922785 
1888.000000	64.916372 
1887.000000	64.909482 
1886.000000	64.902234 
1885.000000	64.894604 
1884.000000	64.886736 
1883.000000	64.878678 
1882.000000	64.870548 
1881.000000	64.862465 
1880.000000	64.854621 
1879.000000	64.847159 
1878.000000	64.840149 
1877.000000	64.833736 
1876.000000	64.828062 
1875.000000	64.823389 
1874.000000	64.820075 
1873.000000	64.818382 
1872.000000	64.818453 
1871.000000	64.820098 
1870.000000	64.822769 
1869.000000	64.825344 
1868.000000	64.826488 
1867.000000	64.824962 
1866.000000	64.820241 
1865.000000	64.812231 
1864.000000	64.801859 
1863.000000	64.790844 
1862.000000	64.781284 
1861.000000	64.775252 
1860.000000	64.774274 
1859.000000	64.778804 
1858.000000	64.788317 
1857.000000	64.801335 
1856.000000	64.816141 
1855.000000	64.830994 
1854.000000	64.844989 
1853.000000	64.858078 
1852.000000	64.870953 
1851.000000	64.884591 
1850.000000	64.899802 
1849.000000	64.916753 
1848.000000	64.934682 
1847.000000	64.951896 
1846.000000	64.966273 
1845.000000	64.975619 
1844.000000	64.978313 
1843.000000	64.973568 
1842.000000	64.961743 
1841.000000	64.944028 
1840.000000	64.922380 
1839.000000	64.898920 
1838.000000	64.875578 
1837.000000	64.853739 
1836.000000	64.834165 
1835.000000	64.817142 
1834.000000	64.802646 
1833.000000	64.790439 
1832.000000	64.780378 
1831.000000	64.772677 
1830.000000	64.767718 
1829.000000	64.766168 
1828.000000	64.768743 
1827.000000	64.776110 
1826.000000	64.788460 
1825.000000	64.805746 
1824.000000	64.827346 
1823.000000	64.852309 
1822.000000	64.879155 
1821.000000	64.906191 
1820.000000	64.931845 
1819.000000	64.954614 
1818.000000	64.973306 
1817.000000	64.986872 
1816.000000	64.994764 
1815.000000	64.996576 
1814.000000	64.992260 
1813.000000	64.982271 
1812.000000	64.967465 
1811.000000	64.949297 
1810.000000	64.929318 
1809.000000	64.909458 
1808.000000	64.891266 
1807.000000	64.876317 
1806.000000	64.865422 
1805.000000	64.858603 
1804.000000	64.855313 
1803.000000	64.854502 
1802.000000	64.855027 
1801.000000	64.855742 
1800.000000	64.855909 
1799.000000	64.855170 
1798.000000	64.853715 
1797.000000	64.851951 
1796.000000	64.850401 
1795.000000	64.849185 
1794.000000	64.848256 
1793.000000	64.847135 
1792.000000	64.845061 
1791.000000	64.841222 
1790.000000	64.834976 
1789.000000	64.826059 
1788.000000	64.814519 
1787.000000	64.801025 
1786.000000	64.786529 
1785.000000	64.772582 
1784.000000	64.760613 
1783.000000	64.752197 
1782.000000	64.748716 
1781.000000	64.751243 
1780.000000	64.760351 
1779.000000	64.775896 
1778.000000	64.797067 
1777.000000	64.822244 
1776.000000	64.848947 
1775.000000	64.874315 
1774.000000	64.895415 
1773.000000	64.909553 
1772.000000	64.914941 
1771.000000	64.911150 
1770.000000	64.899373 
1769.000000	64.882063 
1768.000000	64.862585 
1767.000000	64.844441 
1766.000000	64.830589 
1765.000000	64.822578 
1764.000000	64.820551 
1763.000000	64.823150 
1762.000000	64.828205 
1761.000000	64.833045 
1760.000000	64.835643 
1759.000000	64.834952 
1758.000000	64.831066 
1757.000000	64.825201 
1756.000000	64.818668 
1755.000000	64.812612 
1754.000000	64.807295 
1753.000000	64.802002 
1752.000000	64.795160 
1751.000000	64.784836 
1750.000000	64.769387 
1749.000000	64.748454 
1748.000000	64.722704 
1747.000000	64.694285 
1746.000000	64.665818 
1745.000000	64.640212 
1744.000000	64.619851 
1743.000000	64.606118 
1742.000000	64.599180 
1741.000000	64.597940 
1740.000000	64.600300 
1739.000000	64.603686 
1738.000000	64.605522 
1737.000000	64.603924 
1736.000000	64.597535 
1735.000000	64.586091 
1734.000000	64.570140 
1733.000000	64.551234 
1732.000000	64.531135 
1731.000000	64.512157 
1730.000000	64.496445 
1729.000000	64.486074 
1728.000000	64.482545 
1727.000000	64.486694 
1726.000000	64.498662 
1725.000000	64.517688 
1724.000000	64.542412 
1723.000000	64.570784 
1722.000000	64.600276 
1721.000000	64.628314 
1720.000000	64.652085 
1719.000000	64.669418 
1718.000000	64.678835 
1717.000000	64.680171 
1716.000000	64.674353 
1715.000000	64.663648 
1714.000000	64.651155 
1713.000000	64.640092 
1712.000000	64.633083 
1711.000000	64.631915 
1710.000000	64.637112 
1709.000000	64.647936 
1708.000000	64.662790 
1707.000000	64.679741 
1706.000000	64.697074 
1705.000000	64.713573 
1704.000000	64.728641 
1703.000000	64.742183 
1702.000000	64.754033 
1701.000000	64.763712 
1700.000000	64.770221 
1699.000000	64.772272 
1698.000000	64.768457 
1697.000000	64.757919 
1696.000000	64.740943 
1695.000000	64.719128 
1694.000000	64.695072 
1693.000000	64.672088 
1692.000000	64.653253 
1691.000000	64.640808 
1690.000000	64.635705 
1689.000000	64.637494 
1688.000000	64.644765 
1687.000000	64.655494 
1686.000000	64.667725 
1685.000000	64.680099 
1684.000000	64.692091 
1683.000000	64.704012 
1682.000000	64.716410 
1681.000000	64.729762 
1680.000000	64.743995 
1679.000000	64.758276 
1678.000000	64.771294 
1677.000000	64.781570 
1676.000000	64.787936 
1675.000000	64.789843 
1674.000000	64.788126 
1673.000000	64.784288 
1672.000000	64.780497 
1671.000000	64.778685 
1670.000000	64.780306 
1669.000000	64.785647 
1668.000000	64.793848 
1667.000000	64.803171 
1666.000000	64.811468 
1665.000000	64.816927 
1664.000000	64.818596 
1663.000000	64.816737 
1662.000000	64.812850 
1661.000000	64.809322 
1660.000000	64.808750 
1659.000000	64.813160 
1658.000000	64.823460 
1657.000000	64.839196 
1656.000000	64.858508 
1655.000000	64.878654 
1654.000000	64.896464 
1653.000000	64.909291 
1652.000000	64.915156 
1651.000000	64.913153 
1650.000000	64.903473 
1649.000000	64.887189 
1648.000000	64.866018 
1647.000000	64.841866 
1646.000000	64.816784 
1645.000000	64.792513 
1644.000000	64.770483 
1643.000000	64.751982 
1642.000000	64.737844 
1641.000000	64.728522 
1640.000000	64.724016 
1639.000000	64.723753 
1638.000000	64.726710 
1637.000000	64.731431 
1636.000000	64.736437 
1635.000000	64.740324 
1634.000000	64.742112 
1633.000000	64.741349 
1632.000000	64.738059 
1631.000000	64.732909 
1630.000000	64.726948 
1629.000000	64.721345 
1628.000000	64.717555 
1627.000000	64.716839 
1626.000000	64.720296 
1625.000000	64.728403 
1624.000000	64.740896 
1623.000000	64.756441 
1622.000000	64.772820 
1621.000000	64.787125 
1620.000000	64.796352 
1619.000000	64.798164 
1618.000000	64.791274 
1617.000000	64.776158 
1616.000000	64.754939 
1615.000000	64.731383 
1614.000000	64.709997 
1613.000000	64.695000 
1612.000000	64.689230 
1611.000000	64.693570 
1610.000000	64.706754 
1609.000000	64.725494 
1608.000000	64.745497 
1607.000000	64.762210 
1606.000000	64.772129 
1605.000000	64.773154 
1604.000000	64.764952 
1603.000000	64.748740 
1602.000000	64.726805 
1601.000000	64.702033 
1600.000000	64.677262 
1599.000000	64.654731 
1598.000000	64.635872 
1597.000000	64.621329 
1596.000000	64.610934 
1595.000000	64.604091 
1594.000000	64.600181 
1593.000000	64.598202 
1592.000000	64.597702 
1591.000000	64.598250 
1590.000000	64.599823 
1589.000000	64.602494 
1588.000000	64.606475 
1587.000000	64.612054 
1586.000000	64.619350 
1585.000000	64.628267 
1584.000000	64.638376 
1583.000000	64.648985 
1582.000000	64.659261 
1581.000000	64.668416 
1580.000000	64.675831 
1579.000000	64.681124 
1578.000000	64.684128 
1577.000000	64.684724 
1576.000000	64.682865 
1575.000000	64.678525 
1574.000000	64.671635 
1573.000000	64.662432 
1572.000000	64.651441 
1571.000000	64.639687 
1570.000000	64.628505 
1569.000000	64.619660 
1568.000000	64.614892 
1567.000000	64.615821 
1566.000000	64.623403 
1565.000000	64.637923 
1564.000000	64.658570 
1563.000000	64.683556 
1562.000000	64.710330 
1561.000000	64.735937 
1560.000000	64.757299 
1559.000000	64.771819 
1558.000000	64.777684 
1557.000000	64.774107 
1556.000000	64.761495 
1555.000000	64.741206 
1554.000000	64.715433 
1553.000000	64.686822 
1552.000000	64.658284 
1551.000000	64.632701 
1550.000000	64.612627 
1549.000000	64.600133 
1548.000000	64.596390 
1547.000000	64.601588 
1546.000000	64.614844 
1545.000000	64.634299 
1544.000000	64.657139 
1543.000000	64.680218 
1542.000000	64.700293 
1541.000000	64.714694 
1540.000000	64.721727 
1539.000000	64.720678 
1538.000000	64.712166 
1537.000000	64.697742 
1536.000000	64.679861 
1535.000000	64.661073 
1534.000000	64.644026 
1533.000000	64.630842 
1532.000000	64.623093 
1531.000000	64.621686 
1530.000000	64.626884 
1529.000000	64.638209 
1528.000000	64.654517 
1527.000000	64.674186 
1526.000000	64.695119 
1525.000000	64.715147 
1524.000000	64.732193 
1523.000000	64.744830 
1522.000000	64.752316 
1521.000000	64.755058 
1520.000000	64.754104 
1519.000000	64.751195 
1518.000000	64.748454 
1517.000000	64.747834 
1516.000000	64.750814 
1515.000000	64.757966 
1514.000000	64.769220 
1513.000000	64.783477 
1512.000000	64.799356 
1511.000000	64.815092 
1510.000000	64.828920 
1509.000000	64.839363 
1508.000000	64.845323 
1507.000000	64.846301 
1506.000000	64.842343 
1505.000000	64.834189 
1504.000000	64.823126 
1503.000000	64.810776 
1502.000000	64.798760 
1501.000000	64.788198 
1500.000000	64.779329 
1499.000000	64.771342 
1498.000000	64.762830 
1497.000000	64.752316 
1496.000000	64.738845 
1495.000000	64.722466 
1494.000000	64.704465 
1493.000000	64.686965 
1492.000000	64.672470 
1491.000000	64.663052 
1490.000000	64.659881 
1489.000000	64.662694 
1488.000000	64.670062 
1487.000000	64.679718 
1486.000000	64.689159 
1485.000000	64.696335 
1484.000000	64.700102 
1483.000000	64.700245 
1482.000000	64.697670 
1481.000000	64.693927 
1480.000000	64.690637 
1479.000000	64.689040 
1478.000000	64.689707 
1477.000000	64.692735 
1476.000000	64.697551 
1475.000000	64.703345 
1474.000000	64.709091 
1473.000000	64.713883 
1472.000000	64.716958 
1471.000000	64.718103 
1470.000000	64.717364 
1469.000000	64.715290 
1468.000000	64.712786 
1467.000000	64.711308 
1466.000000	64.712524 
1465.000000	64.718055 
1464.000000	64.729166 
1463.000000	64.746236 
1462.000000	64.768671 
1461.000000	64.794349 
1460.000000	64.820361 
1459.000000	64.842867 
1458.000000	64.858078 
1457.000000	64.862704 
1456.000000	64.854645 
1455.000000	64.833569 
1454.000000	64.800953 
1453.000000	64.759874 
1452.000000	64.714598 
1451.000000	64.669847 
1450.000000	64.630150 
1449.000000	64.599370 
1448.000000	64.580154 
1447.000000	64.573884 
1446.000000	64.580607 
1445.000000	64.599108 
1444.000000	64.627027 
1443.000000	64.661049 
1442.000000	64.697408 
1441.000000	64.731907 
1440.000000	64.760637 
1439.000000	64.780592 
1438.000000	64.790081 
1437.000000	64.789032 
1436.000000	64.778780 
1435.000000	64.761996 
1434.000000	64.741778 
1433.000000	64.721131 
1432.000000	64.702439 
1431.000000	64.687323 
1430.000000	64.676427 
1429.000000	64.669704 
1428.000000	64.666485 
1427.000000	64.666128 
1426.000000	64.667892 
1425.000000	64.671182 
1424.000000	64.675569 
1423.000000	64.680433 
1422.000000	64.685344 
1421.000000	64.689493 
1420.000000	64.691996 
1419.000000	64.691781 
1418.000000	64.688062 
1417.000000	64.680576 
1416.000000	64.669561 
1415.000000	64.655947 
1414.000000	64.640927 
1413.000000	64.625954 
1412.000000	64.612388 
1411.000000	64.601206 
1410.000000	64.592623 
1409.000000	64.586329 
1408.000000	64.581465 
1407.000000	64.577174 
1406.000000	64.572668 
1405.000000	64.567494 
1404.000000	64.561796 
1403.000000	64.556217 
1402.000000	64.551639 
1401.000000	64.548778 
1400.000000	64.547610 
1399.000000	64.547681 
1398.000000	64.547824 
1397.000000	64.546656 
1396.000000	64.543056 
1395.000000	64.536476 
1394.000000	64.527320 
1393.000000	64.516758 
1392.000000	64.506483 
1391.000000	64.498138 
1390.000000	64.492964 
1389.000000	64.491534 
1388.000000	64.493465 
1387.000000	64.497900 
1386.000000	64.503431 
1385.000000	64.508581 
1384.000000	64.511990 
1383.000000	64.512634 
1382.000000	64.510083 
1381.000000	64.504146 
1380.000000	64.495062 
1379.000000	64.483404 
1378.000000	64.469981 
1377.000000	64.455795 
1376.000000	64.441990 
1375.000000	64.429926 
1374.000000	64.420890 
1373.000000	64.416003 
1372.000000	64.415836 
1371.000000	64.420580 
1370.000000	64.429855 
1369.000000	64.442944 
1368.000000	64.459013 
1367.000000	64.476895 
1366.000000	64.495658 
1365.000000	64.514398 
1364.000000	64.532279 
1363.000000	64.548563 
1362.000000	64.562773 
1361.000000	64.574527 
1360.000000	64.583683 
1359.000000	64.590287 
1358.000000	64.594697 
1357.000000	64.597201 
1356.000000	64.598178 
1355.000000	64.597845 
1354.000000	64.596462 
1353.000000	64.594006 
1352.000000	64.590525 
1351.000000	64.585900 
1350.000000	64.580512 
1349.000000	64.574885 
1348.000000	64.569902 
1347.000000	64.566206 
1346.000000	64.564371 
1345.000000	64.564275 
1344.000000	64.565277 
1343.000000	64.566278 
1342.000000	64.565920 
1341.000000	64.563155 
1340.000000	64.557456 
1339.000000	64.549160 
1338.000000	64.539361 
1337.000000	64.529705 
1336.000000	64.521813 
1335.000000	64.516854 
1334.000000	64.514923 
1333.000000	64.515089 
1332.000000	64.515328 
1331.000000	64.512991 
1330.000000	64.505386 
1329.000000	64.490485 
1328.000000	64.467453 
1327.000000	64.436960 
1326.000000	64.401125 
1325.000000	64.363074 
1324.000000	64.326477 
1323.000000	64.294648 
1322.000000	64.270257 
1321.000000	64.254689 
1320.000000	64.248156 
1319.000000	64.249706 
1318.000000	64.257740 
1317.000000	64.270377 
1316.000000	64.285707 
1315.000000	64.302015 
1314.000000	64.318156 
1313.000000	64.333152 
1312.000000	64.346551 
1311.000000	64.358067 
1310.000000	64.367628 
1309.000000	64.375448 
1308.000000	64.381861 
1307.000000	64.387273 
1306.000000	64.392256 
1305.000000	64.397382 
1304.000000	64.403057 
1303.000000	64.409303 
1302.000000	64.415979 
1301.000000	64.422559 
1300.000000	64.428305 
1299.000000	64.432406 
1298.000000	64.434027 
1297.000000	64.432740 
1296.000000	64.428567 
1295.000000	64.422321 
1294.000000	64.415121 
1293.000000	64.408493 
1292.000000	64.403796 
1291.000000	64.402103 
1290.000000	64.403963 
1289.000000	64.409375 
1288.000000	64.417552 
1287.000000	64.427256 
1286.000000	64.437103 
1285.000000	64.445662 
1284.000000	64.451932 
1283.000000	64.455413 
1282.000000	64.456152 
1281.000000	64.454793 
1280.000000	64.452314 
1279.000000	64.450120 
1278.000000	64.449214 
1277.000000	64.450311 
1276.000000	64.453244 
1275.000000	64.457225 
1274.000000	64.460515 
1273.000000	64.461064 
1272.000000	64.456701 
1271.000000	64.445519 
1270.000000	64.426708 
1269.000000	64.400768 
1268.000000	64.369702 
1267.000000	64.336514 
1266.000000	64.304876 
1265.000000	64.278340 
1264.000000	64.259648 
1263.000000	64.250135 
1262.000000	64.249706 
1261.000000	64.256691 
1260.000000	64.268755 
1259.000000	64.283251 
1258.000000	64.298057 
1257.000000	64.311814 
1256.000000	64.324402 
1255.000000	64.336419 
1254.000000	64.349079 
1253.000000	64.363312 
1252.000000	64.379715 
1251.000000	64.397954 
1250.000000	64.416956 
1249.000000	64.434885 
1248.000000	64.449787 
1247.000000	64.459633 
1246.000000	64.462876 
1245.000000	64.458537 
1244.000000	64.446377 
1243.000000	64.427042 
1242.000000	64.401960 
1241.000000	64.373469 
1240.000000	64.344239 
1239.000000	64.317178 
1238.000000	64.295125 
1237.000000	64.280366 
1236.000000	64.274144 
1235.000000	64.276790 
1234.000000	64.287567 
1233.000000	64.304924 
1232.000000	64.326810 
1231.000000	64.350986 
1230.000000	64.375519 
1229.000000	64.398932 
1228.000000	64.420318 
1227.000000	64.439201 
1226.000000	64.455342 
1225.000000	64.468550 
1224.000000	64.478635 
1223.000000	64.485287 
1222.000000	64.487957 
1221.000000	64.486455 
1220.000000	64.480662 
1219.000000	64.470887 
1218.000000	64.457488 
1217.000000	64.441084 
1216.000000	64.422225 
1215.000000	64.401435 
1214.000000	64.379143 
1213.000000	64.355564 
1212.000000	64.330887 
1211.000000	64.305329 
1210.000000	64.279365 
1209.000000	64.253592 
1208.000000	64.229154 
1207.000000	64.207077 
1206.000000	64.188718 
1205.000000	64.175224 
1204.000000	64.167594 
1203.000000	64.166522 
1202.000000	64.172339 
1201.000000	64.184761 
1200.000000	64.203143 
1199.000000	64.226269 
1198.000000	64.252448 
1197.000000	64.279818 
1196.000000	64.306259 
1195.000000	64.329886 
1194.000000	64.348959 
1193.000000	64.362311 
1192.000000	64.369559 
1191.000000	64.370822 
1190.000000	64.366936 
1189.000000	64.358925 
1188.000000	64.347982 
1187.000000	64.334964 
1186.000000	64.320540 
1185.000000	64.304971 
1184.000000	64.288353 
1183.000000	64.270901 
1182.000000	64.253044 
1181.000000	64.235806 
1180.000000	64.220452 
1179.000000	64.208722 
1178.000000	64.202213 
1177.000000	64.202475 
1176.000000	64.210414 
1175.000000	64.226245 
1174.000000	64.249253 
1173.000000	64.277791 
1172.000000	64.309382 
1171.000000	64.341115 
1170.000000	64.369964 
1169.000000	64.393138 
1168.000000	64.408302 
1167.000000	64.414143 
1166.000000	64.410066 
1165.000000	64.396834 
1164.000000	64.375877 
1163.000000	64.349484 
1162.000000	64.320135 
1161.000000	64.290213 
1160.000000	64.261746 
1159.000000	64.236354 
1158.000000	64.214944 
1157.000000	64.197874 
1156.000000	64.185023 
1155.000000	64.176058 
1154.000000	64.170455 
1153.000000	64.167475 
1152.000000	64.166426 
1151.000000	64.166641 
1150.000000	64.167904 
1149.000000	64.170408 
1148.000000	64.174866 
1147.000000	64.182186 
1146.000000	64.193224 
1145.000000	64.208483 
1144.000000	64.227724 
1143.000000	64.249825 
1142.000000	64.273047 
1141.000000	64.295220 
1140.000000	64.314174 
1139.000000	64.328265 
1138.000000	64.336824 
1137.000000	64.340257 
1136.000000	64.339947 
1135.000000	64.337682 
1134.000000	64.335298 
1133.000000	64.334177 
1132.000000	64.335250 
1131.000000	64.338421 
1130.000000	64.343070 
1129.000000	64.348173 
1128.000000	64.352893 
1127.000000	64.356422 
1126.000000	64.357972 
1125.000000	64.357018 
1124.000000	64.353299 
1123.000000	64.346790 
1122.000000	64.337873 
1121.000000	64.327549 
1120.000000	64.317297 
1119.000000	64.308667 
1118.000000	64.303255 
1117.000000	64.302062 
1116.000000	64.305329 
1115.000000	64.312195 
1114.000000	64.320778 
1113.000000	64.328861 
1112.000000	64.334154 
1111.000000	64.335012 
1110.000000	64.330744 
1109.000000	64.321804 
1108.000000	64.309835 
1107.000000	64.297199 
1106.000000	64.286518 
1105.000000	64.279603 
1104.000000	64.277458 
1103.000000	64.279913 
1102.000000	64.285898 
1101.000000	64.293670 
1100.000000	64.301633 
1099.000000	64.309048 
1098.000000	64.315962 
1097.000000	64.323115 
1096.000000	64.331388 
1095.000000	64.341545 
1094.000000	64.353489 
1093.000000	64.366269 
1092.000000	64.378786 
1091.000000	64.390015 
1090.000000	64.399909 
1089.000000	64.409279 
1088.000000	64.419770 
1087.000000	64.433050 
1086.000000	64.450216 
1085.000000	64.471006 
1084.000000	64.493322 
1083.000000	64.513421 
1082.000000	64.526891 
1081.000000	64.529490 
1080.000000	64.518785 
1079.000000	64.494299 
1078.000000	64.458370 
1077.000000	64.415097 
1076.000000	64.369630 
1075.000000	64.326572 
1074.000000	64.289140 
1073.000000	64.258599 
1072.000000	64.234137 
1071.000000	64.213728 
1070.000000	64.195060 
1069.000000	64.176297 
1068.000000	64.156937 
1067.000000	64.137768 
1066.000000	64.120483 
1065.000000	64.107394 
1064.000000	64.100742 
1063.000000	64.101910 
1062.000000	64.111065 
1061.000000	64.127349 
1060.000000	64.148879 
1059.000000	64.173388 
1058.000000	64.198470 
1057.000000	64.222073 
1056.000000	64.242315 
1055.000000	64.257979 
1054.000000	64.268064 
1053.000000	64.271879 
1052.000000	64.268922 
1051.000000	64.259290 
1050.000000	64.243435 
1049.000000	64.222478 
1048.000000	64.198040 
1047.000000	64.172434 
1046.000000	64.148163 
1045.000000	64.127635 
1044.000000	64.112591 
1043.000000	64.103984 
1042.000000	64.101624 
1041.000000	64.104104 
1040.000000	64.109230 
1039.000000	64.114546 
1038.000000	64.117932 
1037.000000	64.118361 
1036.000000	64.115977 
1035.000000	64.112234 
1034.000000	64.109396 
1033.000000	64.109969 
1032.000000	64.116048 
1031.000000	64.128708 
1030.000000	64.147758 
1029.000000	64.171767 
1028.000000	64.198470 
1027.000000	64.225172 
1026.000000	64.249491 
1025.000000	64.269804 
1024.000000	64.285516 
1023.000000	64.296913 
1022.000000	64.304995 
1021.000000	64.310741 
1020.000000	64.315009 
1019.000000	64.317893 
1018.000000	64.318919 
1017.000000	64.316868 
1016.000000	64.310646 
1015.000000	64.299225 
1014.000000	64.282536 
1013.000000	64.261364 
1012.000000	64.237618 
1011.000000	64.214015 
1010.000000	64.193463 
1009.000000	64.178466 
1008.000000	64.170622 
1007.000000	64.170002 
1006.000000	64.175271 
1005.000000	64.183950 
1004.000000	64.193010 
1003.000000	64.199805 
1002.000000	64.202737 
1001.000000	64.201498 
1000.000000	64.197421 
999.000000	 64.192509 
998.000000	 64.189004 
997.000000	 64.188623 
996.000000	 64.191889 
995.000000	 64.198184 
994.000000	 64.205455 
993.000000	 64.211225 
992.000000	 64.212942 
991.000000	 64.208865 
990.000000	 64.198327 
989.000000	 64.181995 
988.000000	 64.161539 
987.000000	 64.139270 
986.000000	 64.117503 
985.000000	 64.098072 
984.000000	 64.082121 
983.000000	 64.069795 
982.000000	 64.060735 
981.000000	 64.054298 
980.000000	 64.049744 
979.000000	 64.046573 
978.000000	 64.044570 
977.000000	 64.044237 
976.000000	 64.046192 
975.000000	 64.051318 
974.000000	 64.060282 
973.000000	 64.073562 
972.000000	 64.091014 
971.000000	 64.112162 
970.000000	 64.135885 
969.000000	 64.160919 
968.000000	 64.185810 
967.000000	 64.209246 
966.000000	 64.230227 
965.000000	 64.247870 
964.000000	 64.261579 
963.000000	 64.270901 
962.000000	 64.275717 
961.000000	 64.276146 
960.000000	 64.272880 
959.000000	 64.267134 
958.000000	 64.260649 
957.000000	 64.255642 
956.000000	 64.254140 
955.000000	 64.257931 
954.000000	 64.267778 
953.000000	 64.283227 
952.000000	 64.302396 
951.000000	 64.322352 
950.000000	 64.339637 
949.000000	 64.350867 
948.000000	 64.353609 
947.000000	 64.347076 
946.000000	 64.332342 
945.000000	 64.312005 
944.000000	 64.289760 
943.000000	 64.269471 
942.000000	 64.254355 
941.000000	 64.246344 
940.000000	 64.245676 
939.000000	 64.251089 
938.000000	 64.260292 
937.000000	 64.270806 
936.000000	 64.280629 
935.000000	 64.288496 
934.000000	 64.294457 
933.000000	 64.299321 
932.000000	 64.304256 
931.000000	 64.310026 
930.000000	 64.316654 
929.000000	 64.323353 
928.000000	 64.328694 
927.000000	 64.331269 
926.000000	 64.330482 
925.000000	 64.327120 
924.000000	 64.323186 
923.000000	 64.321708 
922.000000	 64.326071 
921.000000	 64.338684 
920.000000	 64.360284 
919.000000	 64.389252 
918.000000	 64.422130 
917.000000	 64.454054 
916.000000	 64.480233 
915.000000	 64.496660 
914.000000	 64.501547 
913.000000	 64.495134 
912.000000	 64.480137 
911.000000	 64.459991 
910.000000	 64.438033 
909.000000	 64.416480 
908.000000	 64.396119 
907.000000	 64.376330 
906.000000	 64.355564 
905.000000	 64.332485 
904.000000	 64.306640 
903.000000	 64.278721 
902.000000	 64.250516 
901.000000	 64.224171 
900.000000	 64.201474 
899.000000	 64.183163 
898.000000	 64.168763 
897.000000	 64.156341 
896.000000	 64.143586 
895.000000	 64.128375 
894.000000	 64.109659 
893.000000	 64.087629 
892.000000	 64.064311 
891.000000	 64.042425 
890.000000	 64.025235 
889.000000	 64.015102 
888.000000	 64.013457 
887.000000	 64.020228 
886.000000	 64.034318 
885.000000	 64.053606 
884.000000	 64.076089 
883.000000	 64.100122 
882.000000	 64.124774 
881.000000	 64.149808 
880.000000	 64.175391 
879.000000	 64.201617 
878.000000	 64.228272 
877.000000	 64.254426 
876.000000	 64.278531 
875.000000	 64.298462 
874.000000	 64.312219 
873.000000	 64.318299 
872.000000	 64.316201 
871.000000	 64.306545 
870.000000	 64.291238 
869.000000	 64.272952 
868.000000	 64.254784 
867.000000	 64.239549 
866.000000	 64.229536 
865.000000	 64.225864 
864.000000	 64.228701 
863.000000	 64.237022 
862.000000	 64.249157 
861.000000	 64.262938 
860.000000	 64.276552 
859.000000	 64.288616 
858.000000	 64.298391 
857.000000	 64.306187 
856.000000	 64.312839 
855.000000	 64.319705 
854.000000	 64.327979 
853.000000	 64.338588 
852.000000	 64.351773 
851.000000	 64.366793 
850.000000	 64.382028 
849.000000	 64.395213 
848.000000	 64.404010 
847.000000	 64.406418 
846.000000	 64.401245 
845.000000	 64.388275 
844.000000	 64.368319 
843.000000	 64.343333 
842.000000	 64.315414 
841.000000	 64.286684 
840.000000	 64.258575 
839.000000	 64.231920 
838.000000	 64.206814 
837.000000	 64.182543 
836.000000	 64.158463 
835.000000	 64.133977 
834.000000	 64.109396 
833.000000	 64.085698 
832.000000	 64.064526 
831.000000	 64.047574 
830.000000	 64.036059 
829.000000	 64.030122 
828.000000	 64.028787 
827.000000	 64.029908 
826.000000	 64.031171 
825.000000	 64.030647 
824.000000	 64.027404 
823.000000	 64.021825 
822.000000	 64.015269 
821.000000	 64.009618 
820.000000	 64.006662 
819.000000	 64.007663 
818.000000	 64.013266 
817.000000	 64.023518 
816.000000	 64.038395 
815.000000	 64.057517 
814.000000	 64.080452 
813.000000	 64.106249 
812.000000	 64.133644 
811.000000	 64.160561 
810.000000	 64.184069 
809.000000	 64.201068 
808.000000	 64.208674 
807.000000	 64.205074 
806.000000	 64.190340 
805.000000	 64.166331 
804.000000	 64.136958 
803.000000	 64.106822 
802.000000	 64.080476 
801.000000	 64.061284 
800.000000	 64.050531 
799.000000	 64.047718 
798.000000	 64.050936 
797.000000	 64.057636 
796.000000	 64.065718 
795.000000	 64.073848 
794.000000	 64.082098 
793.000000	 64.091348 
792.000000	 64.103198 
791.000000	 64.119243 
790.000000	 64.140558 
789.000000	 64.167141 
788.000000	 64.197802 
787.000000	 64.230608 
786.000000	 64.262700 
785.000000	 64.291095 
784.000000	 64.312791 
783.000000	 64.325881 
782.000000	 64.329147 
781.000000	 64.322495 
780.000000	 64.306712 
779.000000	 64.283704 
778.000000	 64.255714 
777.000000	 64.225316 
776.000000	 64.194416 
775.000000	 64.164376 
774.000000	 64.135766 
773.000000	 64.108800 
772.000000	 64.083480 
771.000000	 64.060378 
770.000000	 64.040970 
769.000000	 64.027547 
768.000000	 64.022994 
767.000000	 64.029836 
766.000000	 64.049386 
765.000000	 64.080929 
764.000000	 64.121580 
763.000000	 64.166307 
762.000000	 64.208841 
761.000000	 64.242577 
760.000000	 64.262008 
759.000000	 64.263510 
758.000000	 64.246368 
757.000000	 64.212584 
756.000000	 64.166355 
755.000000	 64.113211 
754.000000	 64.058876 
753.000000	 64.008450 
752.000000	 63.965773 
751.000000	 63.933491 
750.000000	 63.912773 
749.000000	 63.904070 
748.000000	 63.907241 
747.000000	 63.921785 
746.000000	 63.946866 
745.000000	 63.980817 
744.000000	 64.020895 
743.000000	 64.063382 
742.000000	 64.103674 
741.000000	 64.137148 
740.000000	 64.159941 
739.000000	 64.169955 
738.000000	 64.167404 
737.000000	 64.155244 
736.000000	 64.138650 
735.000000	 64.124059 
734.000000	 64.117622 
733.000000	 64.124202 
732.000000	 64.145994 
731.000000	 64.182233 
730.000000	 64.228963 
729.000000	 64.280509 
728.000000	 64.330196 
727.000000	 64.371919 
726.000000	 64.401125 
725.000000	 64.415407 
724.000000	 64.414978 
723.000000	 64.402294 
722.000000	 64.381480 
721.000000	 64.357066 
720.000000	 64.333295 
719.000000	 64.313864 
718.000000	 64.300465 
717.000000	 64.292907 
716.000000	 64.289236 
715.000000	 64.286518 
714.000000	 64.281296 
713.000000	 64.270734 
712.000000	 64.252972 
711.000000	 64.227867 
710.000000	 64.196848 
709.000000	 64.162564 
708.000000	 64.128112 
707.000000	 64.096379 
706.000000	 64.069652 
705.000000	 64.049315 
704.000000	 64.035320 
703.000000	 64.026951 
702.000000	 64.022827 
701.000000	 64.021778 
700.000000	 64.022731 
699.000000	 64.025425 
698.000000	 64.029955 
697.000000	 64.036965 
696.000000	 64.046835 
695.000000	 64.060068 
694.000000	 64.076781 
693.000000	 64.097166 
692.000000	 64.121103 
691.000000	 64.148402 
690.000000	 64.178586 
689.000000	 64.210987 
688.000000	 64.244723 
687.000000	 64.278817 
686.000000	 64.311838 
685.000000	 64.342164 
684.000000	 64.367818 
683.000000	 64.386320 
682.000000	 64.394903 
681.000000	 64.391326 
680.000000	 64.374184 
679.000000	 64.343810 
678.000000	 64.302086 
677.000000	 64.253211 
676.000000	 64.202451 
675.000000	 64.155387 
674.000000	 64.116907 
673.000000	 64.090108 
672.000000	 64.076519 
671.000000	 64.075899 
670.000000	 64.087080 
669.000000	 64.108300 
668.000000	 64.137864 
667.000000	 64.174294 
666.000000	 64.216089 
665.000000	 64.261460 
664.000000	 64.307498 
663.000000	 64.350104 
662.000000	 64.384245 
661.000000	 64.404892 
660.000000	 64.408135 
659.000000	 64.392662 
658.000000	 64.360332 
657.000000	 64.316129 
656.000000	 64.267659 
655.000000	 64.223265 
654.000000	 64.190435 
653.000000	 64.173793 
652.000000	 64.174437 
651.000000	 64.189291 
650.000000	 64.212298 
649.000000	 64.235448 
648.000000	 64.250779 
647.000000	 64.252305 
646.000000	 64.236807 
645.000000	 64.205265 
644.000000	 64.161825 
643.000000	 64.113807 
642.000000	 64.069509 
641.000000	 64.037156 
640.000000	 64.023137 
639.000000	 64.030718 
638.000000	 64.059591 
637.000000	 64.105892 
636.000000	 64.163112 
635.000000	 64.222955 
634.000000	 64.276885 
633.000000	 64.317345 
632.000000	 64.339184 
631.000000	 64.340305 
630.000000	 64.321947 
629.000000	 64.288496 
628.000000	 64.246392 
627.000000	 64.203095 
626.000000	 64.165306 
625.000000	 64.137673 
624.000000	 64.121818 
623.000000	 64.116692 
622.000000	 64.118671 
621.000000	 64.123344 
620.000000	 64.126157 
619.000000	 64.124059 
618.000000	 64.115405 
617.000000	 64.100217 
616.000000	 64.079523 
615.000000	 64.054346 
614.000000	 64.025616 
613.000000	 63.993477 
612.000000	 63.958215 
611.000000	 63.920283 
610.000000	 63.881015 
609.000000	 63.842606 
608.000000	 63.808703 
607.000000	 63.783860 
606.000000	 63.772225 
605.000000	 63.776469 
604.000000	 63.797283 
603.000000	 63.832736 
602.000000	 63.878321 
601.000000	 63.927507 
600.000000	 63.973069 
599.000000	 64.008259 
598.000000	 64.027786 
597.000000	 64.028835 
596.000000	 64.011192 
595.000000	 63.977241 
594.000000	 63.931155 
593.000000	 63.877964 
592.000000	 63.823008 
591.000000	 63.770914 
590.000000	 63.725447 
589.000000	 63.688993 
588.000000	 63.662409 
587.000000	 63.646245 
586.000000	 63.641119 
585.000000	 63.648128 
584.000000	 63.668107 
583.000000	 63.703036 
582.000000	 63.755154 
581.000000	 63.826012 
580.000000	 63.915324 
579.000000	 64.021778 
578.000000	 64.142394 
577.000000	 64.272117 
576.000000	 64.403939 
575.000000	 64.529466 
574.000000	 64.639782 
573.000000	 64.727163 
572.000000	 64.785790 
571.000000	 64.813160 
570.000000	 64.809727 
569.000000	 64.780759 
568.000000	 64.732980 
567.000000	 64.674329 
566.000000	 64.610767 
565.000000	 64.547228 
564.000000	 64.484858 
563.000000	 64.423179 
562.000000	 64.358830 
561.000000	 64.289116 
560.000000	 64.210605 
559.000000	 64.121365 
558.000000	 64.019513 
557.000000	 63.903975 
556.000000	 63.773560 
555.000000	 63.627481 
554.000000	 63.465666 
553.000000	 63.289713 
552.000000	 63.103818 
551.000000	 62.915492 
550.000000	 62.735724 
549.000000	 62.578725 
548.000000	 62.458801 
547.000000	 62.389397 
546.000000	 62.378740 
545.000000	 62.429785 
544.000000	 62.538290 
543.000000	 62.694358 
542.000000	 62.882041 
541.000000	 63.083362 
540.000000	 63.280606 
539.000000	 63.458681 
538.000000	 63.607168 
537.000000	 63.719415 
536.000000	 63.791561 
535.000000	 63.822317 
534.000000	 63.812994 
533.000000	 63.766551 
532.000000	 63.687705 
531.000000	 63.583683 
530.000000	 63.465237 
529.000000	 63.345623 
528.000000	 63.240194 
527.000000	 63.164734 
526.000000	 63.133597 
525.000000	 63.158774 
524.000000	 63.247394 
523.000000	 63.401293 
522.000000	 63.614320 
521.000000	 63.871026 
520.000000	 64.147615 
519.000000	 64.413666 
518.000000	 64.638328 
517.000000	 64.795446 
516.000000	 64.870357 
515.000000	 64.862537 
514.000000	 64.787101 
513.000000	 64.670968 
512.000000	 64.547967 
511.000000	 64.452767 
510.000000	 64.412355 
509.000000	 64.443588 
508.000000	 64.546060 
507.000000	 64.707136 
506.000000	 64.898633 
505.000000	 65.084838 
504.000000	 65.227603 
503.000000	 65.294528 
502.000000	 65.267324 
501.000000	 65.145897 
500.000000	 64.949011 
499.000000	 64.709258 
498.000000	 64.467239 
497.000000	 64.261245 
496.000000	 64.119386 
495.000000	 64.052510 
494.000000	 64.052128 
493.000000	 64.093708 
492.000000	 64.143800 
491.000000	 64.170527 
490.000000	 64.151287 
489.000000	 64.081311 
488.000000	 63.970446 
487.000000	 63.845515 
486.000000	 63.739824 
485.000000	 63.688635 
484.000000	 63.715076 
483.000000	 63.830161 
482.000000	 64.031624 
481.000000	 64.302659 
480.000000	 64.619064 
479.000000	 64.947152 
478.000000	 65.251493 
477.000000	 65.495443 
476.000000	 65.646600 
475.000000	 65.681695 
474.000000	 65.591001 
473.000000	 65.380692 
472.000000	 65.073490 
471.000000	 64.707088 
470.000000	 64.329195 
469.000000	 63.991928 
468.000000	 63.742876 
467.000000	 63.617491 
466.000000	 63.631463 
465.000000	 63.781332 
464.000000	 64.041066 
463.000000	 64.366865 
462.000000	 64.702987 
461.000000	 64.990830 
460.000000	 65.180277 
459.000000	 65.236091 
458.000000	 65.146851 
457.000000	 64.923167 
456.000000	 64.598441 
455.000000	 64.221477 
454.000000	 63.845562 
453.000000	 63.521003 
452.000000	 63.280057 
451.000000	 63.134026 
450.000000	 63.069677 
449.000000	 63.055944 
448.000000	 63.054490 
447.000000	 63.032364 
446.000000	 62.971258 
445.000000	 62.872672 
444.000000	 62.758612 
443.000000	 62.664413 
442.000000	 62.629342 
441.000000	 62.684583 
440.000000	 62.841272 
439.000000	 63.086485 
438.000000	 63.391208 
437.000000	 63.713145 
436.000000	 64.003181 
435.000000	 64.217519 
434.000000	 64.329528 
433.000000	 64.333271 
432.000000	 64.241313 
431.000000	 64.082312 
430.000000	 63.893413 
429.000000	 63.711476 
428.000000	 63.565850 
427.000000	 63.472628 
426.000000	 63.436508 
425.000000	 63.448429 
424.000000	 63.493824 
423.000000	 63.551664 
422.000000	 63.600826 
421.000000	 63.623595 
420.000000	 63.609504 
419.000000	 63.557648 
418.000000	 63.478326 
417.000000	 63.394689 
416.000000	 63.341903 
415.000000	 63.368511 
414.000000	 63.529205 
413.000000	 63.868618 
412.000000	 64.411830 
411.000000	 65.165019 
410.000000	 66.104149 
409.000000	 67.164516 
408.000000	 68.256449 
407.000000	 69.279074 
406.000000	 70.143651 
405.000000	 70.795631 
404.000000	 71.218490 
403.000000	 71.438336 
402.000000	 71.503400 
401.000000	 71.480703 
400.000000	 71.416926 
399.000000	 71.331024 
398.000000	 71.204090 
397.000000	 71.006679 
396.000000	 70.684766 
395.000000	 70.179057 
394.000000	 69.471287 
393.000000	 68.598484 
392.000000	 67.677497 
391.000000	 66.906642 
390.000000	 66.418552 
389.000000	 66.274952 
388.000000	 66.583514 
387.000000	 67.413997 
386.000000	 69.015526 
385.000000	 71.643853 
384.000000	 74.766373 
383.000000	 77.632212 
382.000000	 79.718780 
381.000000	 80.760669 
380.000000	 81.837058 
379.000000	 83.936166 
378.000000	 87.101507 
377.000000	 90.680122 
376.000000	 91.746520 
375.000000	 88.216972 
374.000000	 80.628538 
373.000000	 71.208214 
372.000000	 65.819311 
371.000000	 67.789268 
370.000000	 75.471758 

