PE IR       SPECTRUM    SPECTRUM    ASCII       PEDS        1.60        
  -1
BZ6EA6~1.ASC
17/04/07
19:29:37.00
17/04/07
19:29:37.00
tln
$BZ1503107-1_t0076$<tbV0>[-10.4,2.6,8.0,0.0,27,1,0]
370.000000
64









2002,4.07    
MIRTGS : RIGHTBACK : INTERNAL 2
MIR : ON : INTERNAL 2
OPTKBR

0.200000
8
8.000000
FILLER
RATIO
SPECTRUM
UNLOCKED 256

DOUBLE
64
COMBINED
1
0
0


1.000000
RATIO


1
0
TRUE
51149
0
LEFT NOT FITTED RIGHT NOT FITTED 0
NONE
NONE
15600
12.000000
4.427000
51148
TRUE
1 0 8 72 0 0 0 0 

15798.010000






#HDR
-1
-1
#GR
CM-1
%T
0.00002384185791015625
0.0
5000.000000
-1.000000
4631
8
95.053720
47.273683
#DATA
5000.000000	64.464068 
4999.000000	64.498662 
4998.000000	64.573597 
4997.000000	64.685297 
4996.000000	64.825534 
4995.000000	64.984273 
4994.000000	65.149235 
4993.000000	65.308284 
4992.000000	65.448808 
4991.000000	65.559244 
4990.000000	65.629076 
4989.000000	65.650677 
4988.000000	65.619301 
4987.000000	65.534734 
4986.000000	65.401554 
4985.000000	65.229892 
4984.000000	65.032887 
4983.000000	64.825844 
4982.000000	64.624047 
4981.000000	64.441633 
4980.000000	64.290237 
4979.000000	64.178824 
4978.000000	64.113569 
4977.000000	64.097642 
4976.000000	64.130616 
4975.000000	64.208221 
4974.000000	64.320874 
4973.000000	64.455342 
4972.000000	64.595007 
4971.000000	64.723467 
4970.000000	64.824366 
4969.000000	64.886736 
4968.000000	64.905905 
4967.000000	64.884996 
4966.000000	64.833736 
4965.000000	64.765906 
4964.000000	64.696931 
4963.000000	64.639353 
4962.000000	64.600658 
4961.000000	64.582014 
4960.000000	64.579653 
4959.000000	64.586019 
4958.000000	64.592909 
4957.000000	64.593529 
4956.000000	64.584398 
4955.000000	64.566493 
4954.000000	64.544796 
4953.000000	64.525985 
4952.000000	64.516305 
4951.000000	64.520931 
4950.000000	64.541196 
4949.000000	64.573502 
4948.000000	64.609146 
4947.000000	64.637541 
4946.000000	64.647197 
4945.000000	64.628171 
4944.000000	64.574623 
4943.000000	64.486432 
4942.000000	64.369845 
4941.000000	64.236927 
4940.000000	64.102911 
4939.000000	63.983225 
4938.000000	63.890099 
4937.000000	63.830280 
4936.000000	63.803744 
4935.000000	63.803887 
4934.000000	63.821029 
4933.000000	63.845038 
4932.000000	63.869190 
4931.000000	63.891386 
4930.000000	63.915014 
4929.000000	63.947010 
4928.000000	63.995242 
4927.000000	64.065337 
4926.000000	64.158487 
4925.000000	64.270710 
4924.000000	64.393544 
4923.000000	64.516234 
4922.000000	64.629030 
4921.000000	64.724946 
4920.000000	64.802098 
4919.000000	64.862442 
4918.000000	64.910626 
4917.000000	64.951419 
4916.000000	64.988088 
4915.000000	65.020990 
4914.000000	65.048408 
4913.000000	65.066385 
4912.000000	65.072536 
4911.000000	65.064620 
4910.000000	65.042948 
4909.000000	65.008974 
4908.000000	64.966201 
4907.000000	64.917874 
4906.000000	64.866518 
4905.000000	64.814162 
4904.000000	64.762401 
4903.000000	64.713096 
4902.000000	64.668726 
4901.000000	64.632344 
4900.000000	64.607262 
4899.000000	64.596223 
4898.000000	64.600682 
4897.000000	64.618921 
4896.000000	64.646720 
4895.000000	64.678239 
4894.000000	64.707469 
4893.000000	64.728927 
4892.000000	64.739227 
4891.000000	64.738154 
4890.000000	64.727973 
4889.000000	64.712166 
4888.000000	64.694976 
4887.000000	64.680457 
4886.000000	64.671635 
4885.000000	64.669895 
4884.000000	64.675045 
4883.000000	64.686155 
4882.000000	64.701724 
4881.000000	64.720249 
4880.000000	64.740419 
4879.000000	64.761114 
4878.000000	64.781427 
4877.000000	64.800357 
4876.000000	64.816665 
4875.000000	64.828777 
4874.000000	64.835381 
4873.000000	64.835262 
4872.000000	64.827275 
4871.000000	64.810419 
4870.000000	64.784479 
4869.000000	64.750409 
4868.000000	64.710283 
4867.000000	64.667201 
4866.000000	64.625763 
4865.000000	64.590525 
4864.000000	64.565062 
4863.000000	64.550971 
4862.000000	64.547610 
4861.000000	64.552140 
4860.000000	64.560008 
4859.000000	64.566302 
4858.000000	64.566564 
4857.000000	64.558386 
4856.000000	64.541697 
4855.000000	64.519071 
4854.000000	64.494323 
4853.000000	64.472174 
4852.000000	64.456868 
4851.000000	64.451313 
4850.000000	64.456272 
4849.000000	64.471030 
4848.000000	64.493680 
4847.000000	64.521789 
4846.000000	64.553093 
4845.000000	64.585399 
4844.000000	64.617395 
4843.000000	64.648032 
4842.000000	64.677476 
4841.000000	64.707040 
4840.000000	64.739155 
4839.000000	64.777088 
4838.000000	64.823722 
4837.000000	64.881014 
4836.000000	64.948415 
4835.000000	65.022873 
4834.000000	65.098071 
4833.000000	65.165996 
4832.000000	65.217447 
4831.000000	65.244984 
4830.000000	65.243411 
4829.000000	65.211653 
4828.000000	65.152597 
4827.000000	65.072965 
4826.000000	64.981865 
4825.000000	64.889168 
4824.000000	64.804220 
4823.000000	64.734768 
4822.000000	64.686226 
4821.000000	64.661383 
4820.000000	64.660716 
4819.000000	64.682269 
4818.000000	64.721798 
4817.000000	64.772844 
4816.000000	64.826583 
4815.000000	64.873218 
4814.000000	64.903020 
4813.000000	64.908528 
4812.000000	64.885258 
4811.000000	64.833498 
4810.000000	64.758658 
4809.000000	64.670157 
4808.000000	64.579844 
4807.000000	64.499402 
4806.000000	64.438128 
4805.000000	64.401221 
4804.000000	64.388751 
4803.000000	64.396977 
4802.000000	64.419484 
4801.000000	64.449977 
4800.000000	64.483308 
4799.000000	64.517426 
4798.000000	64.552974 
4797.000000	64.592576 
4796.000000	64.638757 
4795.000000	64.692258 
4794.000000	64.750766 
4793.000000	64.809250 
4792.000000	64.860486 
4791.000000	64.897084 
4790.000000	64.912915 
4789.000000	64.905261 
4788.000000	64.874958 
4787.000000	64.826345 
4786.000000	64.766073 
4785.000000	64.701604 
4784.000000	64.639878 
4783.000000	64.586520 
4782.000000	64.545345 
4781.000000	64.518594 
4780.000000	64.507055 
4779.000000	64.510440 
4778.000000	64.527487 
4777.000000	64.555954 
4776.000000	64.592552 
4775.000000	64.632749 
4774.000000	64.671826 
4773.000000	64.705061 
4772.000000	64.729070 
4771.000000	64.741992 
4770.000000	64.744257 
4769.000000	64.738225 
4768.000000	64.726972 
4767.000000	64.713430 
4766.000000	64.699101 
4765.000000	64.683675 
4764.000000	64.665389 
4763.000000	64.641809 
4762.000000	64.611268 
4761.000000	64.573812 
4760.000000	64.532160 
4759.000000	64.491295 
4758.000000	64.457488 
4757.000000	64.436864 
4756.000000	64.433169 
4755.000000	64.447021 
4754.000000	64.475703 
4753.000000	64.513492 
4752.000000	64.552831 
4751.000000	64.586544 
4750.000000	64.609432 
4749.000000	64.619779 
4748.000000	64.619064 
4747.000000	64.611816 
4746.000000	64.603686 
4745.000000	64.600443 
4744.000000	64.606761 
4743.000000	64.624857 
4742.000000	64.654135 
4741.000000	64.691781 
4740.000000	64.733839 
4739.000000	64.775443 
4738.000000	64.812135 
4737.000000	64.840674 
4736.000000	64.860033 
4735.000000	64.870738 
4734.000000	64.875602 
4733.000000	64.878535 
4732.000000	64.884686 
4731.000000	64.899468 
4730.000000	64.927291 
4729.000000	64.970755 
4728.000000	65.029335 
4727.000000	65.100121 
4726.000000	65.177035 
4725.000000	65.252327 
4724.000000	65.317106 
4723.000000	65.363645 
4722.000000	65.385961 
4721.000000	65.381312 
4720.000000	65.349745 
4719.000000	65.294575 
4718.000000	65.220785 
4717.000000	65.134692 
4716.000000	65.041971 
4715.000000	64.947319 
4714.000000	64.853596 
4713.000000	64.762544 
4712.000000	64.674782 
4711.000000	64.591145 
4710.000000	64.513945 
4709.000000	64.447546 
4708.000000	64.397215 
4707.000000	64.368915 
4706.000000	64.367389 
4705.000000	64.395260 
4704.000000	64.450860 
4703.000000	64.528608 
4702.000000	64.619183 
4701.000000	64.711308 
4700.000000	64.793562 
4699.000000	64.856481 
4698.000000	64.894342 
4697.000000	64.905428 
4696.000000	64.892625 
4695.000000	64.861321 
4694.000000	64.818263 
4693.000000	64.769434 
4692.000000	64.719557 
4691.000000	64.670944 
4690.000000	64.624142 
4689.000000	64.578175 
4688.000000	64.532160 
4687.000000	64.484739 
4686.000000	64.435100 
4685.000000	64.382982 
4684.000000	64.329123 
4683.000000	64.275145 
4682.000000	64.223980 
4681.000000	64.179563 
4680.000000	64.146494 
4679.000000	64.128708 
4678.000000	64.129137 
4677.000000	64.148592 
4676.000000	64.185786 
4675.000000	64.236545 
4674.000000	64.295625 
4673.000000	64.356517 
4672.000000	64.414167 
4671.000000	64.465141 
4670.000000	64.508795 
4669.000000	64.546465 
4668.000000	64.581298 
4667.000000	64.616799 
4666.000000	64.655613 
4665.000000	64.698624 
4664.000000	64.744758 
4663.000000	64.791417 
4662.000000	64.835000 
4661.000000	64.872264 
4660.000000	64.899730 
4659.000000	64.914560 
4658.000000	64.914774 
4657.000000	64.899945 
4656.000000	64.871120 
4655.000000	64.831447 
4654.000000	64.786124 
4653.000000	64.741969 
4652.000000	64.706325 
4651.000000	64.685773 
4650.000000	64.685082 
4649.000000	64.705824 
4648.000000	64.746189 
4647.000000	64.801168 
4646.000000	64.863371 
4645.000000	64.924764 
4644.000000	64.977765 
4643.000000	65.016913 
4642.000000	65.039348 
4641.000000	65.045166 
4640.000000	65.036678 
4639.000000	65.017628 
4638.000000	64.991903 
4637.000000	64.963579 
4636.000000	64.936256 
4635.000000	64.912891 
4634.000000	64.895677 
4633.000000	64.886116 
4632.000000	64.884853 
4631.000000	64.891314 
4630.000000	64.903736 
4629.000000	64.919304 
4628.000000	64.934587 
4627.000000	64.945936 
4626.000000	64.950370 
4625.000000	64.945459 
4624.000000	64.930582 
4623.000000	64.906477 
4622.000000	64.876031 
4621.000000	64.843845 
4620.000000	64.815902 
4619.000000	64.798188 
4618.000000	64.795994 
4617.000000	64.812922 
4616.000000	64.849972 
4615.000000	64.904999 
4614.000000	64.972519 
4613.000000	65.045118 
4612.000000	65.113592 
4611.000000	65.169000 
4610.000000	65.203714 
4609.000000	65.212726 
4608.000000	65.194606 
4607.000000	65.151834 
4606.000000	65.090847 
4605.000000	65.020871 
4604.000000	64.952921 
4603.000000	64.897990 
4602.000000	64.865899 
4601.000000	64.863038 
4600.000000	64.891743 
4599.000000	64.948773 
4598.000000	65.025830 
4597.000000	65.110254 
4596.000000	65.186953 
4595.000000	65.241312 
4594.000000	65.261578 
4593.000000	65.241909 
4592.000000	65.182971 
4591.000000	65.092587 
4590.000000	64.983510 
4589.000000	64.871668 
4588.000000	64.772820 
4587.000000	64.699959 
4586.000000	64.661645 
4585.000000	64.660358 
4584.000000	64.693140 
4583.000000	64.752173 
4582.000000	64.826917 
4581.000000	64.905595 
4580.000000	64.977002 
4579.000000	65.032148 
4578.000000	65.065264 
4577.000000	65.073990 
4576.000000	65.059113 
4575.000000	65.024518 
4574.000000	64.975810 
4573.000000	64.920067 
4572.000000	64.864301 
4571.000000	64.814853 
4570.000000	64.776325 
4569.000000	64.751601 
4568.000000	64.741253 
4567.000000	64.744377 
4566.000000	64.758706 
4565.000000	64.780998 
4564.000000	64.807510 
4563.000000	64.834332 
4562.000000	64.857649 
4561.000000	64.873719 
4560.000000	64.879894 
4559.000000	64.874505 
4558.000000	64.857864 
4557.000000	64.832162 
4556.000000	64.801144 
4555.000000	64.769268 
4554.000000	64.741206 
4553.000000	64.720940 
4552.000000	64.711284 
4551.000000	64.713406 
4550.000000	64.726257 
4549.000000	64.746546 
4548.000000	64.769244 
4547.000000	64.788484 
4546.000000	64.798355 
4545.000000	64.794468 
4544.000000	64.774703 
4543.000000	64.740133 
4542.000000	64.695215 
4541.000000	64.646697 
4540.000000	64.601802 
4539.000000	64.566802 
4538.000000	64.545774 
4537.000000	64.539623 
4536.000000	64.545869 
4535.000000	64.559721 
4534.000000	64.575505 
4533.000000	64.587903 
4532.000000	64.593505 
4531.000000	64.590811 
4530.000000	64.580321 
4529.000000	64.562988 
4528.000000	64.539241 
4527.000000	64.508366 
4526.000000	64.468717 
4525.000000	64.418840 
4524.000000	64.358806 
4523.000000	64.291572 
4522.000000	64.223432 
4521.000000	64.163064 
4520.000000	64.120364 
4519.000000	64.103770 
4518.000000	64.118885 
4517.000000	64.166760 
4516.000000	64.244079 
4515.000000	64.343404 
4514.000000	64.454817 
4513.000000	64.567518 
4512.000000	64.671659 
4511.000000	64.759254 
4510.000000	64.825534 
4509.000000	64.868903 
4508.000000	64.890909 
4507.000000	64.894986 
4506.000000	64.886140 
4505.000000	64.870572 
4504.000000	64.854025 
4503.000000	64.841794 
4502.000000	64.837336 
4501.000000	64.842748 
4500.000000	64.857673 
4499.000000	64.879870 
4498.000000	64.905381 
4497.000000	64.929628 
4496.000000	64.948320 
4495.000000	64.958667 
4494.000000	64.959883 
4493.000000	64.953684 
4492.000000	64.943838 
4491.000000	64.935207 
4490.000000	64.932632 
4489.000000	64.939045 
4488.000000	64.955306 
4487.000000	64.978289 
4486.000000	65.002894 
4485.000000	65.021038 
4484.000000	65.023827 
4483.000000	65.002560 
4482.000000	64.951395 
4481.000000	64.867806 
4480.000000	64.753246 
4479.000000	64.613580 
4478.000000	64.458131 
4477.000000	64.298987 
4476.000000	64.148879 
4475.000000	64.019918 
4474.000000	63.921594 
4473.000000	63.860082 
4472.000000	63.837790 
4471.000000	63.851642 
4470.000000	63.893628 
4469.000000	63.953042 
4468.000000	64.018464 
4467.000000	64.080286 
4466.000000	64.132046 
4465.000000	64.170718 
4464.000000	64.195680 
4463.000000	64.208698 
4462.000000	64.211177 
4461.000000	64.199495 
4460.000000	64.167332 
4459.000000	64.112043 
4458.000000	64.033102 
4457.000000	63.931465 
4456.000000	63.812541 
4455.000000	63.686847 
4454.000000	63.568139 
4453.000000	63.471841 
4452.000000	63.411140 
4451.000000	63.389372 
4450.000000	63.407230 
4449.000000	63.463544 
4448.000000	63.556265 
4447.000000	63.680028 
4446.000000	63.835597 
4445.000000	64.029860 
4444.000000	64.264988 
4443.000000	64.534044 
4442.000000	64.820790 
4441.000000	65.098428 
4440.000000	65.340852 
4439.000000	65.519118 
4438.000000	65.613102 
4437.000000	65.599751 
4436.000000	65.451121 
4435.000000	65.132331 
4434.000000	64.601254 
4433.000000	63.829493 
4432.000000	62.818861 
4431.000000	61.617326 
4430.000000	60.320210 
4429.000000	59.064340 
4428.000000	57.992434 
4427.000000	57.247948 
4426.000000	56.922388 
4425.000000	57.077288 
4424.000000	57.724738 
4423.000000	58.843040 
4422.000000	60.375952 
4421.000000	62.236571 
4420.000000	64.308500 
4419.000000	66.448760 
4418.000000	68.493914 
4417.000000	70.283722 
4416.000000	71.677947 
4415.000000	72.582602 
4414.000000	72.959899 
4413.000000	72.834181 
4412.000000	72.279763 
4411.000000	71.413135 
4410.000000	70.363354 
4409.000000	69.259381 
4408.000000	68.202614 
4407.000000	67.271184 
4406.000000	66.504693 
4405.000000	65.918707 
4404.000000	65.503668 
4403.000000	65.242171 
4402.000000	65.110588 
4401.000000	65.079712 
4400.000000	65.122938 
4399.000000	65.206527 
4398.000000	65.302991 
4397.000000	65.381503 
4396.000000	65.423393 
4395.000000	65.418434 
4394.000000	65.369939 
4393.000000	65.290784 
4392.000000	65.198636 
4391.000000	65.108871 
4390.000000	65.034985 
4389.000000	64.986157 
4388.000000	64.960193 
4387.000000	64.944934 
4386.000000	64.928197 
4385.000000	64.900732 
4384.000000	64.854478 
4383.000000	64.786052 
4382.000000	64.698696 
4381.000000	64.601016 
4380.000000	64.503955 
4379.000000	64.418745 
4378.000000	64.350652 
4377.000000	64.301276 
4376.000000	64.272069 
4375.000000	64.262223 
4374.000000	64.266705 
4373.000000	64.280509 
4372.000000	64.300179 
4371.000000	64.324235 
4370.000000	64.351415 
4369.000000	64.382839 
4368.000000	64.420008 
4367.000000	64.465045 
4366.000000	64.519214 
4365.000000	64.582467 
4364.000000	64.652800 
4363.000000	64.726519 
4362.000000	64.798474 
4361.000000	64.863395 
4360.000000	64.916610 
4359.000000	64.955139 
4358.000000	64.978027 
4357.000000	64.987254 
4356.000000	64.986395 
4355.000000	64.979314 
4354.000000	64.968991 
4353.000000	64.957094 
4352.000000	64.944052 
4351.000000	64.929723 
4350.000000	64.914035 
4349.000000	64.898610 
4348.000000	64.886021 
4347.000000	64.879369 
4346.000000	64.881277 
4345.000000	64.893102 
4344.000000	64.914417 
4343.000000	64.942908 
4342.000000	64.974951 
4341.000000	65.006256 
4340.000000	65.032601 
4339.000000	65.051221 
4338.000000	65.060377 
4337.000000	65.059518 
4336.000000	65.049099 
4335.000000	65.030503 
4334.000000	65.005254 
4333.000000	64.975094 
4332.000000	64.942383 
4331.000000	64.909934 
4330.000000	64.881181 
4329.000000	64.859437 
4328.000000	64.847517 
4327.000000	64.846992 
4326.000000	64.857387 
4325.000000	64.876294 
4324.000000	64.899754 
4323.000000	64.923048 
4322.000000	64.941763 
4321.000000	64.952611 
4320.000000	64.953446 
4319.000000	64.943718 
4318.000000	64.924311 
4317.000000	64.897012 
4316.000000	64.864206 
4315.000000	64.828038 
4314.000000	64.790534 
4313.000000	64.752888 
4312.000000	64.715790 
4311.000000	64.679670 
4310.000000	64.644861 
4309.000000	64.612269 
4308.000000	64.583635 
4307.000000	64.561247 
4306.000000	64.547753 
4305.000000	64.545297 
4304.000000	64.555048 
4303.000000	64.576482 
4302.000000	64.607596 
4301.000000	64.644455 
4300.000000	64.682507 
4299.000000	64.717173 
4298.000000	64.745473 
4297.000000	64.766430 
4296.000000	64.781355 
4295.000000	64.793586 
4294.000000	64.806818 
4293.000000	64.824080 
4292.000000	64.846348 
4291.000000	64.872026 
4290.000000	64.897346 
4289.000000	64.917778 
4288.000000	64.928936 
4287.000000	64.928531 
4286.000000	64.916801 
4285.000000	64.896464 
4284.000000	64.872217 
4283.000000	64.849495 
4282.000000	64.833092 
4281.000000	64.826154 
4280.000000	64.829945 
4279.000000	64.843750 
4278.000000	64.865326 
4277.000000	64.891552 
4276.000000	64.919447 
4275.000000	64.946556 
4274.000000	64.970803 
4273.000000	64.990687 
4272.000000	65.004897 
4271.000000	65.012526 
4270.000000	65.012931 
4269.000000	65.005946 
4268.000000	64.992427 
4267.000000	64.973711 
4266.000000	64.952015 
4265.000000	64.929461 
4264.000000	64.908075 
4263.000000	64.888954 
4262.000000	64.872550 
4261.000000	64.858174 
4260.000000	64.844393 
4259.000000	64.829611 
4258.000000	64.812493 
4257.000000	64.792394 
4256.000000	64.769673 
4255.000000	64.745879 
4254.000000	64.723372 
4253.000000	64.704942 
4252.000000	64.693379 
4251.000000	64.690709 
4250.000000	64.697957 
4249.000000	64.715051 
4248.000000	64.740800 
4247.000000	64.773392 
4246.000000	64.810776 
4245.000000	64.850878 
4244.000000	64.891958 
4243.000000	64.932966 
4242.000000	64.973139 
4241.000000	65.011763 
4240.000000	65.047693 
4239.000000	65.079379 
4238.000000	65.104293 
4237.000000	65.119695 
4236.000000	65.122842 
4235.000000	65.111994 
4234.000000	65.087056 
4233.000000	65.049958 
4232.000000	65.004944 
4231.000000	64.957714 
4230.000000	64.914822 
4229.000000	64.882516 
4228.000000	64.865207 
4227.000000	64.864706 
4226.000000	64.879870 
4225.000000	64.906930 
4224.000000	64.940190 
4223.000000	64.973497 
4222.000000	65.001320 
4221.000000	65.019893 
4220.000000	65.027832 
4219.000000	65.025997 
4218.000000	65.016865 
4217.000000	65.003538 
4216.000000	64.989137 
4215.000000	64.975523 
4214.000000	64.963340 
4213.000000	64.951467 
4212.000000	64.938044 
4211.000000	64.920711 
4210.000000	64.897704 
4209.000000	64.868378 
4208.000000	64.833569 
4207.000000	64.795732 
4206.000000	64.757990 
4205.000000	64.724063 
4204.000000	64.697337 
4203.000000	64.680147 
4202.000000	64.673471 
4201.000000	64.676761 
4200.000000	64.688205 
4199.000000	64.705395 
4198.000000	64.725589 
4197.000000	64.746189 
4196.000000	64.764904 
4195.000000	64.780044 
4194.000000	64.790391 
4193.000000	64.794898 
4192.000000	64.792776 
4191.000000	64.783334 
4190.000000	64.766430 
4189.000000	64.742898 
4188.000000	64.714765 
4187.000000	64.685297 
4186.000000	64.658379 
4185.000000	64.638042 
4184.000000	64.627528 
4183.000000	64.628601 
4182.000000	64.641237 
4181.000000	64.663290 
4180.000000	64.691305 
4179.000000	64.721202 
4178.000000	64.749145 
4177.000000	64.772248 
4176.000000	64.789342 
4175.000000	64.800691 
4174.000000	64.808106 
4173.000000	64.814066 
4172.000000	64.821076 
4171.000000	64.830827 
4170.000000	64.843869 
4169.000000	64.859533 
4168.000000	64.876294 
4167.000000	64.891958 
4166.000000	64.904642 
4165.000000	64.912748 
4164.000000	64.915752 
4163.000000	64.913654 
4162.000000	64.907097 
4161.000000	64.896965 
4160.000000	64.884090 
4159.000000	64.869451 
4158.000000	64.853763 
4157.000000	64.837956 
4156.000000	64.823484 
4155.000000	64.811968 
4154.000000	64.805126 
4153.000000	64.804029 
4152.000000	64.809250 
4151.000000	64.819741 
4150.000000	64.832782 
4149.000000	64.844393 
4148.000000	64.849662 
4147.000000	64.844250 
4146.000000	64.825487 
4145.000000	64.792943 
4144.000000	64.748930 
4143.000000	64.698147 
4142.000000	64.647030 
4141.000000	64.602208 
4140.000000	64.569497 
4139.000000	64.552712 
4138.000000	64.553499 
4137.000000	64.570784 
4136.000000	64.601922 
4135.000000	64.642977 
4134.000000	64.690327 
4133.000000	64.740443 
4132.000000	64.791131 
4131.000000	64.841008 
4130.000000	64.889693 
4129.000000	64.937138 
4128.000000	64.983177 
4127.000000	65.027260 
4126.000000	65.067887 
4125.000000	65.103363 
4124.000000	65.130972 
4123.000000	65.148115 
4122.000000	65.152168 
4121.000000	65.141749 
4120.000000	65.116977 
4119.000000	65.080118 
4118.000000	65.035438 
4117.000000	64.988613 
4116.000000	64.945721 
4115.000000	64.912056 
4114.000000	64.891099 
4113.000000	64.883756 
4112.000000	64.888429 
4111.000000	64.901375 
4110.000000	64.917778 
4109.000000	64.933204 
4108.000000	64.944100 
4107.000000	64.949178 
4106.000000	64.948892 
4105.000000	64.945745 
4104.000000	64.943385 
4103.000000	64.945602 
4102.000000	64.954996 
4101.000000	64.972472 
4100.000000	64.996957 
4099.000000	65.025305 
4098.000000	65.053176 
4097.000000	65.075826 
4096.000000	65.089511 
4095.000000	65.091919 
4094.000000	65.082907 
4093.000000	65.064167 
4092.000000	65.039038 
4091.000000	65.011501 
4090.000000	64.985227 
4089.000000	64.963245 
4088.000000	64.947271 
4087.000000	64.937686 
4086.000000	64.933609 
4085.000000	64.933323 
4084.000000	64.934587 
4083.000000	64.935374 
4082.000000	64.933991 
4081.000000	64.929056 
4080.000000	64.919853 
4079.000000	64.906001 
4078.000000	64.888048 
4077.000000	64.866805 
4076.000000	64.843988 
4075.000000	64.821505 
4074.000000	64.801979 
4073.000000	64.787960 
4072.000000	64.782094 
4071.000000	64.786386 
4070.000000	64.801788 
4069.000000	64.827871 
4068.000000	64.862442 
4067.000000	64.901781 
4066.000000	64.940714 
4065.000000	64.973545 
4064.000000	64.994525 
4063.000000	64.999055 
4062.000000	64.984369 
4061.000000	64.950442 
4060.000000	64.900279 
4059.000000	64.839529 
4058.000000	64.775824 
4057.000000	64.717268 
4056.000000	64.671516 
4055.000000	64.643955 
4054.000000	64.636850 
4053.000000	64.649105 
4052.000000	64.676237 
4051.000000	64.712095 
4050.000000	64.749717 
4049.000000	64.783620 
4048.000000	64.810156 
4047.000000	64.829015 
4046.000000	64.841961 
4045.000000	64.852571 
4044.000000	64.864826 
4043.000000	64.881038 
4042.000000	64.901328 
4041.000000	64.923191 
4040.000000	64.942431 
4039.000000	64.954280 
4038.000000	64.954996 
4037.000000	64.943146 
4036.000000	64.920186 
4035.000000	64.890336 
4034.000000	64.859795 
4033.000000	64.834690 
4032.000000	64.819908 
4031.000000	64.817905 
4030.000000	64.828181 
4029.000000	64.847874 
4028.000000	64.872336 
4027.000000	64.896583 
4026.000000	64.916539 
4025.000000	64.929699 
4024.000000	64.935970 
4023.000000	64.936470 
4022.000000	64.933991 
4021.000000	64.931321 
4020.000000	64.931774 
4019.000000	64.938235 
4018.000000	64.953112 
4017.000000	64.977860 
4016.000000	65.012431 
4015.000000	65.055632 
4014.000000	65.104246 
4013.000000	65.153694 
4012.000000	65.198254 
4011.000000	65.232276 
4010.000000	65.251207 
4009.000000	65.252470 
4008.000000	65.236568 
4007.000000	65.206933 
4006.000000	65.169286 
4005.000000	65.130448 
4004.000000	65.096807 
4003.000000	65.072751 
4002.000000	65.060186 
4001.000000	65.058159 
4000.000000	65.063452 
3999.000000	65.071415 
3998.000000	65.077853 
3997.000000	65.079522 
3996.000000	65.074825 
3995.000000	65.064120 
3994.000000	65.048646 
3993.000000	65.030789 
3992.000000	65.012907 
3991.000000	64.997076 
3990.000000	64.984679 
3989.000000	64.976191 
3988.000000	64.971494 
3987.000000	64.969563 
3986.000000	64.968824 
3985.000000	64.967226 
3984.000000	64.962720 
3983.000000	64.953327 
3982.000000	64.937734 
3981.000000	64.915776 
3980.000000	64.888668 
3979.000000	64.859080 
3978.000000	64.830780 
3977.000000	64.807796 
3976.000000	64.793682 
3975.000000	64.790439 
3974.000000	64.798235 
3973.000000	64.815187 
3972.000000	64.837956 
3971.000000	64.862370 
3970.000000	64.884781 
3969.000000	64.902663 
3968.000000	64.915084 
3967.000000	64.922618 
3966.000000	64.926648 
3965.000000	64.928889 
3964.000000	64.930319 
3963.000000	64.930939 
3962.000000	64.929604 
3961.000000	64.924407 
3960.000000	64.913845 
3959.000000	64.897727 
3958.000000	64.877796 
3957.000000	64.857578 
3956.000000	64.842009 
3955.000000	64.836144 
3954.000000	64.843726 
3953.000000	64.865899 
3952.000000	64.900898 
3951.000000	64.943742 
3950.000000	64.987540 
3949.000000	65.024495 
3948.000000	65.048027 
3947.000000	65.053701 
3946.000000	65.040063 
3945.000000	65.008306 
3944.000000	64.962077 
3943.000000	64.906573 
3942.000000	64.846920 
3941.000000	64.788174 
3940.000000	64.734411 
3939.000000	64.689230 
3938.000000	64.655709 
3937.000000	64.636492 
3936.000000	64.633679 
3935.000000	64.648079 
3934.000000	64.678955 
3933.000000	64.723515 
3932.000000	64.776611 
3931.000000	64.831686 
3930.000000	64.881467 
3929.000000	64.919781 
3928.000000	64.942502 
3927.000000	64.948678 
3926.000000	64.940690 
3925.000000	64.923572 
3924.000000	64.903759 
3923.000000	64.887523 
3922.000000	64.879536 
3921.000000	64.882278 
3920.000000	64.895439 
3919.000000	64.917135 
3918.000000	64.943861 
3917.000000	64.972400 
3916.000000	64.999818 
3915.000000	65.024256 
3914.000000	65.044760 
3913.000000	65.060830 
3912.000000	65.072393 
3911.000000	65.079140 
3910.000000	65.081024 
3909.000000	65.078401 
3908.000000	65.072083 
3907.000000	65.063309 
3906.000000	65.053701 
3905.000000	65.045046 
3904.000000	65.038275 
3903.000000	65.033268 
3902.000000	65.028595 
3901.000000	65.021991 
3900.000000	65.011096 
3899.000000	64.994549 
3898.000000	64.972496 
3897.000000	64.946818 
3896.000000	64.921069 
3895.000000	64.899611 
3894.000000	64.886236 
3893.000000	64.883375 
3892.000000	64.891195 
3891.000000	64.907765 
3890.000000	64.929366 
3889.000000	64.951539 
3888.000000	64.969992 
3887.000000	64.981865 
3886.000000	64.985871 
3885.000000	64.982843 
3884.000000	64.975333 
3883.000000	64.966988 
3882.000000	64.961004 
3881.000000	64.960002 
3880.000000	64.965343 
3879.000000	64.977025 
3878.000000	64.993739 
3877.000000	65.013360 
3876.000000	65.033507 
3875.000000	65.052032 
3874.000000	65.067505 
3873.000000	65.079092 
3872.000000	65.086627 
3871.000000	65.090417 
3870.000000	65.091061 
3869.000000	65.089154 
3868.000000	65.085220 
3867.000000	65.079784 
3866.000000	65.073347 
3865.000000	65.066504 
3864.000000	65.059781 
3863.000000	65.054059 
3862.000000	65.049409 
3861.000000	65.045571 
3860.000000	65.041089 
3859.000000	65.033841 
3858.000000	65.020871 
3857.000000	64.999127 
3856.000000	64.966320 
3855.000000	64.921522 
3854.000000	64.866113 
3853.000000	64.803814 
3852.000000	64.740395 
3851.000000	64.682912 
3850.000000	64.638471 
3849.000000	64.612603 
3848.000000	64.608120 
3847.000000	64.624381 
3846.000000	64.657378 
3845.000000	64.700460 
3844.000000	64.745306 
3843.000000	64.783835 
3842.000000	64.809823 
3841.000000	64.820003 
3840.000000	64.814233 
3839.000000	64.795374 
3838.000000	64.768242 
3837.000000	64.738345 
3836.000000	64.710927 
3835.000000	64.689993 
3834.000000	64.677572 
3833.000000	64.674091 
3832.000000	64.678716 
3831.000000	64.690256 
3830.000000	64.707422 
3829.000000	64.729475 
3828.000000	64.756035 
3827.000000	64.786958 
3826.000000	64.821815 
3825.000000	64.859938 
3824.000000	64.899826 
3823.000000	64.939403 
3822.000000	64.975881 
3821.000000	65.006566 
3820.000000	65.028929 
3819.000000	65.040493 
3818.000000	65.039086 
3817.000000	65.023469 
3816.000000	64.993643 
3815.000000	64.951157 
3814.000000	64.899587 
3813.000000	64.844274 
3812.000000	64.791965 
3811.000000	64.750170 
3810.000000	64.725303 
3809.000000	64.722037 
3808.000000	64.741444 
3807.000000	64.781022 
3806.000000	64.834809 
3805.000000	64.894223 
3804.000000	64.950060 
3803.000000	64.994215 
3802.000000	65.021324 
3801.000000	65.029525 
3800.000000	65.020847 
3799.000000	65.000152 
3798.000000	64.973998 
3797.000000	64.948725 
3796.000000	64.929771 
3795.000000	64.920949 
3794.000000	64.923810 
3793.000000	64.937686 
3792.000000	64.960360 
3791.000000	64.988613 
3790.000000	65.018558 
3789.000000	65.046644 
3788.000000	65.069961 
3787.000000	65.086817 
3786.000000	65.096783 
3785.000000	65.100550 
3784.000000	65.099620 
3783.000000	65.095639 
3782.000000	65.090537 
3781.000000	65.085291 
3780.000000	65.080046 
3779.000000	65.073728 
3778.000000	65.065240 
3777.000000	65.052866 
3776.000000	65.035510 
3775.000000	65.012192 
3774.000000	64.983105 
3773.000000	64.948582 
3772.000000	64.908957 
3771.000000	64.864420 
3770.000000	64.814925 
3769.000000	64.760804 
3768.000000	64.703178 
3767.000000	64.644551 
3766.000000	64.588618 
3765.000000	64.539647 
3764.000000	64.501976 
3763.000000	64.478850 
3762.000000	64.471840 
3761.000000	64.480447 
3760.000000	64.502453 
3759.000000	64.533996 
3758.000000	64.570927 
3757.000000	64.609432 
3756.000000	64.647269 
3755.000000	64.682912 
3754.000000	64.716863 
3753.000000	64.749908 
3752.000000	64.783835 
3751.000000	64.819812 
3750.000000	64.859127 
3749.000000	64.902424 
3748.000000	64.949774 
3747.000000	65.001010 
3746.000000	65.054917 
3745.000000	65.109562 
3744.000000	65.162134 
3743.000000	65.209507 
3742.000000	65.248417 
3741.000000	65.276169 
3740.000000	65.291643 
3739.000000	65.295505 
3738.000000	65.290021 
3737.000000	65.278315 
3736.000000	65.263962 
3735.000000	65.249776 
3734.000000	65.236997 
3733.000000	65.225148 
3732.000000	65.212368 
3731.000000	65.196156 
3730.000000	65.174722 
3729.000000	65.147352 
3728.000000	65.115475 
3727.000000	65.081954 
3726.000000	65.050530 
3725.000000	65.024900 
3724.000000	65.007162 
3723.000000	64.997816 
3722.000000	64.995527 
3721.000000	64.998006 
3720.000000	65.002226 
3719.000000	65.006136 
3718.000000	65.009260 
3717.000000	65.012621 
3716.000000	65.018200 
3715.000000	65.028429 
3714.000000	65.045404 
3713.000000	65.069794 
3712.000000	65.100216 
3711.000000	65.133881 
3710.000000	65.166902 
3709.000000	65.195178 
3708.000000	65.215158 
3707.000000	65.224528 
3706.000000	65.222668 
3705.000000	65.210580 
3704.000000	65.190982 
3703.000000	65.167260 
3702.000000	65.143322 
3701.000000	65.123200 
3700.000000	65.109753 
3699.000000	65.105009 
3698.000000	65.109038 
3697.000000	65.120673 
3696.000000	65.137195 
3695.000000	65.154910 
3694.000000	65.169620 
3693.000000	65.177702 
3692.000000	65.176439 
3691.000000	65.164399 
3690.000000	65.141701 
3689.000000	65.110039 
3688.000000	65.071988 
3687.000000	65.030813 
3686.000000	64.989662 
3685.000000	64.951252 
3684.000000	64.917850 
3683.000000	64.891314 
3682.000000	64.872884 
3681.000000	64.863657 
3680.000000	64.864230 
3679.000000	64.874911 
3678.000000	64.894962 
3677.000000	64.922928 
3676.000000	64.956426 
3675.000000	64.992547 
3674.000000	65.027856 
3673.000000	65.059399 
3672.000000	65.084648 
3671.000000	65.102434 
3670.000000	65.113043 
3669.000000	65.117835 
3668.000000	65.119242 
3667.000000	65.119576 
3666.000000	65.120911 
3665.000000	65.124082 
3664.000000	65.128803 
3663.000000	65.133428 
3662.000000	65.135669 
3661.000000	65.133237 
3660.000000	65.124702 
3659.000000	65.109992 
3658.000000	65.090727 
3657.000000	65.069842 
3656.000000	65.051269 
3655.000000	65.038752 
3654.000000	65.035247 
3653.000000	65.041780 
3652.000000	65.057444 
3651.000000	65.079402 
3650.000000	65.103721 
3649.000000	65.126204 
3648.000000	65.143394 
3647.000000	65.153288 
3646.000000	65.155553 
3645.000000	65.151309 
3644.000000	65.142560 
3643.000000	65.131497 
3642.000000	65.119528 
3641.000000	65.107154 
3640.000000	65.093636 
3639.000000	65.077614 
3638.000000	65.057325 
3637.000000	65.031528 
3636.000000	64.999890 
3635.000000	64.963507 
3634.000000	64.924669 
3633.000000	64.886617 
3632.000000	64.852809 
3631.000000	64.826154 
3630.000000	64.808416 
3629.000000	64.799857 
3628.000000	64.799094 
3627.000000	64.803481 
3626.000000	64.809656 
3625.000000	64.814591 
3624.000000	64.815831 
3623.000000	64.812493 
3622.000000	64.805197 
3621.000000	64.796257 
3620.000000	64.788508 
3619.000000	64.785313 
3618.000000	64.789485 
3617.000000	64.802694 
3616.000000	64.825081 
3615.000000	64.855265 
3614.000000	64.890718 
3613.000000	64.928317 
3612.000000	64.964938 
3611.000000	64.997887 
3610.000000	65.025281 
3609.000000	65.046072 
3608.000000	65.060257 
3607.000000	65.068197 
3606.000000	65.070557 
3605.000000	65.068030 
3604.000000	65.061354 
3603.000000	65.050935 
3602.000000	65.037131 
3601.000000	65.020585 
3600.000000	65.002179 
3599.000000	64.982962 
3598.000000	64.964365 
3597.000000	64.947843 
3596.000000	64.934611 
3595.000000	64.925289 
3594.000000	64.919877 
3593.000000	64.917421 
3592.000000	64.916443 
3591.000000	64.915275 
3590.000000	64.912366 
3589.000000	64.906597 
3588.000000	64.897656 
3587.000000	64.886021 
3586.000000	64.873027 
3585.000000	64.860343 
3584.000000	64.849829 
3583.000000	64.842891 
3582.000000	64.840388 
3581.000000	64.842367 
3580.000000	64.848494 
3579.000000	64.858055 
3578.000000	64.870047 
3577.000000	64.883446 
3576.000000	64.897394 
3575.000000	64.911293 
3574.000000	64.924860 
3573.000000	64.937853 
3572.000000	64.950227 
3571.000000	64.962053 
3570.000000	64.973592 
3569.000000	64.984869 
3568.000000	64.995574 
3567.000000	65.004849 
3566.000000	65.011620 
3565.000000	65.014767 
3564.000000	65.013408 
3563.000000	65.007567 
3562.000000	64.998149 
3561.000000	64.987349 
3560.000000	64.978146 
3559.000000	64.973878 
3558.000000	64.977478 
3557.000000	64.990520 
3556.000000	65.012645 
3555.000000	65.041351 
3554.000000	65.072274 
3553.000000	65.099740 
3552.000000	65.118002 
3551.000000	65.122556 
3550.000000	65.111017 
3549.000000	65.083765 
3548.000000	65.043950 
3547.000000	64.997196 
3546.000000	64.950227 
3545.000000	64.910078 
3544.000000	64.882445 
3543.000000	64.870953 
3542.000000	64.876246 
3541.000000	64.896655 
3540.000000	64.928054 
3539.000000	64.964985 
3538.000000	65.001654 
3537.000000	65.033054 
3536.000000	65.055918 
3535.000000	65.068531 
3534.000000	65.071129 
3533.000000	65.065217 
3532.000000	65.053415 
3531.000000	65.038251 
3530.000000	65.022349 
3529.000000	65.007781 
3528.000000	64.996147 
3527.000000	64.988732 
3526.000000	64.986467 
3525.000000	64.990091 
3524.000000	65.000104 
3523.000000	65.016555 
3522.000000	65.038824 
3521.000000	65.065407 
3520.000000	65.093994 
3519.000000	65.121483 
3518.000000	65.144205 
3517.000000	65.158390 
3516.000000	65.161085 
3515.000000	65.150618 
3514.000000	65.126895 
3513.000000	65.091609 
3512.000000	65.048313 
3511.000000	65.001440 
3510.000000	64.955854 
3509.000000	64.915752 
3508.000000	64.884138 
3507.000000	64.862132 
3506.000000	64.849257 
3505.000000	64.843463 
3504.000000	64.841842 
3503.000000	64.841699 
3502.000000	64.840912 
3501.000000	64.838933 
3500.000000	64.836382 
3499.000000	64.835190 
3498.000000	64.837861 
3497.000000	64.846944 
3496.000000	64.864277 
3495.000000	64.890766 
3494.000000	64.925956 
3493.000000	64.968442 
3492.000000	65.015578 
3491.000000	65.063881 
3490.000000	65.109324 
3489.000000	65.147781 
3488.000000	65.175414 
3487.000000	65.189194 
3486.000000	65.187454 
3485.000000	65.170240 
3484.000000	65.139412 
3483.000000	65.098667 
3482.000000	65.052843 
3481.000000	65.007686 
3480.000000	64.968371 
3479.000000	64.938807 
3478.000000	64.920735 
3477.000000	64.914035 
3476.000000	64.916372 
3475.000000	64.923906 
3474.000000	64.932465 
3473.000000	64.938282 
3472.000000	64.939141 
3471.000000	64.934563 
3470.000000	64.925861 
3469.000000	64.915537 
3468.000000	64.906716 
3467.000000	64.902305 
3466.000000	64.904093 
3465.000000	64.912414 
3464.000000	64.926171 
3463.000000	64.943122 
3462.000000	64.960527 
3461.000000	64.975762 
3460.000000	64.987277 
3459.000000	64.994740 
3458.000000	64.998936 
3457.000000	65.001702 
3456.000000	65.004849 
3455.000000	65.010261 
3454.000000	65.019011 
3453.000000	65.031290 
3452.000000	65.046262 
3451.000000	65.062499 
3450.000000	65.078496 
3449.000000	65.092754 
3448.000000	65.103983 
3447.000000	65.111207 
3446.000000	65.113711 
3445.000000	65.110898 
3444.000000	65.102267 
3443.000000	65.087366 
3442.000000	65.065932 
3441.000000	65.038251 
3440.000000	65.005302 
3439.000000	64.968752 
3438.000000	64.931011 
3437.000000	64.894700 
3436.000000	64.862680 
3435.000000	64.837241 
3434.000000	64.820218 
3433.000000	64.812541 
3432.000000	64.814615 
3431.000000	64.825916 
3430.000000	64.845442 
3429.000000	64.871525 
3428.000000	64.902257 
3427.000000	64.935064 
3426.000000	64.967322 
3425.000000	64.996099 
3424.000000	65.018701 
3423.000000	65.032935 
3422.000000	65.037417 
3421.000000	65.031838 
3420.000000	65.016961 
3419.000000	64.994740 
3418.000000	64.967823 
3417.000000	64.939212 
3416.000000	64.911818 
3415.000000	64.887857 
3414.000000	64.868974 
3413.000000	64.855718 
3412.000000	64.847826 
3411.000000	64.844250 
3410.000000	64.843368 
3409.000000	64.843392 
3408.000000	64.842677 
3407.000000	64.840149 
3406.000000	64.835524 
3405.000000	64.829802 
3404.000000	64.824652 
3403.000000	64.822626 
3402.000000	64.826178 
3401.000000	64.837312 
3400.000000	64.856863 
3399.000000	64.884257 
3398.000000	64.917206 
3397.000000	64.952230 
3396.000000	64.985036 
3395.000000	65.011620 
3394.000000	65.028858 
3393.000000	65.035104 
3392.000000	65.030455 
3391.000000	65.016412 
3390.000000	64.995622 
3389.000000	64.971137 
3388.000000	64.945983 
3387.000000	64.922809 
3386.000000	64.903545 
3385.000000	64.889645 
3384.000000	64.881920 
3383.000000	64.880514 
3382.000000	64.885020 
3381.000000	64.894270 
3380.000000	64.906740 
3379.000000	64.920330 
3378.000000	64.933204 
3377.000000	64.943552 
3376.000000	64.950489 
3375.000000	64.953970 
3374.000000	64.954829 
3373.000000	64.954614 
3372.000000	64.954972 
3371.000000	64.957237 
3370.000000	64.961838 
3369.000000	64.968323 
3368.000000	64.975380 
3367.000000	64.981365 
3366.000000	64.984846 
3365.000000	64.985060 
3364.000000	64.982056 
3363.000000	64.976716 
3362.000000	64.970421 
3361.000000	64.964389 
3360.000000	64.959335 
3359.000000	64.955139 
3358.000000	64.951086 
3357.000000	64.945983 
3356.000000	64.938855 
3355.000000	64.929103 
3354.000000	64.917159 
3353.000000	64.904212 
3352.000000	64.891982 
3351.000000	64.882230 
3350.000000	64.876127 
3349.000000	64.873981 
3348.000000	64.875245 
3347.000000	64.878821 
3346.000000	64.883208 
3345.000000	64.887261 
3344.000000	64.890360 
3343.000000	64.892721 
3342.000000	64.895129 
3341.000000	64.898753 
3340.000000	64.904403 
3339.000000	64.912629 
3338.000000	64.923143 
3337.000000	64.935207 
3336.000000	64.947867 
3335.000000	64.960336 
3334.000000	64.972090 
3333.000000	64.983201 
3332.000000	64.994096 
3331.000000	65.005373 
3330.000000	65.017223 
3329.000000	65.029072 
3328.000000	65.039467 
3327.000000	65.046548 
3326.000000	65.047979 
3325.000000	65.041756 
3324.000000	65.026688 
3323.000000	65.002965 
3322.000000	64.972305 
3321.000000	64.937806 
3320.000000	64.903783 
3319.000000	64.874529 
3318.000000	64.854192 
3317.000000	64.845681 
3316.000000	64.850282 
3315.000000	64.867353 
3314.000000	64.894413 
3313.000000	64.927864 
3312.000000	64.963126 
3311.000000	64.995670 
3310.000000	65.021276 
3309.000000	65.037059 
3308.000000	65.041422 
3307.000000	65.034461 
3306.000000	65.017962 
3305.000000	64.994931 
3304.000000	64.969372 
3303.000000	64.945387 
3302.000000	64.926695 
3301.000000	64.915728 
3300.000000	64.913630 
3299.000000	64.919638 
3298.000000	64.931750 
3297.000000	64.946699 
3296.000000	64.961051 
3295.000000	64.971375 
3294.000000	64.975023 
3293.000000	64.970374 
3292.000000	64.956831 
3291.000000	64.935183 
3290.000000	64.907169 
3289.000000	64.875292 
3288.000000	64.842438 
3287.000000	64.811468 
3286.000000	64.784550 
3285.000000	64.763355 
3284.000000	64.748764 
3283.000000	64.741086 
3282.000000	64.739966 
3281.000000	64.744520 
3280.000000	64.753580 
3279.000000	64.765810 
3278.000000	64.779925 
3277.000000	64.794492 
3276.000000	64.808249 
3275.000000	64.820241 
3274.000000	64.830040 
3273.000000	64.837884 
3272.000000	64.844346 
3271.000000	64.850378 
3270.000000	64.856624 
3269.000000	64.863538 
3268.000000	64.870572 
3267.000000	64.876341 
3266.000000	64.878845 
3265.000000	64.875864 
3264.000000	64.866280 
3263.000000	64.850187 
3262.000000	64.830017 
3261.000000	64.809656 
3260.000000	64.794325 
3259.000000	64.789128 
3258.000000	64.797806 
3257.000000	64.821672 
3256.000000	64.858865 
3255.000000	64.904522 
3254.000000	64.951825 
3253.000000	64.993476 
3252.000000	65.023064 
3251.000000	65.036606 
3250.000000	65.033292 
3249.000000	65.015578 
3248.000000	64.988303 
3247.000000	64.957785 
3246.000000	64.930057 
3245.000000	64.910006 
3244.000000	64.900565 
3243.000000	64.902210 
3242.000000	64.913773 
3241.000000	64.932346 
3240.000000	64.954495 
3239.000000	64.976572 
3238.000000	64.995503 
3237.000000	65.008926 
3236.000000	65.015339 
3235.000000	65.014433 
3234.000000	65.006637 
3233.000000	64.993524 
3232.000000	64.977145 
3231.000000	64.960122 
3230.000000	64.945316 
3229.000000	64.935207 
3228.000000	64.931678 
3227.000000	64.935588 
3226.000000	64.946746 
3225.000000	64.963817 
3224.000000	64.984393 
3223.000000	65.005564 
3222.000000	65.024232 
3221.000000	65.037894 
3220.000000	65.044641 
3219.000000	65.043354 
3218.000000	65.033960 
3217.000000	65.016961 
3216.000000	64.993453 
3215.000000	64.965128 
3214.000000	64.933967 
3213.000000	64.902305 
3212.000000	64.872694 
3211.000000	64.847755 
3210.000000	64.829850 
3209.000000	64.820837 
3208.000000	64.821815 
3207.000000	64.832448 
3206.000000	64.851641 
3205.000000	64.877581 
3204.000000	64.908075 
3203.000000	64.940834 
3202.000000	64.973974 
3201.000000	65.006089 
3200.000000	65.036201 
3199.000000	65.063738 
3198.000000	65.088176 
3197.000000	65.109038 
3196.000000	65.125942 
3195.000000	65.138411 
3194.000000	65.146231 
3193.000000	65.149140 
3192.000000	65.147590 
3191.000000	65.142107 
3190.000000	65.133333 
3189.000000	65.121817 
3188.000000	65.108013 
3187.000000	65.092110 
3186.000000	65.074229 
3185.000000	65.054273 
3184.000000	65.032649 
3183.000000	65.009832 
3182.000000	64.986419 
3181.000000	64.963054 
3180.000000	64.940547 
3179.000000	64.919662 
3178.000000	64.901041 
3177.000000	64.885163 
3176.000000	64.872384 
3175.000000	64.862704 
3174.000000	64.855885 
3173.000000	64.851355 
3172.000000	64.848256 
3171.000000	64.845752 
3170.000000	64.843225 
3169.000000	64.840078 
3168.000000	64.836359 
3167.000000	64.832615 
3166.000000	64.830160 
3165.000000	64.830398 
3164.000000	64.834666 
3163.000000	64.843750 
3162.000000	64.857745 
3161.000000	64.875864 
3160.000000	64.896798 
3159.000000	64.919185 
3158.000000	64.941692 
3157.000000	64.963650 
3156.000000	64.984583 
3155.000000	65.003943 
3154.000000	65.021038 
3153.000000	65.034985 
3152.000000	65.044617 
3151.000000	65.048766 
3150.000000	65.046882 
3149.000000	65.039396 
3148.000000	65.027451 
3147.000000	65.012693 
3146.000000	64.996886 
3145.000000	64.981555 
3144.000000	64.967370 
3143.000000	64.954113 
3142.000000	64.940905 
3141.000000	64.926528 
3140.000000	64.910197 
3139.000000	64.891695 
3138.000000	64.871954 
3137.000000	64.852499 
3136.000000	64.835047 
3135.000000	64.821195 
3134.000000	64.811420 
3133.000000	64.805531 
3132.000000	64.802408 
3131.000000	64.800977 
3130.000000	64.800310 
3129.000000	64.800572 
3128.000000	64.802718 
3127.000000	64.808559 
3126.000000	64.819812 
3125.000000	64.837670 
3124.000000	64.862132 
3123.000000	64.891719 
3122.000000	64.923357 
3121.000000	64.953160 
3120.000000	64.977240 
3119.000000	64.992523 
3118.000000	64.997482 
3117.000000	64.992547 
3116.000000	64.979791 
3115.000000	64.962649 
3114.000000	64.944815 
3113.000000	64.929461 
3112.000000	64.918565 
3111.000000	64.912867 
3110.000000	64.911937 
3109.000000	64.914464 
3108.000000	64.918971 
3107.000000	64.924383 
3106.000000	64.930224 
3105.000000	64.936661 
3104.000000	64.944005 
3103.000000	64.952540 
3102.000000	64.961957 
3101.000000	64.970850 
3100.000000	64.977145 
3099.000000	64.978456 
3098.000000	64.972591 
3097.000000	64.958167 
3096.000000	64.935207 
3095.000000	64.905261 
3094.000000	64.871072 
3093.000000	64.836025 
3092.000000	64.803457 
3091.000000	64.776110 
3090.000000	64.755630 
3089.000000	64.742493 
3088.000000	64.736080 
3087.000000	64.735007 
3086.000000	64.737677 
3085.000000	64.742803 
3084.000000	64.749169 
3083.000000	64.756178 
3082.000000	64.763450 
3081.000000	64.770913 
3080.000000	64.778399 
3079.000000	64.786005 
3078.000000	64.793777 
3077.000000	64.802193 
3076.000000	64.811754 
3075.000000	64.823150 
3074.000000	64.837074 
3073.000000	64.854025 
3072.000000	64.874053 
3071.000000	64.896821 
3070.000000	64.921498 
3069.000000	64.947080 
3068.000000	64.972424 
3067.000000	64.996385 
3066.000000	65.018224 
3065.000000	65.037322 
3064.000000	65.053105 
3063.000000	65.065169 
3062.000000	65.072917 
3061.000000	65.075874 
3060.000000	65.073704 
3059.000000	65.066242 
3058.000000	65.053677 
3057.000000	65.036892 
3056.000000	65.017294 
3055.000000	64.996528 
3054.000000	64.976334 
3053.000000	64.958405 
3052.000000	64.944005 
3051.000000	64.933824 
3050.000000	64.928007 
3049.000000	64.926338 
3048.000000	64.928054 
3047.000000	64.932131 
3046.000000	64.937210 
3045.000000	64.941763 
3044.000000	64.944148 
3043.000000	64.942717 
3042.000000	64.936041 
3041.000000	64.923095 
3040.000000	64.903545 
3039.000000	64.878177 
3038.000000	64.848685 
3037.000000	64.817476 
3036.000000	64.787530 
3035.000000	64.761877 
3034.000000	64.742970 
3033.000000	64.732336 
3032.000000	64.730334 
3031.000000	64.736342 
3030.000000	64.748716 
3029.000000	64.765620 
3028.000000	64.785146 
3027.000000	64.806056 
3026.000000	64.827513 
3025.000000	64.849376 
3024.000000	64.871525 
3023.000000	64.893984 
3022.000000	64.916372 
3021.000000	64.937782 
3020.000000	64.956712 
3019.000000	64.971208 
3018.000000	64.979600 
3017.000000	64.980483 
3016.000000	64.973282 
3015.000000	64.958286 
3014.000000	64.936709 
3013.000000	64.910674 
3012.000000	64.882802 
3011.000000	64.855957 
3010.000000	64.832878 
3009.000000	64.815807 
3008.000000	64.806199 
3007.000000	64.804553 
3006.000000	64.810395 
3005.000000	64.822125 
3004.000000	64.837670 
3003.000000	64.854335 
3002.000000	64.869856 
3001.000000	64.882373 
3000.000000	64.891219 
2999.000000	64.896678 
2998.000000	64.900112 
2997.000000	64.903450 
2996.000000	64.908432 
2995.000000	64.916205 
2994.000000	64.926600 
2993.000000	64.938378 
2992.000000	64.949011 
2991.000000	64.955663 
2990.000000	64.955711 
2989.000000	64.947700 
2988.000000	64.931774 
2987.000000	64.909648 
2986.000000	64.884471 
2985.000000	64.859914 
2984.000000	64.839267 
2983.000000	64.824748 
2982.000000	64.816808 
2981.000000	64.814281 
2980.000000	64.814615 
2979.000000	64.814901 
2978.000000	64.812302 
2977.000000	64.805221 
2976.000000	64.793133 
2975.000000	64.777374 
2974.000000	64.760303 
2973.000000	64.744830 
2972.000000	64.733624 
2971.000000	64.728355 
2970.000000	64.729452 
2969.000000	64.735913 
2968.000000	64.745688 
2967.000000	64.756059 
2966.000000	64.764261 
2965.000000	64.768147 
2964.000000	64.766597 
2963.000000	64.759469 
2962.000000	64.747476 
2961.000000	64.731955 
2960.000000	64.714503 
2959.000000	64.696598 
2958.000000	64.679455 
2957.000000	64.663934 
2956.000000	64.650702 
2955.000000	64.640021 
2954.000000	64.632034 
2953.000000	64.626812 
2952.000000	64.624214 
2951.000000	64.623737 
2950.000000	64.624547 
2949.000000	64.625406 
2948.000000	64.625239 
2947.000000	64.622783 
2946.000000	64.617490 
2945.000000	64.609217 
2944.000000	64.598822 
2943.000000	64.587569 
2942.000000	64.577436 
2941.000000	64.570450 
2940.000000	64.568400 
2939.000000	64.572358 
2938.000000	64.582562 
2937.000000	64.598298 
2936.000000	64.618182 
2935.000000	64.640283 
2934.000000	64.662456 
2933.000000	64.682626 
2932.000000	64.699125 
2931.000000	64.710974 
2930.000000	64.717912 
2929.000000	64.720559 
2928.000000	64.720392 
2927.000000	64.719390 
2926.000000	64.719986 
2925.000000	64.724302 
2924.000000	64.733791 
2923.000000	64.748740 
2922.000000	64.768242 
2921.000000	64.790225 
2920.000000	64.812135 
2919.000000	64.831113 
2918.000000	64.845252 
2917.000000	64.853596 
2916.000000	64.856529 
2915.000000	64.855575 
2914.000000	64.853024 
2913.000000	64.851164 
2912.000000	64.851689 
2911.000000	64.855289 
2910.000000	64.861536 
2909.000000	64.869022 
2908.000000	64.875769 
2907.000000	64.879798 
2906.000000	64.879727 
2905.000000	64.874672 
2904.000000	64.864659 
2903.000000	64.850282 
2902.000000	64.832496 
2901.000000	64.812397 
2900.000000	64.791274 
2899.000000	64.770245 
2898.000000	64.750385 
2897.000000	64.732837 
2896.000000	64.718794 
2895.000000	64.709281 
2894.000000	64.705228 
2893.000000	64.707136 
2892.000000	64.715099 
2891.000000	64.728379 
2890.000000	64.745759 
2889.000000	64.765405 
2888.000000	64.785361 
2887.000000	64.803409 
2886.000000	64.817762 
2885.000000	64.827132 
2884.000000	64.831089 
2883.000000	64.829778 
2882.000000	64.824247 
2881.000000	64.816188 
2880.000000	64.807581 
2879.000000	64.800405 
2878.000000	64.796185 
2877.000000	64.795804 
2876.000000	64.799118 
2875.000000	64.805221 
2874.000000	64.812517 
2873.000000	64.819240 
2872.000000	64.823746 
2871.000000	64.825105 
2870.000000	64.822936 
2869.000000	64.817833 
2868.000000	64.810919 
2867.000000	64.803791 
2866.000000	64.798045 
2865.000000	64.794945 
2864.000000	64.795279 
2863.000000	64.798998 
2862.000000	64.805483 
2861.000000	64.813446 
2860.000000	64.821219 
2859.000000	64.827060 
2858.000000	64.829540 
2857.000000	64.827871 
2856.000000	64.821910 
2855.000000	64.812326 
2854.000000	64.800381 
2853.000000	64.787769 
2852.000000	64.776182 
2851.000000	64.767050 
2850.000000	64.761018 
2849.000000	64.758014 
2848.000000	64.757418 
2847.000000	64.758133 
2846.000000	64.759159 
2845.000000	64.759778 
2844.000000	64.759922 
2843.000000	64.760017 
2842.000000	64.760851 
2841.000000	64.763307 
2840.000000	64.767837 
2839.000000	64.774250 
2838.000000	64.781594 
2837.000000	64.788365 
2836.000000	64.792704 
2835.000000	64.792847 
2834.000000	64.787769 
2833.000000	64.777278 
2832.000000	64.762759 
2831.000000	64.746379 
2830.000000	64.731431 
2829.000000	64.721035 
2828.000000	64.718222 
2827.000000	64.724850 
2826.000000	64.741444 
2825.000000	64.766931 
2824.000000	64.798831 
2823.000000	64.833688 
2822.000000	64.867568 
2821.000000	64.896917 
2820.000000	64.918971 
2819.000000	64.932250 
2818.000000	64.936780 
2817.000000	64.933848 
2816.000000	64.925622 
2815.000000	64.914560 
2814.000000	64.903116 
2813.000000	64.893126 
2812.000000	64.885640 
2811.000000	64.880728 
2810.000000	64.878129 
2809.000000	64.876890 
2808.000000	64.876079 
2807.000000	64.874935 
2806.000000	64.873003 
2805.000000	64.870285 
2804.000000	64.867210 
2803.000000	64.864373 
2802.000000	64.862442 
2801.000000	64.861893 
2800.000000	64.862895 
2799.000000	64.865207 
2798.000000	64.868211 
2797.000000	64.871025 
2796.000000	64.872789 
2795.000000	64.872694 
2794.000000	64.870357 
2793.000000	64.865851 
2792.000000	64.859461 
2791.000000	64.851856 
2790.000000	64.843773 
2789.000000	64.836144 
2788.000000	64.829730 
2787.000000	64.825081 
2786.000000	64.822554 
2785.000000	64.822196 
2784.000000	64.823818 
2783.000000	64.827060 
2782.000000	64.831662 
2781.000000	64.837384 
2780.000000	64.843988 
2779.000000	64.851474 
2778.000000	64.859509 
2777.000000	64.867568 
2776.000000	64.874839 
2775.000000	64.880251 
2774.000000	64.882826 
2773.000000	64.881825 
2772.000000	64.877295 
2771.000000	64.870119 
2770.000000	64.861941 
2769.000000	64.854836 
2768.000000	64.850997 
2767.000000	64.852118 
2766.000000	64.858937 
2765.000000	64.871001 
2764.000000	64.886713 
2763.000000	64.903736 
2762.000000	64.919519 
2761.000000	64.931702 
2760.000000	64.938902 
2759.000000	64.940667 
2758.000000	64.937448 
2757.000000	64.930391 
2756.000000	64.920973 
2755.000000	64.910578 
2754.000000	64.900279 
2753.000000	64.890789 
2752.000000	64.882349 
2751.000000	64.874982 
2750.000000	64.868688 
2749.000000	64.863634 
2748.000000	64.859938 
2747.000000	64.858031 
2746.000000	64.858484 
2745.000000	64.861822 
2744.000000	64.868402 
2743.000000	64.878439 
2742.000000	64.891815 
2741.000000	64.908123 
2740.000000	64.926505 
2739.000000	64.945769 
2738.000000	64.964389 
2737.000000	64.980721 
2736.000000	64.993286 
2735.000000	65.001082 
2734.000000	65.003633 
2733.000000	65.001416 
2732.000000	64.995384 
2731.000000	64.986991 
2730.000000	64.977717 
2729.000000	64.968776 
2728.000000	64.960694 
2727.000000	64.953517 
2726.000000	64.946460 
2725.000000	64.938473 
2724.000000	64.928460 
2723.000000	64.915657 
2722.000000	64.899826 
2721.000000	64.881420 
2720.000000	64.861583 
2719.000000	64.841938 
2718.000000	64.824390 
2717.000000	64.810681 
2716.000000	64.802217 
2715.000000	64.799737 
2714.000000	64.803314 
2713.000000	64.812183 
2712.000000	64.824867 
2711.000000	64.839386 
2710.000000	64.853334 
2709.000000	64.864492 
2708.000000	64.871072 
2707.000000	64.871859 
2706.000000	64.866757 
2705.000000	64.856433 
2704.000000	64.842581 
2703.000000	64.827394 
2702.000000	64.813256 
2701.000000	64.802265 
2700.000000	64.795708 
2699.000000	64.793968 
2698.000000	64.796423 
2697.000000	64.801645 
2696.000000	64.807701 
2695.000000	64.812564 
2694.000000	64.814591 
2693.000000	64.812994 
2692.000000	64.807844 
2691.000000	64.800167 
2690.000000	64.791655 
2689.000000	64.784383 
2688.000000	64.780306 
2687.000000	64.780950 
2686.000000	64.787030 
2685.000000	64.798259 
2684.000000	64.813375 
2683.000000	64.830303 
2682.000000	64.846682 
2681.000000	64.860463 
2680.000000	64.870095 
2679.000000	64.874911 
2678.000000	64.875221 
2677.000000	64.872217 
2676.000000	64.867568 
2675.000000	64.862847 
2674.000000	64.859175 
2673.000000	64.856767 
2672.000000	64.855098 
2671.000000	64.852976 
2670.000000	64.849066 
2669.000000	64.842271 
2668.000000	64.832139 
2667.000000	64.819335 
2666.000000	64.805364 
2665.000000	64.792108 
2664.000000	64.781618 
2663.000000	64.775514 
2662.000000	64.774632 
2661.000000	64.778757 
2660.000000	64.786863 
2659.000000	64.797163 
2658.000000	64.807510 
2657.000000	64.815711 
2656.000000	64.819669 
2655.000000	64.818000 
2654.000000	64.809846 
2653.000000	64.795279 
2652.000000	64.774942 
2651.000000	64.750289 
2650.000000	64.723324 
2649.000000	64.696478 
2648.000000	64.672160 
2647.000000	64.652514 
2646.000000	64.639186 
2645.000000	64.633178 
2644.000000	64.634370 
2643.000000	64.641785 
2642.000000	64.653801 
2641.000000	64.668631 
2640.000000	64.684319 
2639.000000	64.699625 
2638.000000	64.714145 
2637.000000	64.728355 
2636.000000	64.743256 
2635.000000	64.760041 
2634.000000	64.779520 
2633.000000	64.801692 
2632.000000	64.825654 
2631.000000	64.849615 
2630.000000	64.871025 
2629.000000	64.887428 
2628.000000	64.896893 
2627.000000	64.898562 
2626.000000	64.892697 
2625.000000	64.880800 
2624.000000	64.865112 
2623.000000	64.848113 
2622.000000	64.832019 
2621.000000	64.818263 
2620.000000	64.807343 
2619.000000	64.798974 
2618.000000	64.792132 
2617.000000	64.785742 
2616.000000	64.778757 
2615.000000	64.770531 
2614.000000	64.761161 
2613.000000	64.751124 
2612.000000	64.741468 
2611.000000	64.733505 
2610.000000	64.728355 
2609.000000	64.726686 
2608.000000	64.728689 
2607.000000	64.733934 
2606.000000	64.741277 
2605.000000	64.749240 
2604.000000	64.756393 
2603.000000	64.761781 
2602.000000	64.764904 
2601.000000	64.766025 
2600.000000	64.766097 
2599.000000	64.766359 
2598.000000	64.768052 
2597.000000	64.771556 
2596.000000	64.776587 
2595.000000	64.781761 
2594.000000	64.785075 
2593.000000	64.784431 
2592.000000	64.778280 
2591.000000	64.766216 
2590.000000	64.749503 
2589.000000	64.730668 
2588.000000	64.712977 
2587.000000	64.699935 
2586.000000	64.694237 
2585.000000	64.697360 
2584.000000	64.709138 
2583.000000	64.727878 
2582.000000	64.750814 
2581.000000	64.774489 
2580.000000	64.795374 
2579.000000	64.810562 
2578.000000	64.818167 
2577.000000	64.817094 
2576.000000	64.807343 
2575.000000	64.789795 
2574.000000	64.766120 
2573.000000	64.738655 
2572.000000	64.709806 
2571.000000	64.682364 
2570.000000	64.658665 
2569.000000	64.640688 
2568.000000	64.629507 
2567.000000	64.625167 
2566.000000	64.626932 
2565.000000	64.633131 
2564.000000	64.641785 
2563.000000	64.650774 
2562.000000	64.658451 
2561.000000	64.663600 
2560.000000	64.665722 
2559.000000	64.664936 
2558.000000	64.661860 
2557.000000	64.657258 
2556.000000	64.652085 
2555.000000	64.647197 
2554.000000	64.643359 
2553.000000	64.641141 
2552.000000	64.641022 
2551.000000	64.643502 
2550.000000	64.649033 
2549.000000	64.658021 
2548.000000	64.670467 
2547.000000	64.686036 
2546.000000	64.703869 
2545.000000	64.722728 
2544.000000	64.740920 
2543.000000	64.756846 
2542.000000	64.769029 
2541.000000	64.776682 
2540.000000	64.779734 
2539.000000	64.778947 
2538.000000	64.775538 
2537.000000	64.771032 
2536.000000	64.766979 
2535.000000	64.764666 
2534.000000	64.764666 
2533.000000	64.767026 
2532.000000	64.771461 
2531.000000	64.777421 
2530.000000	64.784312 
2529.000000	64.791703 
2528.000000	64.799356 
2527.000000	64.807033 
2526.000000	64.814424 
2525.000000	64.820933 
2524.000000	64.825701 
2523.000000	64.827561 
2522.000000	64.825296 
2521.000000	64.817953 
2520.000000	64.805054 
2519.000000	64.786982 
2518.000000	64.764618 
2517.000000	64.739751 
2516.000000	64.714455 
2515.000000	64.691019 
2514.000000	64.671587 
2513.000000	64.657592 
2512.000000	64.649844 
2511.000000	64.648413 
2510.000000	64.652872 
2509.000000	64.662218 
2508.000000	64.675354 
2507.000000	64.691066 
2506.000000	64.708566 
2505.000000	64.727091 
2504.000000	64.746379 
2503.000000	64.766216 
2502.000000	64.786458 
2501.000000	64.806532 
2500.000000	64.825534 
2499.000000	64.842128 
2498.000000	64.854741 
2497.000000	64.861726 
2496.000000	64.862155 
2495.000000	64.855909 
2494.000000	64.843845 
2493.000000	64.827847 
2492.000000	64.810371 
2491.000000	64.793896 
2490.000000	64.780497 
2489.000000	64.771199 
2488.000000	64.766073 
2487.000000	64.763998 
2486.000000	64.763569 
2485.000000	64.763331 
2484.000000	64.762401 
2483.000000	64.760494 
2482.000000	64.758276 
2481.000000	64.756631 
2480.000000	64.756321 
2479.000000	64.757633 
2478.000000	64.759898 
2477.000000	64.761996 
2476.000000	64.762473 
2475.000000	64.760160 
2474.000000	64.754509 
2473.000000	64.745759 
2472.000000	64.734888 
2471.000000	64.723181 
2470.000000	64.711833 
2469.000000	64.701509 
2468.000000	64.692258 
2467.000000	64.683604 
2466.000000	64.674901 
2465.000000	64.665675 
2464.000000	64.656138 
2463.000000	64.647316 
2462.000000	64.640688 
2461.000000	64.637637 
2460.000000	64.639091 
2459.000000	64.645147 
2458.000000	64.655065 
2457.000000	64.667320 
2456.000000	64.680075 
2455.000000	64.691925 
2454.000000	64.701795 
2453.000000	64.709305 
2452.000000	64.714646 
2451.000000	64.718174 
2450.000000	64.720034 
2449.000000	64.719891 
2448.000000	64.717078 
2447.000000	64.710617 
2446.000000	64.699792 
2445.000000	64.684414 
2444.000000	64.665055 
2443.000000	64.643239 
2442.000000	64.620923 
2441.000000	64.600276 
2440.000000	64.583182 
2439.000000	64.571022 
2438.000000	64.564347 
2437.000000	64.563298 
2436.000000	64.567613 
2435.000000	64.576792 
2434.000000	64.590239 
2433.000000	64.606976 
2432.000000	64.625906 
2431.000000	64.645528 
2430.000000	64.664196 
2429.000000	64.680433 
2428.000000	64.692687 
2427.000000	64.700198 
2426.000000	64.702868 
2425.000000	64.701461 
2424.000000	64.697456 
2423.000000	64.692497 
2422.000000	64.688467 
2421.000000	64.686679 
2420.000000	64.687681 
2419.000000	64.691162 
2418.000000	64.696049 
2417.000000	64.700841 
2416.000000	64.703965 
2415.000000	64.704179 
2414.000000	64.700889 
2413.000000	64.694142 
2412.000000	64.684915 
2411.000000	64.674711 
2410.000000	64.665484 
2409.000000	64.659190 
2408.000000	64.657402 
2407.000000	64.660859 
2406.000000	64.669156 
2405.000000	64.680981 
2404.000000	64.693999 
2403.000000	64.705538 
2402.000000	64.712858 
2401.000000	64.713764 
2400.000000	64.707040 
2399.000000	64.692783 
2398.000000	64.672231 
2397.000000	64.647603 
2396.000000	64.621400 
2395.000000	64.596271 
2394.000000	64.574241 
2393.000000	64.556550 
2392.000000	64.543604 
2391.000000	64.534974 
2390.000000	64.529871 
2389.000000	64.527416 
2388.000000	64.526796 
2387.000000	64.527511 
2386.000000	64.529299 
2385.000000	64.532399 
2384.000000	64.537239 
2383.000000	64.544606 
2382.000000	64.555072 
2381.000000	64.569020 
2380.000000	64.586353 
2379.000000	64.606142 
2378.000000	64.626908 
2377.000000	64.646649 
2376.000000	64.663314 
2375.000000	64.674854 
2374.000000	64.679956 
2373.000000	64.678025 
2372.000000	64.669275 
2371.000000	64.654660 
2370.000000	64.635896 
2369.000000	64.614892 
2368.000000	64.593577 
2367.000000	64.573836 
2366.000000	64.557218 
2365.000000	64.544820 
2364.000000	64.537215 
2363.000000	64.534568 
2362.000000	64.536714 
2361.000000	64.543151 
2360.000000	64.553260 
2359.000000	64.566159 
2358.000000	64.580941 
2357.000000	64.596700 
2356.000000	64.612793 
2355.000000	64.628434 
2354.000000	64.642834 
2353.000000	64.655017 
2352.000000	64.663934 
2351.000000	64.668440 
2350.000000	64.667820 
2349.000000	64.661836 
2348.000000	64.651298 
2347.000000	64.637732 
2346.000000	64.623451 
2345.000000	64.611268 
2344.000000	64.603805 
2343.000000	64.603114 
2342.000000	64.610195 
2341.000000	64.624905 
2340.000000	64.646005 
2339.000000	64.671349 
2338.000000	64.698195 
2337.000000	64.723682 
2336.000000	64.745140 
2335.000000	64.760518 
2334.000000	64.768505 
2333.000000	64.768505 
2332.000000	64.760804 
2331.000000	64.746499 
2330.000000	64.727425 
2329.000000	64.705896 
2328.000000	64.684486 
2327.000000	64.665484 
2326.000000	64.650654 
2325.000000	64.640712 
2324.000000	64.635324 
2323.000000	64.633178 
2322.000000	64.632463 
2321.000000	64.631342 
2320.000000	64.628195 
2319.000000	64.622378 
2318.000000	64.613986 
2317.000000	64.604091 
2316.000000	64.594125 
2315.000000	64.585757 
2314.000000	64.580440 
2313.000000	64.579200 
2312.000000	64.582395 
2311.000000	64.589715 
2310.000000	64.600181 
2309.000000	64.612388 
2308.000000	64.624738 
2307.000000	64.635586 
2306.000000	64.643406 
2305.000000	64.646959 
2304.000000	64.645504 
2303.000000	64.638900 
2302.000000	64.627647 
2301.000000	64.612936 
2300.000000	64.596462 
2299.000000	64.580059 
2298.000000	64.565396 
2297.000000	64.553928 
2296.000000	64.546537 
2295.000000	64.543151 
2294.000000	64.542913 
2293.000000	64.544510 
2292.000000	64.546346 
2291.000000	64.546942 
2290.000000	64.545011 
2289.000000	64.539766 
2288.000000	64.531230 
2287.000000	64.520001 
2286.000000	64.507293 
2285.000000	64.494729 
2284.000000	64.484047 
2283.000000	64.476895 
2282.000000	64.474558 
2281.000000	64.477705 
2280.000000	64.486241 
2279.000000	64.499258 
2278.000000	64.515089 
2277.000000	64.531707 
2276.000000	64.547252 
2275.000000	64.560461 
2274.000000	64.570760 
2273.000000	64.578580 
2272.000000	64.585304 
2271.000000	64.592742 
2270.000000	64.602732 
2269.000000	64.616131 
2268.000000	64.633083 
2267.000000	64.652252 
2266.000000	64.671516 
2265.000000	64.688158 
2264.000000	64.699435 
2263.000000	64.703559 
2262.000000	64.700031 
2261.000000	64.689779 
2260.000000	64.674925 
2259.000000	64.658427 
2258.000000	64.643359 
2257.000000	64.632272 
2256.000000	64.626812 
2255.000000	64.627265 
2254.000000	64.632844 
2253.000000	64.641618 
2252.000000	64.651155 
2251.000000	64.658975 
2250.000000	64.662981 
2249.000000	64.661908 
2248.000000	64.655375 
2247.000000	64.644002 
2246.000000	64.628958 
2245.000000	64.612102 
2244.000000	64.595198 
2243.000000	64.579725 
2242.000000	64.566731 
2241.000000	64.556479 
2240.000000	64.548993 
2239.000000	64.543795 
2238.000000	64.540433 
2237.000000	64.538741 
2236.000000	64.538836 
2235.000000	64.541149 
2234.000000	64.546060 
2233.000000	64.553618 
2232.000000	64.563274 
2231.000000	64.573812 
2230.000000	64.583563 
2229.000000	64.590644 
2228.000000	64.593601 
2227.000000	64.591765 
2226.000000	64.585542 
2225.000000	64.576458 
2224.000000	64.566707 
2223.000000	64.558577 
2222.000000	64.553880 
2221.000000	64.553380 
2220.000000	64.556527 
2219.000000	64.561843 
2218.000000	64.567255 
2217.000000	64.570784 
2216.000000	64.571094 
2215.000000	64.567852 
2214.000000	64.561486 
2213.000000	64.553213 
2212.000000	64.544391 
2211.000000	64.536333 
2210.000000	64.529800 
2209.000000	64.524936 
2208.000000	64.521503 
2207.000000	64.519000 
2206.000000	64.517068 
2205.000000	64.515447 
2204.000000	64.514064 
2203.000000	64.512991 
2202.000000	64.512324 
2201.000000	64.511990 
2200.000000	64.511680 
2199.000000	64.511013 
2198.000000	64.509463 
2197.000000	64.506721 
2196.000000	64.502811 
2195.000000	64.497995 
2194.000000	64.492893 
2193.000000	64.488077 
2192.000000	64.484357 
2191.000000	64.482307 
2190.000000	64.482426 
2189.000000	64.485049 
2188.000000	64.490199 
2187.000000	64.497900 
2186.000000	64.507865 
2185.000000	64.519619 
2184.000000	64.532375 
2183.000000	64.544987 
2182.000000	64.556121 
2181.000000	64.564418 
2180.000000	64.568543 
2179.000000	64.567470 
2178.000000	64.560842 
2177.000000	64.549064 
2176.000000	64.533424 
2175.000000	64.515686 
2174.000000	64.498114 
2173.000000	64.483022 
2172.000000	64.472126 
2171.000000	64.466357 
2170.000000	64.465785 
2169.000000	64.469432 
2168.000000	64.475727 
2167.000000	64.482641 
2166.000000	64.488291 
2165.000000	64.491224 
2164.000000	64.490461 
2163.000000	64.485859 
2162.000000	64.477705 
2161.000000	64.467000 
2160.000000	64.454936 
2159.000000	64.442801 
2158.000000	64.431881 
2157.000000	64.423108 
2156.000000	64.417195 
2155.000000	64.414405 
2154.000000	64.414644 
2153.000000	64.417552 
2152.000000	64.422631 
2151.000000	64.429330 
2150.000000	64.437079 
2149.000000	64.445233 
2148.000000	64.452958 
2147.000000	64.459419 
2146.000000	64.463829 
2145.000000	64.465522 
2144.000000	64.464378 
2143.000000	64.460635 
2142.000000	64.455175 
2141.000000	64.449334 
2140.000000	64.444613 
2139.000000	64.442420 
2138.000000	64.443826 
2137.000000	64.449310 
2136.000000	64.458513 
2135.000000	64.470505 
2134.000000	64.483714 
2133.000000	64.496350 
2132.000000	64.506745 
2131.000000	64.513564 
2130.000000	64.516186 
2129.000000	64.514732 
2128.000000	64.510345 
2127.000000	64.504647 
2126.000000	64.499735 
2125.000000	64.497542 
2124.000000	64.499473 
2123.000000	64.506268 
2122.000000	64.517521 
2121.000000	64.531922 
2120.000000	64.547157 
2119.000000	64.560675 
2118.000000	64.569854 
2117.000000	64.572811 
2116.000000	64.568567 
2115.000000	64.557409 
2114.000000	64.541006 
2113.000000	64.521861 
2112.000000	64.503192 
2111.000000	64.487886 
2110.000000	64.478278 
2109.000000	64.475393 
2108.000000	64.478874 
2107.000000	64.487218 
2106.000000	64.497828 
2105.000000	64.507865 
2104.000000	64.514756 
2103.000000	64.516639 
2102.000000	64.512848 
2101.000000	64.503979 
2100.000000	64.491391 
2099.000000	64.477181 
2098.000000	64.463496 
2097.000000	64.452171 
2096.000000	64.444279 
2095.000000	64.440011 
2094.000000	64.438819 
2093.000000	64.439558 
2092.000000	64.440774 
2091.000000	64.441108 
2090.000000	64.439606 
2089.000000	64.435791 
2088.000000	64.429640 
2087.000000	64.421415 
2086.000000	64.411783 
2085.000000	64.401221 
2084.000000	64.390277 
2083.000000	64.379429 
2082.000000	64.369225 
2081.000000	64.360284 
2080.000000	64.353108 
2079.000000	64.348316 
2078.000000	64.346265 
2077.000000	64.347004 
2076.000000	64.350271 
2075.000000	64.355325 
2074.000000	64.361071 
2073.000000	64.366173 
2072.000000	64.369344 
2071.000000	64.369678 
2070.000000	64.366674 
2069.000000	64.360404 
2068.000000	64.351415 
2067.000000	64.340448 
2066.000000	64.328598 
2065.000000	64.316940 
2064.000000	64.306616 
2063.000000	64.298582 
2062.000000	64.293718 
2061.000000	64.292645 
2060.000000	64.295601 
2059.000000	64.302277 
2058.000000	64.311885 
2057.000000	64.323234 
2056.000000	64.334893 
2055.000000	64.345312 
2054.000000	64.353418 
2053.000000	64.358496 
2052.000000	64.360189 
2051.000000	64.358901 
2050.000000	64.355230 
2049.000000	64.350223 
2048.000000	64.344882 
2047.000000	64.340162 
2046.000000	64.336967 
2045.000000	64.335942 
2044.000000	64.337778 
2043.000000	64.342927 
2042.000000	64.351439 
2041.000000	64.363074 
2040.000000	64.377045 
2039.000000	64.392042 
2038.000000	64.406466 
2037.000000	64.418673 
2036.000000	64.427375 
2035.000000	64.431977 
2034.000000	64.432644 
2033.000000	64.430189 
2032.000000	64.425778 
2031.000000	64.420795 
2030.000000	64.416456 
2029.000000	64.413666 
2028.000000	64.412879 
2027.000000	64.414238 
2026.000000	64.417552 
2025.000000	64.422607 
2024.000000	64.429140 
2023.000000	64.436817 
2022.000000	64.445209 
2021.000000	64.453768 
2020.000000	64.461827 
2019.000000	64.468622 
2018.000000	64.473223 
2017.000000	64.474940 
2016.000000	64.473247 
2015.000000	64.468121 
2014.000000	64.459943 
2013.000000	64.449334 
2012.000000	64.437150 
2011.000000	64.424347 
2010.000000	64.411830 
2009.000000	64.400458 
2008.000000	64.391016 
2007.000000	64.383912 
2006.000000	64.379501 
2005.000000	64.377617 
2004.000000	64.377713 
2003.000000	64.378833 
2002.000000	64.379572 
2001.000000	64.378476 
2000.000000	64.373993 
1999.000000	64.365267 
1998.000000	64.351916 
1997.000000	64.334702 
1996.000000	64.315176 
1995.000000	64.295864 
1994.000000	64.279556 
1993.000000	64.269089 
1992.000000	64.266562 
1991.000000	64.273166 
1990.000000	64.288735 
1989.000000	64.311838 
1988.000000	64.340066 
1987.000000	64.370274 
1986.000000	64.399337 
1985.000000	64.424610 
1984.000000	64.444255 
1983.000000	64.457321 
1982.000000	64.463829 
1981.000000	64.464569 
1980.000000	64.460873 
1979.000000	64.454364 
1978.000000	64.446520 
1977.000000	64.438724 
1976.000000	64.431881 
1975.000000	64.426422 
1974.000000	64.422225 
1973.000000	64.418816 
1972.000000	64.415621 
1971.000000	64.412283 
1970.000000	64.408588 
1969.000000	64.404749 
1968.000000	64.401245 
1967.000000	64.398884 
1966.000000	64.398288 
1965.000000	64.399933 
1964.000000	64.403772 
1963.000000	64.409232 
1962.000000	64.415431 
1961.000000	64.421248 
1960.000000	64.425778 
1959.000000	64.428567 
1958.000000	64.429545 
1957.000000	64.429044 
1956.000000	64.427614 
1955.000000	64.425945 
1954.000000	64.424204 
1953.000000	64.422178 
1952.000000	64.419412 
1951.000000	64.415287 
1950.000000	64.409446 
1949.000000	64.401674 
1948.000000	64.392137 
1947.000000	64.381146 
1946.000000	64.369320 
1945.000000	64.357161 
1944.000000	64.345002 
1943.000000	64.333176 
1942.000000	64.321827 
1941.000000	64.311122 
1940.000000	64.301395 
1939.000000	64.293193 
1938.000000	64.287090 
1937.000000	64.283657 
1936.000000	64.283180 
1935.000000	64.285564 
1934.000000	64.290213 
1933.000000	64.296317 
1932.000000	64.302849 
1931.000000	64.309000 
1930.000000	64.314150 
1929.000000	64.317989 
1928.000000	64.320516 
1927.000000	64.321899 
1926.000000	64.322519 
1925.000000	64.322781 
1924.000000	64.323067 
1923.000000	64.323949 
1922.000000	64.325904 
1921.000000	64.329504 
1920.000000	64.334940 
1919.000000	64.342451 
1918.000000	64.351654 
1917.000000	64.361810 
1916.000000	64.371800 
1915.000000	64.380216 
1914.000000	64.385676 
1913.000000	64.387083 
1912.000000	64.383840 
1911.000000	64.376044 
1910.000000	64.364480 
1909.000000	64.350342 
1908.000000	64.335250 
1907.000000	64.320611 
1906.000000	64.307594 
1905.000000	64.297008 
1904.000000	64.289164 
1903.000000	64.283871 
1902.000000	64.280676 
1901.000000	64.279031 
1900.000000	64.278292 
1899.000000	64.278054 
1898.000000	64.278268 
1897.000000	64.279222 
1896.000000	64.281535 
1895.000000	64.285945 
1894.000000	64.293026 
1893.000000	64.303112 
1892.000000	64.315962 
1891.000000	64.330768 
1890.000000	64.346218 
1889.000000	64.360594 
1888.000000	64.372134 
1887.000000	64.379310 
1886.000000	64.381074 
1885.000000	64.377045 
1884.000000	64.367699 
1883.000000	64.353919 
1882.000000	64.337158 
1881.000000	64.318799 
1880.000000	64.300322 
1879.000000	64.282965 
1878.000000	64.267539 
1877.000000	64.254570 
1876.000000	64.244365 
1875.000000	64.236998 
1874.000000	64.232468 
1873.000000	64.230561 
1872.000000	64.231038 
1871.000000	64.233541 
1870.000000	64.237642 
1869.000000	64.242815 
1868.000000	64.248561 
1867.000000	64.254522 
1866.000000	64.260482 
1865.000000	64.266347 
1864.000000	64.272069 
1863.000000	64.277625 
1862.000000	64.283180 
1861.000000	64.288616 
1860.000000	64.294099 
1859.000000	64.299869 
1858.000000	64.306330 
1857.000000	64.314031 
1856.000000	64.323306 
1855.000000	64.334321 
1854.000000	64.346575 
1853.000000	64.359068 
1852.000000	64.369988 
1851.000000	64.377236 
1850.000000	64.378833 
1849.000000	64.373493 
1848.000000	64.360880 
1847.000000	64.341783 
1846.000000	64.318346 
1845.000000	64.293551 
1844.000000	64.270496 
1843.000000	64.251995 
1842.000000	64.239907 
1841.000000	64.234662 
1840.000000	64.235568 
1839.000000	64.240932 
1838.000000	64.248561 
1837.000000	64.256072 
1836.000000	64.261770 
1835.000000	64.264440 
1834.000000	64.263510 
1833.000000	64.259052 
1832.000000	64.251351 
1831.000000	64.241051 
1830.000000	64.228510 
1829.000000	64.214324 
1828.000000	64.199137 
1827.000000	64.183902 
1826.000000	64.169716 
1825.000000	64.158177 
1824.000000	64.150977 
1823.000000	64.149570 
1822.000000	64.154839 
1821.000000	64.166879 
1820.000000	64.184689 
1819.000000	64.206409 
1818.000000	64.229464 
1817.000000	64.251089 
1816.000000	64.268851 
1815.000000	64.281177 
1814.000000	64.287424 
1813.000000	64.287900 
1812.000000	64.283585 
1811.000000	64.276027 
1810.000000	64.266848 
1809.000000	64.257454 
1808.000000	64.248609 
1807.000000	64.240980 
1806.000000	64.234447 
1805.000000	64.229011 
1804.000000	64.224338 
1803.000000	64.220142 
1802.000000	64.216136 
1801.000000	64.212107 
1800.000000	64.207768 
1799.000000	64.202809 
1798.000000	64.196968 
1797.000000	64.189958 
1796.000000	64.181590 
1795.000000	64.172077 
1794.000000	64.161658 
1793.000000	64.150953 
1792.000000	64.140796 
1791.000000	64.132094 
1790.000000	64.125752 
1789.000000	64.122414 
1788.000000	64.122319 
1787.000000	64.125347 
1786.000000	64.130902 
1785.000000	64.138174 
1784.000000	64.146018 
1783.000000	64.153361 
1782.000000	64.159512 
1781.000000	64.164233 
1780.000000	64.167666 
1779.000000	64.170312 
1778.000000	64.172887 
1777.000000	64.175939 
1776.000000	64.179730 
1775.000000	64.184045 
1774.000000	64.188265 
1773.000000	64.191603 
1772.000000	64.193272 
1771.000000	64.193034 
1770.000000	64.191341 
1769.000000	64.189338 
1768.000000	64.188623 
1767.000000	64.190888 
1766.000000	64.197325 
1765.000000	64.208316 
1764.000000	64.223003 
1763.000000	64.239430 
1762.000000	64.254665 
1761.000000	64.265584 
1760.000000	64.269280 
1759.000000	64.263582 
1758.000000	64.247465 
1757.000000	64.221334 
1756.000000	64.186882 
1755.000000	64.146685 
1754.000000	64.103960 
1753.000000	64.061999 
1752.000000	64.023661 
1751.000000	63.991260 
1750.000000	63.965940 
1749.000000	63.948035 
1748.000000	63.936853 
1747.000000	63.930869 
1746.000000	63.928103 
1745.000000	63.926315 
1744.000000	63.923430 
1743.000000	63.917851 
1742.000000	63.908815 
1741.000000	63.896369 
1740.000000	63.881587 
1739.000000	63.866114 
1738.000000	63.852262 
1737.000000	63.842129 
1736.000000	63.837575 
1735.000000	63.839507 
1734.000000	63.847851 
1733.000000	63.861608 
1732.000000	63.878655 
1731.000000	63.896274 
1730.000000	63.911700 
1729.000000	63.922715 
1728.000000	63.927817 
1727.000000	63.926815 
1726.000000	63.920712 
1725.000000	63.911628 
1724.000000	63.901996 
1723.000000	63.894414 
1722.000000	63.891220 
1721.000000	63.893890 
1720.000000	63.902807 
1719.000000	63.917517 
1718.000000	63.936781 
1717.000000	63.958835 
1716.000000	63.981580 
1715.000000	64.003038 
1714.000000	64.021348 
1713.000000	64.034914 
1712.000000	64.042496 
1711.000000	64.043450 
1710.000000	64.037704 
1709.000000	64.026093 
1708.000000	64.010167 
1707.000000	63.992333 
1706.000000	63.975429 
1705.000000	63.962364 
1704.000000	63.955593 
1703.000000	63.956642 
1702.000000	63.965868 
1701.000000	63.982367 
1700.000000	64.004230 
1699.000000	64.028739 
1698.000000	64.053010 
1697.000000	64.074444 
1696.000000	64.091157 
1695.000000	64.102029 
1694.000000	64.106655 
1693.000000	64.105224 
1692.000000	64.098429 
1691.000000	64.087224 
1690.000000	64.072823 
1689.000000	64.056634 
1688.000000	64.040374 
1687.000000	64.025950 
1686.000000	64.015293 
1685.000000	64.010095 
1684.000000	64.011287 
1683.000000	64.018821 
1682.000000	64.031624 
1681.000000	64.047670 
1680.000000	64.064288 
1679.000000	64.078593 
1678.000000	64.088201 
1677.000000	64.091634 
1676.000000	64.088582 
1675.000000	64.080023 
1674.000000	64.067745 
1673.000000	64.053988 
1672.000000	64.040970 
1671.000000	64.030241 
1670.000000	64.022469 
1669.000000	64.017486 
1668.000000	64.014315 
1667.000000	64.011716 
1666.000000	64.008688 
1665.000000	64.004540 
1664.000000	63.999247 
1663.000000	63.993072 
1662.000000	63.986611 
1661.000000	63.980293 
1660.000000	63.974213 
1659.000000	63.968253 
1658.000000	63.961887 
1657.000000	63.954758 
1656.000000	63.946771 
1655.000000	63.938331 
1654.000000	63.930320 
1653.000000	63.924026 
1652.000000	63.920807 
1651.000000	63.921833 
1650.000000	63.927817 
1649.000000	63.938593 
1648.000000	63.953375 
1647.000000	63.970851 
1646.000000	63.989543 
1645.000000	64.007830 
1644.000000	64.024209 
1643.000000	64.037656 
1642.000000	64.047312 
1641.000000	64.052724 
1640.000000	64.053940 
1639.000000	64.051270 
1638.000000	64.045596 
1637.000000	64.038038 
1636.000000	64.029884 
1635.000000	64.022469 
1634.000000	64.016938 
1633.000000	64.014053 
1632.000000	64.014053 
1631.000000	64.016532 
1630.000000	64.020729 
1629.000000	64.025568 
1628.000000	64.029836 
1627.000000	64.032363 
1626.000000	64.032435 
1625.000000	64.029860 
1624.000000	64.025163 
1623.000000	64.019298 
1622.000000	64.013648 
1621.000000	64.009523 
1620.000000	64.007878 
1619.000000	64.009046 
1618.000000	64.012646 
1617.000000	64.017415 
1616.000000	64.021420 
1615.000000	64.022517 
1614.000000	64.018654 
1613.000000	64.008617 
1612.000000	63.992238 
1611.000000	63.970661 
1610.000000	63.946056 
1609.000000	63.921403 
1608.000000	63.900017 
1607.000000	63.884830 
1606.000000	63.877916 
1605.000000	63.880205 
1604.000000	63.891243 
1603.000000	63.909411 
1602.000000	63.932156 
1601.000000	63.956379 
1600.000000	63.979029 
1599.000000	63.997197 
1598.000000	64.009022 
1597.000000	64.013648 
1596.000000	64.011597 
1595.000000	64.004564 
1594.000000	63.994979 
1593.000000	63.985681 
1592.000000	63.979196 
1591.000000	63.977551 
1590.000000	63.981461 
1589.000000	63.990640 
1588.000000	64.003252 
1587.000000	64.016866 
1586.000000	64.028477 
1585.000000	64.035272 
1584.000000	64.035058 
1583.000000	64.026784 
1582.000000	64.010834 
1581.000000	63.989019 
1580.000000	63.964200 
1579.000000	63.939785 
1578.000000	63.919043 
1577.000000	63.904190 
1576.000000	63.896226 
1575.000000	63.894605 
1574.000000	63.897395 
1573.000000	63.901734 
1572.000000	63.904643 
1571.000000	63.903760 
1570.000000	63.897752 
1569.000000	63.886976 
1568.000000	63.872766 
1567.000000	63.857722 
1566.000000	63.844752 
1565.000000	63.836646 
1564.000000	63.835287 
1563.000000	63.841438 
1562.000000	63.854503 
1561.000000	63.872671 
1560.000000	63.893556 
1559.000000	63.914442 
1558.000000	63.932943 
1557.000000	63.947296 
1556.000000	63.956665 
1555.000000	63.960957 
1554.000000	63.960862 
1553.000000	63.957500 
1552.000000	63.952374 
1551.000000	63.947224 
1550.000000	63.943743 
1549.000000	63.943672 
1548.000000	63.948440 
1547.000000	63.958859 
1546.000000	63.974690 
1545.000000	63.994979 
1544.000000	64.017724 
1543.000000	64.040184 
1542.000000	64.059424 
1541.000000	64.072799 
1540.000000	64.078521 
1539.000000	64.076185 
1538.000000	64.066743 
1537.000000	64.052319 
1536.000000	64.035582 
1535.000000	64.019203 
1534.000000	64.005327 
1533.000000	63.995003 
1532.000000	63.988375 
1531.000000	63.985085 
1530.000000	63.984346 
1529.000000	63.985300 
1528.000000	63.987421 
1527.000000	63.990497 
1526.000000	63.994526 
1525.000000	63.999390 
1524.000000	64.005041 
1523.000000	64.011216 
1522.000000	64.017772 
1521.000000	64.024472 
1520.000000	64.031291 
1519.000000	64.037990 
1518.000000	64.044427 
1517.000000	64.050292 
1516.000000	64.054918 
1515.000000	64.057588 
1514.000000	64.057540 
1513.000000	64.054131 
1512.000000	64.047098 
1511.000000	64.036655 
1510.000000	64.023733 
1509.000000	64.009261 
1508.000000	63.994479 
1507.000000	63.980150 
1506.000000	63.966393 
1505.000000	63.952517 
1504.000000	63.937020 
1503.000000	63.918352 
1502.000000	63.895368 
1501.000000	63.868427 
1500.000000	63.839697 
1499.000000	63.813066 
1498.000000	63.793230 
1497.000000	63.784527 
1496.000000	63.789963 
1495.000000	63.809704 
1494.000000	63.841247 
1493.000000	63.879823 
1492.000000	63.919472 
1491.000000	63.954806 
1490.000000	63.981699 
1489.000000	63.998103 
1488.000000	64.004087 
1487.000000	64.001488 
1486.000000	63.992857 
1485.000000	63.980937 
1484.000000	63.967657 
1483.000000	63.954305 
1482.000000	63.940882 
1481.000000	63.926935 
1480.000000	63.911485 
1479.000000	63.894200 
1478.000000	63.875079 
1477.000000	63.854670 
1476.000000	63.833951 
1475.000000	63.814067 
1474.000000	63.795948 
1473.000000	63.779950 
1472.000000	63.766026 
1471.000000	63.753795 
1470.000000	63.742780 
1469.000000	63.732862 
1468.000000	63.724327 
1467.000000	63.718223 
1466.000000	63.715839 
1465.000000	63.718891 
1464.000000	63.728833 
1463.000000	63.746452 
1462.000000	63.771510 
1461.000000	63.802671 
1460.000000	63.837409 
1459.000000	63.872599 
1458.000000	63.905024 
1457.000000	63.931941 
1456.000000	63.951563 
1455.000000	63.963246 
1454.000000	63.967370 
1453.000000	63.965225 
1452.000000	63.958764 
1451.000000	63.950037 
1450.000000	63.940691 
1449.000000	63.931751 
1448.000000	63.923811 
1447.000000	63.916635 
1446.000000	63.909673 
1445.000000	63.902068 
1444.000000	63.893079 
1443.000000	63.882231 
1442.000000	63.869690 
1441.000000	63.855957 
1440.000000	63.842225 
1439.000000	63.830041 
1438.000000	63.821315 
1437.000000	63.817572 
1436.000000	63.819980 
1435.000000	63.828825 
1434.000000	63.843750 
1433.000000	63.863348 
1432.000000	63.885760 
1431.000000	63.909006 
1430.000000	63.931322 
1429.000000	63.951373 
1428.000000	63.968348 
1427.000000	63.981986 
1426.000000	63.992142 
1425.000000	63.998770 
1424.000000	64.001488 
1423.000000	63.999891 
1422.000000	63.993358 
1421.000000	63.981389 
1420.000000	63.963770 
1419.000000	63.940858 
1418.000000	63.913512 
1417.000000	63.883042 
1416.000000	63.850951 
1415.000000	63.818860 
1414.000000	63.788008 
1413.000000	63.759398 
1412.000000	63.733577 
1411.000000	63.710808 
1410.000000	63.691139 
1409.000000	63.674736 
1408.000000	63.661718 
1407.000000	63.652491 
1406.000000	63.647270 
1405.000000	63.646602 
1404.000000	63.650774 
1403.000000	63.660168 
1402.000000	63.674807 
1401.000000	63.694405 
1400.000000	63.718533 
1399.000000	63.746166 
1398.000000	63.775634 
1397.000000	63.804721 
1396.000000	63.830828 
1395.000000	63.851118 
1394.000000	63.863062 
1393.000000	63.864850 
1392.000000	63.855838 
1391.000000	63.836860 
1390.000000	63.810324 
1389.000000	63.779687 
1388.000000	63.748931 
1387.000000	63.721895 
1386.000000	63.701558 
1385.000000	63.689494 
1384.000000	63.685703 
1383.000000	63.688898 
1382.000000	63.696932 
1381.000000	63.707399 
1380.000000	63.718199 
1379.000000	63.727927 
1378.000000	63.736081 
1377.000000	63.742303 
1376.000000	63.746809 
1375.000000	63.749432 
1374.000000	63.749909 
1373.000000	63.747835 
1372.000000	63.742828 
1371.000000	63.734889 
1370.000000	63.724493 
1369.000000	63.712763 
1368.000000	63.701081 
1367.000000	63.690972 
1366.000000	63.683676 
1365.000000	63.679957 
1364.000000	63.679790 
1363.000000	63.682460 
1362.000000	63.686823 
1361.000000	63.691592 
1360.000000	63.695669 
1359.000000	63.698363 
1358.000000	63.699340 
1357.000000	63.698744 
1356.000000	63.697004 
1355.000000	63.694787 
1354.000000	63.692569 
1353.000000	63.690757 
1352.000000	63.689637 
1351.000000	63.689279 
1350.000000	63.689637 
1349.000000	63.690447 
1348.000000	63.691401 
1347.000000	63.692235 
1346.000000	63.692927 
1345.000000	63.693809 
1344.000000	63.695406 
1343.000000	63.698434 
1342.000000	63.703536 
1341.000000	63.711142 
1340.000000	63.721203 
1339.000000	63.733148 
1338.000000	63.745975 
1337.000000	63.758230 
1336.000000	63.768386 
1335.000000	63.775110 
1334.000000	63.777637 
1333.000000	63.775849 
1332.000000	63.770461 
1331.000000	63.762736 
1330.000000	63.754343 
1329.000000	63.747024 
1328.000000	63.742184 
1327.000000	63.740634 
1326.000000	63.742375 
1325.000000	63.746619 
1324.000000	63.751959 
1323.000000	63.756561 
1322.000000	63.758659 
1321.000000	63.756728 
1320.000000	63.750290 
1319.000000	63.739919 
1318.000000	63.727259 
1317.000000	63.714671 
1316.000000	63.704657 
1315.000000	63.699293 
1314.000000	63.699507 
1313.000000	63.704729 
1312.000000	63.712882 
1311.000000	63.720941 
1310.000000	63.725590 
1309.000000	63.724184 
1308.000000	63.715434 
1307.000000	63.699889 
1306.000000	63.679742 
1305.000000	63.658499 
1304.000000	63.639926 
1303.000000	63.627386 
1302.000000	63.622617 
1301.000000	63.625836 
1300.000000	63.635706 
1299.000000	63.649773 
1298.000000	63.665270 
1297.000000	63.679695 
1296.000000	63.691306 
1295.000000	63.699197 
1294.000000	63.703155 
1293.000000	63.703131 
1292.000000	63.698935 
1291.000000	63.690137 
1290.000000	63.676071 
1289.000000	63.656282 
1288.000000	63.630938 
1287.000000	63.601207 
1286.000000	63.569498 
1285.000000	63.538837 
1284.000000	63.512516 
1283.000000	63.493275 
1282.000000	63.482713 
1281.000000	63.480854 
1280.000000	63.486194 
1279.000000	63.496136 
1278.000000	63.507676 
1277.000000	63.518071 
1276.000000	63.525557 
1275.000000	63.529539 
1274.000000	63.530635 
1273.000000	63.529896 
1272.000000	63.528680 
1271.000000	63.527822 
1270.000000	63.527917 
1269.000000	63.528966 
1268.000000	63.530659 
1267.000000	63.532614 
1266.000000	63.534474 
1265.000000	63.536024 
1264.000000	63.537073 
1263.000000	63.537406 
1262.000000	63.536858 
1261.000000	63.535499 
1260.000000	63.533496 
1259.000000	63.531422 
1258.000000	63.529777 
1257.000000	63.529181 
1256.000000	63.529896 
1255.000000	63.531899 
1254.000000	63.534665 
1253.000000	63.537549 
1252.000000	63.539838 
1251.000000	63.541054 
1250.000000	63.541221 
1249.000000	63.540816 
1248.000000	63.540697 
1247.000000	63.541793 
1246.000000	63.544821 
1245.000000	63.549971 
1244.000000	63.556623 
1243.000000	63.563585 
1242.000000	63.569521 
1241.000000	63.573074 
1240.000000	63.573551 
1239.000000	63.570809 
1238.000000	63.565516 
1237.000000	63.558650 
1236.000000	63.551449 
1235.000000	63.544869 
1234.000000	63.539481 
1233.000000	63.535356 
1232.000000	63.532280 
1231.000000	63.529849 
1230.000000	63.527679 
1229.000000	63.525557 
1228.000000	63.523530 
1227.000000	63.521623 
1226.000000	63.519573 
1225.000000	63.516855 
1224.000000	63.512635 
1223.000000	63.506078 
1222.000000	63.496661 
1221.000000	63.484311 
1220.000000	63.469624 
1219.000000	63.454174 
1218.000000	63.439893 
1217.000000	63.428831 
1216.000000	63.422560 
1215.000000	63.421940 
1214.000000	63.426661 
1213.000000	63.435482 
1212.000000	63.446569 
1211.000000	63.457918 
1210.000000	63.467884 
1209.000000	63.475537 
1208.000000	63.480710 
1207.000000	63.483881 
1206.000000	63.486099 
1205.000000	63.488531 
1204.000000	63.492226 
1203.000000	63.498020 
1202.000000	63.506460 
1201.000000	63.517546 
1200.000000	63.530492 
1199.000000	63.543629 
1198.000000	63.554692 
1197.000000	63.561010 
1196.000000	63.560009 
1195.000000	63.549900 
1194.000000	63.530135 
1193.000000	63.501834 
1192.000000	63.467621 
1191.000000	63.431262 
1190.000000	63.396978 
1189.000000	63.368606 
1188.000000	63.348793 
1187.000000	63.338494 
1186.000000	63.337063 
1185.000000	63.342285 
1184.000000	63.351202 
1183.000000	63.360810 
1182.000000	63.368821 
1181.000000	63.374137 
1180.000000	63.376855 
1179.000000	63.378071 
1178.000000	63.379287 
1177.000000	63.382077 
1176.000000	63.387513 
1175.000000	63.395905 
1174.000000	63.406682 
1173.000000	63.418602 
1172.000000	63.429903 
1171.000000	63.438725 
1170.000000	63.443565 
1169.000000	63.443541 
1168.000000	63.438653 
1167.000000	63.429641 
1166.000000	63.418102 
1165.000000	63.405704 
1164.000000	63.394355 
1163.000000	63.385629 
1162.000000	63.380718 
1161.000000	63.380336 
1160.000000	63.384604 
1159.000000	63.393330 
1158.000000	63.405942 
1157.000000	63.421392 
1156.000000	63.438248 
1155.000000	63.454961 
1154.000000	63.469862 
1153.000000	63.481163 
1152.000000	63.487625 
1151.000000	63.488292 
1150.000000	63.483214 
1149.000000	63.473320 
1148.000000	63.460254 
1147.000000	63.446164 
1146.000000	63.433384 
1145.000000	63.423919 
1144.000000	63.419032 
1143.000000	63.419032 
1142.000000	63.423252 
1141.000000	63.430309 
1140.000000	63.438439 
1139.000000	63.445973 
1138.000000	63.451910 
1137.000000	63.455915 
1136.000000	63.458490 
1135.000000	63.460421 
1134.000000	63.462138 
1133.000000	63.463830 
1132.000000	63.464927 
1131.000000	63.464641 
1130.000000	63.462424 
1129.000000	63.458156 
1128.000000	63.452744 
1127.000000	63.447213 
1126.000000	63.442659 
1125.000000	63.439464 
1124.000000	63.437247 
1123.000000	63.434767 
1122.000000	63.430309 
1121.000000	63.422322 
1120.000000	63.409852 
1119.000000	63.392615 
1118.000000	63.371157 
1117.000000	63.346648 
1116.000000	63.320779 
1115.000000	63.295507 
1114.000000	63.272809 
1113.000000	63.254618 
1112.000000	63.242411 
1111.000000	63.236927 
1110.000000	63.238239 
1109.000000	63.245344 
1108.000000	63.256645 
1107.000000	63.270115 
1106.000000	63.283991 
1105.000000	63.296461 
1104.000000	63.306522 
1103.000000	63.313817 
1102.000000	63.318872 
1101.000000	63.322520 
1100.000000	63.326144 
1099.000000	63.331174 
1098.000000	63.338851 
1097.000000	63.350009 
1096.000000	63.364791 
1095.000000	63.382840 
1094.000000	63.403201 
1093.000000	63.424563 
1092.000000	63.445591 
1091.000000	63.464927 
1090.000000	63.481569 
1089.000000	63.494729 
1088.000000	63.503885 
1087.000000	63.508701 
1086.000000	63.509082 
1085.000000	63.504934 
1084.000000	63.496422 
1083.000000	63.483786 
1082.000000	63.467907 
1081.000000	63.449883 
1080.000000	63.431000 
1079.000000	63.412690 
1078.000000	63.396239 
1077.000000	63.382792 
1076.000000	63.372993 
1075.000000	63.366985 
1074.000000	63.364267 
1073.000000	63.363909 
1072.000000	63.364791 
1071.000000	63.365626 
1070.000000	63.365244 
1069.000000	63.362836 
1068.000000	63.358068 
1067.000000	63.351225 
1066.000000	63.342785 
1065.000000	63.333630 
1064.000000	63.324809 
1063.000000	63.317203 
1062.000000	63.311553 
1061.000000	63.308310 
1060.000000	63.307666 
1059.000000	63.309597 
1058.000000	63.313841 
1057.000000	63.320326 
1056.000000	63.329029 
1055.000000	63.339805 
1054.000000	63.352274 
1053.000000	63.365650 
1052.000000	63.378787 
1051.000000	63.390254 
1050.000000	63.398432 
1049.000000	63.401985 
1048.000000	63.399982 
1047.000000	63.392496 
1046.000000	63.380098 
1045.000000	63.363957 
1044.000000	63.345432 
1043.000000	63.325953 
1042.000000	63.306736 
1041.000000	63.288760 
1040.000000	63.273024 
1039.000000	63.260698 
1038.000000	63.252902 
1037.000000	63.250470 
1036.000000	63.253998 
1035.000000	63.263273 
1034.000000	63.276886 
1033.000000	63.292169 
1032.000000	63.305282 
1031.000000	63.312268 
1030.000000	63.309383 
1029.000000	63.294553 
1028.000000	63.267731 
1027.000000	63.231515 
1026.000000	63.190793 
1025.000000	63.151645 
1024.000000	63.120222 
1023.000000	63.101148 
1022.000000	63.096570 
1021.000000	63.105583 
1020.000000	63.124322 
1019.000000	63.147449 
1018.000000	63.169646 
1017.000000	63.187122 
1016.000000	63.198494 
1015.000000	63.205552 
1014.000000	63.212442 
1013.000000	63.224577 
1012.000000	63.246703 
1011.000000	63.281297 
1010.000000	63.327360 
1009.000000	63.380622 
1008.000000	63.434433 
1007.000000	63.481211 
1006.000000	63.514399 
1005.000000	63.530135 
1004.000000	63.528108 
1003.000000	63.511228 
1002.000000	63.484811 
1001.000000	63.455152 
1000.000000	63.427948 
999.000000	 63.407349 
998.000000	 63.394737 
997.000000	 63.389658 
996.000000	 63.389611 
995.000000	 63.391327 
994.000000	 63.391470 
993.000000	 63.387680 
992.000000	 63.378858 
991.000000	 63.365101 
990.000000	 63.347864 
989.000000	 63.329172 
988.000000	 63.311529 
987.000000	 63.297390 
986.000000	 63.288617 
985.000000	 63.286209 
984.000000	 63.290214 
983.000000	 63.299536 
982.000000	 63.312053 
981.000000	 63.325095 
980.000000	 63.336253 
979.000000	 63.343906 
978.000000	 63.347458 
977.000000	 63.347578 
976.000000	 63.345861 
975.000000	 63.344359 
974.000000	 63.344693 
973.000000	 63.347983 
972.000000	 63.354396 
971.000000	 63.363075 
970.000000	 63.372659 
969.000000	 63.381457 
968.000000	 63.387775 
967.000000	 63.390350 
966.000000	 63.388752 
965.000000	 63.383150 
964.000000	 63.374447 
963.000000	 63.363981 
962.000000	 63.353347 
961.000000	 63.344097 
960.000000	 63.337326 
959.000000	 63.333678 
958.000000	 63.333177 
957.000000	 63.334918 
956.000000	 63.337326 
955.000000	 63.338541 
954.000000	 63.336944 
953.000000	 63.331627 
952.000000	 63.322877 
951.000000	 63.312315 
950.000000	 63.302445 
949.000000	 63.296222 
948.000000	 63.296055 
947.000000	 63.303136 
946.000000	 63.316774 
945.000000	 63.334727 
944.000000	 63.353252 
943.000000	 63.368225 
942.000000	 63.375949 
941.000000	 63.374185 
940.000000	 63.362693 
939.000000	 63.343143 
938.000000	 63.319110 
937.000000	 63.295102 
936.000000	 63.275718 
935.000000	 63.264632 
934.000000	 63.263869 
933.000000	 63.273429 
932.000000	 63.291597 
931.000000	 63.315343 
930.000000	 63.341140 
929.000000	 63.365697 
928.000000	 63.386464 
927.000000	 63.402223 
926.000000	 63.412904 
925.000000	 63.419556 
924.000000	 63.423895 
923.000000	 63.427996 
922.000000	 63.433980 
921.000000	 63.443303 
920.000000	 63.457012 
919.000000	 63.474798 
918.000000	 63.495612 
917.000000	 63.516950 
916.000000	 63.535904 
915.000000	 63.549089 
914.000000	 63.553404 
913.000000	 63.546729 
912.000000	 63.528561 
911.000000	 63.500499 
910.000000	 63.466000 
909.000000	 63.429999 
908.000000	 63.397884 
907.000000	 63.373970 
906.000000	 63.360762 
905.000000	 63.358235 
904.000000	 63.364243 
903.000000	 63.374996 
902.000000	 63.386487 
901.000000	 63.395404 
900.000000	 63.400363 
899.000000	 63.402032 
898.000000	 63.402676 
897.000000	 63.404870 
896.000000	 63.410902 
895.000000	 63.421726 
894.000000	 63.436746 
893.000000	 63.453602 
892.000000	 63.469171 
891.000000	 63.480544 
890.000000	 63.485574 
889.000000	 63.483762 
888.000000	 63.476085 
887.000000	 63.464784 
886.000000	 63.452553 
885.000000	 63.441753 
884.000000	 63.434123 
883.000000	 63.430619 
882.000000	 63.431692 
881.000000	 63.437533 
880.000000	 63.448286 
879.000000	 63.464164 
878.000000	 63.485336 
877.000000	 63.511776 
876.000000	 63.542628 
875.000000	 63.575625 
874.000000	 63.607573 
873.000000	 63.634204 
872.000000	 63.651156 
871.000000	 63.654613 
870.000000	 63.642144 
869.000000	 63.613438 
868.000000	 63.570713 
867.000000	 63.518261 
866.000000	 63.461709 
865.000000	 63.406920 
864.000000	 63.359284 
863.000000	 63.322210 
862.000000	 63.297009 
861.000000	 63.282656 
860.000000	 63.276267 
859.000000	 63.274407 
858.000000	 63.273310 
857.000000	 63.270950 
856.000000	 63.266801 
855.000000	 63.262772 
854.000000	 63.262057 
853.000000	 63.268566 
852.000000	 63.285064 
851.000000	 63.312792 
850.000000	 63.350629 
849.000000	 63.395118 
848.000000	 63.441061 
847.000000	 63.482642 
846.000000	 63.514280 
845.000000	 63.532018 
844.000000	 63.533473 
843.000000	 63.518476 
842.000000	 63.488578 
841.000000	 63.446831 
840.000000	 63.396787 
839.000000	 63.342308 
838.000000	 63.286566 
837.000000	 63.232374 
836.000000	 63.181710 
835.000000	 63.136243 
834.000000	 63.097429 
833.000000	 63.066411 
832.000000	 63.044786 
831.000000	 63.033914 
830.000000	 63.035559 
829.000000	 63.050818 
828.000000	 63.080334 
827.000000	 63.123416 
826.000000	 63.177919 
825.000000	 63.240194 
824.000000	 63.305211 
823.000000	 63.367104 
822.000000	 63.420200 
821.000000	 63.459825 
820.000000	 63.483309 
819.000000	 63.489913 
818.000000	 63.480830 
817.000000	 63.458347 
816.000000	 63.425755 
815.000000	 63.386178 
814.000000	 63.342618 
813.000000	 63.297128 
812.000000	 63.251662 
811.000000	 63.207507 
810.000000	 63.165473 
809.000000	 63.126206 
808.000000	 63.090324 
807.000000	 63.058567 
806.000000	 63.031244 
805.000000	 63.008666 
804.000000	 62.990927 
803.000000	 62.978053 
802.000000	 62.969589 
801.000000	 62.964820 
800.000000	 62.962722 
799.000000	 62.962341 
798.000000	 62.962961 
797.000000	 62.964057 
796.000000	 62.965440 
795.000000	 62.967562 
794.000000	 62.971401 
793.000000	 62.978005 
792.000000	 62.988209 
791.000000	 63.002610 
790.000000	 63.021206 
789.000000	 63.043212 
788.000000	 63.067436 
787.000000	 63.092327 
786.000000	 63.116788 
785.000000	 63.140225 
784.000000	 63.162946 
783.000000	 63.185667 
782.000000	 63.209271 
781.000000	 63.234686 
780.000000	 63.262033 
779.000000	 63.290357 
778.000000	 63.317298 
777.000000	 63.339948 
776.000000	 63.354754 
775.000000	 63.358831 
774.000000	 63.350152 
773.000000	 63.328433 
772.000000	 63.294816 
771.000000	 63.251757 
770.000000	 63.202571 
769.000000	 63.151121 
768.000000	 63.101172 
767.000000	 63.056039 
766.000000	 63.018155 
765.000000	 62.989115 
764.000000	 62.969684 
763.000000	 62.959909 
762.000000	 62.958717 
761.000000	 62.964820 
760.000000	 62.977218 
759.000000	 62.995362 
758.000000	 63.018798 
757.000000	 63.047218 
756.000000	 63.079714 
755.000000	 63.114500 
754.000000	 63.148570 
753.000000	 63.177919 
752.000000	 63.198018 
751.000000	 63.204526 
750.000000	 63.194608 
749.000000	 63.167572 
748.000000	 63.125538 
747.000000	 63.073301 
746.000000	 63.017797 
745.000000	 62.966680 
744.000000	 62.926697 
743.000000	 62.902450 
742.000000	 62.895345 
741.000000	 62.903141 
740.000000	 62.920141 
739.000000	 62.938308 
738.000000	 62.948894 
737.000000	 62.943959 
736.000000	 62.918591 
735.000000	 62.871241 
734.000000	 62.805461 
733.000000	 62.728548 
732.000000	 62.651181 
731.000000	 62.585186 
730.000000	 62.541103 
729.000000	 62.526273 
728.000000	 62.543106 
727.000000	 62.588500 
726.000000	 62.654542 
725.000000	 62.730050 
724.000000	 62.803530 
723.000000	 62.865090 
722.000000	 62.909460 
721.000000	 62.936162 
720.000000	 62.949967 
719.000000	 62.958526 
718.000000	 62.969970 
717.000000	 62.990117 
716.000000	 63.020610 
715.000000	 63.058304 
714.000000	 63.095498 
713.000000	 63.122224 
712.000000	 63.129472 
711.000000	 63.111734 
710.000000	 63.068246 
709.000000	 63.003635 
708.000000	 62.927150 
707.000000	 62.850403 
706.000000	 62.784361 
705.000000	 62.737202 
704.000000	 62.712812 
703.000000	 62.710642 
702.000000	 62.726259 
701.000000	 62.753438 
700.000000	 62.785696 
699.000000	 62.818241 
698.000000	 62.848830 
697.000000	 62.877607 
696.000000	 62.905669 
695.000000	 62.934494 
694.000000	 62.964081 
693.000000	 62.993049 
692.000000	 63.018441 
691.000000	 63.036870 
690.000000	 63.045859 
689.000000	 63.044714 
688.000000	 63.035178 
687.000000	 63.021779 
686.000000	 63.011026 
685.000000	 63.009381 
684.000000	 63.022327 
683.000000	 63.053536 
682.000000	 63.104057 
681.000000	 63.172531 
680.000000	 63.254880 
679.000000	 63.346099 
678.000000	 63.439249 
677.000000	 63.527345 
676.000000	 63.602423 
675.000000	 63.655948 
674.000000	 63.680100 
673.000000	 63.668680 
672.000000	 63.619780 
671.000000	 63.536739 
670.000000	 63.429307 
669.000000	 63.312602 
668.000000	 63.205361 
667.000000	 63.127279 
666.000000	 63.093256 
665.000000	 63.110542 
664.000000	 63.174962 
663.000000	 63.272023 
662.000000	 63.378477 
661.000000	 63.467812 
660.000000	 63.515830 
659.000000	 63.506484 
658.000000	 63.435482 
657.000000	 63.311457 
656.000000	 63.153028 
655.000000	 62.985038 
654.000000	 62.832546 
653.000000	 62.716126 
652.000000	 62.648248 
651.000000	 62.631368 
650.000000	 62.660598 
649.000000	 62.723374 
648.000000	 62.804388 
647.000000	 62.886500 
646.000000	 62.953948 
645.000000	 62.993812 
644.000000	 62.996649 
643.000000	 62.957859 
642.000000	 62.876772 
641.000000	 62.758231 
640.000000	 62.611389 
639.000000	 62.450361 
638.000000	 62.292766 
637.000000	 62.156724 
636.000000	 62.057709 
635.000000	 62.006759 
634.000000	 62.008666 
633.000000	 62.060284 
632.000000	 62.151885 
631.000000	 62.268662 
630.000000	 62.394523 
629.000000	 62.515616 
628.000000	 62.623596 
627.000000	 62.714862 
626.000000	 62.791705 
625.000000	 62.860345 
624.000000	 62.928390 
623.000000	 63.002133 
622.000000	 63.083624 
621.000000	 63.170146 
620.000000	 63.253974 
619.000000	 63.325572 
618.000000	 63.375353 
617.000000	 63.397121 
616.000000	 63.390421 
615.000000	 63.360691 
614.000000	 63.320279 
613.000000	 63.285374 
612.000000	 63.273835 
611.000000	 63.300991 
610.000000	 63.376688 
609.000000	 63.502645 
608.000000	 63.671636 
607.000000	 63.868236 
606.000000	 64.070129 
605.000000	 64.251422 
604.000000	 64.386749 
603.000000	 64.455509 
602.000000	 64.445161 
601.000000	 64.353346 
600.000000	 64.188313 
599.000000	 63.967633 
598.000000	 63.715839 
597.000000	 63.459706 
596.000000	 63.224720 
595.000000	 63.030195 
594.000000	 62.888288 
593.000000	 62.802076 
592.000000	 62.766551 
591.000000	 62.771463 
590.000000	 62.803864 
589.000000	 62.851881 
588.000000	 62.905073 
587.000000	 62.957596 
586.000000	 63.006448 
585.000000	 63.051581 
584.000000	 63.092541 
583.000000	 63.129019 
582.000000	 63.159346 
581.000000	 63.180756 
580.000000	 63.189792 
579.000000	 63.183498 
578.000000	 63.160419 
577.000000	 63.121438 
576.000000	 63.070178 
575.000000	 63.012290 
574.000000	 62.955117 
573.000000	 62.906002 
572.000000	 62.871527 
571.000000	 62.856793 
570.000000	 62.864494 
569.000000	 62.894797 
568.000000	 62.944984 
567.000000	 63.009476 
566.000000	 63.081192 
565.000000	 63.152718 
564.000000	 63.217544 
563.000000	 63.270545 
562.000000	 63.308882 
561.000000	 63.332700 
560.000000	 63.343214 
559.000000	 63.341903 
558.000000	 63.329410 
557.000000	 63.305306 
556.000000	 63.268756 
555.000000	 63.219690 
554.000000	 63.160037 
553.000000	 63.094592 
552.000000	 63.032317 
551.000000	 62.984967 
550.000000	 62.964677 
549.000000	 62.980675 
548.000000	 63.036680 
547.000000	 63.128829 
546.000000	 63.245272 
545.000000	 63.368320 
544.000000	 63.478016 
543.000000	 63.556194 
542.000000	 63.590502 
541.000000	 63.576769 
540.000000	 63.519692 
539.000000	 63.431191 
538.000000	 63.326883 
537.000000	 63.222837 
536.000000	 63.132667 
535.000000	 63.064837 
534.000000	 63.022661 
533.000000	 63.004231 
532.000000	 63.005280 
531.000000	 63.019275 
530.000000	 63.040065 
529.000000	 63.060355 
528.000000	 63.072800 
527.000000	 63.069868 
526.000000	 63.044929 
525.000000	 62.993931 
524.000000	 62.916541 
523.000000	 62.818145 
522.000000	 62.708783 
521.000000	 62.601161 
520.000000	 62.507581 
519.000000	 62.437033 
518.000000	 62.392711 
517.000000	 62.371659 
516.000000	 62.365198 
515.000000	 62.361407 
514.000000	 62.348270 
513.000000	 62.316703 
512.000000	 62.263083 
511.000000	 62.188911 
510.000000	 62.101936 
509.000000	 62.013006 
508.000000	 61.934995 
507.000000	 61.878561 
506.000000	 61.851549 
505.000000	 61.856412 
504.000000	 61.891698 
503.000000	 61.952662 
502.000000	 62.032818 
501.000000	 62.124967 
500.000000	 62.223029 
499.000000	 62.322592 
498.000000	 62.420964 
497.000000	 62.516403 
496.000000	 62.607836 
495.000000	 62.693500 
494.000000	 62.769412 
493.000000	 62.829017 
492.000000	 62.865638 
491.000000	 62.873101 
490.000000	 62.848615 
489.000000	 62.793111 
488.000000	 62.713646 
487.000000	 62.620759 
486.000000	 62.526535 
485.000000	 62.442207 
484.000000	 62.375140 
483.000000	 62.328863 
482.000000	 62.303686 
481.000000	 62.297201 
480.000000	 62.306261 
479.000000	 62.327337 
478.000000	 62.356948 
477.000000	 62.392568 
476.000000	 62.431788 
475.000000	 62.473535 
474.000000	 62.517285 
473.000000	 62.564039 
472.000000	 62.615799 
471.000000	 62.675309 
470.000000	 62.745046 
469.000000	 62.826800 
468.000000	 62.920475 
467.000000	 63.024067 
466.000000	 63.132572 
465.000000	 63.238573 
464.000000	 63.332033 
463.000000	 63.403677 
462.000000	 63.443851 
461.000000	 63.445615 
460.000000	 63.404059 
459.000000	 63.317561 
458.000000	 63.188982 
457.000000	 63.026523 
456.000000	 62.843847 
455.000000	 62.658143 
454.000000	 62.488985 
453.000000	 62.356352 
452.000000	 62.275838 
451.000000	 62.255430 
450.000000	 62.293958 
449.000000	 62.380266 
448.000000	 62.498378 
447.000000	 62.630677 
446.000000	 62.763476 
445.000000	 62.889099 
444.000000	 63.007330 
443.000000	 63.122344 
442.000000	 63.238382 
441.000000	 63.354563 
440.000000	 63.463211 
439.000000	 63.548994 
438.000000	 63.590288 
437.000000	 63.566708 
436.000000	 63.465785 
435.000000	 63.290810 
434.000000	 63.062810 
433.000000	 62.820029 
432.000000	 62.612032 
431.000000	 62.487363 
430.000000	 62.483167 
429.000000	 62.612938 
428.000000	 62.863063 
427.000000	 63.193154 
426.000000	 63.545489 
425.000000	 63.857626 
424.000000	 64.076399 
423.000000	 64.171123 
422.000000	 64.137101 
421.000000	 64.002442 
420.000000	 63.819527 
419.000000	 63.646149 
418.000000	 63.528275 
417.000000	 63.487005 
416.000000	 63.513159 
415.000000	 63.565683 
414.000000	 63.586163 
413.000000	 63.526749 
412.000000	 63.362979 
411.000000	 63.099598 
410.000000	 62.770795 
409.000000	 62.429928 
408.000000	 62.134671 
407.000000	 61.932206 
406.000000	 61.847281 
405.000000	 61.857962 
404.000000	 61.923885 
403.000000	 62.017703 
402.000000	 62.118029 
401.000000	 62.210369 
400.000000	 62.292027 
399.000000	 62.387466 
398.000000	 62.497353 
397.000000	 62.587261 
396.000000	 62.586522 
395.000000	 62.397050 
394.000000	 61.937451 
393.000000	 61.171412 
392.000000	 60.128808 
391.000000	 58.905172 
390.000000	 57.618474 
389.000000	 56.376957 
388.000000	 55.237579 
387.000000	 54.199934 
386.000000	 53.196024 
385.000000	 52.147316 
384.000000	 50.989222 
383.000000	 49.755764 
382.000000	 48.553371 
381.000000	 47.628569 
380.000000	 47.273683 
379.000000	 47.846674 
378.000000	 49.621319 
377.000000	 52.787947 
376.000000	 57.423710 
375.000000	 63.393449 
374.000000	 70.320343 
373.000000	 77.627635 
372.000000	 84.620237 
371.000000	 90.603828 
370.000000	 95.053720 

