PE IR       SPECTRUM    SPECTRUM    ASCII       PEDS        1.60        
  -1
BZ6E22~1.ASC
17/04/07
13:43:34.00
17/04/07
13:43:34.00
tln
$BZ1503107-1_t0006$<tbV0>[0.0,-13.0,8.0,0.0,27,1,0]
370.000000
64









2002,4.07    
MIRTGS : RIGHTBACK : INTERNAL 2
MIR : ON : INTERNAL 2
OPTKBR

0.200000
8
8.000000
FILLER
RATIO
SPECTRUM
UNLOCKED 256

DOUBLE
64
COMBINED
1
0
0


1.000000
RATIO


1
0
TRUE
51149
0
LEFT NOT FITTED RIGHT NOT FITTED 0
NONE
NONE
15600
12.000000
4.427000
51148
TRUE
1 0 8 72 0 0 0 0 

15798.010000






#HDR
-1
-1
#GR
CM-1
%T
0.00002384185791015625
0.0
5000.000000
-1.000000
4631
8
78.766846
52.336740
#DATA
5000.000000	64.730739 
4999.000000	64.664173 
4998.000000	64.597392 
4997.000000	64.541769 
4996.000000	64.508080 
4995.000000	64.504957 
4994.000000	64.535570 
4993.000000	64.597344 
4992.000000	64.680576 
4991.000000	64.770960 
4990.000000	64.850544 
4989.000000	64.901947 
4988.000000	64.910769 
4987.000000	64.868593 
4986.000000	64.775252 
4985.000000	64.638876 
4984.000000	64.474701 
4983.000000	64.302015 
4982.000000	64.141607 
4981.000000	64.011740 
4980.000000	63.925123 
4979.000000	63.886713 
4978.000000	63.893628 
4977.000000	63.936090 
4976.000000	63.999867 
4975.000000	64.069485 
4974.000000	64.130902 
4973.000000	64.174365 
4972.000000	64.195108 
4971.000000	64.193606 
4970.000000	64.173340 
4969.000000	64.139485 
4968.000000	64.096665 
4967.000000	64.048218 
4966.000000	63.995337 
4965.000000	63.938689 
4964.000000	63.879537 
4963.000000	63.821721 
4962.000000	63.771820 
4961.000000	63.738870 
4960.000000	63.732504 
4959.000000	63.760447 
4958.000000	63.826131 
4957.000000	63.926935 
4956.000000	64.054083 
4955.000000	64.194893 
4954.000000	64.335417 
4953.000000	64.462542 
4952.000000	64.566946 
4951.000000	64.645433 
4950.000000	64.700412 
4949.000000	64.739108 
4948.000000	64.769673 
4947.000000	64.798831 
4946.000000	64.827895 
4945.000000	64.853882 
4944.000000	64.868474 
4943.000000	64.861631 
4942.000000	64.824295 
4941.000000	64.753389 
4940.000000	64.652371 
4939.000000	64.532232 
4938.000000	64.408254 
4937.000000	64.296245 
4936.000000	64.209270 
4935.000000	64.154148 
4934.000000	64.132642 
4933.000000	64.141392 
4932.000000	64.176583 
4931.000000	64.235281 
4930.000000	64.319109 
4929.000000	64.432811 
4928.000000	64.582037 
4927.000000	64.768123 
4926.000000	64.982891 
4925.000000	65.205836 
4924.000000	65.405750 
4923.000000	65.545272 
4922.000000	65.590834 
4921.000000	65.519809 
4920.000000	65.328049 
4919.000000	65.031599 
4918.000000	64.665412 
4917.000000	64.276075 
4916.000000	63.912367 
4915.000000	63.616394 
4914.000000	63.416361 
4913.000000	63.322615 
4912.000000	63.328957 
4911.000000	63.415050 
4910.000000	63.553595 
4909.000000	63.714432 
4908.000000	63.869738 
4907.000000	63.998293 
4906.000000	64.085817 
4905.000000	64.127993 
4904.000000	64.127564 
4903.000000	64.097428 
4902.000000	64.055967 
4901.000000	64.026308 
4900.000000	64.029669 
4899.000000	64.079523 
4898.000000	64.176273 
4897.000000	64.306020 
4896.000000	64.442420 
4895.000000	64.551568 
4894.000000	64.601945 
4893.000000	64.572906 
4892.000000	64.461946 
4891.000000	64.286422 
4890.000000	64.079427 
4889.000000	63.883352 
4888.000000	63.736104 
4887.000000	63.661599 
4886.000000	63.662862 
4885.000000	63.722634 
4884.000000	63.807916 
4883.000000	63.880109 
4882.000000	63.906383 
4881.000000	63.869953 
4880.000000	63.772940 
4879.000000	63.634896 
4878.000000	63.486242 
4877.000000	63.358068 
4876.000000	63.276386 
4875.000000	63.255620 
4874.000000	63.297986 
4873.000000	63.394999 
4872.000000	63.532900 
4871.000000	63.697385 
4870.000000	63.877511 
4869.000000	64.067435 
4868.000000	64.264273 
4867.000000	64.467096 
4866.000000	64.672255 
4865.000000	64.873361 
4864.000000	65.061163 
4863.000000	65.224170 
4862.000000	65.353488 
4861.000000	65.441489 
4860.000000	65.486073 
4859.000000	65.487980 
4858.000000	65.453028 
4857.000000	65.387678 
4856.000000	65.298676 
4855.000000	65.192484 
4854.000000	65.076303 
4853.000000	64.958047 
4852.000000	64.847445 
4851.000000	64.754843 
4850.000000	64.690423 
4849.000000	64.662361 
4848.000000	64.675426 
4847.000000	64.728927 
4846.000000	64.816832 
4845.000000	64.928293 
4844.000000	65.049910 
4843.000000	65.168476 
4842.000000	65.272855 
4841.000000	65.356040 
4840.000000	65.414786 
4839.000000	65.447878 
4838.000000	65.456008 
4837.000000	65.440726 
4836.000000	65.404891 
4835.000000	65.352368 
4834.000000	65.289068 
4833.000000	65.224528 
4832.000000	65.169167 
4831.000000	65.134882 
4830.000000	65.129041 
4829.000000	65.153884 
4828.000000	65.202856 
4827.000000	65.261673 
4826.000000	65.311861 
4825.000000	65.335178 
4824.000000	65.320181 
4823.000000	65.265560 
4822.000000	65.181708 
4821.000000	65.088033 
4820.000000	65.008258 
4819.000000	64.963364 
4818.000000	64.965200 
4817.000000	65.012884 
4816.000000	65.092182 
4815.000000	65.180015 
4814.000000	65.251684 
4813.000000	65.288472 
4812.000000	65.282154 
4811.000000	65.238833 
4810.000000	65.177297 
4809.000000	65.123867 
4808.000000	65.103340 
4807.000000	65.132713 
4806.000000	65.216040 
4805.000000	65.342712 
4804.000000	65.491509 
4803.000000	65.634870 
4802.000000	65.747189 
4801.000000	65.810537 
4800.000000	65.819025 
4799.000000	65.779304 
4798.000000	65.707778 
4797.000000	65.625524 
4796.000000	65.552091 
4795.000000	65.500783 
4794.000000	65.475583 
4793.000000	65.472173 
4792.000000	65.480089 
4791.000000	65.485787 
4790.000000	65.476393 
4789.000000	65.443181 
4788.000000	65.382838 
4787.000000	65.296149 
4786.000000	65.188384 
4785.000000	65.065360 
4784.000000	64.934873 
4783.000000	64.805579 
4782.000000	64.686942 
4781.000000	64.588713 
4780.000000	64.519333 
4779.000000	64.485883 
4778.000000	64.490509 
4777.000000	64.529967 
4776.000000	64.594411 
4775.000000	64.667773 
4774.000000	64.731717 
4773.000000	64.768218 
4772.000000	64.766025 
4771.000000	64.722704 
4770.000000	64.647483 
4769.000000	64.558243 
4768.000000	64.479994 
4767.000000	64.438199 
4766.000000	64.453220 
4765.000000	64.534378 
4764.000000	64.677119 
4763.000000	64.862656 
4762.000000	65.062499 
4761.000000	65.243721 
4760.000000	65.375518 
4759.000000	65.435814 
4758.000000	65.415167 
4757.000000	65.318894 
4756.000000	65.164184 
4755.000000	64.977383 
4754.000000	64.787721 
4753.000000	64.622473 
4752.000000	64.502382 
4751.000000	64.438748 
4750.000000	64.434218 
4749.000000	64.482021 
4748.000000	64.569711 
4747.000000	64.680862 
4746.000000	64.798474 
4745.000000	64.906930 
4744.000000	64.993715 
4743.000000	65.050315 
4742.000000	65.071797 
4741.000000	65.058422 
4740.000000	65.014696 
4739.000000	64.948678 
4738.000000	64.870357 
4737.000000	64.790964 
4736.000000	64.720630 
4735.000000	64.667725 
4734.000000	64.637088 
4733.000000	64.629936 
4732.000000	64.643383 
4731.000000	64.671397 
4730.000000	64.705801 
4729.000000	64.738130 
4728.000000	64.760732 
4727.000000	64.767313 
4726.000000	64.754533 
4725.000000	64.721393 
4724.000000	64.670372 
4723.000000	64.607143 
4722.000000	64.539265 
4721.000000	64.474415 
4720.000000	64.419245 
4719.000000	64.379477 
4718.000000	64.356303 
4717.000000	64.346551 
4716.000000	64.342689 
4715.000000	64.334893 
4714.000000	64.313149 
4713.000000	64.270162 
4712.000000	64.203548 
4711.000000	64.116859 
4710.000000	64.019393 
4709.000000	63.924264 
4708.000000	63.845205 
4707.000000	63.793396 
4706.000000	63.774609 
4705.000000	63.788127 
4704.000000	63.826942 
4703.000000	63.880300 
4702.000000	63.936114 
4701.000000	63.985228 
4700.000000	64.022207 
4699.000000	64.048361 
4698.000000	64.069247 
4697.000000	64.094662 
4696.000000	64.133644 
4695.000000	64.193844 
4694.000000	64.278340 
4693.000000	64.385867 
4692.000000	64.511060 
4691.000000	64.645409 
4690.000000	64.779639 
4689.000000	64.904832 
4688.000000	65.014576 
4687.000000	65.104508 
4686.000000	65.172576 
4685.000000	65.218639 
4684.000000	65.243697 
4683.000000	65.249681 
4682.000000	65.238666 
4681.000000	65.213751 
4680.000000	65.178012 
4679.000000	65.135216 
4678.000000	65.088367 
4677.000000	65.040898 
4676.000000	64.995121 
4675.000000	64.952373 
4674.000000	64.912891 
4673.000000	64.876246 
4672.000000	64.842081 
4671.000000	64.810371 
4670.000000	64.781880 
4669.000000	64.757513 
4668.000000	64.738750 
4667.000000	64.727044 
4666.000000	64.723205 
4665.000000	64.726495 
4664.000000	64.735126 
4663.000000	64.746427 
4662.000000	64.757227 
4661.000000	64.764285 
4660.000000	64.765381 
4659.000000	64.759707 
4658.000000	64.747238 
4657.000000	64.728689 
4656.000000	64.705443 
4655.000000	64.679360 
4654.000000	64.651823 
4653.000000	64.624404 
4652.000000	64.598989 
4651.000000	64.577770 
4650.000000	64.563298 
4649.000000	64.557695 
4648.000000	64.562201 
4647.000000	64.576411 
4646.000000	64.598107 
4645.000000	64.623427 
4644.000000	64.647078 
4643.000000	64.663982 
4642.000000	64.670228 
4641.000000	64.664125 
4640.000000	64.646387 
4639.000000	64.620208 
4638.000000	64.590454 
4637.000000	64.562320 
4636.000000	64.539957 
4635.000000	64.525794 
4634.000000	64.520239 
4633.000000	64.521598 
4632.000000	64.526939 
4631.000000	64.533090 
4630.000000	64.537358 
4629.000000	64.538049 
4628.000000	64.534592 
4627.000000	64.526987 
4626.000000	64.515614 
4625.000000	64.500880 
4624.000000	64.483070 
4623.000000	64.462423 
4622.000000	64.439320 
4621.000000	64.414405 
4620.000000	64.389061 
4619.000000	64.365053 
4618.000000	64.344620 
4617.000000	64.329791 
4616.000000	64.322233 
4615.000000	64.322686 
4614.000000	64.330887 
4613.000000	64.345550 
4612.000000	64.365077 
4611.000000	64.387392 
4610.000000	64.411258 
4609.000000	64.436054 
4608.000000	64.462113 
4607.000000	64.489984 
4606.000000	64.519906 
4605.000000	64.551067 
4604.000000	64.581274 
4603.000000	64.607167 
4602.000000	64.625096 
4601.000000	64.631724 
4600.000000	64.625215 
4599.000000	64.605450 
4598.000000	64.574480 
4597.000000	64.535832 
4596.000000	64.493942 
4595.000000	64.453220 
4594.000000	64.417409 
4593.000000	64.389038 
4592.000000	64.369344 
4591.000000	64.358162 
4590.000000	64.354467 
4589.000000	64.356684 
4588.000000	64.362621 
4587.000000	64.370465 
4586.000000	64.378809 
4585.000000	64.386844 
4584.000000	64.393758 
4583.000000	64.399170 
4582.000000	64.402985 
4581.000000	64.404797 
4580.000000	64.403700 
4579.000000	64.398074 
4578.000000	64.386057 
4577.000000	64.365458 
4576.000000	64.334607 
4575.000000	64.292907 
4574.000000	64.241456 
4573.000000	64.183330 
4572.000000	64.123415 
4571.000000	64.067506 
4570.000000	64.021277 
4569.000000	63.989329 
4568.000000	63.974022 
4567.000000	63.974618 
4566.000000	63.987445 
4565.000000	64.006972 
4564.000000	64.026308 
4563.000000	64.038610 
4562.000000	64.037919 
4561.000000	64.020776 
4560.000000	63.985657 
4559.000000	63.933134 
4558.000000	63.865542 
4557.000000	63.786244 
4556.000000	63.699555 
4555.000000	63.610196 
4554.000000	63.523316 
4553.000000	63.444113 
4552.000000	63.377451 
4551.000000	63.327455 
4550.000000	63.296890 
4549.000000	63.287186 
4548.000000	63.297605 
4547.000000	63.325905 
4546.000000	63.367843 
4545.000000	63.419079 
4544.000000	63.475394 
4543.000000	63.534092 
4542.000000	63.594126 
4541.000000	63.655924 
4540.000000	63.719773 
4539.000000	63.785791 
4538.000000	63.853311 
4537.000000	63.920497 
4536.000000	63.984751 
4535.000000	64.042520 
4534.000000	64.091396 
4533.000000	64.128351 
4532.000000	64.150595 
4531.000000	64.155983 
4530.000000	64.143657 
4529.000000	64.115500 
4528.000000	64.076256 
4527.000000	64.034152 
4526.000000	64.000296 
4525.000000	63.984203 
4524.000000	63.991641 
4523.000000	64.023828 
4522.000000	64.077138 
4521.000000	64.142131 
4520.000000	64.206457 
4519.000000	64.258670 
4518.000000	64.291834 
4517.000000	64.304423 
4516.000000	64.301371 
4515.000000	64.293909 
4514.000000	64.295649 
4513.000000	64.315772 
4512.000000	64.358758 
4511.000000	64.423203 
4510.000000	64.502835 
4509.000000	64.590120 
4508.000000	64.676499 
4507.000000	64.754104 
4506.000000	64.817571 
4505.000000	64.865541 
4504.000000	64.899373 
4503.000000	64.919328 
4502.000000	64.931011 
4501.000000	64.944291 
4500.000000	64.974141 
4499.000000	65.036964 
4498.000000	65.152001 
4497.000000	65.336322 
4496.000000	65.595650 
4495.000000	65.921235 
4494.000000	66.288089 
4493.000000	66.662693 
4492.000000	67.002367 
4491.000000	67.274165 
4490.000000	67.472028 
4489.000000	67.617845 
4488.000000	67.763757 
4487.000000	67.967367 
4486.000000	68.270897 
4485.000000	68.679404 
4484.000000	69.168567 
4483.000000	69.668889 
4482.000000	70.078563 
4481.000000	70.289158 
4480.000000	70.223784 
4479.000000	69.849586 
4478.000000	69.197511 
4477.000000	68.345570 
4476.000000	67.402791 
4475.000000	66.480159 
4474.000000	65.667772 
4473.000000	65.013241 
4472.000000	64.515852 
4471.000000	64.142203 
4470.000000	63.841652 
4469.000000	63.557457 
4468.000000	63.240218 
4467.000000	62.836599 
4466.000000	62.307906 
4465.000000	61.606526 
4464.000000	60.723710 
4463.000000	59.688162 
4462.000000	58.614158 
4461.000000	57.678627 
4460.000000	57.124209 
4459.000000	57.215595 
4458.000000	58.170461 
4457.000000	60.103011 
4456.000000	62.954306 
4455.000000	66.485929 
4454.000000	70.289778 
4453.000000	73.862957 
4452.000000	76.700425 
4451.000000	78.405070 
4450.000000	78.766846 
4449.000000	77.813339 
4448.000000	75.782275 
4447.000000	73.062729 
4446.000000	70.103812 
4445.000000	67.321968 
4444.000000	65.023517 
4443.000000	63.365006 
4442.000000	62.363362 
4441.000000	61.928725 
4440.000000	61.905550 
4439.000000	62.129497 
4438.000000	62.455630 
4437.000000	62.794995 
4436.000000	63.096737 
4435.000000	63.360357 
4434.000000	63.587212 
4433.000000	63.791537 
4432.000000	63.975167 
4431.000000	64.135479 
4430.000000	64.268898 
4429.000000	64.369583 
4428.000000	64.438819 
4427.000000	64.479660 
4426.000000	64.496016 
4425.000000	64.495277 
4424.000000	64.491438 
4423.000000	64.497947 
4422.000000	64.523839 
4421.000000	64.575219 
4420.000000	64.658355 
4419.000000	64.766907 
4418.000000	64.882254 
4417.000000	64.980721 
4416.000000	65.038466 
4415.000000	65.043973 
4414.000000	65.001749 
4413.000000	64.920163 
4412.000000	64.811086 
4411.000000	64.693999 
4410.000000	64.589548 
4409.000000	64.512252 
4408.000000	64.468932 
4407.000000	64.459133 
4406.000000	64.475631 
4405.000000	64.509344 
4404.000000	64.549756 
4403.000000	64.586687 
4402.000000	64.612388 
4401.000000	64.622402 
4400.000000	64.615774 
4399.000000	64.592599 
4398.000000	64.555501 
4397.000000	64.508891 
4396.000000	64.457798 
4395.000000	64.407372 
4394.000000	64.361524 
4393.000000	64.322805 
4392.000000	64.291453 
4391.000000	64.265847 
4390.000000	64.243936 
4389.000000	64.224267 
4388.000000	64.207363 
4387.000000	64.195656 
4386.000000	64.192843 
4385.000000	64.202332 
4384.000000	64.225363 
4383.000000	64.260339 
4382.000000	64.302110 
4381.000000	64.343237 
4380.000000	64.375948 
4379.000000	64.393901 
4378.000000	64.393186 
4377.000000	64.373803 
4376.000000	64.339923 
4375.000000	64.298367 
4374.000000	64.257168 
4373.000000	64.222979 
4372.000000	64.200043 
4371.000000	64.188599 
4370.000000	64.185452 
4369.000000	64.184856 
4368.000000	64.180636 
4367.000000	64.168095 
4366.000000	64.145708 
4365.000000	64.115715 
4364.000000	64.083600 
4363.000000	64.056539 
4362.000000	64.041495 
4361.000000	64.043402 
4360.000000	64.064145 
4359.000000	64.102482 
4358.000000	64.154624 
4357.000000	64.215469 
4356.000000	64.279985 
4355.000000	64.343810 
4354.000000	64.403963 
4353.000000	64.458417 
4352.000000	64.506244 
4351.000000	64.547276 
4350.000000	64.581680 
4349.000000	64.609956 
4348.000000	64.632296 
4347.000000	64.649176 
4346.000000	64.660716 
4345.000000	64.667749 
4344.000000	64.670872 
4343.000000	64.671039 
4342.000000	64.668869 
4341.000000	64.665222 
4340.000000	64.660263 
4339.000000	64.653897 
4338.000000	64.645648 
4337.000000	64.635205 
4336.000000	64.622640 
4335.000000	64.608573 
4334.000000	64.594626 
4333.000000	64.583039 
4332.000000	64.576625 
4331.000000	64.577889 
4330.000000	64.587998 
4329.000000	64.606189 
4328.000000	64.629459 
4327.000000	64.653372 
4326.000000	64.671659 
4325.000000	64.679098 
4324.000000	64.673185 
4323.000000	64.655351 
4322.000000	64.630579 
4321.000000	64.606475 
4320.000000	64.591526 
4319.000000	64.592528 
4318.000000	64.612603 
4317.000000	64.650249 
4316.000000	64.699530 
4315.000000	64.751863 
4314.000000	64.798259 
4313.000000	64.832043 
4312.000000	64.850664 
4311.000000	64.856219 
4310.000000	64.854526 
4309.000000	64.852714 
4308.000000	64.856743 
4307.000000	64.869451 
4306.000000	64.889049 
4305.000000	64.909672 
4304.000000	64.922690 
4303.000000	64.919376 
4302.000000	64.893198 
4301.000000	64.841198 
4300.000000	64.765048 
4299.000000	64.670586 
4298.000000	64.567565 
4297.000000	64.467191 
4296.000000	64.381194 
4295.000000	64.319443 
4294.000000	64.288902 
4293.000000	64.292836 
4292.000000	64.329838 
4291.000000	64.394283 
4290.000000	64.476799 
4289.000000	64.565610 
4288.000000	64.648556 
4287.000000	64.714360 
4286.000000	64.755392 
4285.000000	64.768481 
4284.000000	64.755582 
4283.000000	64.722871 
4282.000000	64.679241 
4281.000000	64.634084 
4280.000000	64.595413 
4279.000000	64.568114 
4278.000000	64.553809 
4277.000000	64.551210 
4276.000000	64.557957 
4275.000000	64.571452 
4274.000000	64.590096 
4273.000000	64.613485 
4272.000000	64.642167 
4271.000000	64.676618 
4270.000000	64.716100 
4269.000000	64.758062 
4268.000000	64.797973 
4267.000000	64.830183 
4266.000000	64.848780 
4265.000000	64.849305 
4264.000000	64.830565 
4263.000000	64.794611 
4262.000000	64.746546 
4261.000000	64.693474 
4260.000000	64.643001 
4259.000000	64.601659 
4258.000000	64.574074 
4257.000000	64.561963 
4256.000000	64.564347 
4255.000000	64.578580 
4254.000000	64.601373 
4253.000000	64.629459 
4252.000000	64.660263 
4251.000000	64.692234 
4250.000000	64.724731 
4249.000000	64.757490 
4248.000000	64.790105 
4247.000000	64.821767 
4246.000000	64.851093 
4245.000000	64.876580 
4244.000000	64.896774 
4243.000000	64.911413 
4242.000000	64.920854 
4241.000000	64.926719 
4240.000000	64.930748 
4239.000000	64.934682 
4238.000000	64.939427 
4237.000000	64.944863 
4236.000000	64.950037 
4235.000000	64.953684 
4234.000000	64.954519 
4233.000000	64.952158 
4232.000000	64.946699 
4231.000000	64.938855 
4230.000000	64.929580 
4229.000000	64.919948 
4228.000000	64.910340 
4227.000000	64.900588 
4226.000000	64.890193 
4225.000000	64.878487 
4224.000000	64.864969 
4223.000000	64.849400 
4222.000000	64.831924 
4221.000000	64.813065 
4220.000000	64.793229 
4219.000000	64.772772 
4218.000000	64.751815 
4217.000000	64.730715 
4216.000000	64.710330 
4215.000000	64.691901 
4214.000000	64.677071 
4213.000000	64.667415 
4212.000000	64.664101 
4211.000000	64.667510 
4210.000000	64.676594 
4209.000000	64.689850 
4208.000000	64.705705 
4207.000000	64.723205 
4206.000000	64.742350 
4205.000000	64.763545 
4204.000000	64.787578 
4203.000000	64.814496 
4202.000000	64.843106 
4201.000000	64.870715 
4200.000000	64.893651 
4199.000000	64.908194 
4198.000000	64.911890 
4197.000000	64.905142 
4196.000000	64.891505 
4195.000000	64.877629 
4194.000000	64.871287 
4193.000000	64.879488 
4192.000000	64.906072 
4191.000000	64.950680 
4190.000000	65.008068 
4189.000000	65.069389 
4188.000000	65.123701 
4187.000000	65.161395 
4186.000000	65.176010 
4185.000000	65.165710 
4184.000000	65.133619 
4183.000000	65.086531 
4182.000000	65.033650 
4181.000000	64.983940 
4180.000000	64.944601 
4179.000000	64.919829 
4178.000000	64.910602 
4177.000000	64.915442 
4176.000000	64.930748 
4175.000000	64.952516 
4174.000000	64.975953 
4173.000000	64.996528 
4172.000000	65.009999 
4171.000000	65.013194 
4170.000000	65.004491 
4169.000000	64.984583 
4168.000000	64.956426 
4167.000000	64.925074 
4166.000000	64.897036 
4165.000000	64.878535 
4164.000000	64.874291 
4163.000000	64.885759 
4162.000000	64.911007 
4161.000000	64.944410 
4160.000000	64.978528 
4159.000000	65.005302 
4158.000000	65.018320 
4157.000000	65.013885 
4156.000000	64.991831 
4155.000000	64.955282 
4154.000000	64.909458 
4153.000000	64.860987 
4152.000000	64.815711 
4151.000000	64.779186 
4150.000000	64.755773 
4149.000000	64.748954 
4148.000000	64.761376 
4147.000000	64.794182 
4146.000000	64.846754 
4145.000000	64.915919 
4144.000000	64.995908 
4143.000000	65.078425 
4142.000000	65.153980 
4141.000000	65.213346 
4140.000000	65.249633 
4139.000000	65.259647 
4138.000000	65.244770 
4137.000000	65.211176 
4136.000000	65.167832 
4135.000000	65.124583 
4134.000000	65.089702 
4133.000000	65.068531 
4132.000000	65.062379 
4131.000000	65.069413 
4130.000000	65.085077 
4129.000000	65.104365 
4128.000000	65.122318 
4127.000000	65.135455 
4126.000000	65.141773 
4125.000000	65.140271 
4124.000000	65.131139 
4123.000000	65.114974 
4122.000000	65.093064 
4121.000000	65.067219 
4120.000000	65.039563 
4119.000000	65.012550 
4118.000000	64.989066 
4117.000000	64.972043 
4116.000000	64.963984 
4115.000000	64.966750 
4114.000000	64.980912 
4113.000000	65.005683 
4112.000000	65.039467 
4111.000000	65.079975 
4110.000000	65.124201 
4109.000000	65.168762 
4108.000000	65.210461 
4107.000000	65.246009 
4106.000000	65.272068 
4105.000000	65.285420 
4104.000000	65.283417 
4103.000000	65.264606 
4102.000000	65.229272 
4101.000000	65.179729 
4100.000000	65.120530 
4099.000000	65.057969 
4098.000000	64.999461 
4097.000000	64.952111 
4096.000000	64.921426 
4095.000000	64.910650 
4094.000000	64.919996 
4093.000000	64.946889 
4092.000000	64.986348 
4091.000000	65.032362 
4090.000000	65.078973 
4089.000000	65.120911 
4088.000000	65.154314 
4087.000000	65.176963 
4086.000000	65.188241 
4085.000000	65.188646 
4084.000000	65.179371 
4083.000000	65.162062 
4082.000000	65.138363 
4081.000000	65.110182 
4080.000000	65.079164 
4079.000000	65.046882 
4078.000000	65.014457 
4077.000000	64.983105 
4076.000000	64.953994 
4075.000000	64.927697 
4074.000000	64.905309 
4073.000000	64.888119 
4072.000000	64.878106 
4071.000000	64.877223 
4070.000000	64.887714 
4069.000000	64.910912 
4068.000000	64.947485 
4067.000000	64.996552 
4066.000000	65.055847 
4065.000000	65.121793 
4064.000000	65.190243 
4063.000000	65.257024 
4062.000000	65.318703 
4061.000000	65.372633 
4060.000000	65.417408 
4059.000000	65.452098 
4058.000000	65.476369 
4057.000000	65.489315 
4056.000000	65.489912 
4055.000000	65.476393 
4054.000000	65.447425 
4053.000000	65.401744 
4052.000000	65.340089 
4051.000000	65.264558 
4050.000000	65.179038 
4049.000000	65.088939 
4048.000000	65.000557 
4047.000000	64.920210 
4046.000000	64.853215 
4045.000000	64.803457 
4044.000000	64.772725 
4043.000000	64.761090 
4042.000000	64.766573 
4041.000000	64.785957 
4040.000000	64.815068 
4039.000000	64.849591 
4038.000000	64.885449 
4037.000000	64.919304 
4036.000000	64.948606 
4035.000000	64.972281 
4034.000000	64.990329 
4033.000000	65.003633 
4032.000000	65.013313 
4031.000000	65.020513 
4030.000000	65.025806 
4029.000000	65.029025 
4028.000000	65.029168 
4027.000000	65.025019 
4026.000000	65.015506 
4025.000000	65.000343 
4024.000000	64.980125 
4023.000000	64.956736 
4022.000000	64.932632 
4021.000000	64.910697 
4020.000000	64.893555 
4019.000000	64.882707 
4018.000000	64.878606 
4017.000000	64.880681 
4016.000000	64.887523 
4015.000000	64.897203 
4014.000000	64.908146 
4013.000000	64.919424 
4012.000000	64.930343 
4011.000000	64.940571 
4010.000000	64.949750 
4009.000000	64.957427 
4008.000000	64.963364 
4007.000000	64.967584 
4006.000000	64.970517 
4005.000000	64.972758 
4004.000000	64.975214 
4003.000000	64.978599 
4002.000000	64.983367 
4001.000000	64.989280 
4000.000000	64.995384 
3999.000000	65.000176 
3998.000000	65.001940 
3997.000000	64.998888 
3996.000000	64.989948 
3995.000000	64.974665 
3994.000000	64.953255 
3993.000000	64.926791 
3992.000000	64.896821 
3991.000000	64.865779 
3990.000000	64.836239 
3989.000000	64.811611 
3988.000000	64.795160 
3987.000000	64.790129 
3986.000000	64.798855 
3985.000000	64.822125 
3984.000000	64.858722 
3983.000000	64.905142 
3982.000000	64.956283 
3981.000000	65.006232 
3980.000000	65.049862 
3979.000000	65.083885 
3978.000000	65.107607 
3977.000000	65.123105 
3976.000000	65.134096 
3975.000000	65.144944 
3974.000000	65.158867 
3973.000000	65.176844 
3972.000000	65.197038 
3971.000000	65.215563 
3970.000000	65.226960 
3969.000000	65.226602 
3968.000000	65.211772 
3967.000000	65.183115 
3966.000000	65.144538 
3965.000000	65.102839 
3964.000000	65.065693 
3963.000000	65.039873 
3962.000000	65.029501 
3961.000000	65.035176 
3960.000000	65.054130 
3959.000000	65.081095 
3958.000000	65.110135 
3957.000000	65.136384 
3956.000000	65.157079 
3955.000000	65.172052 
3954.000000	65.183210 
3953.000000	65.193223 
3952.000000	65.204143 
3951.000000	65.216112 
3950.000000	65.227556 
3949.000000	65.235257 
3948.000000	65.235710 
3947.000000	65.226316 
3946.000000	65.206813 
3945.000000	65.179228 
3944.000000	65.147995 
3943.000000	65.118002 
3942.000000	65.093517 
3941.000000	65.076613 
3940.000000	65.066528 
3939.000000	65.060353 
3938.000000	65.053892 
3937.000000	65.043234 
3936.000000	65.026164 
3935.000000	65.002799 
3934.000000	64.975476 
3933.000000	64.947986 
3932.000000	64.924192 
3931.000000	64.906811 
3930.000000	64.896488 
3929.000000	64.891743 
3928.000000	64.889526 
3927.000000	64.886283 
3926.000000	64.879202 
3925.000000	64.866900 
3924.000000	64.850187 
3923.000000	64.831638 
3922.000000	64.815497 
3921.000000	64.805555 
3920.000000	64.805006 
3919.000000	64.815306 
3918.000000	64.835953 
3917.000000	64.864706 
3916.000000	64.897894 
3915.000000	64.931249 
3914.000000	64.960837 
3913.000000	64.983344 
3912.000000	64.997220 
3911.000000	65.002369 
3910.000000	65.000510 
3909.000000	64.994502 
3908.000000	64.987969 
3907.000000	64.984369 
3906.000000	64.986443 
3905.000000	64.995861 
3904.000000	65.012645 
3903.000000	65.035295 
3902.000000	65.061068 
3901.000000	65.086531 
3900.000000	65.108036 
3899.000000	65.122294 
3898.000000	65.126991 
3897.000000	65.121221 
3896.000000	65.105390 
3895.000000	65.081286 
3894.000000	65.051651 
3893.000000	65.019822 
3892.000000	64.989447 
3891.000000	64.963531 
3890.000000	64.944505 
3889.000000	64.933300 
3888.000000	64.929342 
3887.000000	64.930605 
3886.000000	64.934086 
3885.000000	64.936566 
3884.000000	64.935159 
3883.000000	64.928388 
3882.000000	64.916205 
3881.000000	64.900469 
3880.000000	64.884543 
3879.000000	64.872312 
3878.000000	64.867210 
3877.000000	64.871430 
3876.000000	64.885520 
3875.000000	64.908051 
3874.000000	64.936041 
3873.000000	64.965820 
3872.000000	64.993834 
3871.000000	65.017366 
3870.000000	65.034985 
3869.000000	65.046429 
3868.000000	65.052509 
3867.000000	65.054392 
3866.000000	65.053582 
3865.000000	65.051031 
3864.000000	65.047883 
3863.000000	65.045189 
3862.000000	65.044331 
3861.000000	65.047073 
3860.000000	65.055179 
3859.000000	65.070509 
3858.000000	65.093541 
3857.000000	65.123391 
3856.000000	65.157175 
3855.000000	65.190601 
3854.000000	65.218734 
3853.000000	65.237259 
3852.000000	65.243411 
3851.000000	65.236687 
3850.000000	65.218734 
3849.000000	65.192914 
3848.000000	65.163350 
3847.000000	65.133976 
3846.000000	65.107941 
3845.000000	65.086984 
3844.000000	65.071868 
3843.000000	65.062284 
3842.000000	65.057682 
3841.000000	65.057325 
3840.000000	65.060567 
3839.000000	65.066790 
3838.000000	65.075373 
3837.000000	65.085434 
3836.000000	65.095782 
3835.000000	65.105223 
3834.000000	65.112566 
3833.000000	65.116953 
3832.000000	65.118241 
3831.000000	65.116643 
3830.000000	65.112781 
3829.000000	65.107297 
3828.000000	65.100479 
3827.000000	65.092635 
3826.000000	65.084123 
3825.000000	65.075469 
3824.000000	65.067362 
3823.000000	65.060830 
3822.000000	65.056991 
3821.000000	65.056633 
3820.000000	65.059995 
3819.000000	65.066528 
3818.000000	65.075039 
3817.000000	65.083813 
3816.000000	65.091109 
3815.000000	65.095281 
3814.000000	65.095400 
3813.000000	65.091705 
3812.000000	65.085387 
3811.000000	65.078353 
3810.000000	65.072751 
3809.000000	65.070676 
3808.000000	65.073227 
3807.000000	65.080547 
3806.000000	65.091156 
3805.000000	65.102744 
3804.000000	65.111994 
3803.000000	65.115594 
3802.000000	65.110564 
3801.000000	65.095186 
3800.000000	65.069365 
3799.000000	65.034604 
3798.000000	64.994287 
3797.000000	64.952802 
3796.000000	64.915084 
3795.000000	64.885330 
3794.000000	64.866590 
3793.000000	64.860272 
3792.000000	64.865827 
3791.000000	64.881086 
3790.000000	64.902639 
3789.000000	64.926815 
3788.000000	64.950227 
3787.000000	64.970374 
3786.000000	64.986038 
3785.000000	64.997291 
3784.000000	65.004801 
3783.000000	65.009975 
3782.000000	65.014004 
3781.000000	65.017819 
3780.000000	65.021967 
3779.000000	65.026664 
3778.000000	65.031933 
3777.000000	65.037918 
3776.000000	65.044832 
3775.000000	65.053153 
3774.000000	65.063548 
3773.000000	65.076708 
3772.000000	65.093231 
3771.000000	65.113282 
3770.000000	65.136575 
3769.000000	65.162134 
3768.000000	65.188431 
3767.000000	65.213608 
3766.000000	65.235662 
3765.000000	65.252923 
3764.000000	65.264439 
3763.000000	65.269923 
3762.000000	65.270161 
3761.000000	65.266990 
3760.000000	65.262699 
3759.000000	65.259647 
3758.000000	65.259456 
3757.000000	65.262794 
3756.000000	65.269088 
3755.000000	65.276598 
3754.000000	65.283012 
3753.000000	65.286231 
3752.000000	65.284752 
3751.000000	65.278458 
3750.000000	65.268325 
3749.000000	65.256261 
3748.000000	65.244579 
3747.000000	65.235209 
3746.000000	65.229558 
3745.000000	65.228033 
3744.000000	65.230202 
3743.000000	65.235114 
3742.000000	65.241336 
3741.000000	65.247201 
3740.000000	65.250873 
3739.000000	65.250396 
3738.000000	65.243482 
3737.000000	65.227937 
3736.000000	65.201687 
3735.000000	65.163683 
3734.000000	65.114402 
3733.000000	65.056705 
3732.000000	64.995408 
3731.000000	64.936947 
3730.000000	64.888429 
3729.000000	64.856195 
3728.000000	64.844274 
3727.000000	64.853930 
3726.000000	64.882802 
3725.000000	64.926052 
3724.000000	64.977002 
3723.000000	65.028929 
3722.000000	65.075969 
3721.000000	65.114688 
3720.000000	65.143966 
3719.000000	65.164875 
3718.000000	65.179657 
3717.000000	65.190887 
3716.000000	65.200495 
3715.000000	65.209269 
3714.000000	65.216922 
3713.000000	65.222406 
3712.000000	65.224647 
3711.000000	65.223097 
3710.000000	65.218019 
3709.000000	65.210580 
3708.000000	65.202569 
3707.000000	65.195894 
3706.000000	65.192008 
3705.000000	65.191793 
3704.000000	65.195250 
3703.000000	65.201592 
3702.000000	65.209722 
3701.000000	65.218615 
3700.000000	65.227484 
3699.000000	65.235900 
3698.000000	65.243864 
3697.000000	65.251493 
3696.000000	65.259075 
3695.000000	65.267014 
3694.000000	65.275621 
3693.000000	65.284967 
3692.000000	65.294861 
3691.000000	65.305042 
3690.000000	65.314912 
3689.000000	65.323472 
3688.000000	65.329694 
3687.000000	65.332698 
3686.000000	65.331840 
3685.000000	65.327048 
3684.000000	65.318918 
3683.000000	65.308809 
3682.000000	65.298628 
3681.000000	65.290665 
3680.000000	65.287256 
3679.000000	65.289831 
3678.000000	65.299129 
3677.000000	65.314078 
3676.000000	65.332245 
3675.000000	65.349674 
3674.000000	65.361785 
3673.000000	65.364146 
3672.000000	65.353226 
3671.000000	65.327382 
3670.000000	65.287375 
3669.000000	65.236496 
3668.000000	65.179991 
3667.000000	65.124249 
3666.000000	65.075612 
3665.000000	65.039038 
3664.000000	65.017175 
3663.000000	65.009975 
3662.000000	65.014910 
3661.000000	65.027785 
3660.000000	65.043663 
3659.000000	65.058159 
3658.000000	65.068244 
3657.000000	65.072989 
3656.000000	65.073561 
3655.000000	65.072345 
3654.000000	65.072321 
3653.000000	65.076088 
3652.000000	65.085434 
3651.000000	65.100646 
3650.000000	65.120697 
3649.000000	65.143847 
3648.000000	65.167927 
3647.000000	65.191102 
3646.000000	65.211915 
3645.000000	65.229439 
3644.000000	65.243315 
3643.000000	65.253520 
3642.000000	65.260338 
3641.000000	65.264296 
3640.000000	65.266299 
3639.000000	65.267825 
3638.000000	65.270400 
3637.000000	65.275526 
3636.000000	65.284299 
3635.000000	65.297079 
3634.000000	65.312814 
3633.000000	65.328931 
3632.000000	65.341663 
3631.000000	65.346860 
3630.000000	65.340614 
3629.000000	65.320229 
3628.000000	65.284895 
3627.000000	65.235948 
3626.000000	65.176939 
3625.000000	65.112900 
3624.000000	65.049242 
3623.000000	64.991259 
3622.000000	64.943051 
3621.000000	64.907336 
3620.000000	64.885210 
3619.000000	64.876484 
3618.000000	64.880156 
3617.000000	64.894485 
3616.000000	64.917230 
3615.000000	64.946174 
3614.000000	64.978575 
3613.000000	65.011882 
3612.000000	65.043139 
3611.000000	65.069913 
3610.000000	65.090346 
3609.000000	65.103816 
3608.000000	65.110826 
3607.000000	65.112829 
3606.000000	65.111899 
3605.000000	65.110135 
3604.000000	65.108990 
3603.000000	65.108704 
3602.000000	65.108370 
3601.000000	65.106248 
3600.000000	65.100240 
3599.000000	65.089035 
3598.000000	65.072393 
3597.000000	65.051770 
3596.000000	65.030002 
3595.000000	65.010595 
3594.000000	64.997029 
3593.000000	64.991950 
3592.000000	64.996385 
3591.000000	65.009546 
3590.000000	65.029072 
3589.000000	65.051722 
3588.000000	65.074086 
3587.000000	65.093207 
3586.000000	65.107250 
3585.000000	65.115547 
3584.000000	65.118813 
3583.000000	65.118718 
3582.000000	65.117335 
3581.000000	65.116500 
3580.000000	65.117526 
3579.000000	65.120887 
3578.000000	65.126204 
3577.000000	65.132093 
3576.000000	65.136766 
3575.000000	65.138339 
3574.000000	65.135264 
3573.000000	65.126633 
3572.000000	65.112757 
3571.000000	65.095067 
3570.000000	65.075850 
3569.000000	65.057945 
3568.000000	65.044188 
3567.000000	65.036773 
3566.000000	65.036821 
3565.000000	65.044045 
3564.000000	65.057110 
3563.000000	65.073704 
3562.000000	65.091085 
3561.000000	65.106701 
3560.000000	65.118408 
3559.000000	65.125012 
3558.000000	65.126132 
3557.000000	65.122365 
3556.000000	65.114974 
3555.000000	65.105676 
3554.000000	65.096044 
3553.000000	65.087270 
3552.000000	65.080022 
3551.000000	65.074229 
3550.000000	65.069460 
3549.000000	65.064883 
3548.000000	65.059733 
3547.000000	65.053367 
3546.000000	65.045523 
3545.000000	65.036225 
3544.000000	65.025711 
3543.000000	65.014195 
3542.000000	65.001916 
3541.000000	64.988756 
3540.000000	64.974498 
3539.000000	64.958977 
3538.000000	64.942336 
3537.000000	64.924979 
3536.000000	64.907717 
3535.000000	64.891839 
3534.000000	64.878654 
3533.000000	64.869141 
3532.000000	64.863801 
3531.000000	64.862322 
3530.000000	64.864182 
3529.000000	64.868664 
3528.000000	64.875173 
3527.000000	64.883542 
3526.000000	64.893913 
3525.000000	64.906620 
3524.000000	64.921855 
3523.000000	64.939379 
3522.000000	64.958429 
3521.000000	64.977836 
3520.000000	64.996218 
3519.000000	65.012359 
3518.000000	65.025258 
3517.000000	65.034580 
3516.000000	65.040731 
3515.000000	65.044593 
3514.000000	65.047430 
3513.000000	65.050506 
3512.000000	65.054726 
3511.000000	65.060496 
3510.000000	65.067744 
3509.000000	65.075874 
3508.000000	65.084171 
3507.000000	65.091609 
3506.000000	65.097403 
3505.000000	65.100932 
3504.000000	65.101861 
3503.000000	65.100145 
3502.000000	65.095996 
3501.000000	65.089631 
3500.000000	65.081214 
3499.000000	65.070652 
3498.000000	65.057635 
3497.000000	65.041613 
3496.000000	65.022134 
3495.000000	64.999580 
3494.000000	64.975166 
3493.000000	64.950942 
3492.000000	64.929580 
3491.000000	64.913511 
3490.000000	64.904546 
3489.000000	64.903092 
3488.000000	64.908075 
3487.000000	64.917063 
3486.000000	64.926791 
3485.000000	64.934062 
3484.000000	64.936184 
3483.000000	64.931678 
3482.000000	64.920353 
3481.000000	64.903235 
3480.000000	64.882135 
3479.000000	64.859199 
3478.000000	64.836263 
3477.000000	64.814686 
3476.000000	64.795112 
3475.000000	64.777708 
3474.000000	64.762163 
3473.000000	64.748263 
3472.000000	64.735841 
3471.000000	64.724898 
3470.000000	64.715695 
3469.000000	64.708733 
3468.000000	64.704799 
3467.000000	64.704942 
3466.000000	64.710211 
3465.000000	64.721703 
3464.000000	64.740204 
3463.000000	64.766049 
3462.000000	64.798736 
3461.000000	64.837026 
3460.000000	64.878726 
3459.000000	64.921021 
3458.000000	64.961123 
3457.000000	64.996004 
3456.000000	65.023255 
3455.000000	65.040993 
3454.000000	65.048503 
3453.000000	65.046143 
3452.000000	65.035271 
3451.000000	65.018129 
3450.000000	64.997601 
3449.000000	64.976620 
3448.000000	64.957714 
3447.000000	64.942932 
3446.000000	64.933705 
3445.000000	64.930486 
3444.000000	64.932990 
3443.000000	64.940309 
3442.000000	64.951133 
3441.000000	64.963603 
3440.000000	64.975666 
3439.000000	64.985251 
3438.000000	64.990425 
3437.000000	64.989709 
3436.000000	64.982628 
3435.000000	64.969563 
3434.000000	64.952182 
3433.000000	64.933180 
3432.000000	64.915871 
3431.000000	64.903450 
3430.000000	64.898276 
3429.000000	64.901447 
3428.000000	64.912486 
3427.000000	64.928960 
3426.000000	64.947843 
3425.000000	64.965939 
3424.000000	64.980983 
3423.000000	64.992022 
3422.000000	64.999747 
3421.000000	65.006017 
3420.000000	65.013241 
3419.000000	65.023446 
3418.000000	65.037655 
3417.000000	65.055251 
3416.000000	65.074396 
3415.000000	65.092349 
3414.000000	65.106248 
3413.000000	65.113687 
3412.000000	65.113496 
3411.000000	65.106010 
3410.000000	65.092730 
3409.000000	65.075969 
3408.000000	65.058088 
3407.000000	65.040707 
3406.000000	65.024614 
3405.000000	65.009522 
3404.000000	64.994454 
3403.000000	64.978361 
3402.000000	64.960622 
3401.000000	64.941787 
3400.000000	64.923191 
3399.000000	64.907121 
3398.000000	64.896059 
3397.000000	64.891982 
3396.000000	64.895701 
3395.000000	64.906501 
3394.000000	64.922070 
3393.000000	64.939117 
3392.000000	64.953994 
3391.000000	64.963865 
3390.000000	64.967179 
3389.000000	64.964246 
3388.000000	64.956951 
3387.000000	64.948248 
3386.000000	64.941120 
3385.000000	64.937877 
3384.000000	64.939332 
3383.000000	64.944839 
3382.000000	64.952445 
3381.000000	64.959621 
3380.000000	64.963817 
3379.000000	64.963269 
3378.000000	64.957356 
3377.000000	64.946651 
3376.000000	64.932537 
3375.000000	64.916658 
3374.000000	64.900588 
3373.000000	64.885401 
3372.000000	64.871716 
3371.000000	64.859747 
3370.000000	64.849758 
3369.000000	64.842271 
3368.000000	64.838266 
3367.000000	64.838790 
3366.000000	64.844894 
3365.000000	64.857077 
3364.000000	64.874935 
3363.000000	64.896821 
3362.000000	64.920091 
3361.000000	64.941787 
3360.000000	64.959096 
3359.000000	64.970159 
3358.000000	64.974522 
3357.000000	64.973020 
3356.000000	64.967513 
3355.000000	64.960289 
3354.000000	64.953637 
3353.000000	64.949083 
3352.000000	64.947175 
3351.000000	64.947295 
3350.000000	64.948272 
3349.000000	64.948630 
3348.000000	64.946842 
3347.000000	64.941740 
3346.000000	64.932703 
3345.000000	64.919900 
3344.000000	64.903855 
3343.000000	64.885902 
3342.000000	64.867663 
3341.000000	64.851379 
3340.000000	64.839506 
3339.000000	64.834523 
3338.000000	64.838361 
3337.000000	64.851975 
3336.000000	64.874935 
3335.000000	64.905095 
3334.000000	64.938950 
3333.000000	64.972424 
3332.000000	65.001535 
3331.000000	65.023326 
3330.000000	65.036535 
3329.000000	65.041875 
3328.000000	65.041851 
3327.000000	65.039944 
3326.000000	65.039920 
3325.000000	65.044879 
3324.000000	65.056729 
3323.000000	65.075922 
3322.000000	65.101027 
3321.000000	65.129685 
3320.000000	65.158438 
3319.000000	65.184211 
3318.000000	65.204143 
3317.000000	65.216374 
3316.000000	65.220069 
3315.000000	65.215373 
3314.000000	65.203452 
3313.000000	65.186142 
3312.000000	65.165710 
3311.000000	65.144753 
3310.000000	65.125584 
3309.000000	65.110158 
3308.000000	65.099596 
3307.000000	65.094280 
3306.000000	65.093612 
3305.000000	65.096378 
3304.000000	65.100836 
3303.000000	65.105199 
3302.000000	65.107989 
3301.000000	65.108442 
3300.000000	65.106391 
3299.000000	65.102529 
3298.000000	65.098118 
3297.000000	65.094709 
3296.000000	65.093421 
3295.000000	65.094780 
3294.000000	65.098571 
3293.000000	65.103721 
3292.000000	65.108585 
3291.000000	65.111303 
3290.000000	65.110492 
3289.000000	65.105342 
3288.000000	65.095901 
3287.000000	65.083336 
3286.000000	65.069580 
3285.000000	65.056896 
3284.000000	65.047359 
3283.000000	65.042328 
3282.000000	65.042281 
3281.000000	65.046691 
3280.000000	65.054225 
3279.000000	65.063095 
3278.000000	65.071535 
3277.000000	65.078282 
3276.000000	65.082502 
3275.000000	65.083885 
3274.000000	65.082263 
3273.000000	65.077662 
3272.000000	65.069913 
3271.000000	65.058898 
3270.000000	65.044474 
3269.000000	65.026903 
3268.000000	65.006875 
3267.000000	64.985513 
3266.000000	64.964413 
3265.000000	64.945435 
3264.000000	64.930367 
3263.000000	64.920425 
3262.000000	64.916038 
3261.000000	64.916801 
3260.000000	64.921569 
3259.000000	64.928650 
3258.000000	64.936208 
3257.000000	64.942646 
3256.000000	64.946722 
3255.000000	64.947724 
3254.000000	64.945459 
3253.000000	64.940381 
3252.000000	64.933419 
3251.000000	64.925765 
3250.000000	64.918780 
3249.000000	64.913606 
3248.000000	64.910626 
3247.000000	64.909744 
3246.000000	64.910030 
3245.000000	64.910387 
3244.000000	64.909839 
3243.000000	64.908051 
3242.000000	64.905548 
3241.000000	64.903736 
3240.000000	64.904332 
3239.000000	64.909052 
3238.000000	64.918780 
3237.000000	64.933347 
3236.000000	64.951062 
3235.000000	64.969348 
3234.000000	64.985299 
3233.000000	64.996337 
3232.000000	65.001082 
3231.000000	64.999604 
3230.000000	64.993476 
3229.000000	64.984869 
3228.000000	64.976048 
3227.000000	64.968585 
3226.000000	64.963006 
3225.000000	64.958882 
3224.000000	64.955234 
3223.000000	64.951205 
3222.000000	64.946579 
3221.000000	64.941906 
3220.000000	64.938473 
3219.000000	64.937734 
3218.000000	64.941096 
3217.000000	64.949274 
3216.000000	64.962387 
3215.000000	64.979481 
3214.000000	64.999246 
3213.000000	65.020012 
3212.000000	65.040087 
3211.000000	65.058279 
3210.000000	65.073490 
3209.000000	65.085196 
3208.000000	65.092921 
3207.000000	65.096306 
3206.000000	65.095043 
3205.000000	65.089082 
3204.000000	65.078687 
3203.000000	65.064859 
3202.000000	65.049076 
3201.000000	65.033364 
3200.000000	65.019989 
3199.000000	65.010833 
3198.000000	65.007114 
3197.000000	65.008854 
3196.000000	65.014958 
3195.000000	65.023255 
3194.000000	65.030860 
3193.000000	65.034961 
3192.000000	65.033411 
3191.000000	65.025377 
3190.000000	65.011811 
3189.000000	64.995026 
3188.000000	64.978361 
3187.000000	64.965152 
3186.000000	64.957690 
3185.000000	64.956593 
3184.000000	64.960551 
3183.000000	64.966750 
3182.000000	64.972043 
3181.000000	64.973521 
3180.000000	64.969587 
3179.000000	64.960598 
3178.000000	64.948940 
3177.000000	64.938020 
3176.000000	64.931368 
3175.000000	64.931607 
3174.000000	64.939570 
3173.000000	64.954137 
3172.000000	64.972400 
3171.000000	64.990782 
3170.000000	65.006065 
3169.000000	65.016174 
3168.000000	65.020728 
3167.000000	65.020751 
3166.000000	65.018296 
3165.000000	65.015578 
3164.000000	65.014505 
3163.000000	65.016269 
3162.000000	65.021038 
3161.000000	65.028524 
3160.000000	65.037679 
3159.000000	65.047240 
3158.000000	65.055394 
3157.000000	65.060400 
3156.000000	65.060496 
3155.000000	65.054178 
3154.000000	65.040421 
3153.000000	65.019106 
3152.000000	64.991164 
3151.000000	64.958739 
3150.000000	64.924740 
3149.000000	64.892578 
3148.000000	64.865159 
3147.000000	64.844536 
3146.000000	64.831185 
3145.000000	64.824247 
3144.000000	64.821910 
3143.000000	64.822125 
3142.000000	64.823246 
3141.000000	64.824604 
3140.000000	64.826488 
3139.000000	64.829993 
3138.000000	64.836406 
3137.000000	64.846587 
3136.000000	64.860677 
3135.000000	64.877843 
3134.000000	64.896368 
3133.000000	64.914178 
3132.000000	64.928913 
3131.000000	64.938759 
3130.000000	64.942884 
3129.000000	64.941191 
3128.000000	64.934515 
3127.000000	64.924383 
3126.000000	64.912724 
3125.000000	64.901399 
3124.000000	64.892005 
3123.000000	64.885616 
3122.000000	64.882898 
3121.000000	64.883780 
3120.000000	64.887523 
3119.000000	64.892888 
3118.000000	64.898562 
3117.000000	64.903593 
3116.000000	64.907670 
3115.000000	64.911127 
3114.000000	64.914894 
3113.000000	64.920258 
3112.000000	64.928269 
3111.000000	64.939284 
3110.000000	64.952802 
3109.000000	64.967870 
3108.000000	64.982914 
3107.000000	64.996409 
3106.000000	65.007495 
3105.000000	65.015935 
3104.000000	65.022277 
3103.000000	65.027785 
3102.000000	65.033888 
3101.000000	65.041899 
3100.000000	65.052556 
3099.000000	65.065836 
3098.000000	65.081048 
3097.000000	65.097093 
3096.000000	65.112471 
3095.000000	65.125703 
3094.000000	65.135192 
3093.000000	65.139293 
3092.000000	65.136337 
3091.000000	65.124988 
3090.000000	65.104365 
3089.000000	65.074563 
3088.000000	65.036916 
3087.000000	64.994144 
3086.000000	64.950013 
3085.000000	64.909100 
3084.000000	64.875721 
3083.000000	64.853453 
3082.000000	64.844202 
3081.000000	64.848160 
3080.000000	64.863467 
3079.000000	64.887070 
3078.000000	64.915251 
3077.000000	64.944267 
3076.000000	64.970898 
3075.000000	64.992976 
3074.000000	65.008926 
3073.000000	65.018224 
3072.000000	65.020680 
3071.000000	65.016794 
3070.000000	65.007400 
3069.000000	64.994001 
3068.000000	64.978551 
3067.000000	64.963245 
3066.000000	64.950251 
3065.000000	64.941096 
3064.000000	64.936470 
3063.000000	64.935922 
3062.000000	64.938187 
3061.000000	64.941334 
3060.000000	64.943552 
3059.000000	64.943623 
3058.000000	64.941477 
3057.000000	64.938330 
3056.000000	64.936089 
3055.000000	64.936661 
3054.000000	64.941525 
3053.000000	64.950871 
3052.000000	64.963769 
3051.000000	64.978218 
3050.000000	64.991927 
3049.000000	65.003252 
3048.000000	65.011286 
3047.000000	65.016627 
3046.000000	65.020775 
3045.000000	65.025591 
3044.000000	65.032505 
3043.000000	65.042018 
3042.000000	65.053153 
3041.000000	65.063714 
3040.000000	65.070915 
3039.000000	65.072178 
3038.000000	65.066027 
3037.000000	65.052771 
3036.000000	65.034294 
3035.000000	65.013575 
3034.000000	64.994215 
3033.000000	64.979243 
3032.000000	64.970517 
3031.000000	64.968228 
3030.000000	64.971113 
3029.000000	64.976692 
3028.000000	64.982461 
3027.000000	64.986276 
3026.000000	64.986777 
3025.000000	64.984035 
3024.000000	64.979195 
3023.000000	64.974260 
3022.000000	64.971089 
3021.000000	64.971160 
3020.000000	64.975023 
3019.000000	64.982247 
3018.000000	64.991307 
3017.000000	65.000343 
3016.000000	65.007543 
3015.000000	65.011644 
3014.000000	65.012288 
3013.000000	65.010070 
3012.000000	65.006518 
3011.000000	65.003657 
3010.000000	65.003561 
3009.000000	65.007829 
3008.000000	65.017104 
3007.000000	65.031194 
3006.000000	65.048837 
3005.000000	65.067839 
3004.000000	65.085363 
3003.000000	65.099000 
3002.000000	65.106558 
3001.000000	65.106558 
3000.000000	65.098214 
2999.000000	65.081858 
2998.000000	65.058493 
2997.000000	65.030074 
2996.000000	64.998602 
2995.000000	64.966225 
2994.000000	64.934682 
2993.000000	64.905405 
2992.000000	64.879250 
2991.000000	64.856576 
2990.000000	64.837431 
2989.000000	64.821743 
2988.000000	64.809465 
2987.000000	64.800453 
2986.000000	64.794659 
2985.000000	64.792084 
2984.000000	64.792561 
2983.000000	64.795756 
2982.000000	64.801406 
2981.000000	64.809441 
2980.000000	64.820027 
2979.000000	64.833593 
2978.000000	64.850831 
2977.000000	64.872455 
2976.000000	64.898777 
2975.000000	64.929056 
2974.000000	64.961647 
2973.000000	64.993572 
2972.000000	65.021252 
2971.000000	65.040874 
2970.000000	65.049457 
2969.000000	65.045428 
2968.000000	65.029263 
2967.000000	65.003275 
2966.000000	64.971184 
2965.000000	64.937329 
2964.000000	64.906001 
2963.000000	64.880442 
2962.000000	64.862489 
2961.000000	64.852404 
2960.000000	64.849400 
2959.000000	64.851737 
2958.000000	64.857339 
2957.000000	64.864182 
2956.000000	64.870858 
2955.000000	64.876365 
2954.000000	64.880156 
2953.000000	64.882063 
2952.000000	64.882040 
2951.000000	64.880037 
2950.000000	64.876079 
2949.000000	64.870357 
2948.000000	64.862895 
2947.000000	64.854168 
2946.000000	64.844584 
2945.000000	64.834761 
2944.000000	64.825344 
2943.000000	64.817380 
2942.000000	64.811635 
2941.000000	64.808773 
2940.000000	64.809131 
2939.000000	64.812564 
2938.000000	64.818477 
2937.000000	64.825963 
2936.000000	64.834094 
2935.000000	64.842200 
2934.000000	64.850091 
2933.000000	64.858102 
2932.000000	64.866805 
2931.000000	64.876508 
2930.000000	64.887237 
2929.000000	64.898538 
2928.000000	64.909410 
2927.000000	64.918303 
2926.000000	64.923930 
2925.000000	64.925289 
2924.000000	64.921951 
2923.000000	64.914155 
2922.000000	64.902687 
2921.000000	64.888644 
2920.000000	64.872980 
2919.000000	64.856648 
2918.000000	64.840173 
2917.000000	64.824366 
2916.000000	64.810395 
2915.000000	64.799594 
2914.000000	64.793705 
2913.000000	64.794015 
2912.000000	64.801025 
2911.000000	64.813923 
2910.000000	64.830374 
2909.000000	64.847016 
2908.000000	64.859938 
2907.000000	64.866089 
2906.000000	64.863777 
2905.000000	64.853644 
2904.000000	64.838433 
2903.000000	64.822506 
2902.000000	64.810729 
2901.000000	64.807200 
2900.000000	64.814281 
2899.000000	64.831876 
2898.000000	64.857578 
2897.000000	64.887523 
2896.000000	64.917230 
2895.000000	64.942789 
2894.000000	64.961600 
2893.000000	64.972448 
2892.000000	64.975786 
2891.000000	64.972758 
2890.000000	64.965248 
2889.000000	64.954853 
2888.000000	64.943122 
2887.000000	64.931464 
2886.000000	64.920926 
2885.000000	64.912581 
2884.000000	64.907169 
2883.000000	64.905238 
2882.000000	64.906954 
2881.000000	64.912128 
2880.000000	64.920067 
2879.000000	64.929556 
2878.000000	64.939332 
2877.000000	64.948201 
2876.000000	64.955329 
2875.000000	64.960312 
2874.000000	64.963173 
2873.000000	64.964103 
2872.000000	64.963436 
2871.000000	64.961266 
2870.000000	64.957666 
2869.000000	64.952778 
2868.000000	64.946913 
2867.000000	64.940690 
2866.000000	64.935088 
2865.000000	64.931368 
2864.000000	64.930605 
2863.000000	64.933419 
2862.000000	64.939856 
2861.000000	64.949154 
2860.000000	64.959836 
2859.000000	64.969682 
2858.000000	64.976310 
2857.000000	64.977693 
2856.000000	64.972639 
2855.000000	64.961099 
2854.000000	64.944243 
2853.000000	64.924526 
2852.000000	64.905095 
2851.000000	64.889192 
2850.000000	64.879512 
2849.000000	64.877939 
2848.000000	64.884948 
2847.000000	64.899706 
2846.000000	64.920163 
2845.000000	64.943647 
2844.000000	64.967083 
2843.000000	64.987897 
2842.000000	65.004134 
2841.000000	65.014624 
2840.000000	65.019178 
2839.000000	65.018224 
2838.000000	65.013027 
2837.000000	65.004920 
2836.000000	64.995646 
2835.000000	64.987087 
2834.000000	64.980912 
2833.000000	64.978623 
2832.000000	64.981055 
2831.000000	64.988303 
2830.000000	64.999413 
2829.000000	65.012598 
2828.000000	65.025639 
2827.000000	65.036273 
2826.000000	65.042924 
2825.000000	65.044832 
2824.000000	65.042376 
2823.000000	65.036916 
2822.000000	65.030312 
2821.000000	65.024423 
2820.000000	65.020513 
2819.000000	65.018653 
2818.000000	65.017986 
2817.000000	65.016770 
2816.000000	65.013051 
2815.000000	65.005397 
2814.000000	64.993119 
2813.000000	64.976954 
2812.000000	64.958858 
2811.000000	64.941644 
2810.000000	64.928102 
2809.000000	64.920616 
2808.000000	64.920449 
2807.000000	64.927577 
2806.000000	64.940619 
2805.000000	64.957237 
2804.000000	64.974641 
2803.000000	64.990162 
2802.000000	65.001726 
2801.000000	65.008234 
2800.000000	65.009498 
2799.000000	65.006208 
2798.000000	64.999556 
2797.000000	64.991092 
2796.000000	64.982199 
2795.000000	64.973974 
2794.000000	64.967131 
2793.000000	64.961862 
2792.000000	64.957833 
2791.000000	64.954519 
2790.000000	64.951133 
2789.000000	64.947175 
2788.000000	64.942240 
2787.000000	64.936351 
2786.000000	64.929890 
2785.000000	64.923405 
2784.000000	64.917421 
2783.000000	64.912414 
2782.000000	64.908766 
2781.000000	64.906287 
2780.000000	64.904522 
2779.000000	64.903020 
2778.000000	64.901041 
2777.000000	64.897799 
2776.000000	64.892816 
2775.000000	64.885711 
2774.000000	64.877033 
2773.000000	64.867973 
2772.000000	64.860367 
2771.000000	64.856266 
2770.000000	64.857721 
2769.000000	64.866232 
2768.000000	64.882159 
2767.000000	64.904570 
2766.000000	64.931011 
2765.000000	64.958024 
2764.000000	64.981698 
2763.000000	64.998555 
2762.000000	65.006017 
2761.000000	65.003204 
2760.000000	64.991068 
2759.000000	64.972329 
2758.000000	64.950823 
2757.000000	64.930796 
2756.000000	64.916181 
2755.000000	64.909696 
2754.000000	64.912652 
2753.000000	64.924263 
2752.000000	64.942526 
2751.000000	64.964079 
2750.000000	64.985227 
2749.000000	65.002322 
2748.000000	65.012502 
2747.000000	65.014243 
2746.000000	65.007567 
2745.000000	64.994144 
2744.000000	64.976596 
2743.000000	64.958500 
2742.000000	64.943456 
2741.000000	64.934515 
2740.000000	64.933443 
2739.000000	64.940714 
2738.000000	64.955210 
2737.000000	64.974641 
2736.000000	64.995765 
2735.000000	65.015339 
2734.000000	65.030741 
2733.000000	65.040206 
2732.000000	65.043544 
2731.000000	65.041804 
2730.000000	65.037131 
2729.000000	65.032124 
2728.000000	65.028834 
2727.000000	65.028572 
2726.000000	65.031170 
2725.000000	65.035462 
2724.000000	65.039324 
2723.000000	65.040421 
2722.000000	65.036821 
2721.000000	65.027618 
2720.000000	65.013098 
2719.000000	64.994597 
2718.000000	64.974045 
2717.000000	64.953327 
2716.000000	64.933729 
2715.000000	64.915752 
2714.000000	64.899015 
2713.000000	64.882564 
2712.000000	64.865684 
2711.000000	64.848375 
2710.000000	64.831614 
2709.000000	64.817309 
2708.000000	64.807796 
2707.000000	64.805316 
2706.000000	64.811110 
2705.000000	64.825177 
2704.000000	64.846229 
2703.000000	64.872074 
2702.000000	64.899921 
2701.000000	64.927029 
2700.000000	64.951276 
2699.000000	64.971446 
2698.000000	64.987111 
2697.000000	64.998555 
2696.000000	65.006303 
2695.000000	65.010881 
2694.000000	65.012884 
2693.000000	65.012454 
2692.000000	65.009760 
2691.000000	65.004801 
2690.000000	64.997863 
2689.000000	64.989280 
2688.000000	64.979386 
2687.000000	64.968585 
2686.000000	64.957332 
2685.000000	64.946007 
2684.000000	64.935064 
2683.000000	64.925098 
2682.000000	64.916586 
2681.000000	64.910078 
2680.000000	64.905977 
2679.000000	64.904236 
2678.000000	64.904713 
2677.000000	64.906764 
2676.000000	64.909887 
2675.000000	64.913320 
2674.000000	64.916968 
2673.000000	64.920997 
2672.000000	64.926099 
2671.000000	64.933013 
2670.000000	64.942502 
2669.000000	64.954972 
2668.000000	64.970159 
2667.000000	64.986896 
2666.000000	65.003633 
2665.000000	65.018582 
2664.000000	65.030121 
2663.000000	65.037226 
2662.000000	65.039706 
2661.000000	65.038108 
2660.000000	65.033578 
2659.000000	65.027332 
2658.000000	65.020442 
2657.000000	65.013480 
2656.000000	65.006422 
2655.000000	64.998888 
2654.000000	64.990401 
2653.000000	64.980483 
2652.000000	64.969372 
2651.000000	64.957880 
2650.000000	64.947175 
2649.000000	64.938640 
2648.000000	64.933443 
2647.000000	64.932203 
2646.000000	64.934849 
2645.000000	64.940452 
2644.000000	64.947485 
2643.000000	64.954113 
2642.000000	64.958643 
2641.000000	64.959812 
2640.000000	64.956998 
2639.000000	64.950299 
2638.000000	64.940619 
2637.000000	64.929246 
2636.000000	64.917540 
2635.000000	64.906811 
2634.000000	64.898085 
2633.000000	64.891839 
2632.000000	64.888310 
2631.000000	64.887499 
2630.000000	64.889407 
2629.000000	64.894008 
2628.000000	64.901280 
2627.000000	64.911055 
2626.000000	64.922952 
2625.000000	64.936351 
2624.000000	64.950370 
2623.000000	64.963817 
2622.000000	64.975452 
2621.000000	64.984273 
2620.000000	64.989638 
2619.000000	64.991426 
2618.000000	64.989948 
2617.000000	64.986014 
2616.000000	64.980554 
2615.000000	64.974498 
2614.000000	64.968442 
2613.000000	64.962863 
2612.000000	64.958000 
2611.000000	64.954066 
2610.000000	64.951109 
2609.000000	64.949274 
2608.000000	64.948558 
2607.000000	64.948868 
2606.000000	64.949822 
2605.000000	64.950728 
2604.000000	64.950776 
2603.000000	64.949226 
2602.000000	64.945721 
2601.000000	64.940476 
2600.000000	64.934325 
2599.000000	64.928746 
2598.000000	64.925575 
2597.000000	64.926433 
2596.000000	64.932322 
2595.000000	64.943456 
2594.000000	64.959073 
2593.000000	64.977669 
2592.000000	64.997529 
2591.000000	65.016961 
2590.000000	65.034747 
2589.000000	65.050077 
2588.000000	65.062665 
2587.000000	65.072536 
2586.000000	65.079641 
2585.000000	65.083909 
2584.000000	65.085005 
2583.000000	65.082645 
2582.000000	65.076828 
2581.000000	65.067887 
2580.000000	65.056610 
2579.000000	65.044188 
2578.000000	65.032005 
2577.000000	65.021347 
2576.000000	65.013194 
2575.000000	65.007996 
2574.000000	65.005731 
2573.000000	65.006017 
2572.000000	65.008258 
2571.000000	65.011930 
2570.000000	65.016341 
2569.000000	65.020942 
2568.000000	65.024971 
2567.000000	65.027594 
2566.000000	65.027880 
2565.000000	65.024828 
2564.000000	65.017771 
2563.000000	65.006470 
2562.000000	64.991521 
2561.000000	64.974260 
2560.000000	64.956593 
2559.000000	64.940547 
2558.000000	64.927864 
2557.000000	64.919757 
2556.000000	64.916324 
2555.000000	64.916753 
2554.000000	64.919614 
2553.000000	64.923357 
2552.000000	64.926743 
2551.000000	64.929127 
2550.000000	64.930629 
2549.000000	64.931774 
2548.000000	64.933323 
2547.000000	64.935970 
2546.000000	64.939904 
2545.000000	64.945054 
2544.000000	64.950942 
2543.000000	64.957094 
2542.000000	64.962887 
2541.000000	64.968109 
2540.000000	64.972686 
2539.000000	64.977025 
2538.000000	64.981532 
2537.000000	64.986729 
2536.000000	64.992809 
2535.000000	64.999580 
2534.000000	65.006279 
2533.000000	65.011835 
2532.000000	65.014982 
2531.000000	65.014648 
2530.000000	65.010190 
2529.000000	65.001726 
2528.000000	64.990139 
2527.000000	64.976739 
2526.000000	64.963126 
2525.000000	64.950752 
2524.000000	64.940762 
2523.000000	64.933800 
2522.000000	64.930057 
2521.000000	64.929389 
2520.000000	64.931559 
2519.000000	64.936423 
2518.000000	64.944005 
2517.000000	64.954471 
2516.000000	64.967799 
2515.000000	64.983725 
2514.000000	65.001463 
2513.000000	65.019464 
2512.000000	65.035748 
2511.000000	65.048146 
2510.000000	65.054440 
2509.000000	65.053009 
2508.000000	65.043187 
2507.000000	65.025305 
2506.000000	65.000987 
2505.000000	64.972639 
2504.000000	64.943218 
2503.000000	64.915823 
2502.000000	64.893126 
2501.000000	64.877152 
2500.000000	64.868879 
2499.000000	64.868330 
2498.000000	64.874672 
2497.000000	64.886307 
2496.000000	64.901161 
2495.000000	64.917302 
2494.000000	64.932680 
2493.000000	64.946007 
2492.000000	64.956474 
2491.000000	64.964246 
2490.000000	64.969944 
2489.000000	64.974689 
2488.000000	64.979767 
2487.000000	64.986205 
2486.000000	64.994549 
2485.000000	65.004563 
2484.000000	65.015482 
2483.000000	65.025854 
2482.000000	65.034103 
2481.000000	65.038752 
2480.000000	65.039062 
2479.000000	65.035009 
2478.000000	65.027618 
2477.000000	65.018510 
2476.000000	65.009713 
2475.000000	65.003180 
2474.000000	65.000343 
2473.000000	65.001749 
2472.000000	65.006995 
2471.000000	65.014910 
2470.000000	65.023851 
2469.000000	65.031814 
2468.000000	65.037178 
2467.000000	65.038752 
2466.000000	65.036082 
2465.000000	65.029501 
2464.000000	65.019989 
2463.000000	65.008854 
2462.000000	64.997386 
2461.000000	64.986729 
2460.000000	64.977693 
2459.000000	64.970493 
2458.000000	64.965128 
2457.000000	64.961409 
2456.000000	64.959263 
2455.000000	64.958763 
2454.000000	64.960289 
2453.000000	64.964413 
2452.000000	64.971494 
2451.000000	64.981698 
2450.000000	64.994406 
2449.000000	65.008211 
2448.000000	65.020871 
2447.000000	65.029907 
2446.000000	65.032839 
2445.000000	65.027761 
2444.000000	65.013885 
2443.000000	64.991974 
2442.000000	64.963936 
2441.000000	64.932632 
2440.000000	64.901328 
2439.000000	64.872980 
2438.000000	64.849734 
2437.000000	64.832639 
2436.000000	64.821434 
2435.000000	64.814996 
2434.000000	64.811468 
2433.000000	64.809179 
2432.000000	64.806675 
2431.000000	64.803433 
2430.000000	64.799380 
2429.000000	64.795207 
2428.000000	64.791703 
2427.000000	64.789724 
2426.000000	64.789628 
2425.000000	64.791655 
2424.000000	64.795398 
2423.000000	64.800572 
2422.000000	64.807081 
2421.000000	64.815163 
2420.000000	64.825391 
2419.000000	64.838457 
2418.000000	64.854907 
2417.000000	64.874720 
2416.000000	64.897131 
2415.000000	64.920449 
2414.000000	64.942312 
2413.000000	64.960122 
2412.000000	64.971613 
2411.000000	64.975142 
2410.000000	64.970159 
2409.000000	64.957571 
2408.000000	64.939451 
2407.000000	64.918804 
2406.000000	64.898872 
2405.000000	64.882731 
2404.000000	64.872550 
2403.000000	64.869451 
2402.000000	64.873147 
2401.000000	64.882183 
2400.000000	64.894294 
2399.000000	64.906835 
2398.000000	64.917349 
2397.000000	64.924144 
2396.000000	64.926528 
2395.000000	64.924812 
2394.000000	64.920401 
2393.000000	64.915227 
2392.000000	64.911437 
2391.000000	64.910602 
2390.000000	64.913797 
2389.000000	64.921092 
2388.000000	64.932036 
2387.000000	64.945530 
2386.000000	64.960289 
2385.000000	64.974856 
2384.000000	64.987993 
2383.000000	64.998626 
2382.000000	65.005683 
2381.000000	65.008378 
2380.000000	65.006017 
2379.000000	64.998412 
2378.000000	64.985871 
2377.000000	64.969420 
2376.000000	64.950442 
2375.000000	64.930820 
2374.000000	64.912486 
2373.000000	64.897227 
2372.000000	64.886188 
2371.000000	64.879846 
2370.000000	64.877939 
2369.000000	64.879822 
2368.000000	64.884734 
2367.000000	64.892077 
2366.000000	64.901542 
2365.000000	64.912819 
2364.000000	64.925765 
2363.000000	64.939761 
2362.000000	64.953851 
2361.000000	64.966583 
2360.000000	64.976358 
2359.000000	64.981722 
2358.000000	64.981889 
2357.000000	64.977002 
2356.000000	64.968276 
2355.000000	64.957714 
2354.000000	64.947509 
2353.000000	64.940047 
2352.000000	64.936828 
2351.000000	64.938426 
2350.000000	64.944195 
2349.000000	64.952659 
2348.000000	64.961647 
2347.000000	64.969182 
2346.000000	64.973521 
2345.000000	64.973688 
2344.000000	64.969587 
2343.000000	64.961910 
2342.000000	64.951872 
2341.000000	64.940857 
2340.000000	64.930343 
2339.000000	64.921498 
2338.000000	64.915204 
2337.000000	64.912033 
2336.000000	64.912271 
2335.000000	64.915728 
2334.000000	64.921879 
2333.000000	64.929723 
2332.000000	64.937782 
2331.000000	64.944386 
2330.000000	64.947915 
2329.000000	64.947199 
2328.000000	64.941501 
2327.000000	64.930987 
2326.000000	64.916610 
2325.000000	64.900112 
2324.000000	64.883494 
2323.000000	64.868903 
2322.000000	64.858078 
2321.000000	64.852309 
2320.000000	64.852213 
2319.000000	64.857625 
2318.000000	64.867663 
2317.000000	64.881110 
2316.000000	64.896297 
2315.000000	64.911627 
2314.000000	64.925527 
2313.000000	64.936733 
2312.000000	64.944434 
2311.000000	64.948606 
2310.000000	64.949798 
2309.000000	64.949250 
2308.000000	64.948558 
2307.000000	64.949131 
2306.000000	64.951872 
2305.000000	64.956831 
2304.000000	64.963126 
2303.000000	64.969038 
2302.000000	64.972400 
2301.000000	64.971137 
2300.000000	64.963793 
2299.000000	64.949750 
2298.000000	64.929533 
2297.000000	64.904713 
2296.000000	64.877772 
2295.000000	64.851284 
2294.000000	64.827895 
2293.000000	64.809584 
2292.000000	64.797544 
2291.000000	64.791989 
2290.000000	64.792346 
2289.000000	64.797353 
2288.000000	64.805555 
2287.000000	64.815592 
2286.000000	64.826536 
2285.000000	64.837646 
2284.000000	64.848780 
2283.000000	64.860033 
2282.000000	64.871525 
2281.000000	64.883041 
2280.000000	64.894008 
2279.000000	64.903497 
2278.000000	64.910340 
2277.000000	64.913511 
2276.000000	64.912462 
2275.000000	64.907383 
2274.000000	64.899587 
2273.000000	64.890909 
2272.000000	64.883637 
2271.000000	64.879727 
2270.000000	64.880609 
2269.000000	64.886403 
2268.000000	64.896321 
2267.000000	64.908552 
2266.000000	64.920854 
2265.000000	64.930963 
2264.000000	64.937210 
2263.000000	64.938759 
2262.000000	64.935708 
2261.000000	64.929103 
2260.000000	64.920139 
2259.000000	64.910125 
2258.000000	64.899992 
2257.000000	64.890098 
2256.000000	64.880418 
2255.000000	64.870476 
2254.000000	64.859962 
2253.000000	64.848971 
2252.000000	64.838171 
2251.000000	64.828753 
2250.000000	64.822030 
2249.000000	64.819288 
2248.000000	64.821267 
2247.000000	64.827895 
2246.000000	64.838242 
2245.000000	64.850735 
2244.000000	64.863348 
2243.000000	64.874196 
2242.000000	64.881658 
2241.000000	64.884710 
2240.000000	64.882969 
2239.000000	64.876770 
2238.000000	64.866995 
2237.000000	64.854741 
2236.000000	64.841413 
2235.000000	64.828395 
2234.000000	64.816975 
2233.000000	64.808368 
2232.000000	64.803409 
2231.000000	64.802527 
2230.000000	64.805436 
2229.000000	64.811372 
2228.000000	64.818954 
2227.000000	64.826583 
2226.000000	64.832997 
2225.000000	64.837455 
2224.000000	64.840006 
2223.000000	64.841246 
2222.000000	64.842033 
2221.000000	64.843225 
2220.000000	64.844942 
2219.000000	64.846706 
2218.000000	64.847588 
2217.000000	64.846611 
2216.000000	64.842987 
2215.000000	64.836812 
2214.000000	64.829182 
2213.000000	64.821958 
2212.000000	64.817309 
2211.000000	64.817237 
2210.000000	64.823007 
2209.000000	64.834761 
2208.000000	64.851474 
2207.000000	64.870929 
2206.000000	64.890336 
2205.000000	64.907026 
2204.000000	64.918994 
2203.000000	64.925241 
2202.000000	64.925670 
2201.000000	64.921164 
2200.000000	64.913177 
2199.000000	64.903306 
2198.000000	64.892816 
2197.000000	64.882516 
2196.000000	64.872670 
2195.000000	64.863014 
2194.000000	64.852905 
2193.000000	64.841532 
2192.000000	64.828252 
2191.000000	64.812850 
2190.000000	64.795637 
2189.000000	64.777302 
2188.000000	64.758968 
2187.000000	64.741778 
2186.000000	64.726948 
2185.000000	64.715313 
2184.000000	64.707565 
2183.000000	64.703941 
2182.000000	64.704489 
2181.000000	64.708852 
2180.000000	64.716696 
2179.000000	64.727354 
2178.000000	64.740180 
2177.000000	64.754390 
2176.000000	64.769005 
2175.000000	64.782881 
2174.000000	64.794921 
2173.000000	64.804124 
2172.000000	64.809989 
2171.000000	64.812350 
2170.000000	64.811515 
2169.000000	64.808130 
2168.000000	64.802718 
2167.000000	64.795494 
2166.000000	64.786267 
2165.000000	64.774727 
2164.000000	64.760589 
2163.000000	64.743900 
2162.000000	64.725613 
2161.000000	64.707183 
2160.000000	64.690613 
2159.000000	64.677643 
2158.000000	64.669704 
2157.000000	64.667153 
2156.000000	64.669132 
2155.000000	64.673852 
2154.000000	64.678931 
2153.000000	64.682173 
2152.000000	64.682006 
2151.000000	64.678049 
2150.000000	64.671039 
2149.000000	64.662671 
2148.000000	64.654850 
2147.000000	64.649367 
2146.000000	64.647173 
2145.000000	64.648628 
2144.000000	64.653515 
2143.000000	64.660978 
2142.000000	64.670133 
2141.000000	64.679980 
2140.000000	64.689755 
2139.000000	64.698600 
2138.000000	64.706015 
2137.000000	64.711689 
2136.000000	64.715671 
2135.000000	64.718437 
2134.000000	64.720916 
2133.000000	64.724016 
2132.000000	64.728736 
2131.000000	64.735937 
2130.000000	64.745926 
2129.000000	64.758491 
2128.000000	64.772891 
2127.000000	64.788198 
2126.000000	64.803194 
2125.000000	64.816880 
2124.000000	64.828634 
2123.000000	64.838171 
2122.000000	64.845561 
2121.000000	64.850902 
2120.000000	64.854359 
2119.000000	64.855861 
2118.000000	64.855313 
2117.000000	64.852404 
2116.000000	64.847064 
2115.000000	64.839434 
2114.000000	64.830040 
2113.000000	64.819574 
2112.000000	64.809060 
2111.000000	64.799380 
2110.000000	64.791393 
2109.000000	64.785647 
2108.000000	64.782404 
2107.000000	64.781546 
2106.000000	64.782834 
2105.000000	64.785814 
2104.000000	64.789986 
2103.000000	64.794611 
2102.000000	64.799046 
2101.000000	64.802503 
2100.000000	64.804172 
2099.000000	64.803361 
2098.000000	64.799737 
2097.000000	64.793395 
2096.000000	64.784812 
2095.000000	64.774918 
2094.000000	64.764809 
2093.000000	64.755606 
2092.000000	64.748311 
2091.000000	64.743709 
2090.000000	64.742183 
2089.000000	64.743876 
2088.000000	64.748716 
2087.000000	64.756274 
2086.000000	64.765834 
2085.000000	64.776492 
2084.000000	64.787101 
2083.000000	64.796519 
2082.000000	64.803409 
2081.000000	64.806890 
2080.000000	64.806342 
2079.000000	64.801740 
2078.000000	64.793300 
2077.000000	64.781856 
2076.000000	64.768314 
2075.000000	64.753627 
2074.000000	64.738559 
2073.000000	64.723634 
2072.000000	64.709162 
2071.000000	64.695549 
2070.000000	64.683318 
2069.000000	64.673209 
2068.000000	64.666295 
2067.000000	64.663743 
2066.000000	64.666509 
2065.000000	64.675092 
2064.000000	64.689278 
2063.000000	64.708089 
2062.000000	64.729809 
2061.000000	64.752292 
2060.000000	64.773178 
2059.000000	64.790606 
2058.000000	64.803361 
2057.000000	64.810943 
2056.000000	64.814043 
2055.000000	64.814019 
2054.000000	64.812493 
2053.000000	64.811158 
2052.000000	64.811420 
2051.000000	64.813971 
2050.000000	64.818811 
2049.000000	64.825153 
2048.000000	64.831805 
2047.000000	64.837288 
2046.000000	64.840364 
2045.000000	64.840102 
2044.000000	64.836096 
2043.000000	64.828586 
2042.000000	64.818501 
2041.000000	64.806985 
2040.000000	64.795279 
2039.000000	64.784407 
2038.000000	64.775180 
2037.000000	64.768147 
2036.000000	64.763665 
2035.000000	64.761853 
2034.000000	64.762639 
2033.000000	64.765882 
2032.000000	64.771246 
2031.000000	64.778161 
2030.000000	64.785861 
2029.000000	64.793467 
2028.000000	64.800024 
2027.000000	64.804577 
2026.000000	64.806437 
2025.000000	64.805126 
2024.000000	64.800548 
2023.000000	64.792847 
2022.000000	64.782714 
2021.000000	64.771270 
2020.000000	64.759898 
2019.000000	64.750146 
2018.000000	64.743685 
2017.000000	64.741921 
2016.000000	64.745926 
2015.000000	64.755821 
2014.000000	64.770984 
2013.000000	64.789986 
2012.000000	64.810657 
2011.000000	64.830493 
2010.000000	64.847159 
2009.000000	64.858698 
2008.000000	64.864110 
2007.000000	64.863348 
2006.000000	64.857077 
2005.000000	64.846563 
2004.000000	64.833474 
2003.000000	64.819359 
2002.000000	64.805579 
2001.000000	64.793157 
2000.000000	64.782786 
1999.000000	64.774703 
1998.000000	64.769005 
1997.000000	64.765357 
1996.000000	64.763283 
1995.000000	64.761972 
1994.000000	64.760565 
1993.000000	64.758324 
1992.000000	64.754509 
1991.000000	64.749002 
1990.000000	64.742183 
1989.000000	64.734840 
1988.000000	64.728260 
1987.000000	64.723873 
1986.000000	64.722895 
1985.000000	64.726114 
1984.000000	64.733409 
1983.000000	64.744114 
1982.000000	64.756989 
1981.000000	64.770531 
1980.000000	64.783406 
1979.000000	64.794731 
1978.000000	64.804410 
1977.000000	64.812731 
1976.000000	64.820408 
1975.000000	64.827871 
1974.000000	64.835286 
1973.000000	64.842009 
1972.000000	64.847064 
1971.000000	64.849424 
1970.000000	64.848113 
1969.000000	64.842963 
1968.000000	64.834499 
1967.000000	64.824104 
1966.000000	64.813494 
1965.000000	64.804506 
1964.000000	64.798498 
1963.000000	64.795970 
1962.000000	64.796590 
1961.000000	64.799404 
1960.000000	64.802956 
1959.000000	64.805841 
1958.000000	64.807009 
1957.000000	64.805912 
1956.000000	64.802479 
1955.000000	64.796853 
1954.000000	64.789390 
1953.000000	64.780354 
1952.000000	64.770245 
1951.000000	64.759683 
1950.000000	64.749526 
1949.000000	64.740514 
1948.000000	64.733433 
1947.000000	64.728641 
1946.000000	64.725852 
1945.000000	64.724326 
1944.000000	64.722776 
1943.000000	64.720010 
1942.000000	64.715051 
1941.000000	64.707779 
1940.000000	64.698839 
1939.000000	64.689922 
1938.000000	64.683032 
1937.000000	64.680218 
1936.000000	64.682865 
1935.000000	64.691281 
1934.000000	64.704728 
1933.000000	64.721465 
1932.000000	64.739084 
1931.000000	64.755225 
1930.000000	64.767932 
1929.000000	64.775943 
1928.000000	64.778685 
1927.000000	64.776253 
1926.000000	64.769148 
1925.000000	64.758229 
1924.000000	64.744448 
1923.000000	64.728951 
1922.000000	64.713144 
1921.000000	64.698505 
1920.000000	64.686536 
1919.000000	64.678740 
1918.000000	64.676165 
1917.000000	64.679121 
1916.000000	64.687252 
1915.000000	64.699172 
1914.000000	64.712977 
1913.000000	64.726567 
1912.000000	64.738106 
1911.000000	64.746356 
1910.000000	64.750933 
1909.000000	64.752364 
1908.000000	64.751672 
1907.000000	64.750194 
1906.000000	64.749026 
1905.000000	64.748740 
1904.000000	64.749455 
1903.000000	64.750742 
1902.000000	64.751982 
1901.000000	64.752769 
1900.000000	64.752984 
1899.000000	64.752960 
1898.000000	64.753460 
1897.000000	64.755439 
1896.000000	64.759588 
1895.000000	64.766073 
1894.000000	64.774417 
1893.000000	64.783453 
1892.000000	64.791536 
1891.000000	64.796972 
1890.000000	64.798188 
1889.000000	64.794254 
1888.000000	64.785099 
1887.000000	64.771485 
1886.000000	64.755058 
1885.000000	64.737772 
1884.000000	64.721632 
1883.000000	64.708423 
1882.000000	64.699172 
1881.000000	64.694166 
1880.000000	64.692878 
1879.000000	64.694285 
1878.000000	64.697170 
1877.000000	64.700341 
1876.000000	64.703106 
1875.000000	64.705348 
1874.000000	64.707517 
1873.000000	64.710354 
1872.000000	64.714550 
1871.000000	64.720320 
1870.000000	64.727473 
1869.000000	64.735031 
1868.000000	64.741516 
1867.000000	64.745593 
1866.000000	64.746141 
1865.000000	64.742898 
1864.000000	64.736342 
1863.000000	64.727783 
1862.000000	64.718770 
1861.000000	64.710903 
1860.000000	64.705371 
1859.000000	64.702558 
1858.000000	64.702248 
1857.000000	64.703679 
1856.000000	64.705991 
1855.000000	64.708614 
1854.000000	64.711332 
1853.000000	64.714503 
1852.000000	64.718580 
1851.000000	64.723849 
1850.000000	64.730191 
1849.000000	64.736819 
1848.000000	64.742326 
1847.000000	64.744901 
1846.000000	64.742922 
1845.000000	64.735388 
1844.000000	64.722251 
1843.000000	64.704585 
1842.000000	64.684128 
1841.000000	64.663314 
1840.000000	64.644551 
1839.000000	64.629888 
1838.000000	64.620447 
1837.000000	64.616727 
1836.000000	64.618325 
1835.000000	64.624404 
1834.000000	64.633822 
1833.000000	64.645481 
1832.000000	64.658355 
1831.000000	64.671587 
1830.000000	64.684367 
1829.000000	64.696025 
1828.000000	64.705777 
1827.000000	64.713072 
1826.000000	64.717674 
1825.000000	64.719724 
1824.000000	64.720034 
1823.000000	64.719820 
1822.000000	64.720654 
1821.000000	64.724111 
1820.000000	64.731168 
1819.000000	64.742088 
1818.000000	64.756155 
1817.000000	64.771771 
1816.000000	64.786601 
1815.000000	64.798259 
1814.000000	64.804768 
1813.000000	64.805126 
1812.000000	64.799451 
1811.000000	64.789056 
1810.000000	64.775967 
1809.000000	64.762639 
1808.000000	64.751100 
1807.000000	64.742732 
1806.000000	64.737868 
1805.000000	64.735937 
1804.000000	64.735722 
1803.000000	64.735817 
1802.000000	64.734959 
1801.000000	64.732503 
1800.000000	64.728450 
1799.000000	64.723443 
1798.000000	64.718747 
1797.000000	64.715671 
1796.000000	64.715480 
1795.000000	64.718842 
1794.000000	64.725780 
1793.000000	64.735627 
1792.000000	64.747047 
1791.000000	64.758276 
1790.000000	64.767456 
1789.000000	64.773058 
1788.000000	64.773964 
1787.000000	64.769816 
1786.000000	64.761090 
1785.000000	64.749026 
1784.000000	64.735531 
1783.000000	64.722514 
1782.000000	64.711856 
1781.000000	64.704942 
1780.000000	64.702343 
1779.000000	64.704060 
1778.000000	64.709448 
1777.000000	64.717507 
1776.000000	64.727067 
1775.000000	64.737010 
1774.000000	64.746403 
1773.000000	64.754629 
1772.000000	64.761137 
1771.000000	64.765572 
1770.000000	64.767718 
1769.000000	64.767408 
1768.000000	64.764356 
1767.000000	64.758348 
1766.000000	64.749145 
1765.000000	64.736628 
1764.000000	64.720988 
1763.000000	64.702725 
1762.000000	64.682650 
1761.000000	64.661955 
1760.000000	64.642119 
1759.000000	64.624881 
1758.000000	64.611887 
1757.000000	64.604425 
1756.000000	64.602780 
1755.000000	64.606404 
1754.000000	64.613533 
1753.000000	64.621877 
1752.000000	64.628672 
1751.000000	64.631366 
1750.000000	64.628219 
1749.000000	64.618873 
1748.000000	64.604043 
1747.000000	64.585328 
1746.000000	64.564728 
1745.000000	64.544343 
1744.000000	64.525651 
1743.000000	64.509487 
1742.000000	64.496040 
1741.000000	64.484953 
1740.000000	64.475750 
1739.000000	64.467954 
1738.000000	64.461302 
1737.000000	64.455723 
1736.000000	64.450955 
1735.000000	64.446663 
1734.000000	64.442133 
1733.000000	64.436602 
1732.000000	64.429116 
1731.000000	64.419579 
1730.000000	64.408636 
1729.000000	64.398050 
1728.000000	64.390277 
1727.000000	64.388322 
1726.000000	64.394927 
1725.000000	64.411926 
1724.000000	64.439892 
1723.000000	64.477491 
1722.000000	64.521861 
1721.000000	64.568853 
1720.000000	64.614033 
1719.000000	64.653182 
1718.000000	64.683198 
1717.000000	64.702510 
1716.000000	64.711189 
1715.000000	64.710903 
1714.000000	64.704275 
1713.000000	64.694380 
1712.000000	64.683890 
1711.000000	64.674997 
1710.000000	64.669060 
1709.000000	64.666557 
1708.000000	64.667201 
1707.000000	64.670538 
1706.000000	64.676022 
1705.000000	64.683341 
1704.000000	64.692020 
1703.000000	64.701819 
1702.000000	64.711999 
1701.000000	64.721441 
1700.000000	64.728426 
1699.000000	64.731025 
1698.000000	64.727044 
1697.000000	64.714980 
1696.000000	64.694356 
1695.000000	64.666008 
1694.000000	64.632153 
1693.000000	64.596247 
1692.000000	64.562249 
1691.000000	64.533805 
1690.000000	64.513850 
1689.000000	64.503955 
1688.000000	64.504194 
1687.000000	64.513254 
1686.000000	64.529132 
1685.000000	64.549708 
1684.000000	64.573097 
1683.000000	64.598011 
1682.000000	64.623808 
1681.000000	64.649987 
1680.000000	64.676070 
1679.000000	64.700865 
1678.000000	64.722609 
1677.000000	64.738845 
1676.000000	64.747190 
1675.000000	64.745783 
1674.000000	64.733982 
1673.000000	64.712643 
1672.000000	64.684271 
1671.000000	64.652180 
1670.000000	64.620065 
1669.000000	64.591312 
1668.000000	64.568233 
1667.000000	64.551854 
1666.000000	64.542031 
1665.000000	64.538073 
1664.000000	64.538955 
1663.000000	64.543938 
1662.000000	64.552640 
1661.000000	64.565062 
1660.000000	64.581322 
1659.000000	64.601039 
1658.000000	64.623284 
1657.000000	64.646339 
1656.000000	64.668107 
1655.000000	64.686441 
1654.000000	64.699673 
1653.000000	64.707016 
1652.000000	64.708447 
1651.000000	64.704895 
1650.000000	64.697575 
1649.000000	64.687728 
1648.000000	64.676237 
1647.000000	64.663910 
1646.000000	64.651179 
1645.000000	64.638614 
1644.000000	64.626860 
1643.000000	64.616870 
1642.000000	64.609646 
1641.000000	64.605998 
1640.000000	64.606332 
1639.000000	64.610171 
1638.000000	64.616489 
1637.000000	64.623832 
1636.000000	64.630699 
1635.000000	64.635753 
1634.000000	64.638376 
1633.000000	64.638876 
1632.000000	64.638090 
1631.000000	64.637160 
1630.000000	64.636993 
1629.000000	64.638066 
1628.000000	64.640331 
1627.000000	64.643073 
1626.000000	64.645338 
1625.000000	64.645910 
1624.000000	64.643836 
1623.000000	64.638400 
1622.000000	64.629220 
1621.000000	64.616417 
1620.000000	64.600253 
1619.000000	64.581441 
1618.000000	64.560937 
1617.000000	64.540100 
1616.000000	64.520263 
1615.000000	64.503121 
1614.000000	64.490342 
1613.000000	64.483523 
1612.000000	64.483952 
1611.000000	64.492297 
1610.000000	64.508390 
1609.000000	64.531207 
1608.000000	64.558959 
1607.000000	64.589238 
1606.000000	64.619326 
1605.000000	64.646530 
1604.000000	64.668440 
1603.000000	64.683365 
1602.000000	64.690423 
1601.000000	64.689445 
1600.000000	64.680933 
1599.000000	64.666128 
1598.000000	64.646649 
1597.000000	64.624524 
1596.000000	64.601826 
1595.000000	64.580821 
1594.000000	64.563369 
1593.000000	64.551186 
1592.000000	64.545297 
1591.000000	64.546060 
1590.000000	64.552807 
1589.000000	64.563751 
1588.000000	64.576172 
1587.000000	64.587020 
1586.000000	64.593458 
1585.000000	64.593434 
1584.000000	64.586353 
1583.000000	64.573240 
1582.000000	64.556407 
1581.000000	64.538955 
1580.000000	64.524006 
1579.000000	64.514183 
1578.000000	64.511156 
1577.000000	64.515423 
1576.000000	64.526343 
1575.000000	64.542222 
1574.000000	64.560604 
1573.000000	64.578962 
1572.000000	64.594578 
1571.000000	64.605212 
1570.000000	64.609670 
1569.000000	64.607834 
1568.000000	64.600729 
1567.000000	64.590239 
1566.000000	64.578938 
1565.000000	64.569354 
1564.000000	64.563608 
1563.000000	64.563012 
1562.000000	64.567804 
1561.000000	64.577245 
1560.000000	64.589786 
1559.000000	64.603471 
1558.000000	64.616370 
1557.000000	64.626836 
1556.000000	64.633965 
1555.000000	64.637494 
1554.000000	64.637422 
1553.000000	64.634323 
1552.000000	64.628696 
1551.000000	64.621114 
1550.000000	64.611768 
1549.000000	64.600944 
1548.000000	64.588737 
1547.000000	64.575171 
1546.000000	64.560127 
1545.000000	64.543485 
1544.000000	64.525151 
1543.000000	64.505052 
1542.000000	64.483189 
1541.000000	64.459633 
1540.000000	64.434838 
1539.000000	64.409375 
1538.000000	64.384222 
1537.000000	64.360451 
1536.000000	64.339590 
1535.000000	64.323091 
1534.000000	64.312720 
1533.000000	64.309787 
1532.000000	64.315629 
1531.000000	64.330935 
1530.000000	64.355778 
1529.000000	64.389204 
1528.000000	64.429473 
1527.000000	64.473724 
1526.000000	64.518547 
1525.000000	64.560222 
1524.000000	64.595389 
1523.000000	64.621591 
1522.000000	64.637756 
1521.000000	64.644145 
1520.000000	64.642262 
1519.000000	64.634227 
1518.000000	64.622902 
1517.000000	64.610886 
1516.000000	64.600229 
1515.000000	64.592146 
1514.000000	64.587497 
1513.000000	64.586257 
1512.000000	64.588141 
1511.000000	64.592361 
1510.000000	64.598107 
1509.000000	64.604234 
1508.000000	64.609527 
1507.000000	64.612603 
1506.000000	64.612340 
1505.000000	64.608168 
1504.000000	64.600276 
1503.000000	64.589667 
1502.000000	64.577960 
1501.000000	64.566779 
1500.000000	64.557552 
1499.000000	64.550685 
1498.000000	64.545440 
1497.000000	64.540314 
1496.000000	64.533472 
1495.000000	64.523243 
1494.000000	64.508867 
1493.000000	64.491128 
1492.000000	64.472174 
1491.000000	64.455151 
1490.000000	64.443230 
1489.000000	64.438748 
1488.000000	64.442682 
1487.000000	64.453959 
1486.000000	64.470171 
1485.000000	64.487671 
1484.000000	64.503026 
1483.000000	64.513540 
1482.000000	64.517998 
1481.000000	64.516663 
1480.000000	64.511156 
1479.000000	64.503622 
1478.000000	64.496445 
1477.000000	64.491581 
1476.000000	64.490246 
1475.000000	64.492726 
1474.000000	64.498400 
1473.000000	64.505839 
1472.000000	64.513158 
1471.000000	64.518642 
1470.000000	64.520573 
1469.000000	64.517903 
1468.000000	64.510321 
1467.000000	64.498782 
1466.000000	64.484810 
1465.000000	64.470958 
1464.000000	64.459919 
1463.000000	64.454269 
1462.000000	64.455962 
1461.000000	64.465570 
1460.000000	64.482426 
1459.000000	64.504313 
1458.000000	64.527773 
1457.000000	64.548945 
1456.000000	64.564013 
1455.000000	64.570331 
1454.000000	64.566731 
1453.000000	64.553856 
1452.000000	64.533948 
1451.000000	64.510440 
1450.000000	64.487123 
1449.000000	64.467573 
1448.000000	64.454340 
1447.000000	64.449214 
1446.000000	64.452886 
1445.000000	64.465308 
1444.000000	64.485645 
1443.000000	64.512562 
1442.000000	64.544200 
1441.000000	64.577984 
1440.000000	64.610886 
1439.000000	64.639782 
1438.000000	64.661788 
1437.000000	64.674544 
1436.000000	64.676570 
1435.000000	64.667725 
1434.000000	64.649200 
1433.000000	64.623403 
1432.000000	64.593458 
1431.000000	64.563131 
1430.000000	64.535737 
1429.000000	64.514207 
1428.000000	64.500260 
1427.000000	64.494562 
1426.000000	64.496326 
1425.000000	64.503765 
1424.000000	64.514088 
1423.000000	64.524221 
1422.000000	64.531111 
1421.000000	64.532232 
1420.000000	64.526200 
1419.000000	64.512801 
1418.000000	64.493322 
1417.000000	64.470052 
1416.000000	64.445996 
1415.000000	64.424037 
1414.000000	64.406490 
1413.000000	64.394521 
1412.000000	64.388108 
1411.000000	64.386081 
1410.000000	64.386510 
1409.000000	64.387369 
1408.000000	64.386892 
1407.000000	64.384365 
1406.000000	64.379668 
1405.000000	64.373755 
1404.000000	64.367961 
1403.000000	64.363765 
1402.000000	64.362072 
1401.000000	64.363288 
1400.000000	64.367008 
1399.000000	64.372420 
1398.000000	64.378571 
1397.000000	64.384555 
1396.000000	64.389753 
1395.000000	64.393973 
1394.000000	64.397430 
1393.000000	64.400458 
1392.000000	64.403128 
1391.000000	64.405298 
1390.000000	64.406514 
1389.000000	64.406013 
1388.000000	64.402985 
1387.000000	64.397048 
1386.000000	64.388489 
1385.000000	64.378309 
1384.000000	64.368224 
1383.000000	64.360380 
1382.000000	64.356589 
1381.000000	64.357900 
1380.000000	64.364099 
1379.000000	64.373469 
1378.000000	64.383268 
1377.000000	64.390110 
1376.000000	64.390945 
1375.000000	64.383745 
1374.000000	64.368462 
1373.000000	64.346885 
1372.000000	64.322686 
1371.000000	64.300537 
1370.000000	64.285182 
1369.000000	64.280414 
1368.000000	64.288067 
1367.000000	64.307665 
1366.000000	64.336681 
1365.000000	64.371085 
1364.000000	64.406204 
1363.000000	64.437651 
1362.000000	64.462304 
1361.000000	64.478588 
1360.000000	64.486503 
1359.000000	64.487433 
1358.000000	64.483404 
1357.000000	64.476537 
1356.000000	64.468741 
1355.000000	64.461255 
1354.000000	64.454746 
1353.000000	64.449381 
1352.000000	64.445352 
1351.000000	64.442992 
1350.000000	64.442825 
1349.000000	64.445352 
1348.000000	64.451003 
1347.000000	64.459657 
1346.000000	64.470481 
1345.000000	64.481735 
1344.000000	64.491081 
1343.000000	64.495825 
1342.000000	64.493751 
1341.000000	64.483594 
1340.000000	64.465379 
1339.000000	64.440822 
1338.000000	64.412784 
1337.000000	64.384841 
1336.000000	64.360451 
1335.000000	64.342474 
1334.000000	64.332437 
1333.000000	64.330244 
1332.000000	64.334344 
1331.000000	64.342379 
1330.000000	64.351677 
1329.000000	64.359879 
1328.000000	64.365410 
1327.000000	64.367723 
1326.000000	64.367103 
1325.000000	64.364337 
1324.000000	64.360332 
1323.000000	64.355564 
1322.000000	64.349985 
1321.000000	64.343261 
1320.000000	64.334940 
1319.000000	64.324975 
1318.000000	64.313673 
1317.000000	64.302206 
1316.000000	64.291930 
1315.000000	64.284348 
1314.000000	64.280271 
1313.000000	64.279723 
1312.000000	64.281535 
1311.000000	64.283633 
1310.000000	64.283680 
1309.000000	64.279651 
1308.000000	64.270663 
1307.000000	64.257216 
1306.000000	64.241266 
1305.000000	64.225792 
1304.000000	64.213728 
1303.000000	64.207482 
1302.000000	64.207983 
1301.000000	64.214754 
1300.000000	64.226055 
1299.000000	64.239692 
1298.000000	64.253687 
1297.000000	64.266490 
1296.000000	64.278006 
1295.000000	64.288687 
1294.000000	64.299511 
1293.000000	64.311242 
1292.000000	64.323878 
1291.000000	64.336609 
1290.000000	64.347839 
1289.000000	64.355731 
1288.000000	64.358949 
1287.000000	64.357042 
1286.000000	64.350962 
1285.000000	64.342498 
1284.000000	64.333844 
1283.000000	64.327049 
1282.000000	64.323306 
1281.000000	64.322423 
1280.000000	64.322996 
1279.000000	64.322900 
1278.000000	64.319801 
1277.000000	64.311909 
1276.000000	64.298343 
1275.000000	64.279508 
1274.000000	64.256858 
1273.000000	64.232444 
1272.000000	64.208531 
1271.000000	64.187002 
1270.000000	64.169216 
1269.000000	64.155721 
1268.000000	64.146518 
1267.000000	64.140987 
1266.000000	64.138364 
1265.000000	64.137792 
1264.000000	64.138650 
1263.000000	64.140176 
1262.000000	64.142131 
1261.000000	64.144468 
1260.000000	64.147710 
1259.000000	64.152431 
1258.000000	64.159417 
1257.000000	64.169430 
1256.000000	64.182853 
1255.000000	64.199471 
1254.000000	64.218282 
1253.000000	64.237737 
1252.000000	64.255833 
1251.000000	64.270496 
1250.000000	64.280104 
1249.000000	64.283895 
1248.000000	64.282226 
1247.000000	64.276385 
1246.000000	64.268255 
1245.000000	64.259648 
1244.000000	64.252352 
1243.000000	64.247274 
1242.000000	64.244818 
1241.000000	64.244532 
1240.000000	64.245915 
1239.000000	64.247989 
1238.000000	64.249944 
1237.000000	64.251041 
1236.000000	64.250683 
1235.000000	64.248704 
1234.000000	64.245104 
1233.000000	64.240241 
1232.000000	64.234614 
1231.000000	64.228820 
1230.000000	64.223480 
1229.000000	64.218854 
1228.000000	64.215016 
1227.000000	64.211630 
1226.000000	64.208030 
1225.000000	64.203453 
1224.000000	64.197492 
1223.000000	64.190125 
1222.000000	64.182209 
1221.000000	64.175128 
1220.000000	64.170670 
1219.000000	64.170503 
1218.000000	64.175844 
1217.000000	64.186811 
1216.000000	64.202523 
1215.000000	64.221358 
1214.000000	64.241099 
1213.000000	64.259648 
1212.000000	64.275193 
1211.000000	64.286470 
1210.000000	64.292764 
1209.000000	64.294075 
1208.000000	64.290785 
1207.000000	64.283680 
1206.000000	64.273881 
1205.000000	64.262580 
1204.000000	64.251017 
1203.000000	64.240431 
1202.000000	64.231920 
1201.000000	64.226388 
1200.000000	64.224267 
1199.000000	64.225649 
1198.000000	64.230012 
1197.000000	64.236474 
1196.000000	64.243888 
1195.000000	64.250922 
1194.000000	64.256405 
1193.000000	64.259362 
1192.000000	64.259314 
1191.000000	64.256095 
1190.000000	64.250016 
1189.000000	64.241647 
1188.000000	64.231896 
1187.000000	64.221477 
1186.000000	64.211106 
1185.000000	64.201283 
1184.000000	64.192104 
1183.000000	64.183425 
1182.000000	64.174795 
1181.000000	64.165925 
1180.000000	64.156723 
1179.000000	64.147734 
1178.000000	64.139795 
1177.000000	64.134144 
1176.000000	64.131999 
1175.000000	64.134216 
1174.000000	64.140892 
1173.000000	64.151096 
1172.000000	64.162921 
1171.000000	64.173674 
1170.000000	64.180612 
1169.000000	64.181351 
1168.000000	64.174652 
1167.000000	64.160704 
1166.000000	64.141297 
1165.000000	64.119577 
1164.000000	64.099502 
1163.000000	64.084863 
1162.000000	64.078426 
1161.000000	64.081501 
1160.000000	64.093375 
1159.000000	64.111709 
1158.000000	64.132952 
1157.000000	64.152884 
1156.000000	64.167881 
1155.000000	64.175415 
1154.000000	64.174675 
1153.000000	64.166355 
1152.000000	64.152812 
1151.000000	64.137244 
1150.000000	64.123463 
1149.000000	64.114928 
1148.000000	64.114570 
1147.000000	64.123940 
1146.000000	64.143133 
1145.000000	64.170622 
1144.000000	64.203214 
1143.000000	64.236831 
1142.000000	64.267110 
1141.000000	64.290308 
1140.000000	64.303708 
1139.000000	64.306306 
1138.000000	64.298796 
1137.000000	64.283752 
1136.000000	64.264559 
1135.000000	64.245176 
1134.000000	64.229297 
1133.000000	64.219641 
1132.000000	64.217996 
1131.000000	64.224338 
1130.000000	64.236903 
1129.000000	64.252734 
1128.000000	64.268350 
1127.000000	64.280843 
1126.000000	64.288473 
1125.000000	64.291238 
1124.000000	64.290618 
1123.000000	64.288854 
1122.000000	64.288163 
1121.000000	64.289832 
1120.000000	64.293551 
1119.000000	64.297747 
1118.000000	64.299774 
1117.000000	64.296793 
1116.000000	64.286231 
1115.000000	64.266443 
1114.000000	64.236903 
1113.000000	64.198136 
1112.000000	64.152169 
1111.000000	64.102172 
1110.000000	64.052534 
1109.000000	64.007973 
1108.000000	63.973498 
1107.000000	63.953399 
1106.000000	63.950824 
1105.000000	63.966774 
1104.000000	64.000153 
1103.000000	64.047551 
1102.000000	64.103937 
1101.000000	64.163160 
1100.000000	64.219498 
1099.000000	64.268350 
1098.000000	64.307093 
1097.000000	64.334893 
1096.000000	64.352631 
1095.000000	64.362168 
1094.000000	64.365386 
1093.000000	64.363741 
1092.000000	64.358043 
1091.000000	64.348626 
1090.000000	64.335942 
1089.000000	64.320826 
1088.000000	64.305090 
1087.000000	64.291143 
1086.000000	64.281868 
1085.000000	64.279866 
1084.000000	64.286589 
1083.000000	64.301967 
1082.000000	64.324402 
1081.000000	64.350771 
1080.000000	64.377331 
1079.000000	64.400410 
1078.000000	64.417386 
1077.000000	64.426589 
1076.000000	64.427399 
1075.000000	64.419913 
1074.000000	64.404773 
1073.000000	64.382886 
1072.000000	64.355421 
1071.000000	64.323639 
1070.000000	64.289116 
1069.000000	64.253544 
1068.000000	64.218854 
1067.000000	64.186716 
1066.000000	64.158415 
1065.000000	64.134907 
1064.000000	64.116764 
1063.000000	64.104008 
1062.000000	64.096164 
1061.000000	64.092373 
1060.000000	64.091610 
1059.000000	64.092493 
1058.000000	64.094042 
1057.000000	64.095258 
1056.000000	64.095759 
1055.000000	64.095640 
1054.000000	64.095449 
1053.000000	64.096117 
1052.000000	64.098787 
1051.000000	64.104390 
1050.000000	64.113259 
1049.000000	64.124870 
1048.000000	64.137959 
1047.000000	64.150619 
1046.000000	64.160871 
1045.000000	64.167213 
1044.000000	64.169192 
1043.000000	64.167475 
1042.000000	64.163732 
1041.000000	64.159917 
1040.000000	64.158010 
1039.000000	64.159131 
1038.000000	64.163661 
1037.000000	64.170765 
1036.000000	64.179110 
1035.000000	64.186930 
1034.000000	64.192533 
1033.000000	64.194369 
1032.000000	64.191603 
1031.000000	64.184021 
1030.000000	64.171838 
1029.000000	64.155626 
1028.000000	64.136266 
1027.000000	64.114904 
1026.000000	64.092588 
1025.000000	64.070630 
1024.000000	64.050531 
1023.000000	64.034032 
1022.000000	64.022850 
1021.000000	64.018487 
1020.000000	64.021778 
1019.000000	64.032554 
1018.000000	64.049577 
1017.000000	64.070487 
1016.000000	64.091944 
1015.000000	64.110159 
1014.000000	64.121747 
1013.000000	64.124250 
1012.000000	64.116907 
1011.000000	64.100956 
1010.000000	64.079427 
1009.000000	64.056634 
1008.000000	64.037299 
1007.000000	64.025545 
1006.000000	64.024066 
1005.000000	64.033746 
1004.000000	64.053583 
1003.000000	64.081406 
1002.000000	64.114332 
1001.000000	64.149594 
1000.000000	64.184927 
999.000000	 64.218664 
998.000000	 64.249396 
997.000000	 64.275741 
996.000000	 64.296007 
995.000000	 64.308118 
994.000000	 64.309930 
993.000000	 64.299893 
992.000000	 64.277815 
991.000000	 64.245223 
990.000000	 64.205765 
989.000000	 64.164710 
988.000000	 64.127945 
987.000000	 64.100813 
986.000000	 64.086818 
985.000000	 64.086985 
984.000000	 64.099621 
983.000000	 64.120841 
982.000000	 64.145541 
981.000000	 64.168834 
980.000000	 64.186882 
979.000000	 64.197683 
978.000000	 64.201426 
977.000000	 64.200043 
976.000000	 64.196181 
975.000000	 64.192366 
974.000000	 64.190578 
973.000000	 64.191269 
972.000000	 64.193701 
971.000000	 64.195942 
970.000000	 64.195871 
969.000000	 64.191532 
968.000000	 64.181971 
967.000000	 64.167523 
966.000000	 64.149379 
965.000000	 64.129757 
964.000000	 64.111185 
963.000000	 64.096093 
962.000000	 64.085984 
961.000000	 64.081549 
960.000000	 64.082574 
959.000000	 64.088153 
958.000000	 64.097356 
957.000000	 64.109444 
956.000000	 64.124464 
955.000000	 64.143013 
954.000000	 64.166140 
953.000000	 64.194798 
952.000000	 64.229083 
951.000000	 64.268064 
950.000000	 64.309406 
949.000000	 64.349889 
948.000000	 64.385628 
947.000000	 64.413404 
946.000000	 64.430785 
945.000000	 64.437341 
944.000000	 64.433836 
943.000000	 64.422750 
942.000000	 64.406776 
941.000000	 64.388394 
940.000000	 64.368772 
939.000000	 64.347982 
938.000000	 64.324808 
937.000000	 64.297914 
936.000000	 64.266228 
935.000000	 64.230203 
934.000000	 64.191579 
933.000000	 64.153337 
932.000000	 64.119029 
931.000000	 64.091873 
930.000000	 64.073967 
929.000000	 64.065790 
928.000000	 64.066004 
927.000000	 64.072012 
926.000000	 64.080882 
925.000000	 64.090323 
924.000000	 64.098930 
923.000000	 64.106726 
922.000000	 64.115023 
921.000000	 64.125895 
920.000000	 64.141035 
919.000000	 64.161205 
918.000000	 64.185857 
917.000000	 64.212775 
916.000000	 64.238810 
915.000000	 64.260292 
914.000000	 64.274072 
913.000000	 64.278006 
912.000000	 64.271712 
911.000000	 64.256548 
910.000000	 64.235281 
909.000000	 64.211726 
908.000000	 64.190006 
907.000000	 64.173579 
906.000000	 64.164566 
905.000000	 64.163637 
904.000000	 64.169931 
903.000000	 64.181041 
902.000000	 64.193606 
901.000000	 64.203882 
900.000000	 64.208602 
899.000000	 64.205265 
898.000000	 64.193010 
897.000000	 64.172410 
896.000000	 64.146065 
895.000000	 64.117765 
894.000000	 64.092135 
893.000000	 64.073801 
892.000000	 64.066147 
891.000000	 64.070987 
890.000000	 64.087724 
889.000000	 64.113616 
888.000000	 64.144134 
887.000000	 64.173698 
886.000000	 64.197206 
885.000000	 64.210844 
884.000000	 64.213395 
883.000000	 64.206266 
882.000000	 64.193415 
881.000000	 64.180088 
880.000000	 64.171552 
879.000000	 64.171671 
878.000000	 64.181876 
877.000000	 64.200878 
876.000000	 64.224863 
875.000000	 64.248609 
874.000000	 64.266753 
873.000000	 64.275240 
872.000000	 64.271998 
871.000000	 64.257454 
870.000000	 64.233827 
869.000000	 64.205026 
868.000000	 64.175224 
867.000000	 64.148521 
866.000000	 64.127779 
865.000000	 64.114713 
864.000000	 64.109706 
863.000000	 64.112234 
862.000000	 64.121174 
861.000000	 64.135241 
860.000000	 64.153385 
859.000000	 64.174556 
858.000000	 64.197683 
857.000000	 64.221477 
856.000000	 64.244294 
855.000000	 64.264345 
854.000000	 64.279651 
853.000000	 64.288640 
852.000000	 64.290452 
851.000000	 64.285254 
850.000000	 64.274048 
849.000000	 64.258337 
848.000000	 64.239645 
847.000000	 64.219307 
846.000000	 64.198088 
845.000000	 64.175939 
844.000000	 64.152479 
843.000000	 64.127397 
842.000000	 64.100861 
841.000000	 64.073920 
840.000000	 64.048409 
839.000000	 64.026522 
838.000000	 64.010310 
837.000000	 64.000725 
836.000000	 63.997578 
835.000000	 63.998985 
834.000000	 64.002370 
833.000000	 64.004921 
832.000000	 64.004707 
831.000000	 64.000988 
830.000000	 63.994884 
829.000000	 63.988637 
828.000000	 63.985300 
827.000000	 63.987445 
826.000000	 63.996815 
825.000000	 64.013624 
824.000000	 64.036703 
823.000000	 64.063644 
822.000000	 64.092040 
821.000000	 64.119839 
820.000000	 64.146089 
819.000000	 64.170718 
818.000000	 64.194345 
817.000000	 64.217615 
816.000000	 64.240622 
815.000000	 64.262700 
814.000000	 64.282345 
813.000000	 64.297318 
812.000000	 64.305639 
811.000000	 64.305520 
810.000000	 64.295959 
809.000000	 64.276576 
808.000000	 64.248347 
807.000000	 64.213132 
806.000000	 64.173936 
805.000000	 64.134311 
804.000000	 64.098286 
803.000000	 64.069533 
802.000000	 64.050817 
801.000000	 64.043378 
800.000000	 64.046573 
799.000000	 64.058208 
798.000000	 64.074993 
797.000000	 64.093065 
796.000000	 64.108753 
795.000000	 64.119315 
794.000000	 64.123296 
793.000000	 64.120769 
792.000000	 64.113092 
791.000000	 64.102220 
790.000000	 64.090514 
789.000000	 64.079880 
788.000000	 64.071536 
787.000000	 64.066219 
786.000000	 64.064073 
785.000000	 64.064908 
784.000000	 64.068412 
783.000000	 64.074349 
782.000000	 64.082765 
781.000000	 64.093422 
780.000000	 64.105987 
779.000000	 64.120149 
778.000000	 64.134931 
777.000000	 64.149212 
776.000000	 64.161038 
775.000000	 64.168262 
774.000000	 64.168477 
773.000000	 64.159941 
772.000000	 64.141798 
771.000000	 64.114475 
770.000000	 64.080071 
769.000000	 64.042425 
768.000000	 64.006423 
767.000000	 63.977146 
766.000000	 63.958954 
765.000000	 63.954496 
764.000000	 63.963890 
763.000000	 63.984584 
762.000000	 64.011764 
761.000000	 64.039230 
760.000000	 64.060831 
759.000000	 64.071559 
758.000000	 64.068675 
757.000000	 64.052104 
756.000000	 64.023971 
755.000000	 63.988232 
754.000000	 63.949322 
753.000000	 63.911676 
752.000000	 63.878870 
751.000000	 63.853406 
750.000000	 63.836693 
749.000000	 63.829088 
748.000000	 63.830447 
747.000000	 63.840126 
746.000000	 63.857245 
745.000000	 63.880944 
744.000000	 63.910079 
743.000000	 63.943314 
742.000000	 63.979029 
741.000000	 64.015316 
740.000000	 64.050173 
739.000000	 64.081954 
738.000000	 64.109420 
737.000000	 64.132022 
736.000000	 64.149856 
735.000000	 64.163780 
734.000000	 64.174985 
733.000000	 64.184522 
732.000000	 64.193010 
731.000000	 64.200496 
730.000000	 64.206075 
729.000000	 64.209008 
728.000000	 64.208149 
727.000000	 64.202857 
726.000000	 64.193129 
725.000000	 64.179754 
724.000000	 64.164113 
723.000000	 64.148330 
722.000000	 64.134192 
721.000000	 64.122843 
720.000000	 64.114570 
719.000000	 64.108991 
718.000000	 64.104938 
717.000000	 64.100790 
716.000000	 64.095139 
715.000000	 64.087247 
714.000000	 64.076995 
713.000000	 64.065003 
712.000000	 64.052271 
711.000000	 64.039659 
710.000000	 64.028072 
709.000000	 64.017772 
708.000000	 64.008235 
707.000000	 63.997840 
706.000000	 63.984537 
705.000000	 63.965988 
704.000000	 63.940072 
703.000000	 63.905954 
702.000000	 63.864421 
701.000000	 63.818335 
700.000000	 63.772058 
699.000000	 63.731002 
698.000000	 63.700151 
697.000000	 63.683676 
696.000000	 63.683414 
695.000000	 63.699412 
694.000000	 63.729548 
693.000000	 63.770699 
692.000000	 63.819146 
691.000000	 63.871550 
690.000000	 63.925051 
689.000000	 63.977479 
688.000000	 64.027070 
687.000000	 64.072012 
686.000000	 64.110016 
685.000000	 64.138627 
684.000000	 64.155411 
683.000000	 64.158725 
682.000000	 64.148163 
681.000000	 64.125466 
680.000000	 64.093923 
679.000000	 64.057946 
678.000000	 64.021992 
677.000000	 63.990283 
676.000000	 63.965773 
675.000000	 63.949513 
674.000000	 63.941073 
673.000000	 63.939213 
672.000000	 63.942217 
671.000000	 63.948321 
670.000000	 63.956165 
669.000000	 63.964915 
668.000000	 63.974118 
667.000000	 63.983416 
666.000000	 63.992428 
665.000000	 64.000463 
664.000000	 64.006567 
663.000000	 64.009714 
662.000000	 64.008975 
661.000000	 64.003872 
660.000000	 63.994264 
659.000000	 63.980698 
658.000000	 63.964080 
657.000000	 63.945913 
656.000000	 63.928246 
655.000000	 63.913798 
654.000000	 63.905382 
653.000000	 63.905882 
652.000000	 63.917803 
651.000000	 63.942933 
650.000000	 63.981485 
649.000000	 64.032244 
648.000000	 64.092421 
647.000000	 64.157843 
646.000000	 64.223504 
645.000000	 64.284038 
644.000000	 64.334487 
643.000000	 64.370608 
642.000000	 64.389944 
641.000000	 64.391779 
640.000000	 64.377570 
639.000000	 64.350605 
638.000000	 64.315676 
637.000000	 64.278697 
636.000000	 64.246034 
635.000000	 64.223575 
634.000000	 64.215683 
633.000000	 64.224767 
632.000000	 64.250802 
631.000000	 64.291214 
630.000000	 64.340949 
629.000000	 64.393281 
628.000000	 64.441037 
627.000000	 64.477372 
626.000000	 64.497208 
625.000000	 64.497756 
624.000000	 64.479112 
623.000000	 64.443969 
622.000000	 64.397144 
621.000000	 64.344549 
620.000000	 64.292097 
619.000000	 64.245152 
618.000000	 64.207053 
617.000000	 64.179396 
616.000000	 64.161324 
615.000000	 64.150738 
614.000000	 64.144062 
613.000000	 64.137482 
612.000000	 64.127230 
611.000000	 64.110231 
610.000000	 64.084553 
609.000000	 64.049482 
608.000000	 64.005684 
607.000000	 63.955020 
606.000000	 63.901042 
605.000000	 63.848495 
604.000000	 63.802671 
603.000000	 63.768529 
602.000000	 63.749790 
601.000000	 63.748097 
600.000000	 63.762450 
599.000000	 63.789701 
598.000000	 63.824892 
597.000000	 63.862872 
596.000000	 63.898944 
595.000000	 63.930225 
594.000000	 63.955116 
593.000000	 63.974332 
592.000000	 63.989710 
591.000000	 64.004588 
590.000000	 64.022135 
589.000000	 64.045262 
588.000000	 64.076399 
587.000000	 64.116168 
586.000000	 64.163398 
585.000000	 64.214611 
584.000000	 64.264869 
583.000000	 64.307713 
582.000000	 64.336442 
581.000000	 64.344882 
580.000000	 64.328670 
579.000000	 64.286589 
578.000000	 64.221191 
577.000000	 64.138746 
576.000000	 64.048600 
575.000000	 63.961458 
574.000000	 63.888096 
573.000000	 63.837575 
572.000000	 63.816308 
571.000000	 63.827371 
570.000000	 63.870215 
569.000000	 63.941287 
568.000000	 64.034581 
567.000000	 64.142036 
566.000000	 64.255070 
565.000000	 64.364266 
564.000000	 64.461946 
563.000000	 64.542937 
562.000000	 64.604783 
561.000000	 64.648056 
560.000000	 64.674520 
559.000000	 64.686346 
558.000000	 64.684748 
557.000000	 64.670085 
556.000000	 64.641284 
555.000000	 64.596962 
554.000000	 64.536619 
553.000000	 64.461970 
552.000000	 64.377117 
551.000000	 64.289021 
550.000000	 64.205861 
549.000000	 64.136075 
548.000000	 64.087271 
547.000000	 64.064788 
546.000000	 64.070439 
545.000000	 64.102482 
544.000000	 64.155721 
543.000000	 64.222455 
542.000000	 64.293146 
541.000000	 64.358329 
540.000000	 64.409184 
539.000000	 64.439916 
538.000000	 64.446783 
537.000000	 64.430809 
536.000000	 64.396882 
535.000000	 64.354014 
534.000000	 64.312791 
533.000000	 64.284706 
532.000000	 64.280390 
531.000000	 64.306426 
530.000000	 64.364004 
529.000000	 64.448332 
528.000000	 64.549326 
527.000000	 64.653348 
526.000000	 64.745759 
525.000000	 64.812970 
524.000000	 64.845037 
523.000000	 64.837694 
522.000000	 64.792752 
521.000000	 64.717388 
520.000000	 64.621949 
519.000000	 64.518404 
518.000000	 64.417219 
517.000000	 64.325952 
516.000000	 64.248204 
515.000000	 64.184617 
514.000000	 64.133501 
513.000000	 64.092874 
512.000000	 64.060950 
511.000000	 64.038038 
510.000000	 64.024114 
509.000000	 64.016890 
508.000000	 64.012384 
507.000000	 64.005136 
506.000000	 63.988685 
505.000000	 63.955497 
504.000000	 63.901972 
503.000000	 63.829302 
502.000000	 63.746404 
501.000000	 63.668560 
500.000000	 63.613486 
499.000000	 63.596343 
498.000000	 63.626456 
497.000000	 63.704061 
496.000000	 63.817453 
495.000000	 63.945651 
494.000000	 64.064693 
493.000000	 64.152860 
492.000000	 64.194846 
491.000000	 64.185786 
490.000000	 64.129543 
489.000000	 64.040589 
488.000000	 63.935875 
487.000000	 63.838338 
486.000000	 63.769030 
485.000000	 63.751459 
484.000000	 63.807201 
483.000000	 63.955473 
482.000000	 64.210724 
481.000000	 64.575576 
480.000000	 65.039324 
479.000000	 65.571951 
478.000000	 66.129350 
477.000000	 66.650867 
476.000000	 67.068839 
475.000000	 67.321348 
474.000000	 67.365980 
473.000000	 67.186617 
472.000000	 66.798281 
471.000000	 66.245555 
470.000000	 65.593934 
469.000000	 64.919090 
468.000000	 64.292287 
467.000000	 63.766622 
466.000000	 63.370037 
465.000000	 63.108229 
464.000000	 62.967920 
463.000000	 62.921857 
462.000000	 62.941765 
461.000000	 63.002681 
460.000000	 63.091921 
459.000000	 63.207268 
458.000000	 63.352298 
457.000000	 63.529562 
456.000000	 63.728451 
455.000000	 63.923239 
454.000000	 64.067697 
453.000000	 64.106297 
452.000000	 63.980364 
451.000000	 63.647603 
450.000000	 63.088297 
449.000000	 62.316226 
448.000000	 61.377692 
447.000000	 60.347580 
446.000000	 59.317064 
445.000000	 58.380699 
444.000000	 57.628130 
443.000000	 57.133078 
442.000000	 56.948995 
441.000000	 57.102704 
440.000000	 57.585692 
439.000000	 58.356356 
438.000000	 59.343099 
437.000000	 60.453724 
436.000000	 61.577820 
435.000000	 62.608337 
434.000000	 63.450670 
433.000000	 64.041256 
432.000000	 64.352250 
431.000000	 64.395070 
430.000000	 64.219951 
429.000000	 63.895559 
428.000000	 63.501286 
427.000000	 63.100814 
426.000000	 62.741684 
425.000000	 62.437891 
424.000000	 62.181639 
423.000000	 61.945128 
422.000000	 61.699342 
421.000000	 61.424040 
420.000000	 61.119103 
419.000000	 60.813522 
418.000000	 60.561823 
417.000000	 60.438776 
416.000000	 60.521078 
415.000000	 60.874032 
414.000000	 61.529421 
413.000000	 62.468600 
412.000000	 63.617968 
411.000000	 64.862108 
410.000000	 66.060352 
409.000000	 67.070817 
408.000000	 67.781543 
407.000000	 68.124222 
406.000000	 68.095874 
405.000000	 67.770528 
404.000000	 67.265439 
403.000000	 66.721343 
402.000000	 66.254401 
401.000000	 65.932011 
400.000000	 65.759730 
399.000000	 65.692949 
398.000000	 65.660619 
397.000000	 65.602064 
396.000000	 65.485119 
395.000000	 65.325188 
394.000000	 65.167093 
393.000000	 65.060758 
392.000000	 65.068697 
391.000000	 65.258574 
390.000000	 65.599656 
389.000000	 65.986347 
388.000000	 66.380143 
387.000000	 66.754984 
386.000000	 67.339038 
385.000000	 68.433380 
384.000000	 69.642043 
383.000000	 70.378637 
382.000000	 70.249700 
381.000000	 69.094753 
380.000000	 67.975282 
379.000000	 67.895007 
378.000000	 69.039511 
377.000000	 70.997476 
376.000000	 71.196985 
375.000000	 67.871379 
374.000000	 61.623597 
373.000000	 54.615926 
372.000000	 52.336740 
371.000000	 57.853722 
370.000000	 69.477510 

