PE IR       SPECTRUM    SPECTRUM    ASCII       PEDS        1.60        
  -1
BZ6926~1.ASC
17/04/07
19:53:20.00
17/04/07
19:53:20.00
tln
$BZ1503107-1_t0081$<tbV0>[5.2,5.2,8.0,0.0,27,1,0]
370.000000
64









2002,4.07    
MIRTGS : RIGHTBACK : INTERNAL 2
MIR : ON : INTERNAL 2
OPTKBR

0.200000
8
8.000000
FILLER
RATIO
SPECTRUM
UNLOCKED 256

DOUBLE
64
COMBINED
1
0
0


1.000000
RATIO


1
0
TRUE
51149
0
LEFT NOT FITTED RIGHT NOT FITTED 0
NONE
NONE
15600
12.000000
4.427000
51148
TRUE
1 0 8 72 0 0 0 0 

15798.010000






#HDR
-1
-1
#GR
CM-1
%T
0.00002384185791015625
0.0
5000.000000
-1.000000
4631
8
71.546220
47.442340
#DATA
5000.000000	66.101312 
4999.000000	66.000008 
4998.000000	65.893387 
4997.000000	65.792250 
4996.000000	65.701961 
4995.000000	65.622472 
4994.000000	65.552854 
4993.000000	65.496206 
4992.000000	65.458512 
4991.000000	65.450072 
4990.000000	65.478610 
4989.000000	65.546774 
4988.000000	65.645337 
4987.000000	65.753245 
4986.000000	65.838932 
4985.000000	65.866494 
4984.000000	65.808272 
4983.000000	65.653443 
4982.000000	65.411710 
4981.000000	65.112590 
4980.000000	64.801049 
4979.000000	64.526724 
4978.000000	64.329838 
4977.000000	64.233183 
4976.000000	64.237403 
4975.000000	64.323973 
4974.000000	64.461016 
4973.000000	64.615201 
4972.000000	64.759278 
4971.000000	64.881610 
4970.000000	64.984798 
4969.000000	65.085577 
4968.000000	65.203857 
4967.000000	65.357065 
4966.000000	65.552330 
4965.000000	65.781021 
4964.000000	66.020989 
4963.000000	66.237878 
4962.000000	66.397023 
4961.000000	66.464781 
4960.000000	66.418790 
4959.000000	66.247844 
4958.000000	65.955686 
4957.000000	65.556406 
4956.000000	65.072846 
4955.000000	64.533758 
4954.000000	63.971567 
4953.000000	63.419270 
4952.000000	62.909269 
4951.000000	62.472176 
4950.000000	62.135791 
4949.000000	61.920356 
4948.000000	61.839151 
4947.000000	61.892700 
4946.000000	62.072610 
4945.000000	62.357163 
4944.000000	62.718605 
4943.000000	63.121366 
4942.000000	63.530588 
4941.000000	63.913464 
4940.000000	64.243721 
4939.000000	64.501476 
4938.000000	64.674878 
4937.000000	64.759731 
4936.000000	64.758729 
4935.000000	64.681005 
4934.000000	64.541125 
4933.000000	64.358925 
4932.000000	64.158368 
4931.000000	63.966560 
4930.000000	63.810610 
4929.000000	63.714838 
4928.000000	63.697361 
4927.000000	63.767051 
4926.000000	63.920211 
4925.000000	64.141225 
4924.000000	64.405560 
4923.000000	64.683914 
4922.000000	64.944434 
4921.000000	65.159964 
4920.000000	65.312480 
4919.000000	65.396046 
4918.000000	65.414905 
4917.000000	65.382909 
4916.000000	65.319919 
4915.000000	65.246820 
4914.000000	65.183234 
4913.000000	65.141725 
4912.000000	65.128278 
4911.000000	65.140414 
4910.000000	65.172171 
4909.000000	65.213489 
4908.000000	65.253710 
4907.000000	65.284562 
4906.000000	65.302491 
4905.000000	65.308260 
4904.000000	65.305709 
4903.000000	65.301036 
4902.000000	65.300512 
4901.000000	65.309166 
4900.000000	65.329360 
4899.000000	65.360736 
4898.000000	65.400385 
4897.000000	65.444231 
4896.000000	65.487670 
4895.000000	65.527200 
4894.000000	65.560245 
4893.000000	65.585112 
4892.000000	65.600419 
4891.000000	65.605616 
4890.000000	65.599775 
4889.000000	65.581536 
4888.000000	65.549850 
4887.000000	65.505337 
4886.000000	65.450263 
4885.000000	65.389108 
4884.000000	65.327239 
4883.000000	65.270137 
4882.000000	65.222096 
4881.000000	65.185427 
4880.000000	65.160059 
4879.000000	65.143728 
4878.000000	65.132451 
4877.000000	65.121507 
4876.000000	65.106320 
4875.000000	65.083575 
4874.000000	65.050697 
4873.000000	65.006566 
4872.000000	64.951467 
4871.000000	64.887642 
4870.000000	64.818572 
4869.000000	64.749217 
4868.000000	64.685297 
4867.000000	64.632868 
4866.000000	64.597129 
4865.000000	64.582228 
4864.000000	64.589929 
4863.000000	64.619731 
4862.000000	64.668107 
4861.000000	64.729833 
4860.000000	64.798140 
4859.000000	64.866471 
4858.000000	64.928936 
4857.000000	64.981031 
4856.000000	65.019917 
4855.000000	65.043973 
4854.000000	65.052866 
4853.000000	65.046405 
4852.000000	65.024566 
4851.000000	64.987373 
4850.000000	64.935708 
4849.000000	64.871025 
4848.000000	64.795875 
4847.000000	64.714694 
4846.000000	64.633822 
4845.000000	64.561009 
4844.000000	64.504432 
4843.000000	64.471554 
4842.000000	64.467620 
4841.000000	64.494252 
4840.000000	64.548993 
4839.000000	64.625072 
4838.000000	64.712667 
4837.000000	64.800524 
4836.000000	64.877796 
4835.000000	64.935994 
4834.000000	64.969992 
4833.000000	64.978408 
4832.000000	64.963221 
4831.000000	64.928841 
4830.000000	64.880824 
4829.000000	64.825129 
4828.000000	64.766907 
4827.000000	64.710521 
4826.000000	64.659571 
4825.000000	64.617419 
4824.000000	64.587402 
4823.000000	64.572858 
4822.000000	64.576339 
4821.000000	64.598941 
4820.000000	64.639639 
4819.000000	64.694857 
4818.000000	64.758062 
4817.000000	64.820623 
4816.000000	64.873290 
4815.000000	64.907670 
4814.000000	64.917445 
4813.000000	64.899730 
4812.000000	64.855837 
4811.000000	64.791202 
4810.000000	64.714264 
4809.000000	64.635038 
4808.000000	64.563298 
4807.000000	64.506649 
4806.000000	64.469552 
4805.000000	64.452433 
4804.000000	64.451909 
4803.000000	64.462471 
4802.000000	64.477920 
4801.000000	64.493489 
4800.000000	64.506411 
4799.000000	64.516854 
4798.000000	64.526700 
4797.000000	64.539313 
4796.000000	64.557909 
4795.000000	64.584493 
4794.000000	64.618873 
4793.000000	64.658904 
4792.000000	64.700913 
4791.000000	64.740800 
4790.000000	64.774680 
4789.000000	64.799904 
4788.000000	64.815592 
4787.000000	64.822602 
4786.000000	64.823055 
4785.000000	64.819431 
4784.000000	64.813828 
4783.000000	64.807558 
4782.000000	64.800810 
4781.000000	64.792943 
4780.000000	64.783072 
4779.000000	64.770746 
4778.000000	64.756774 
4777.000000	64.743161 
4776.000000	64.733576 
4775.000000	64.732193 
4774.000000	64.743399 
4773.000000	64.770293 
4772.000000	64.814066 
4771.000000	64.873075 
4770.000000	64.943003 
4769.000000	65.017151 
4768.000000	65.087819 
4767.000000	65.147709 
4766.000000	65.190958 
4765.000000	65.213871 
4764.000000	65.215420 
4763.000000	65.196967 
4762.000000	65.161895 
4761.000000	65.114712 
4760.000000	65.061044 
4759.000000	65.005970 
4758.000000	64.954757 
4757.000000	64.910745 
4756.000000	64.875388 
4755.000000	64.847517 
4754.000000	64.824318 
4753.000000	64.801931 
4752.000000	64.776086 
4751.000000	64.744234 
4750.000000	64.705538 
4749.000000	64.662241 
4748.000000	64.618706 
4747.000000	64.580583 
4746.000000	64.553213 
4745.000000	64.540386 
4744.000000	64.543271 
4743.000000	64.559626 
4742.000000	64.584207 
4741.000000	64.610028 
4740.000000	64.630174 
4739.000000	64.639019 
4738.000000	64.633560 
4737.000000	64.614248 
4736.000000	64.585280 
4735.000000	64.552974 
4734.000000	64.525246 
4733.000000	64.510250 
4732.000000	64.515256 
4731.000000	64.545273 
4730.000000	64.601850 
4729.000000	64.682483 
4728.000000	64.780497 
4727.000000	64.886641 
4726.000000	64.990186 
4725.000000	65.080833 
4724.000000	65.150403 
4723.000000	65.194511 
4722.000000	65.212130 
4721.000000	65.205454 
4720.000000	65.178585 
4719.000000	65.136933 
4718.000000	65.085721 
4717.000000	65.029644 
4716.000000	64.972329 
4715.000000	64.916753 
4714.000000	64.864850 
4713.000000	64.817833 
4712.000000	64.775991 
4711.000000	64.739108 
4710.000000	64.706563 
4709.000000	64.677953 
4708.000000	64.652466 
4707.000000	64.629936 
4706.000000	64.611268 
4705.000000	64.598488 
4704.000000	64.593815 
4703.000000	64.599418 
4702.000000	64.616346 
4701.000000	64.644098 
4700.000000	64.680123 
4699.000000	64.720582 
4698.000000	64.761066 
4697.000000	64.797663 
4696.000000	64.827704 
4695.000000	64.849996 
4694.000000	64.865088 
4693.000000	64.874100 
4692.000000	64.878368 
4691.000000	64.878678 
4690.000000	64.874911 
4689.000000	64.866399 
4688.000000	64.852666 
4687.000000	64.832663 
4686.000000	64.805412 
4685.000000	64.770627 
4684.000000	64.728927 
4683.000000	64.681243 
4682.000000	64.628863 
4681.000000	64.573335 
4680.000000	64.516496 
4679.000000	64.460301 
4678.000000	64.406991 
4677.000000	64.359021 
4676.000000	64.319276 
4675.000000	64.290595 
4674.000000	64.276003 
4673.000000	64.277029 
4672.000000	64.294123 
4671.000000	64.325833 
4670.000000	64.369368 
4669.000000	64.420104 
4668.000000	64.473867 
4667.000000	64.526629 
4666.000000	64.576673 
4665.000000	64.623832 
4664.000000	64.670705 
4663.000000	64.721202 
4662.000000	64.779591 
4661.000000	64.848804 
4660.000000	64.929032 
4659.000000	65.016818 
4658.000000	65.105724 
4657.000000	65.187191 
4656.000000	65.252614 
4655.000000	65.294647 
4654.000000	65.309786 
4653.000000	65.298390 
4652.000000	65.264177 
4651.000000	65.213108 
4650.000000	65.152192 
4649.000000	65.087842 
4648.000000	65.025115 
4647.000000	64.967346 
4646.000000	64.916825 
4645.000000	64.875054 
4644.000000	64.843463 
4643.000000	64.823627 
4642.000000	64.816856 
4641.000000	64.823937 
4640.000000	64.844036 
4639.000000	64.874577 
4638.000000	64.910721 
4637.000000	64.946889 
4636.000000	64.977598 
4635.000000	64.998769 
4634.000000	65.008211 
4633.000000	65.006804 
4632.000000	64.998149 
4631.000000	64.987254 
4630.000000	64.979076 
4629.000000	64.977836 
4628.000000	64.985513 
4627.000000	65.001893 
4626.000000	65.024042 
4625.000000	65.047669 
4624.000000	65.067648 
4623.000000	65.079522 
4622.000000	65.080523 
4621.000000	65.069842 
4620.000000	65.049386 
4619.000000	65.023088 
4618.000000	64.996337 
4617.000000	64.974594 
4616.000000	64.962482 
4615.000000	64.963436 
4614.000000	64.977979 
4613.000000	65.004277 
4612.000000	65.037822 
4611.000000	65.072631 
4610.000000	65.101814 
4609.000000	65.118908 
4608.000000	65.119171 
4607.000000	65.100264 
4606.000000	65.062642 
4605.000000	65.009593 
4604.000000	64.946699 
4603.000000	64.881157 
4602.000000	64.820957 
4601.000000	64.773750 
4600.000000	64.745616 
4599.000000	64.740252 
4598.000000	64.758634 
4597.000000	64.798784 
4596.000000	64.856052 
4595.000000	64.923930 
4594.000000	64.995169 
4593.000000	65.062952 
4592.000000	65.121436 
4591.000000	65.166449 
4590.000000	65.195655 
4589.000000	65.208530 
4588.000000	65.206003 
4587.000000	65.189838 
4586.000000	65.162372 
4585.000000	65.126729 
4584.000000	65.086817 
4583.000000	65.047717 
4582.000000	65.015506 
4581.000000	64.996314 
4580.000000	64.995551 
4579.000000	65.015912 
4578.000000	65.056538 
4577.000000	65.111994 
4576.000000	65.173077 
4575.000000	65.228366 
4574.000000	65.266704 
4573.000000	65.279483 
4572.000000	65.262699 
4571.000000	65.217494 
4570.000000	65.150046 
4569.000000	65.069818 
4568.000000	64.987707 
4567.000000	64.913582 
4566.000000	64.854788 
4565.000000	64.815402 
4564.000000	64.795827 
4563.000000	64.794397 
4562.000000	64.807462 
4561.000000	64.830780 
4560.000000	64.859962 
4559.000000	64.890956 
4558.000000	64.920020 
4557.000000	64.943385 
4556.000000	64.958047 
4555.000000	64.961528 
4554.000000	64.953088 
4553.000000	64.933753 
4552.000000	64.906191 
4551.000000	64.874124 
4550.000000	64.841675 
4549.000000	64.812326 
4548.000000	64.787483 
4547.000000	64.766454 
4546.000000	64.746618 
4545.000000	64.724707 
4544.000000	64.698219 
4543.000000	64.666819 
4542.000000	64.632654 
4541.000000	64.600086 
4540.000000	64.574122 
4539.000000	64.559054 
4538.000000	64.556717 
4537.000000	64.566445 
4536.000000	64.583897 
4535.000000	64.603638 
4534.000000	64.620399 
4533.000000	64.630913 
4532.000000	64.634513 
4531.000000	64.633846 
4530.000000	64.633941 
4529.000000	64.640712 
4528.000000	64.658808 
4527.000000	64.690732 
4526.000000	64.735412 
4525.000000	64.789223 
4524.000000	64.846730 
4523.000000	64.902067 
4522.000000	64.950275 
4521.000000	64.987850 
4520.000000	65.013670 
4519.000000	65.027976 
4518.000000	65.032935 
4517.000000	65.031433 
4516.000000	65.027236 
4515.000000	65.024447 
4514.000000	65.026974 
4513.000000	65.037894 
4512.000000	65.059041 
4511.000000	65.090584 
4510.000000	65.131378 
4509.000000	65.179491 
4508.000000	65.232539 
4507.000000	65.288066 
4506.000000	65.343976 
4505.000000	65.398955 
4504.000000	65.451860 
4503.000000	65.501451 
4502.000000	65.546035 
4501.000000	65.583682 
4500.000000	65.611386 
4499.000000	65.625834 
4498.000000	65.623664 
4497.000000	65.602684 
4496.000000	65.562391 
4495.000000	65.504431 
4494.000000	65.433597 
4493.000000	65.357112 
4492.000000	65.283012 
4491.000000	65.218710 
4490.000000	65.170764 
4489.000000	65.142846 
4488.000000	65.135502 
4487.000000	65.145158 
4486.000000	65.164303 
4485.000000	65.183258 
4484.000000	65.192651 
4483.000000	65.185427 
4482.000000	65.156579 
4481.000000	65.105819 
4480.000000	65.040588 
4479.000000	64.969825 
4478.000000	64.899301 
4477.000000	64.832973 
4476.000000	64.770674 
4475.000000	64.712905 
4474.000000	64.664983 
4473.000000	64.628434 
4472.000000	64.598178 
4471.000000	64.572978 
4470.000000	64.556431 
4469.000000	64.543485 
4468.000000	64.522147 
4467.000000	64.478445 
4466.000000	64.400482 
4465.000000	64.286661 
4464.000000	64.147138 
4463.000000	63.994193 
4462.000000	63.845825 
4461.000000	63.726854 
4460.000000	63.665461 
4459.000000	63.674092 
4458.000000	63.765621 
4457.000000	63.940906 
4456.000000	64.209771 
4455.000000	64.592313 
4454.000000	65.112495 
4453.000000	65.800452 
4452.000000	66.653203 
4451.000000	67.638802 
4450.000000	68.653059 
4449.000000	69.549274 
4448.000000	70.113992 
4447.000000	70.117449 
4446.000000	69.349813 
4445.000000	67.685556 
4444.000000	65.122342 
4443.000000	61.811757 
4442.000000	58.057665 
4441.000000	54.283285 
4440.000000	50.968217 
4439.000000	48.570966 
4438.000000	47.442340 
4437.000000	47.763085 
4436.000000	49.522376 
4435.000000	52.507185 
4434.000000	56.341600 
4433.000000	60.541725 
4432.000000	64.579391 
4431.000000	67.982935 
4430.000000	70.369219 
4429.000000	71.546220 
4428.000000	71.508669 
4427.000000	70.453548 
4426.000000	68.727803 
4425.000000	66.747546 
4424.000000	64.919829 
4423.000000	63.555097 
4422.000000	62.834954 
4421.000000	62.786960 
4420.000000	63.327217 
4419.000000	64.284920 
4418.000000	65.472292 
4417.000000	66.698789 
4416.000000	67.810821 
4415.000000	68.691277 
4414.000000	69.268751 
4413.000000	69.517898 
4412.000000	69.451308 
4411.000000	69.126176 
4410.000000	68.619632 
4409.000000	68.007802 
4408.000000	67.350196 
4407.000000	66.695261 
4406.000000	66.070485 
4405.000000	65.497159 
4404.000000	64.987635 
4403.000000	64.556789 
4402.000000	64.217400 
4401.000000	63.986420 
4400.000000	63.872075 
4399.000000	63.851380 
4398.000000	63.894724 
4397.000000	63.969850 
4396.000000	64.049506 
4395.000000	64.114522 
4394.000000	64.157128 
4393.000000	64.175653 
4392.000000	64.177560 
4391.000000	64.174103 
4390.000000	64.174938 
4389.000000	64.183902 
4388.000000	64.201927 
4387.000000	64.226913 
4386.000000	64.257621 
4385.000000	64.293813 
4384.000000	64.333462 
4383.000000	64.373493 
4382.000000	64.411067 
4381.000000	64.443612 
4380.000000	64.467668 
4379.000000	64.481210 
4378.000000	64.482235 
4377.000000	64.472460 
4376.000000	64.459466 
4375.000000	64.453816 
4374.000000	64.465093 
4373.000000	64.500975 
4372.000000	64.565896 
4371.000000	64.658522 
4370.000000	64.770817 
4369.000000	64.891123 
4368.000000	65.007233 
4367.000000	65.108084 
4366.000000	65.186214 
4365.000000	65.238642 
4364.000000	65.266799 
4363.000000	65.276694 
4362.000000	65.277171 
4361.000000	65.277886 
4360.000000	65.287113 
4359.000000	65.311074 
4358.000000	65.352511 
4357.000000	65.411043 
4356.000000	65.482378 
4355.000000	65.559720 
4354.000000	65.634274 
4353.000000	65.696787 
4352.000000	65.739178 
4351.000000	65.756082 
4350.000000	65.746116 
4349.000000	65.712046 
4348.000000	65.660405 
4347.000000	65.600132 
4346.000000	65.540838 
4345.000000	65.490984 
4344.000000	65.456223 
4343.000000	65.439200 
4342.000000	65.438580 
4341.000000	65.450310 
4340.000000	65.467572 
4339.000000	65.482950 
4338.000000	65.488624 
4337.000000	65.477943 
4336.000000	65.446782 
4335.000000	65.394425 
4334.000000	65.323138 
4333.000000	65.237951 
4332.000000	65.146183 
4331.000000	65.056347 
4330.000000	64.976668 
4329.000000	64.913868 
4328.000000	64.872574 
4327.000000	64.854454 
4326.000000	64.858078 
4325.000000	64.879631 
4324.000000	64.913654 
4323.000000	64.954376 
4322.000000	64.995646 
4321.000000	65.032696 
4320.000000	65.061497 
4319.000000	65.079808 
4318.000000	65.086531 
4317.000000	65.082025 
4316.000000	65.067791 
4315.000000	65.046334 
4314.000000	65.021038 
4313.000000	64.994955 
4312.000000	64.970707 
4311.000000	64.949941 
4310.000000	64.933347 
4309.000000	64.920759 
4308.000000	64.911413 
4307.000000	64.904427 
4306.000000	64.899134 
4305.000000	64.894747 
4304.000000	64.890432 
4303.000000	64.885306 
4302.000000	64.878559 
4301.000000	64.868998 
4300.000000	64.855933 
4299.000000	64.839410 
4298.000000	64.820885 
4297.000000	64.803290 
4296.000000	64.790701 
4295.000000	64.787745 
4294.000000	64.798140 
4293.000000	64.823818 
4292.000000	64.863753 
4291.000000	64.913749 
4290.000000	64.967083 
4289.000000	65.015888 
4288.000000	65.052771 
4287.000000	65.072441 
4286.000000	65.072894 
4285.000000	65.055584 
4284.000000	65.025234 
4283.000000	64.988756 
4282.000000	64.953899 
4281.000000	64.927625 
4280.000000	64.915156 
4279.000000	64.919066 
4278.000000	64.939188 
4277.000000	64.972329 
4276.000000	65.013480 
4275.000000	65.056300 
4274.000000	65.093970 
4273.000000	65.120434 
4272.000000	65.131044 
4271.000000	65.123438 
4270.000000	65.097784 
4269.000000	65.056943 
4268.000000	65.005779 
4267.000000	64.950680 
4266.000000	64.898228 
4265.000000	64.854216 
4264.000000	64.822649 
4263.000000	64.805316 
4262.000000	64.801907 
4261.000000	64.810323 
4260.000000	64.827156 
4259.000000	64.848661 
4258.000000	64.871430 
4257.000000	64.892768 
4256.000000	64.910721 
4255.000000	64.924168 
4254.000000	64.932465 
4253.000000	64.935493 
4252.000000	64.933776 
4251.000000	64.928245 
4250.000000	64.920473 
4249.000000	64.912676 
4248.000000	64.907479 
4247.000000	64.907407 
4246.000000	64.914345 
4245.000000	64.928960 
4244.000000	64.950346 
4243.000000	64.976572 
4242.000000	65.004348 
4241.000000	65.030193 
4240.000000	65.050268 
4239.000000	65.061497 
4238.000000	65.061569 
4237.000000	65.049576 
4236.000000	65.025949 
4235.000000	64.992213 
4234.000000	64.951467 
4233.000000	64.908003 
4232.000000	64.867210 
4231.000000	64.834737 
4230.000000	64.816117 
4229.000000	64.815711 
4228.000000	64.835643 
4227.000000	64.875221 
4226.000000	64.930462 
4225.000000	64.994549 
4224.000000	65.058922 
4223.000000	65.114736 
4222.000000	65.154409 
4221.000000	65.172982 
4220.000000	65.168905 
4219.000000	65.143895 
4218.000000	65.102601 
4217.000000	65.051341 
4216.000000	64.997076 
4215.000000	64.946103 
4214.000000	64.903187 
4213.000000	64.871072 
4212.000000	64.851021 
4211.000000	64.842629 
4210.000000	64.844536 
4209.000000	64.855122 
4208.000000	64.872670 
4207.000000	64.895772 
4206.000000	64.922904 
4205.000000	64.952898 
4204.000000	64.984321 
4203.000000	65.016007 
4202.000000	65.046596 
4201.000000	65.074825 
4200.000000	65.099430 
4199.000000	65.119719 
4198.000000	65.135645 
4197.000000	65.147972 
4196.000000	65.157890 
4195.000000	65.166974 
4194.000000	65.176272 
4193.000000	65.186452 
4192.000000	65.196537 
4191.000000	65.204429 
4190.000000	65.206599 
4189.000000	65.199732 
4188.000000	65.181112 
4187.000000	65.149855 
4186.000000	65.107059 
4185.000000	65.056085 
4184.000000	65.001797 
4183.000000	64.949846 
4182.000000	64.905548 
4181.000000	64.872622 
4180.000000	64.852929 
4179.000000	64.845895 
4178.000000	64.850020 
4177.000000	64.863276 
4176.000000	64.884018 
4175.000000	64.911174 
4174.000000	64.944505 
4173.000000	64.984178 
4172.000000	65.029811 
4171.000000	65.079641 
4170.000000	65.130090 
4169.000000	65.175938 
4168.000000	65.211105 
4167.000000	65.229940 
4166.000000	65.228629 
4165.000000	65.205931 
4164.000000	65.164446 
4163.000000	65.109419 
4162.000000	65.047860 
4161.000000	64.987134 
4160.000000	64.933919 
4159.000000	64.892554 
4158.000000	64.865088 
4157.000000	64.850640 
4156.000000	64.846849 
4155.000000	64.849543 
4154.000000	64.853668 
4153.000000	64.854335 
4152.000000	64.847159 
4151.000000	64.829730 
4150.000000	64.801454 
4149.000000	64.764475 
4148.000000	64.722776 
4147.000000	64.681911 
4146.000000	64.647722 
4145.000000	64.625120 
4144.000000	64.616942 
4143.000000	64.623451 
4142.000000	64.642596 
4141.000000	64.669990 
4140.000000	64.700436 
4139.000000	64.729118 
4138.000000	64.752912 
4137.000000	64.770483 
4136.000000	64.782881 
4135.000000	64.792585 
4134.000000	64.802980 
4133.000000	64.817047 
4132.000000	64.836573 
4131.000000	64.861822 
4130.000000	64.891171 
4129.000000	64.922428 
4128.000000	64.952421 
4127.000000	64.978051 
4126.000000	64.996504 
4125.000000	65.006113 
4124.000000	65.006136 
4123.000000	64.996814 
4122.000000	64.979314 
4121.000000	64.955425 
4120.000000	64.927577 
4119.000000	64.898538 
4118.000000	64.871120 
4117.000000	64.847779 
4116.000000	64.830064 
4115.000000	64.818429 
4114.000000	64.812254 
4113.000000	64.810180 
4112.000000	64.810156 
4111.000000	64.810371 
4110.000000	64.809322 
4109.000000	64.806628 
4108.000000	64.802813 
4107.000000	64.799427 
4106.000000	64.797782 
4105.000000	64.799332 
4104.000000	64.804792 
4103.000000	64.814233 
4102.000000	64.826846 
4101.000000	64.841604 
4100.000000	64.857625 
4099.000000	64.874124 
4098.000000	64.890646 
4097.000000	64.906573 
4096.000000	64.920902 
4095.000000	64.932036 
4094.000000	64.937806 
4093.000000	64.936232 
4092.000000	64.926123 
4091.000000	64.908075 
4090.000000	64.884686 
4089.000000	64.860177 
4088.000000	64.839434 
4087.000000	64.827322 
4086.000000	64.827132 
4085.000000	64.839482 
4084.000000	64.862132 
4083.000000	64.890527 
4082.000000	64.918661 
4081.000000	64.940524 
4080.000000	64.951705 
4079.000000	64.950156 
4078.000000	64.936828 
4077.000000	64.914989 
4076.000000	64.889454 
4075.000000	64.864826 
4074.000000	64.844632 
4073.000000	64.830446 
4072.000000	64.821648 
4071.000000	64.816188 
4070.000000	64.811205 
4069.000000	64.804482 
4068.000000	64.794993 
4067.000000	64.783549 
4066.000000	64.772629 
4065.000000	64.765715 
4064.000000	64.766240 
4063.000000	64.776539 
4062.000000	64.796996 
4061.000000	64.826059 
4060.000000	64.860367 
4059.000000	64.895725 
4058.000000	64.928126 
4057.000000	64.954590 
4056.000000	64.974021 
4055.000000	64.986968 
4054.000000	64.995050 
4053.000000	65.000128 
4052.000000	65.003609 
4051.000000	65.005660 
4050.000000	65.005421 
4049.000000	65.001177 
4048.000000	64.991211 
4047.000000	64.974498 
4046.000000	64.951539 
4045.000000	64.924335 
4044.000000	64.896368 
4043.000000	64.871597 
4042.000000	64.853501 
4041.000000	64.844465 
4040.000000	64.845204 
4039.000000	64.854884 
4038.000000	64.871311 
4037.000000	64.891839 
4036.000000	64.913964 
4035.000000	64.935803 
4034.000000	64.956331 
4033.000000	64.975070 
4032.000000	64.991927 
4031.000000	65.006852 
4030.000000	65.019559 
4029.000000	65.029382 
4028.000000	65.035390 
4027.000000	65.037417 
4026.000000	65.035581 
4025.000000	65.030789 
4024.000000	65.024089 
4023.000000	65.016818 
4022.000000	65.009880 
4021.000000	65.003681 
4020.000000	64.998149 
4019.000000	64.992690 
4018.000000	64.986777 
4017.000000	64.980316 
4016.000000	64.973878 
4015.000000	64.968490 
4014.000000	64.965415 
4013.000000	64.965844 
4012.000000	64.970445 
4011.000000	64.979100 
4010.000000	64.990997 
4009.000000	65.004634 
4008.000000	65.018415 
4007.000000	65.030670 
4006.000000	65.039920 
4005.000000	65.044784 
4004.000000	65.043926 
4003.000000	65.035963 
4002.000000	65.019392 
4001.000000	64.993453 
4000.000000	64.958357 
3999.000000	64.916014 
3998.000000	64.870214 
3997.000000	64.826250 
3996.000000	64.790344 
3995.000000	64.768242 
3994.000000	64.764022 
3993.000000	64.778995 
3992.000000	64.811253 
3991.000000	64.855837 
3990.000000	64.905691 
3989.000000	64.953017 
3988.000000	64.990472 
3987.000000	65.012764 
3986.000000	65.017223 
3985.000000	65.004229 
3984.000000	64.976835 
3983.000000	64.939832 
3982.000000	64.898943 
3981.000000	64.859843 
3980.000000	64.827346 
3979.000000	64.805245 
3978.000000	64.795613 
3977.000000	64.798736 
3976.000000	64.812994 
3975.000000	64.835357 
3974.000000	64.861726 
3973.000000	64.887619 
3972.000000	64.908981 
3971.000000	64.922451 
3970.000000	64.926815 
3969.000000	64.922285 
3968.000000	64.911389 
3967.000000	64.897942 
3966.000000	64.886522 
3965.000000	64.881324 
3964.000000	64.885115 
3963.000000	64.898920 
3962.000000	64.921355 
3961.000000	64.949035 
3960.000000	64.977025 
3959.000000	64.999985 
3958.000000	65.013504 
3957.000000	65.015292 
3956.000000	65.005493 
3955.000000	64.986920 
3954.000000	64.964842 
3953.000000	64.945793 
3952.000000	64.936280 
3951.000000	64.940834 
3950.000000	64.961075 
3949.000000	64.994764 
3948.000000	65.036535 
3947.000000	65.078639 
3946.000000	65.112543 
3945.000000	65.131139 
3944.000000	65.130209 
3943.000000	65.109705 
3942.000000	65.073370 
3941.000000	65.028023 
3940.000000	64.982032 
3939.000000	64.943170 
3938.000000	64.917063 
3937.000000	64.905810 
3936.000000	64.908242 
3935.000000	64.919972 
3934.000000	64.935255 
3933.000000	64.947986 
3932.000000	64.953422 
3931.000000	64.948987 
3930.000000	64.934468 
3929.000000	64.911293 
3928.000000	64.881968 
3927.000000	64.849400 
3926.000000	64.816451 
3925.000000	64.785265 
3924.000000	64.757633 
3923.000000	64.735150 
3922.000000	64.719629 
3921.000000	64.713120 
3920.000000	64.717817 
3919.000000	64.734959 
3918.000000	64.764952 
3917.000000	64.806365 
3916.000000	64.856410 
3915.000000	64.910984 
3914.000000	64.965558 
3913.000000	65.015530 
3912.000000	65.057468 
3911.000000	65.089225 
3910.000000	65.110230 
3909.000000	65.121388 
3908.000000	65.124106 
3907.000000	65.119981 
3906.000000	65.110135 
3905.000000	65.095353 
3904.000000	65.075564 
3903.000000	65.050196 
3902.000000	65.018844 
3901.000000	64.981794 
3900.000000	64.940357 
3899.000000	64.897274 
3898.000000	64.856386 
3897.000000	64.822435 
3896.000000	64.800286 
3895.000000	64.794158 
3894.000000	64.806699 
3893.000000	64.838242 
3892.000000	64.886283 
3891.000000	64.945960 
3890.000000	65.010309 
3889.000000	65.071916 
3888.000000	65.123605 
3887.000000	65.160059 
3886.000000	65.178370 
3885.000000	65.178704 
3884.000000	65.163826 
3883.000000	65.138387 
3882.000000	65.107583 
3881.000000	65.076541 
3880.000000	65.049672 
3879.000000	65.029788 
3878.000000	65.018272 
3877.000000	65.015125 
3876.000000	65.019702 
3875.000000	65.030550 
3874.000000	65.045928 
3873.000000	65.063524 
3872.000000	65.080690 
3871.000000	65.094447 
3870.000000	65.102314 
3869.000000	65.102148 
3868.000000	65.093207 
3867.000000	65.076613 
3866.000000	65.055322 
3865.000000	65.033936 
3864.000000	65.017557 
3863.000000	65.011072 
3862.000000	65.017604 
3861.000000	65.037989 
3860.000000	65.069913 
3859.000000	65.108704 
3858.000000	65.147566 
3857.000000	65.179586 
3856.000000	65.198588 
3855.000000	65.200328 
3854.000000	65.183424 
3853.000000	65.149188 
3852.000000	65.101385 
3851.000000	65.045285 
3850.000000	64.986896 
3849.000000	64.931964 
3848.000000	64.885616 
3847.000000	64.851737 
3846.000000	64.832997 
3845.000000	64.830660 
3844.000000	64.844489 
3843.000000	64.872765 
3842.000000	64.912152 
3841.000000	64.958310 
3840.000000	65.005731 
3839.000000	65.049099 
3838.000000	65.083932 
3837.000000	65.107703 
3836.000000	65.120148 
3835.000000	65.123224 
3834.000000	65.120697 
3833.000000	65.116834 
3832.000000	65.115785 
3831.000000	65.120291 
3830.000000	65.131354 
3829.000000	65.147781 
3828.000000	65.167117 
3827.000000	65.185523 
3826.000000	65.199112 
3825.000000	65.204310 
3824.000000	65.198922 
3823.000000	65.182638 
3822.000000	65.156698 
3821.000000	65.124058 
3820.000000	65.088534 
3819.000000	65.053939 
3818.000000	65.023112 
3817.000000	64.997887 
3816.000000	64.978861 
3815.000000	64.965438 
3814.000000	64.956641 
3813.000000	64.951300 
3812.000000	64.949035 
3811.000000	64.950084 
3810.000000	64.955496 
3809.000000	64.966011 
3808.000000	64.982295 
3807.000000	65.003919 
3806.000000	65.029692 
3805.000000	65.057110 
3804.000000	65.083575 
3803.000000	65.106749 
3802.000000	65.125322 
3801.000000	65.139174 
3800.000000	65.149354 
3799.000000	65.157580 
3798.000000	65.165567 
3797.000000	65.174603 
3796.000000	65.185379 
3795.000000	65.198111 
3794.000000	65.212607 
3793.000000	65.228247 
3792.000000	65.244483 
3791.000000	65.260481 
3790.000000	65.275263 
3789.000000	65.287685 
3788.000000	65.296196 
3787.000000	65.299081 
3786.000000	65.295147 
3785.000000	65.283656 
3784.000000	65.264797 
3783.000000	65.239524 
3782.000000	65.210103 
3781.000000	65.179467 
3780.000000	65.150713 
3779.000000	65.126347 
3778.000000	65.108132 
3777.000000	65.096545 
3776.000000	65.090966 
3775.000000	65.089654 
3774.000000	65.090107 
3773.000000	65.089368 
3772.000000	65.084719 
3771.000000	65.073752 
3770.000000	65.054845 
3769.000000	65.027761 
3768.000000	64.993691 
3767.000000	64.955210 
3766.000000	64.915800 
3765.000000	64.879345 
3764.000000	64.849472 
3763.000000	64.828658 
3762.000000	64.818358 
3761.000000	64.818811 
3760.000000	64.829468 
3759.000000	64.848875 
3758.000000	64.875650 
3757.000000	64.908051 
3756.000000	64.944720 
3755.000000	64.983963 
3754.000000	65.023732 
3753.000000	65.061569 
3752.000000	65.094637 
3751.000000	65.120267 
3750.000000	65.136313 
3749.000000	65.141701 
3748.000000	65.136861 
3747.000000	65.123987 
3746.000000	65.106272 
3745.000000	65.087532 
3744.000000	65.071034 
3743.000000	65.059113 
3742.000000	65.052604 
3741.000000	65.051078 
3740.000000	65.052914 
3739.000000	65.056133 
3738.000000	65.058660 
3737.000000	65.058875 
3736.000000	65.056014 
3735.000000	65.049791 
3734.000000	65.040278 
3733.000000	65.027666 
3732.000000	65.012097 
3731.000000	64.994120 
3730.000000	64.974498 
3729.000000	64.954662 
3728.000000	64.936733 
3727.000000	64.923119 
3726.000000	64.916324 
3725.000000	64.918136 
3724.000000	64.929223 
3723.000000	64.948701 
3722.000000	64.974260 
3721.000000	65.002250 
3720.000000	65.028429 
3719.000000	65.048527 
3718.000000	65.059113 
3717.000000	65.058040 
3716.000000	65.044760 
3715.000000	65.020465 
3714.000000	64.987897 
3713.000000	64.951276 
3712.000000	64.915323 
3711.000000	64.885044 
3710.000000	64.864730 
3709.000000	64.857530 
3708.000000	64.864850 
3707.000000	64.885926 
3706.000000	64.917945 
3705.000000	64.956521 
3704.000000	64.996433 
3703.000000	65.032553 
3702.000000	65.061068 
3701.000000	65.079832 
3700.000000	65.089058 
3699.000000	65.090751 
3698.000000	65.088152 
3697.000000	65.084767 
3696.000000	65.083384 
3695.000000	65.085458 
3694.000000	65.090656 
3693.000000	65.097427 
3692.000000	65.103173 
3691.000000	65.105390 
3690.000000	65.102148 
3689.000000	65.092754 
3688.000000	65.077733 
3687.000000	65.058660 
3686.000000	65.037727 
3685.000000	65.017247 
3684.000000	64.999175 
3683.000000	64.985084 
3682.000000	64.976096 
3681.000000	64.972972 
3680.000000	64.976096 
3679.000000	64.985418 
3678.000000	65.000581 
3677.000000	65.020751 
3676.000000	65.044522 
3675.000000	65.069866 
3674.000000	65.094327 
3673.000000	65.115284 
3672.000000	65.130400 
3671.000000	65.137958 
3670.000000	65.137267 
3669.000000	65.128421 
3668.000000	65.112662 
3667.000000	65.091872 
3666.000000	65.068387 
3665.000000	65.044569 
3664.000000	65.022492 
3663.000000	65.003824 
3662.000000	64.989709 
3661.000000	64.980816 
3660.000000	64.977431 
3659.000000	64.979290 
3658.000000	64.985561 
3657.000000	64.995074 
3656.000000	65.006208 
3655.000000	65.016937 
3654.000000	65.025258 
3653.000000	65.029025 
3652.000000	65.026831 
3651.000000	65.018105 
3650.000000	65.003442 
3649.000000	64.984488 
3648.000000	64.963841 
3647.000000	64.944577 
3646.000000	64.929842 
3645.000000	64.921998 
3644.000000	64.922428 
3643.000000	64.930963 
3642.000000	64.946198 
3641.000000	64.965748 
3640.000000	64.986705 
3639.000000	65.006256 
3638.000000	65.021777 
3637.000000	65.031242 
3636.000000	65.033483 
3635.000000	65.028023 
3634.000000	65.014934 
3633.000000	64.994597 
3632.000000	64.967966 
3631.000000	64.936542 
3630.000000	64.902639 
3629.000000	64.869141 
3628.000000	64.839315 
3627.000000	64.816617 
3626.000000	64.804029 
3625.000000	64.803409 
3624.000000	64.814925 
3623.000000	64.837050 
3622.000000	64.866638 
3621.000000	64.899396 
3620.000000	64.930486 
3619.000000	64.955902 
3618.000000	64.972400 
3617.000000	64.978909 
3616.000000	64.975953 
3615.000000	64.966058 
3614.000000	64.952754 
3613.000000	64.940428 
3612.000000	64.933037 
3611.000000	64.933633 
3610.000000	64.943671 
3609.000000	64.962816 
3608.000000	64.989113 
3607.000000	65.019345 
3606.000000	65.049791 
3605.000000	65.076828 
3604.000000	65.097618 
3603.000000	65.110421 
3602.000000	65.114831 
3601.000000	65.111565 
3600.000000	65.102314 
3599.000000	65.089130 
3598.000000	65.073800 
3597.000000	65.058040 
3596.000000	65.042710 
3595.000000	65.028095 
3594.000000	65.013861 
3593.000000	64.999485 
3592.000000	64.984560 
3591.000000	64.969301 
3590.000000	64.954304 
3589.000000	64.940690 
3588.000000	64.929795 
3587.000000	64.922904 
3586.000000	64.920830 
3585.000000	64.923501 
3584.000000	64.930343 
3583.000000	64.940118 
3582.000000	64.951348 
3581.000000	64.962673 
3580.000000	64.973211 
3579.000000	64.982628 
3578.000000	64.991235 
3577.000000	64.999580 
3576.000000	65.008425 
3575.000000	65.018415 
3574.000000	65.029788 
3573.000000	65.042233 
3572.000000	65.055155 
3571.000000	65.067696 
3570.000000	65.079069 
3569.000000	65.088486 
3568.000000	65.095186 
3567.000000	65.098738 
3566.000000	65.098881 
3565.000000	65.095615 
3564.000000	65.089344 
3563.000000	65.080761 
3562.000000	65.071153 
3561.000000	65.062117 
3560.000000	65.055251 
3559.000000	65.051937 
3558.000000	65.053057 
3557.000000	65.058612 
3556.000000	65.067577 
3555.000000	65.078163 
3554.000000	65.088129 
3553.000000	65.095162 
3552.000000	65.097498 
3551.000000	65.094304 
3550.000000	65.085887 
3549.000000	65.073323 
3548.000000	65.058255 
3547.000000	65.042424 
3546.000000	65.027260 
3545.000000	65.013813 
3544.000000	65.002489 
3543.000000	64.993286 
3542.000000	64.985942 
3541.000000	64.980125 
3540.000000	64.975643 
3539.000000	64.972376 
3538.000000	64.970517 
3537.000000	64.970469 
3536.000000	64.972805 
3535.000000	64.977955 
3534.000000	64.985990 
3533.000000	64.996480 
3532.000000	65.008473 
3531.000000	65.020561 
3530.000000	65.031242 
3529.000000	65.039348 
3528.000000	65.044260 
3527.000000	65.046048 
3526.000000	65.045619 
3525.000000	65.044331 
3524.000000	65.043735 
3523.000000	65.045118 
3522.000000	65.049171 
3521.000000	65.055799 
3520.000000	65.064239 
3519.000000	65.073204 
3518.000000	65.080952 
3517.000000	65.085864 
3516.000000	65.086674 
3515.000000	65.082907 
3514.000000	65.074729 
3513.000000	65.063118 
3512.000000	65.049481 
3511.000000	65.035676 
3510.000000	65.023350 
3509.000000	65.013837 
3508.000000	65.007948 
3507.000000	65.005683 
3506.000000	65.006327 
3505.000000	65.008664 
3504.000000	65.011167 
3503.000000	65.012335 
3502.000000	65.010952 
3501.000000	65.006375 
3500.000000	64.998602 
3499.000000	64.988279 
3498.000000	64.976620 
3497.000000	64.965152 
3496.000000	64.955496 
3495.000000	64.949154 
3494.000000	64.947223 
3493.000000	64.950323 
3492.000000	64.958381 
3491.000000	64.970827 
3490.000000	64.986348 
3489.000000	65.003323 
3488.000000	65.019750 
3487.000000	65.033459 
3486.000000	65.042614 
3485.000000	65.045809 
3484.000000	65.042567 
3483.000000	65.033483 
3482.000000	65.020203 
3481.000000	65.005230 
3480.000000	64.991521 
3479.000000	64.981865 
3478.000000	64.978361 
3477.000000	64.982032 
3476.000000	64.992666 
3475.000000	65.008831 
3474.000000	65.028190 
3473.000000	65.048146 
3472.000000	65.066266 
3471.000000	65.080761 
3470.000000	65.090465 
3469.000000	65.094876 
3468.000000	65.093946 
3467.000000	65.087842 
3466.000000	65.076875 
3465.000000	65.061521 
3464.000000	65.042757 
3463.000000	65.022158 
3462.000000	65.001893 
3461.000000	64.984560 
3460.000000	64.972758 
3459.000000	64.968419 
3458.000000	64.972090 
3457.000000	64.982962 
3456.000000	64.998698 
3455.000000	65.016126 
3454.000000	65.031838 
3453.000000	65.043210 
3452.000000	65.049028 
3451.000000	65.049862 
3450.000000	65.047669 
3449.000000	65.045285 
3448.000000	65.045118 
3447.000000	65.048599 
3446.000000	65.055489 
3445.000000	65.064001 
3444.000000	65.071010 
3443.000000	65.072989 
3442.000000	65.067028 
3441.000000	65.051293 
3440.000000	65.025591 
3439.000000	64.991259 
3438.000000	64.950895 
3437.000000	64.907860 
3436.000000	64.865565 
3435.000000	64.827084 
3434.000000	64.794683 
3433.000000	64.769864 
3432.000000	64.753317 
3431.000000	64.744925 
3430.000000	64.744377 
3429.000000	64.750719 
3428.000000	64.763021 
3427.000000	64.780044 
3426.000000	64.800810 
3425.000000	64.823961 
3424.000000	64.848470 
3423.000000	64.873218 
3422.000000	64.897251 
3421.000000	64.919638 
3420.000000	64.939451 
3419.000000	64.955806 
3418.000000	64.967799 
3417.000000	64.974737 
3416.000000	64.976143 
3415.000000	64.972043 
3414.000000	64.962840 
3413.000000	64.949250 
3412.000000	64.932298 
3411.000000	64.913249 
3410.000000	64.893317 
3409.000000	64.873600 
3408.000000	64.855074 
3407.000000	64.838719 
3406.000000	64.825391 
3405.000000	64.816164 
3404.000000	64.812183 
3403.000000	64.814782 
3402.000000	64.825057 
3401.000000	64.843559 
3400.000000	64.870023 
3399.000000	64.903140 
3398.000000	64.940476 
3397.000000	64.978694 
3396.000000	65.013933 
3395.000000	65.042591 
3394.000000	65.061783 
3393.000000	65.070033 
3392.000000	65.067410 
3391.000000	65.055561 
3390.000000	65.037274 
3389.000000	65.016078 
3388.000000	64.995288 
3387.000000	64.977622 
3386.000000	64.964461 
3385.000000	64.956188 
3384.000000	64.951848 
3383.000000	64.949822 
3382.000000	64.948225 
3381.000000	64.945316 
3380.000000	64.940071 
3379.000000	64.932227 
3378.000000	64.922523 
3377.000000	64.912152 
3376.000000	64.902734 
3375.000000	64.895915 
3374.000000	64.892768 
3373.000000	64.893889 
3372.000000	64.898896 
3371.000000	64.906835 
3370.000000	64.916133 
3369.000000	64.925026 
3368.000000	64.932036 
3367.000000	64.936375 
3366.000000	64.938092 
3365.000000	64.937806 
3364.000000	64.936852 
3363.000000	64.936757 
3362.000000	64.938640 
3361.000000	64.943027 
3360.000000	64.949297 
3359.000000	64.956045 
3358.000000	64.961290 
3357.000000	64.962911 
3356.000000	64.959168 
3355.000000	64.949250 
3354.000000	64.933538 
3353.000000	64.913582 
3352.000000	64.891862 
3351.000000	64.871335 
3350.000000	64.854717 
3349.000000	64.844250 
3348.000000	64.841270 
3347.000000	64.846110 
3346.000000	64.858102 
3345.000000	64.875555 
3344.000000	64.896321 
3343.000000	64.917707 
3342.000000	64.937186 
3341.000000	64.952373 
3340.000000	64.961361 
3339.000000	64.963078 
3338.000000	64.957284 
3337.000000	64.944887 
3336.000000	64.927601 
3335.000000	64.908003 
3334.000000	64.888882 
3333.000000	64.872837 
3332.000000	64.861774 
3331.000000	64.856624 
3330.000000	64.857101 
3329.000000	64.862108 
3328.000000	64.869642 
3327.000000	64.877414 
3326.000000	64.883065 
3325.000000	64.884614 
3324.000000	64.880657 
3323.000000	64.870357 
3322.000000	64.853930 
3321.000000	64.832162 
3320.000000	64.806914 
3319.000000	64.780759 
3318.000000	64.756631 
3317.000000	64.737534 
3316.000000	64.725899 
3315.000000	64.723324 
3314.000000	64.730143 
3313.000000	64.745283 
3312.000000	64.766550 
3311.000000	64.790892 
3310.000000	64.815211 
3309.000000	64.836955 
3308.000000	64.854454 
3307.000000	64.867186 
3306.000000	64.875769 
3305.000000	64.881277 
3304.000000	64.885044 
3303.000000	64.887928 
3302.000000	64.889979 
3301.000000	64.890217 
3300.000000	64.887452 
3299.000000	64.880418 
3298.000000	64.868688 
3297.000000	64.852571 
3296.000000	64.833784 
3295.000000	64.814758 
3294.000000	64.798307 
3293.000000	64.786958 
3292.000000	64.782166 
3291.000000	64.784264 
3290.000000	64.792656 
3289.000000	64.805889 
3288.000000	64.822196 
3287.000000	64.839482 
3286.000000	64.855885 
3285.000000	64.869737 
3284.000000	64.879560 
3283.000000	64.884448 
3282.000000	64.884138 
3281.000000	64.879012 
3280.000000	64.870119 
3279.000000	64.859271 
3278.000000	64.848804 
3277.000000	64.841127 
3276.000000	64.838266 
3275.000000	64.841508 
3274.000000	64.850974 
3273.000000	64.865708 
3272.000000	64.883494 
3271.000000	64.901518 
3270.000000	64.916729 
3269.000000	64.926409 
3268.000000	64.928555 
3267.000000	64.922070 
3266.000000	64.907121 
3265.000000	64.884757 
3264.000000	64.857244 
3263.000000	64.827418 
3262.000000	64.798545 
3261.000000	64.773917 
3260.000000	64.755940 
3259.000000	64.745879 
3258.000000	64.743590 
3257.000000	64.747524 
3256.000000	64.755368 
3255.000000	64.764690 
3254.000000	64.773607 
3253.000000	64.780998 
3252.000000	64.787054 
3251.000000	64.792895 
3250.000000	64.799928 
3249.000000	64.809393 
3248.000000	64.821863 
3247.000000	64.836740 
3246.000000	64.852619 
3245.000000	64.867472 
3244.000000	64.879417 
3243.000000	64.887118 
3242.000000	64.890336 
3241.000000	64.889883 
3240.000000	64.887380 
3239.000000	64.884734 
3238.000000	64.883732 
3237.000000	64.885640 
3236.000000	64.890670 
3235.000000	64.898371 
3234.000000	64.907813 
3233.000000	64.917755 
3232.000000	64.926862 
3231.000000	64.933943 
3230.000000	64.938211 
3229.000000	64.939260 
3228.000000	64.936923 
3227.000000	64.931368 
3226.000000	64.923095 
3225.000000	64.912939 
3224.000000	64.901947 
3223.000000	64.891266 
3222.000000	64.882230 
3221.000000	64.875984 
3220.000000	64.873528 
3219.000000	64.875316 
3218.000000	64.881110 
3217.000000	64.890074 
3216.000000	64.901137 
3215.000000	64.912867 
3214.000000	64.924311 
3213.000000	64.934992 
3212.000000	64.944958 
3211.000000	64.954876 
3210.000000	64.965367 
3209.000000	64.976739 
3208.000000	64.988541 
3207.000000	64.999628 
3206.000000	65.008234 
3205.000000	65.012645 
3204.000000	65.011692 
3203.000000	65.005254 
3202.000000	64.994406 
3201.000000	64.981293 
3200.000000	64.968538 
3199.000000	64.958429 
3198.000000	64.952182 
3197.000000	64.949631 
3196.000000	64.949202 
3195.000000	64.948248 
3194.000000	64.943909 
3193.000000	64.933967 
3192.000000	64.917612 
3191.000000	64.895677 
3190.000000	64.870524 
3189.000000	64.845538 
3188.000000	64.824151 
3187.000000	64.809656 
3186.000000	64.803934 
3185.000000	64.807653 
3184.000000	64.820003 
3183.000000	64.838886 
3182.000000	64.861536 
3181.000000	64.884710 
3180.000000	64.905357 
3179.000000	64.920878 
3178.000000	64.929461 
3177.000000	64.930343 
3176.000000	64.923810 
3175.000000	64.911270 
3174.000000	64.895009 
3173.000000	64.877939 
3172.000000	64.863038 
3171.000000	64.852976 
3170.000000	64.849591 
3169.000000	64.853429 
3168.000000	64.863824 
3167.000000	64.879107 
3166.000000	64.896941 
3165.000000	64.914822 
3164.000000	64.930605 
3163.000000	64.942836 
3162.000000	64.950823 
3161.000000	64.954662 
3160.000000	64.955234 
3159.000000	64.953541 
3158.000000	64.950966 
3157.000000	64.948844 
3156.000000	64.948320 
3155.000000	64.950132 
3154.000000	64.954662 
3153.000000	64.962124 
3152.000000	64.972329 
3151.000000	64.984798 
3150.000000	64.998507 
3149.000000	65.012025 
3148.000000	65.023303 
3147.000000	65.029954 
3146.000000	65.029501 
3145.000000	65.019798 
3144.000000	64.999389 
3143.000000	64.968061 
3142.000000	64.927244 
3141.000000	64.879775 
3140.000000	64.829564 
3139.000000	64.781188 
3138.000000	64.738893 
3137.000000	64.706301 
3136.000000	64.685773 
3135.000000	64.678168 
3134.000000	64.682793 
3133.000000	64.697909 
3132.000000	64.721059 
3131.000000	64.749717 
3130.000000	64.781093 
3129.000000	64.813017 
3128.000000	64.843511 
3127.000000	64.871048 
3126.000000	64.894175 
3125.000000	64.911675 
3124.000000	64.922499 
3123.000000	64.925932 
3122.000000	64.921927 
3121.000000	64.911174 
3120.000000	64.895367 
3119.000000	64.877057 
3118.000000	64.859247 
3117.000000	64.845037 
3116.000000	64.836955 
3115.000000	64.836525 
3114.000000	64.844083 
3113.000000	64.858317 
3112.000000	64.876747 
3111.000000	64.896321 
3110.000000	64.914059 
3109.000000	64.927220 
3108.000000	64.934134 
3107.000000	64.934396 
3106.000000	64.928579 
3105.000000	64.917945 
3104.000000	64.903950 
3103.000000	64.888262 
3102.000000	64.872097 
3101.000000	64.856314 
3100.000000	64.841365 
3099.000000	64.827537 
3098.000000	64.814949 
3097.000000	64.803862 
3096.000000	64.794349 
3095.000000	64.786338 
3094.000000	64.779591 
3093.000000	64.773869 
3092.000000	64.768719 
3091.000000	64.763855 
3090.000000	64.759445 
3089.000000	64.756131 
3088.000000	64.755153 
3087.000000	64.758014 
3086.000000	64.765858 
3085.000000	64.779376 
3084.000000	64.798092 
3083.000000	64.820647 
3082.000000	64.844703 
3081.000000	64.867711 
3080.000000	64.887285 
3079.000000	64.901995 
3078.000000	64.911699 
3077.000000	64.917612 
3076.000000	64.921855 
3075.000000	64.926838 
3074.000000	64.934563 
3073.000000	64.945769 
3072.000000	64.959955 
3071.000000	64.975166 
3070.000000	64.988780 
3069.000000	64.997935 
3068.000000	65.000438 
3067.000000	64.995312 
3066.000000	64.983010 
3065.000000	64.965462 
3064.000000	64.945387 
3063.000000	64.925837 
3062.000000	64.909720 
3061.000000	64.899206 
3060.000000	64.895534 
3059.000000	64.898777 
3058.000000	64.908170 
3057.000000	64.922404 
3056.000000	64.939880 
3055.000000	64.958834 
3054.000000	64.977741 
3053.000000	64.995026 
3052.000000	65.009689 
3051.000000	65.020871 
3050.000000	65.027999 
3049.000000	65.030765 
3048.000000	65.029001 
3047.000000	65.023088 
3046.000000	65.013265 
3045.000000	64.999866 
3044.000000	64.982962 
3043.000000	64.962625 
3042.000000	64.938783 
3041.000000	64.911437 
3040.000000	64.880895 
3039.000000	64.848256 
3038.000000	64.815258 
3037.000000	64.784359 
3036.000000	64.758419 
3035.000000	64.740395 
3034.000000	64.732432 
3033.000000	64.735817 
3032.000000	64.750218 
3031.000000	64.773821 
3030.000000	64.803576 
3029.000000	64.835691 
3028.000000	64.866161 
3027.000000	64.891600 
3026.000000	64.909362 
3025.000000	64.918160 
3024.000000	64.917659 
3023.000000	64.908623 
3022.000000	64.892411 
3021.000000	64.870905 
3020.000000	64.845967 
3019.000000	64.819359 
3018.000000	64.792776 
3017.000000	64.767551 
3016.000000	64.744639 
3015.000000	64.724659 
3014.000000	64.707994 
3013.000000	64.694762 
3012.000000	64.685010 
3011.000000	64.678788 
3010.000000	64.676237 
3009.000000	64.677405 
3008.000000	64.682102 
3007.000000	64.689970 
3006.000000	64.700222 
3005.000000	64.711618 
3004.000000	64.722990 
3003.000000	64.733052 
3002.000000	64.741039 
3001.000000	64.746880 
3000.000000	64.751482 
2999.000000	64.756393 
2998.000000	64.763808 
2997.000000	64.775991 
2996.000000	64.794421 
2995.000000	64.819502 
2994.000000	64.849925 
2993.000000	64.882969 
2992.000000	64.914751 
2991.000000	64.941000 
2990.000000	64.957904 
2989.000000	64.963102 
2988.000000	64.956259 
2987.000000	64.939260 
2986.000000	64.915966 
2985.000000	64.891242 
2984.000000	64.869928 
2983.000000	64.855766 
2982.000000	64.850568 
2981.000000	64.853763 
2980.000000	64.862871 
2979.000000	64.874267 
2978.000000	64.884138 
2977.000000	64.889645 
2976.000000	64.889383 
2975.000000	64.883923 
2974.000000	64.875054 
2973.000000	64.865255 
2972.000000	64.856910 
2971.000000	64.851331 
2970.000000	64.848661 
2969.000000	64.847755 
2968.000000	64.846682 
2967.000000	64.843559 
2966.000000	64.837074 
2965.000000	64.826846 
2964.000000	64.813590 
2963.000000	64.798426 
2962.000000	64.782714 
2961.000000	64.767313 
2960.000000	64.752340 
2959.000000	64.737462 
2958.000000	64.722204 
2957.000000	64.706468 
2956.000000	64.690685 
2955.000000	64.675998 
2954.000000	64.663910 
2953.000000	64.655852 
2952.000000	64.652872 
2951.000000	64.655041 
2950.000000	64.661812 
2949.000000	64.671707 
2948.000000	64.683127 
2947.000000	64.694595 
2946.000000	64.705157 
2945.000000	64.714407 
2944.000000	64.722633 
2943.000000	64.730429 
2942.000000	64.738488 
2941.000000	64.747285 
2940.000000	64.756822 
2939.000000	64.766550 
2938.000000	64.775538 
2937.000000	64.782881 
2936.000000	64.787840 
2935.000000	64.790034 
2934.000000	64.789533 
2933.000000	64.786934 
2932.000000	64.783143 
2931.000000	64.779162 
2930.000000	64.775919 
2929.000000	64.774107 
2928.000000	64.773869 
2927.000000	64.774847 
2926.000000	64.776349 
2925.000000	64.777517 
2924.000000	64.777183 
2923.000000	64.774346 
2922.000000	64.768314 
2921.000000	64.758992 
2920.000000	64.746880 
2919.000000	64.733195 
2918.000000	64.719438 
2917.000000	64.707255 
2916.000000	64.698004 
2915.000000	64.692544 
2914.000000	64.690971 
2913.000000	64.692687 
2912.000000	64.696979 
2911.000000	64.702796 
2910.000000	64.709258 
2909.000000	64.715456 
2908.000000	64.720726 
2907.000000	64.724230 
2906.000000	64.725303 
2905.000000	64.723515 
2904.000000	64.718866 
2903.000000	64.711999 
2902.000000	64.704179 
2901.000000	64.697289 
2900.000000	64.693355 
2899.000000	64.694190 
2898.000000	64.700841 
2897.000000	64.713406 
2896.000000	64.730620 
2895.000000	64.750456 
2894.000000	64.770007 
2893.000000	64.786410 
2892.000000	64.797163 
2891.000000	64.800858 
2890.000000	64.797353 
2889.000000	64.787554 
2888.000000	64.773321 
2887.000000	64.756989 
2886.000000	64.740824 
2885.000000	64.726758 
2884.000000	64.715886 
2883.000000	64.708709 
2882.000000	64.705085 
2881.000000	64.704537 
2880.000000	64.706325 
2879.000000	64.709758 
2878.000000	64.714050 
2877.000000	64.718437 
2876.000000	64.721989 
2875.000000	64.723801 
2874.000000	64.722871 
2873.000000	64.718484 
2872.000000	64.710378 
2871.000000	64.699006 
2870.000000	64.685630 
2869.000000	64.672040 
2868.000000	64.660573 
2867.000000	64.653277 
2866.000000	64.651679 
2865.000000	64.656090 
2864.000000	64.665627 
2863.000000	64.678382 
2862.000000	64.691710 
2861.000000	64.702796 
2860.000000	64.709305 
2859.000000	64.709830 
2858.000000	64.704012 
2857.000000	64.692831 
2856.000000	64.678001 
2855.000000	64.661788 
2854.000000	64.646315 
2853.000000	64.633345 
2852.000000	64.624142 
2851.000000	64.619207 
2850.000000	64.618444 
2849.000000	64.621543 
2848.000000	64.627957 
2847.000000	64.637136 
2846.000000	64.648509 
2845.000000	64.661598 
2844.000000	64.675879 
2843.000000	64.690661 
2842.000000	64.705157 
2841.000000	64.718484 
2840.000000	64.729762 
2839.000000	64.738273 
2838.000000	64.743494 
2837.000000	64.745306 
2836.000000	64.743947 
2835.000000	64.740037 
2834.000000	64.734530 
2833.000000	64.728498 
2832.000000	64.723181 
2831.000000	64.719772 
2830.000000	64.719200 
2829.000000	64.722013 
2828.000000	64.728260 
2827.000000	64.737629 
2826.000000	64.749336 
2825.000000	64.762282 
2824.000000	64.775133 
2823.000000	64.786744 
2822.000000	64.796304 
2821.000000	64.803624 
2820.000000	64.809226 
2819.000000	64.814090 
2818.000000	64.819693 
2817.000000	64.827394 
2816.000000	64.838194 
2815.000000	64.852261 
2814.000000	64.868974 
2813.000000	64.886713 
2812.000000	64.903593 
2811.000000	64.917445 
2810.000000	64.926695 
2809.000000	64.930295 
2808.000000	64.928078 
2807.000000	64.920520 
2806.000000	64.908599 
2805.000000	64.893245 
2804.000000	64.875292 
2803.000000	64.855146 
2802.000000	64.833140 
2801.000000	64.809489 
2800.000000	64.784812 
2799.000000	64.760160 
2798.000000	64.737200 
2797.000000	64.717817 
2796.000000	64.703893 
2795.000000	64.696645 
2794.000000	64.696359 
2793.000000	64.702296 
2792.000000	64.712786 
2791.000000	64.725542 
2790.000000	64.738106 
2789.000000	64.748644 
2788.000000	64.756035 
2787.000000	64.760184 
2786.000000	64.761734 
2785.000000	64.761853 
2784.000000	64.761805 
2783.000000	64.762377 
2782.000000	64.763522 
2781.000000	64.764738 
2780.000000	64.764952 
2779.000000	64.762926 
2778.000000	64.757728 
2777.000000	64.749145 
2776.000000	64.737606 
2775.000000	64.724397 
2774.000000	64.711308 
2773.000000	64.700222 
2772.000000	64.692831 
2771.000000	64.690375 
2770.000000	64.693260 
2769.000000	64.701151 
2768.000000	64.713025 
2767.000000	64.727568 
2766.000000	64.743137 
2765.000000	64.758133 
2764.000000	64.771246 
2763.000000	64.781451 
2762.000000	64.788055 
2761.000000	64.790701 
2760.000000	64.789414 
2759.000000	64.784598 
2758.000000	64.776921 
2757.000000	64.767217 
2756.000000	64.756584 
2755.000000	64.745879 
2754.000000	64.735960 
2753.000000	64.727377 
2752.000000	64.720249 
2751.000000	64.714598 
2750.000000	64.710235 
2749.000000	64.706873 
2748.000000	64.704394 
2747.000000	64.702939 
2746.000000	64.702796 
2745.000000	64.704585 
2744.000000	64.708805 
2743.000000	64.715886 
2742.000000	64.725780 
2741.000000	64.738011 
2740.000000	64.751696 
2739.000000	64.765548 
2738.000000	64.778137 
2737.000000	64.788246 
2736.000000	64.794898 
2735.000000	64.797830 
2734.000000	64.797353 
2733.000000	64.794254 
2732.000000	64.789652 
2731.000000	64.784908 
2730.000000	64.781212 
2729.000000	64.779233 
2728.000000	64.779138 
2727.000000	64.780640 
2726.000000	64.782953 
2725.000000	64.785099 
2724.000000	64.786124 
2723.000000	64.785528 
2722.000000	64.783239 
2721.000000	64.779567 
2720.000000	64.775371 
2719.000000	64.771485 
2718.000000	64.768791 
2717.000000	64.767861 
2716.000000	64.768934 
2715.000000	64.771771 
2714.000000	64.775848 
2713.000000	64.780592 
2712.000000	64.785242 
2711.000000	64.789104 
2710.000000	64.791798 
2709.000000	64.793038 
2708.000000	64.792704 
2707.000000	64.790773 
2706.000000	64.787411 
2705.000000	64.782857 
2704.000000	64.777445 
2703.000000	64.771342 
2702.000000	64.764881 
2701.000000	64.757871 
2700.000000	64.750003 
2699.000000	64.740538 
2698.000000	64.728569 
2697.000000	64.713478 
2696.000000	64.695024 
2695.000000	64.673829 
2694.000000	64.651393 
2693.000000	64.629960 
2692.000000	64.612388 
2691.000000	64.601469 
2690.000000	64.599370 
2689.000000	64.607310 
2688.000000	64.625144 
2687.000000	64.651489 
2686.000000	64.683771 
2685.000000	64.718675 
2684.000000	64.752817 
2683.000000	64.783191 
2682.000000	64.807581 
2681.000000	64.824724 
2680.000000	64.834690 
2679.000000	64.838171 
2678.000000	64.836621 
2677.000000	64.831519 
2676.000000	64.824151 
2675.000000	64.815545 
2674.000000	64.806103 
2673.000000	64.795708 
2672.000000	64.783883 
2671.000000	64.770126 
2670.000000	64.754176 
2669.000000	64.736175 
2668.000000	64.716768 
2667.000000	64.697098 
2666.000000	64.678502 
2665.000000	64.662027 
2664.000000	64.648509 
2663.000000	64.638233 
2662.000000	64.631056 
2661.000000	64.626502 
2660.000000	64.624023 
2659.000000	64.623165 
2658.000000	64.623546 
2657.000000	64.625000 
2656.000000	64.627385 
2655.000000	64.630460 
2654.000000	64.633917 
2653.000000	64.637327 
2652.000000	64.640212 
2651.000000	64.641880 
2650.000000	64.641785 
2649.000000	64.639687 
2648.000000	64.635515 
2647.000000	64.629578 
2646.000000	64.622569 
2645.000000	64.615464 
2644.000000	64.609384 
2643.000000	64.605450 
2642.000000	64.604640 
2641.000000	64.607381 
2640.000000	64.613771 
2639.000000	64.623212 
2638.000000	64.634633 
2637.000000	64.646601 
2636.000000	64.657783 
2635.000000	64.667153 
2634.000000	64.674139 
2633.000000	64.678907 
2632.000000	64.682197 
2631.000000	64.685034 
2630.000000	64.688420 
2629.000000	64.693164 
2628.000000	64.699339 
2627.000000	64.706468 
2626.000000	64.713430 
2625.000000	64.719104 
2624.000000	64.722156 
2623.000000	64.721488 
2622.000000	64.716339 
2621.000000	64.706516 
2620.000000	64.692258 
2619.000000	64.674210 
2618.000000	64.653229 
2617.000000	64.630436 
2616.000000	64.607191 
2615.000000	64.585065 
2614.000000	64.565777 
2613.000000	64.551067 
2612.000000	64.542388 
2611.000000	64.540553 
2610.000000	64.545726 
2609.000000	64.557027 
2608.000000	64.572763 
2607.000000	64.590597 
2606.000000	64.607906 
2605.000000	64.622426 
2604.000000	64.632558 
2603.000000	64.637899 
2602.000000	64.639019 
2601.000000	64.637446 
2600.000000	64.635491 
2599.000000	64.635586 
2598.000000	64.639949 
2597.000000	64.649701 
2596.000000	64.664793 
2595.000000	64.683699 
2594.000000	64.703845 
2593.000000	64.721870 
2592.000000	64.734292 
2591.000000	64.738321 
2590.000000	64.732575 
2589.000000	64.717411 
2588.000000	64.694762 
2587.000000	64.668226 
2586.000000	64.642214 
2585.000000	64.621305 
2584.000000	64.609146 
2583.000000	64.607977 
2582.000000	64.618158 
2581.000000	64.638161 
2580.000000	64.664864 
2579.000000	64.694094 
2578.000000	64.721560 
2577.000000	64.743518 
2576.000000	64.757418 
2575.000000	64.762043 
2574.000000	64.757609 
2573.000000	64.745450 
2572.000000	64.727497 
2571.000000	64.705967 
2570.000000	64.682674 
2569.000000	64.659309 
2568.000000	64.636969 
2567.000000	64.616656 
2566.000000	64.599156 
2565.000000	64.585375 
2564.000000	64.576339 
2563.000000	64.572787 
2562.000000	64.575386 
2561.000000	64.584112 
2560.000000	64.598512 
2559.000000	64.617180 
2558.000000	64.638209 
2557.000000	64.659428 
2556.000000	64.678835 
2555.000000	64.694762 
2554.000000	64.706087 
2553.000000	64.712357 
2552.000000	64.713740 
2551.000000	64.710927 
2550.000000	64.705085 
2549.000000	64.697551 
2548.000000	64.689683 
2547.000000	64.682579 
2546.000000	64.676952 
2545.000000	64.673018 
2544.000000	64.670419 
2543.000000	64.668464 
2542.000000	64.666271 
2541.000000	64.663219 
2540.000000	64.659070 
2539.000000	64.654231 
2538.000000	64.649200 
2537.000000	64.644885 
2536.000000	64.642262 
2535.000000	64.641904 
2534.000000	64.644026 
2533.000000	64.648294 
2532.000000	64.654040 
2531.000000	64.660406 
2530.000000	64.666509 
2529.000000	64.671683 
2528.000000	64.675402 
2527.000000	64.677333 
2526.000000	64.677309 
2525.000000	64.675211 
2524.000000	64.670944 
2523.000000	64.664602 
2522.000000	64.656567 
2521.000000	64.647507 
2520.000000	64.638233 
2519.000000	64.629459 
2518.000000	64.621710 
2517.000000	64.615035 
2516.000000	64.609193 
2515.000000	64.603734 
2514.000000	64.598274 
2513.000000	64.592790 
2512.000000	64.587616 
2511.000000	64.583754 
2510.000000	64.582419 
2509.000000	64.584612 
2508.000000	64.590954 
2507.000000	64.601206 
2506.000000	64.614343 
2505.000000	64.628434 
2504.000000	64.641427 
2503.000000	64.651536 
2502.000000	64.657783 
2501.000000	64.660000 
2500.000000	64.658904 
2499.000000	64.655756 
2498.000000	64.651942 
2497.000000	64.648437 
2496.000000	64.645767 
2495.000000	64.643907 
2494.000000	64.642596 
2493.000000	64.641427 
2492.000000	64.640188 
2491.000000	64.638757 
2490.000000	64.637303 
2489.000000	64.636111 
2488.000000	64.635014 
2487.000000	64.633655 
2486.000000	64.631438 
2485.000000	64.627671 
2484.000000	64.621853 
2483.000000	64.613819 
2482.000000	64.603996 
2481.000000	64.592957 
2480.000000	64.581584 
2479.000000	64.570426 
2478.000000	64.559602 
2477.000000	64.549040 
2476.000000	64.538455 
2475.000000	64.527726 
2474.000000	64.517045 
2473.000000	64.507102 
2472.000000	64.499020 
2471.000000	64.493966 
2470.000000	64.492845 
2469.000000	64.496064 
2468.000000	64.503431 
2467.000000	64.514231 
2466.000000	64.527392 
2465.000000	64.541983 
2464.000000	64.557409 
2463.000000	64.573550 
2462.000000	64.590573 
2461.000000	64.608597 
2460.000000	64.627289 
2459.000000	64.645671 
2458.000000	64.662218 
2457.000000	64.675045 
2456.000000	64.682555 
2455.000000	64.683866 
2454.000000	64.679217 
2453.000000	64.669895 
2452.000000	64.657878 
2451.000000	64.645504 
2450.000000	64.634799 
2449.000000	64.626836 
2448.000000	64.621543 
2447.000000	64.617967 
2446.000000	64.614439 
2445.000000	64.609169 
2444.000000	64.600872 
2443.000000	64.589405 
2442.000000	64.575695 
2441.000000	64.561748 
2440.000000	64.549899 
2439.000000	64.542484 
2438.000000	64.541172 
2437.000000	64.546537 
2436.000000	64.557862 
2435.000000	64.573264 
2434.000000	64.590191 
2433.000000	64.605736 
2432.000000	64.617490 
2431.000000	64.623785 
2430.000000	64.624094 
2429.000000	64.619159 
2428.000000	64.610433 
2427.000000	64.599776 
2426.000000	64.589142 
2425.000000	64.580154 
2424.000000	64.573597 
2423.000000	64.569807 
2422.000000	64.568734 
2421.000000	64.570164 
2420.000000	64.573907 
2419.000000	64.579749 
2418.000000	64.587450 
2417.000000	64.596605 
2416.000000	64.606499 
2415.000000	64.616179 
2414.000000	64.624547 
2413.000000	64.630484 
2412.000000	64.633226 
2411.000000	64.632582 
2410.000000	64.629054 
2409.000000	64.623785 
2408.000000	64.618420 
2407.000000	64.614820 
2406.000000	64.614582 
2405.000000	64.618825 
2404.000000	64.627766 
2403.000000	64.640974 
2402.000000	64.657020 
2401.000000	64.673900 
2400.000000	64.689087 
2399.000000	64.700150 
2398.000000	64.704895 
2397.000000	64.701867 
2396.000000	64.690756 
2395.000000	64.672279 
2394.000000	64.648532 
2393.000000	64.622473 
2392.000000	64.597415 
2391.000000	64.576530 
2390.000000	64.562225 
2389.000000	64.555811 
2388.000000	64.557194 
2387.000000	64.564895 
2386.000000	64.576530 
2385.000000	64.589095 
2384.000000	64.599537 
2383.000000	64.605379 
2382.000000	64.604783 
2381.000000	64.596939 
2380.000000	64.581942 
2379.000000	64.561104 
2378.000000	64.536118 
2377.000000	64.509534 
2376.000000	64.484000 
2375.000000	64.462113 
2374.000000	64.446234 
2373.000000	64.437770 
2372.000000	64.437007 
2371.000000	64.443087 
2370.000000	64.453911 
2369.000000	64.466810 
2368.000000	64.478945 
2367.000000	64.487934 
2366.000000	64.492273 
2365.000000	64.491796 
2364.000000	64.487314 
2363.000000	64.480519 
2362.000000	64.473533 
2361.000000	64.468216 
2360.000000	64.465570 
2359.000000	64.465785 
2358.000000	64.468216 
2357.000000	64.471554 
2356.000000	64.474129 
2355.000000	64.474582 
2354.000000	64.471936 
2353.000000	64.466094 
2352.000000	64.457702 
2351.000000	64.447760 
2350.000000	64.437794 
2349.000000	64.429354 
2348.000000	64.423775 
2347.000000	64.422106 
2346.000000	64.424490 
2345.000000	64.430499 
2344.000000	64.439058 
2343.000000	64.448857 
2342.000000	64.458513 
2341.000000	64.467048 
2340.000000	64.474153 
2339.000000	64.480257 
2338.000000	64.486360 
2337.000000	64.493823 
2336.000000	64.503884 
2335.000000	64.517045 
2334.000000	64.532971 
2333.000000	64.550375 
2332.000000	64.567375 
2331.000000	64.581561 
2330.000000	64.591121 
2329.000000	64.594936 
2328.000000	64.592838 
2327.000000	64.585709 
2326.000000	64.575004 
2325.000000	64.562320 
2324.000000	64.548945 
2323.000000	64.535617 
2322.000000	64.522600 
2321.000000	64.509868 
2320.000000	64.497566 
2319.000000	64.486145 
2318.000000	64.476466 
2317.000000	64.469671 
2316.000000	64.467000 
2315.000000	64.469289 
2314.000000	64.476561 
2313.000000	64.487910 
2312.000000	64.501476 
2311.000000	64.515089 
2310.000000	64.526462 
2309.000000	64.533710 
2308.000000	64.535713 
2307.000000	64.532351 
2306.000000	64.524126 
2305.000000	64.511990 
2304.000000	64.496898 
2303.000000	64.479732 
2302.000000	64.461112 
2301.000000	64.441275 
2300.000000	64.420604 
2299.000000	64.399719 
2298.000000	64.379620 
2297.000000	64.361524 
2296.000000	64.346885 
2295.000000	64.337062 
2294.000000	64.332985 
2293.000000	64.334940 
2292.000000	64.342522 
2291.000000	64.354467 
2290.000000	64.369249 
2289.000000	64.385056 
2288.000000	64.400506 
2287.000000	64.414644 
2286.000000	64.427161 
2285.000000	64.438271 
2284.000000	64.448618 
2283.000000	64.458990 
2282.000000	64.469981 
2281.000000	64.481639 
2280.000000	64.493680 
2279.000000	64.505243 
2278.000000	64.515256 
2277.000000	64.522576 
2276.000000	64.526391 
2275.000000	64.526510 
2274.000000	64.523363 
2273.000000	64.518046 
2272.000000	64.512062 
2271.000000	64.507031 
2270.000000	64.504504 
2269.000000	64.505553 
2268.000000	64.510703 
2267.000000	64.519691 
2266.000000	64.531946 
2265.000000	64.546179 
2264.000000	64.560818 
2263.000000	64.574098 
2262.000000	64.584398 
2261.000000	64.590263 
2260.000000	64.590549 
2259.000000	64.584660 
2258.000000	64.572572 
2257.000000	64.554977 
2256.000000	64.533114 
2255.000000	64.508605 
2254.000000	64.483332 
2253.000000	64.459347 
2252.000000	64.438414 
2251.000000	64.421844 
2250.000000	64.410185 
2249.000000	64.403247 
2248.000000	64.400362 
2247.000000	64.400076 
2246.000000	64.400982 
2245.000000	64.401578 
2244.000000	64.401102 
2243.000000	64.398980 
2242.000000	64.395666 
2241.000000	64.391946 
2240.000000	64.389252 
2239.000000	64.388966 
2238.000000	64.392495 
2237.000000	64.400672 
2236.000000	64.413905 
2235.000000	64.431858 
2234.000000	64.453625 
2233.000000	64.477920 
2232.000000	64.503097 
2231.000000	64.527320 
2230.000000	64.548563 
2229.000000	64.564871 
2228.000000	64.574599 
2227.000000	64.576506 
2226.000000	64.570140 
2225.000000	64.556050 
2224.000000	64.535856 
2223.000000	64.512014 
2222.000000	64.487552 
2221.000000	64.465498 
2220.000000	64.448404 
2219.000000	64.437818 
2218.000000	64.434242 
2217.000000	64.436817 
2216.000000	64.444136 
2215.000000	64.454293 
2214.000000	64.465451 
2213.000000	64.476180 
2212.000000	64.485645 
2211.000000	64.493656 
2210.000000	64.500212 
2209.000000	64.505362 
2208.000000	64.508795 
2207.000000	64.510083 
2206.000000	64.508676 
2205.000000	64.504003 
2204.000000	64.495778 
2203.000000	64.484071 
2202.000000	64.469432 
2201.000000	64.452600 
2200.000000	64.434409 
2199.000000	64.415621 
2198.000000	64.396786 
2197.000000	64.378380 
2196.000000	64.360737 
2195.000000	64.344358 
2194.000000	64.329957 
2193.000000	64.318513 
2192.000000	64.311337 
2191.000000	64.309620 
2190.000000	64.314365 
2189.000000	64.325904 
2188.000000	64.343738 
2187.000000	64.366340 
2186.000000	64.391183 
2185.000000	64.415264 
2184.000000	64.435315 
2183.000000	64.448547 
2182.000000	64.452934 
2181.000000	64.447617 
2180.000000	64.433050 
2179.000000	64.411020 
2178.000000	64.384412 
2177.000000	64.356637 
2176.000000	64.331197 
2175.000000	64.311051 
2174.000000	64.298462 
2173.000000	64.294481 
2172.000000	64.299035 
2171.000000	64.310836 
2170.000000	64.327716 
2169.000000	64.346981 
2168.000000	64.365577 
2167.000000	64.380836 
2166.000000	64.390754 
2165.000000	64.394474 
2164.000000	64.392280 
2163.000000	64.385581 
2162.000000	64.376807 
2161.000000	64.368462 
2160.000000	64.362716 
2159.000000	64.360499 
2158.000000	64.361763 
2157.000000	64.365100 
2156.000000	64.368319 
2155.000000	64.369058 
2154.000000	64.365673 
2153.000000	64.357686 
2152.000000	64.346003 
2151.000000	64.332985 
2150.000000	64.321589 
2149.000000	64.314627 
2148.000000	64.314055 
2147.000000	64.320564 
2146.000000	64.333248 
2145.000000	64.350152 
2144.000000	64.368796 
2143.000000	64.386868 
2142.000000	64.402818 
2141.000000	64.416027 
2140.000000	64.426660 
2139.000000	64.435410 
2138.000000	64.443135 
2137.000000	64.450550 
2136.000000	64.457988 
2135.000000	64.465618 
2134.000000	64.473128 
2133.000000	64.480280 
2132.000000	64.486646 
2131.000000	64.491963 
2130.000000	64.495944 
2129.000000	64.498233 
2128.000000	64.498329 
2127.000000	64.495968 
2126.000000	64.490866 
2125.000000	64.482998 
2124.000000	64.472794 
2123.000000	64.461088 
2122.000000	64.448809 
2121.000000	64.436984 
2120.000000	64.426469 
2119.000000	64.417791 
2118.000000	64.411211 
2117.000000	64.406943 
2116.000000	64.405035 
2115.000000	64.405608 
2114.000000	64.408826 
2113.000000	64.414763 
2112.000000	64.423060 
2111.000000	64.432883 
2110.000000	64.443039 
2109.000000	64.452147 
2108.000000	64.458608 
2107.000000	64.461231 
2106.000000	64.459252 
2105.000000	64.452791 
2104.000000	64.442658 
2103.000000	64.430427 
2102.000000	64.417886 
2101.000000	64.406991 
2100.000000	64.399337 
2099.000000	64.396166 
2098.000000	64.398121 
2097.000000	64.405250 
2096.000000	64.416980 
2095.000000	64.432239 
2094.000000	64.449501 
2093.000000	64.466786 
2092.000000	64.481830 
2091.000000	64.492344 
2090.000000	64.496445 
2089.000000	64.492940 
2088.000000	64.481616 
2087.000000	64.463448 
2086.000000	64.440608 
2085.000000	64.415979 
2084.000000	64.392805 
2083.000000	64.374136 
2082.000000	64.362192 
2081.000000	64.357972 
2080.000000	64.361166 
2079.000000	64.370393 
2078.000000	64.383745 
2077.000000	64.398860 
2076.000000	64.413714 
2075.000000	64.426803 
2074.000000	64.437174 
2073.000000	64.444231 
2072.000000	64.447832 
2071.000000	64.447808 
2070.000000	64.444041 
2069.000000	64.436316 
2068.000000	64.424586 
2067.000000	64.409184 
2066.000000	64.390873 
2065.000000	64.371013 
2064.000000	64.351391 
2063.000000	64.333987 
2062.000000	64.320540 
2061.000000	64.312171 
2060.000000	64.309072 
2059.000000	64.310550 
2058.000000	64.315032 
2057.000000	64.320516 
2056.000000	64.324736 
2055.000000	64.325904 
2054.000000	64.322924 
2053.000000	64.315867 
2052.000000	64.305496 
2051.000000	64.293289 
2050.000000	64.281105 
2049.000000	64.270520 
2048.000000	64.262485 
2047.000000	64.257049 
2046.000000	64.253425 
2045.000000	64.250230 
2044.000000	64.245963 
2043.000000	64.239287 
2042.000000	64.229559 
2041.000000	64.216971 
2040.000000	64.202499 
2039.000000	64.187598 
2038.000000	64.173984 
2037.000000	64.163112 
2036.000000	64.156079 
2035.000000	64.153361 
2034.000000	64.155101 
2033.000000	64.161109 
2032.000000	64.171051 
2031.000000	64.184570 
2030.000000	64.201569 
2029.000000	64.221477 
2028.000000	64.243817 
2027.000000	64.267611 
2026.000000	64.291667 
2025.000000	64.314794 
2024.000000	64.335680 
2023.000000	64.353513 
2022.000000	64.367938 
2021.000000	64.379143 
2020.000000	64.387607 
2019.000000	64.394140 
2018.000000	64.399218 
2017.000000	64.403033 
2016.000000	64.405107 
2015.000000	64.404773 
2014.000000	64.401102 
2013.000000	64.393353 
2012.000000	64.381337 
2011.000000	64.365506 
2010.000000	64.346766 
2009.000000	64.326524 
2008.000000	64.306116 
2007.000000	64.286899 
2006.000000	64.269804 
2005.000000	64.255285 
2004.000000	64.243555 
2003.000000	64.234733 
2002.000000	64.228940 
2001.000000	64.226341 
2000.000000	64.227151 
1999.000000	64.231467 
1998.000000	64.239215 
1997.000000	64.249849 
1996.000000	64.262247 
1995.000000	64.275097 
1994.000000	64.286875 
1993.000000	64.296245 
1992.000000	64.302182 
1991.000000	64.304208 
1990.000000	64.302515 
1989.000000	64.297866 
1988.000000	64.291286 
1987.000000	64.284157 
1986.000000	64.277815 
1985.000000	64.273548 
1984.000000	64.272260 
1983.000000	64.274334 
1982.000000	64.279603 
1981.000000	64.287209 
1980.000000	64.295935 
1979.000000	64.304184 
1978.000000	64.310312 
1977.000000	64.313054 
1976.000000	64.311695 
1975.000000	64.306139 
1974.000000	64.297032 
1973.000000	64.285683 
1972.000000	64.273548 
1971.000000	64.262127 
1970.000000	64.252352 
1969.000000	64.244866 
1968.000000	64.239406 
1967.000000	64.235448 
1966.000000	64.232063 
1965.000000	64.228367 
1964.000000	64.223933 
1963.000000	64.218831 
1962.000000	64.213585 
1961.000000	64.208984 
1960.000000	64.205694 
1959.000000	64.204168 
1958.000000	64.204287 
1957.000000	64.205265 
1956.000000	64.205861 
1955.000000	64.204740 
1954.000000	64.200687 
1953.000000	64.193344 
1952.000000	64.182972 
1951.000000	64.170980 
1950.000000	64.159250 
1949.000000	64.150142 
1948.000000	64.145708 
1947.000000	64.147353 
1946.000000	64.155483 
1945.000000	64.169478 
1944.000000	64.187741 
1943.000000	64.208078 
1942.000000	64.228177 
1941.000000	64.245843 
1940.000000	64.259409 
1939.000000	64.267730 
1938.000000	64.270472 
1937.000000	64.267945 
1936.000000	64.260911 
1935.000000	64.250540 
1934.000000	64.238238 
1933.000000	64.225435 
1932.000000	64.213585 
1931.000000	64.203882 
1930.000000	64.197278 
1929.000000	64.194154 
1928.000000	64.194464 
1927.000000	64.197683 
1926.000000	64.202737 
1925.000000	64.208388 
1924.000000	64.213514 
1923.000000	64.217066 
1922.000000	64.218592 
1921.000000	64.217948 
1920.000000	64.215421 
1919.000000	64.211654 
1918.000000	64.207625 
1917.000000	64.204216 
1916.000000	64.202427 
1915.000000	64.203000 
1914.000000	64.206194 
1913.000000	64.211988 
1912.000000	64.219856 
1911.000000	64.228844 
1910.000000	64.237737 
1909.000000	64.245343 
1908.000000	64.250564 
1907.000000	64.252471 
1906.000000	64.250469 
1905.000000	64.244365 
1904.000000	64.234209 
1903.000000	64.220428 
1902.000000	64.203572 
1901.000000	64.184570 
1900.000000	64.164614 
1899.000000	64.145255 
1898.000000	64.128327 
1897.000000	64.115762 
1896.000000	64.109396 
1895.000000	64.110159 
1894.000000	64.118242 
1893.000000	64.132213 
1892.000000	64.149546 
1891.000000	64.166927 
1890.000000	64.180803 
1889.000000	64.188265 
1888.000000	64.187765 
1887.000000	64.179229 
1886.000000	64.164280 
1885.000000	64.145660 
1884.000000	64.126634 
1883.000000	64.110279 
1882.000000	64.098978 
1881.000000	64.093852 
1880.000000	64.095020 
1879.000000	64.101576 
1878.000000	64.112281 
1877.000000	64.125537 
1876.000000	64.139962 
1875.000000	64.154314 
1874.000000	64.167666 
1873.000000	64.179086 
1872.000000	64.187765 
1871.000000	64.192867 
1870.000000	64.194011 
1869.000000	64.191150 
1868.000000	64.184761 
1867.000000	64.175915 
1866.000000	64.166045 
1865.000000	64.156770 
1864.000000	64.149451 
1863.000000	64.144945 
1862.000000	64.143586 
1861.000000	64.144992 
1860.000000	64.148211 
1859.000000	64.152073 
1858.000000	64.155483 
1857.000000	64.157533 
1856.000000	64.157652 
1855.000000	64.155769 
1854.000000	64.152002 
1853.000000	64.146637 
1852.000000	64.139890 
1851.000000	64.131736 
1850.000000	64.122247 
1849.000000	64.111542 
1848.000000	64.099860 
1847.000000	64.087653 
1846.000000	64.075565 
1845.000000	64.064431 
1844.000000	64.055156 
1843.000000	64.048528 
1842.000000	64.044904 
1841.000000	64.044356 
1840.000000	64.046549 
1839.000000	64.050912 
1838.000000	64.056563 
1837.000000	64.062762 
1836.000000	64.068937 
1835.000000	64.074730 
1834.000000	64.079880 
1833.000000	64.084172 
1832.000000	64.087295 
1831.000000	64.088964 
1830.000000	64.088630 
1829.000000	64.086174 
1828.000000	64.081740 
1827.000000	64.075946 
1826.000000	64.070034 
1825.000000	64.065480 
1824.000000	64.063882 
1823.000000	64.066433 
1822.000000	64.073681 
1821.000000	64.085340 
1820.000000	64.100313 
1819.000000	64.116954 
1818.000000	64.133453 
1817.000000	64.148020 
1816.000000	64.159202 
1815.000000	64.166283 
1814.000000	64.169001 
1813.000000	64.167523 
1812.000000	64.162302 
1811.000000	64.153909 
1810.000000	64.142823 
1809.000000	64.129567 
1808.000000	64.114642 
1807.000000	64.098715 
1806.000000	64.082622 
1805.000000	64.067411 
1804.000000	64.054131 
1803.000000	64.043712 
1802.000000	64.036893 
1801.000000	64.034104 
1800.000000	64.035344 
1799.000000	64.039945 
1798.000000	64.046931 
1797.000000	64.054918 
1796.000000	64.062619 
1795.000000	64.068770 
1794.000000	64.072728 
1793.000000	64.074325 
1792.000000	64.073991 
1791.000000	64.072608 
1790.000000	64.070963 
1789.000000	64.069747 
1788.000000	64.069032 
1787.000000	64.068531 
1786.000000	64.067792 
1785.000000	64.066481 
1784.000000	64.064478 
1783.000000	64.062190 
1782.000000	64.060497 
1781.000000	64.060664 
1780.000000	64.063811 
1779.000000	64.070391 
1778.000000	64.080119 
1777.000000	64.091658 
1776.000000	64.103174 
1775.000000	64.112544 
1774.000000	64.117932 
1773.000000	64.118266 
1772.000000	64.113473 
1771.000000	64.104485 
1770.000000	64.093065 
1769.000000	64.081263 
1768.000000	64.070916 
1767.000000	64.063453 
1766.000000	64.059448 
1765.000000	64.058876 
1764.000000	64.060735 
1763.000000	64.063620 
1762.000000	64.065718 
1761.000000	64.065265 
1760.000000	64.060568 
1759.000000	64.050483 
1758.000000	64.034628 
1757.000000	64.013290 
1756.000000	63.987898 
1755.000000	63.960766 
1754.000000	63.934612 
1753.000000	63.912463 
1752.000000	63.896679 
1751.000000	63.888597 
1750.000000	63.888072 
1749.000000	63.893485 
1748.000000	63.902020 
1747.000000	63.910365 
1746.000000	63.915586 
1745.000000	63.915491 
1744.000000	63.909387 
1743.000000	63.897943 
1742.000000	63.883018 
1741.000000	63.866925 
1740.000000	63.852000 
1739.000000	63.840126 
1738.000000	63.832283 
1737.000000	63.828706 
1736.000000	63.828945 
1735.000000	63.832306 
1734.000000	63.837981 
1733.000000	63.845229 
1732.000000	63.853430 
1731.000000	63.862037 
1730.000000	63.870143 
1729.000000	63.877177 
1728.000000	63.882327 
1727.000000	63.885378 
1726.000000	63.886690 
1725.000000	63.887190 
1724.000000	63.888263 
1723.000000	63.891601 
1722.000000	63.898777 
1721.000000	63.910603 
1720.000000	63.926744 
1719.000000	63.945722 
1718.000000	63.965201 
1717.000000	63.982200 
1716.000000	63.993763 
1715.000000	63.997721 
1714.000000	63.993024 
1713.000000	63.979768 
1712.000000	63.959360 
1711.000000	63.933992 
1710.000000	63.906288 
1709.000000	63.878774 
1708.000000	63.853597 
1707.000000	63.832259 
1706.000000	63.815474 
1705.000000	63.803362 
1704.000000	63.795590 
1703.000000	63.791465 
1702.000000	63.790416 
1701.000000	63.791966 
1700.000000	63.796257 
1699.000000	63.803458 
1698.000000	63.814282 
1697.000000	63.829302 
1696.000000	63.848876 
1695.000000	63.872790 
1694.000000	63.900136 
1693.000000	63.929176 
1692.000000	63.957691 
1691.000000	63.983058 
1690.000000	64.002966 
1689.000000	64.015746 
1688.000000	64.020586 
1687.000000	64.017891 
1686.000000	64.009022 
1685.000000	63.995814 
1684.000000	63.980293 
1683.000000	63.963937 
1682.000000	63.947439 
1681.000000	63.930702 
1680.000000	63.913011 
1679.000000	63.893532 
1678.000000	63.871669 
1677.000000	63.847851 
1676.000000	63.823485 
1675.000000	63.801169 
1674.000000	63.784003 
1673.000000	63.774943 
1672.000000	63.776040 
1671.000000	63.788008 
1670.000000	63.809728 
1669.000000	63.838577 
1668.000000	63.870596 
1667.000000	63.901591 
1666.000000	63.927674 
1665.000000	63.946175 
1664.000000	63.955783 
1663.000000	63.956785 
1662.000000	63.950634 
1661.000000	63.939404 
1660.000000	63.925385 
1659.000000	63.910460 
1658.000000	63.895869 
1657.000000	63.882303 
1656.000000	63.869929 
1655.000000	63.858675 
1654.000000	63.848352 
1653.000000	63.839030 
1652.000000	63.831019 
1651.000000	63.824701 
1650.000000	63.820552 
1649.000000	63.818740 
1648.000000	63.819098 
1647.000000	63.821125 
1646.000000	63.824105 
1645.000000	63.826918 
1644.000000	63.828635 
1643.000000	63.828563 
1642.000000	63.826489 
1641.000000	63.822627 
1640.000000	63.817882 
1639.000000	63.813781 
1638.000000	63.812088 
1637.000000	63.814520 
1636.000000	63.822436 
1635.000000	63.836646 
1634.000000	63.857030 
1633.000000	63.882613 
1632.000000	63.911747 
1631.000000	63.942527 
1630.000000	63.973021 
1629.000000	64.001464 
1628.000000	64.026355 
1627.000000	64.046478 
1626.000000	64.060902 
1625.000000	64.068770 
1624.000000	64.069533 
1623.000000	64.062690 
1622.000000	64.048266 
1621.000000	64.026522 
1620.000000	63.998484 
1619.000000	63.965487 
1618.000000	63.929629 
1617.000000	63.893270 
1616.000000	63.858604 
1615.000000	63.827800 
1614.000000	63.802409 
1613.000000	63.783526 
1612.000000	63.771438 
1611.000000	63.765978 
1610.000000	63.766384 
1609.000000	63.771653 
1608.000000	63.780665 
1607.000000	63.792300 
1606.000000	63.805365 
1605.000000	63.818979 
1604.000000	63.832306 
1603.000000	63.844609 
1602.000000	63.854956 
1601.000000	63.862228 
1600.000000	63.865065 
1599.000000	63.862061 
1598.000000	63.851928 
1597.000000	63.834285 
1596.000000	63.809895 
1595.000000	63.780808 
1594.000000	63.750290 
1593.000000	63.722515 
1592.000000	63.701725 
1591.000000	63.691544 
1590.000000	63.694119 
1589.000000	63.709449 
1588.000000	63.735389 
1587.000000	63.768148 
1586.000000	63.802576 
1585.000000	63.833189 
1584.000000	63.855195 
1583.000000	63.865375 
1582.000000	63.862609 
1581.000000	63.847517 
1580.000000	63.822650 
1579.000000	63.791799 
1578.000000	63.759326 
1577.000000	63.729143 
1576.000000	63.704609 
1575.000000	63.687539 
1574.000000	63.678550 
1573.000000	63.676810 
1572.000000	63.680434 
1571.000000	63.687038 
1570.000000	63.694047 
1569.000000	63.699555 
1568.000000	63.702130 
1567.000000	63.701605 
1566.000000	63.698554 
1565.000000	63.694620 
1564.000000	63.691616 
1563.000000	63.691139 
1562.000000	63.694047 
1561.000000	63.700366 
1560.000000	63.709259 
1559.000000	63.719367 
1558.000000	63.729357 
1557.000000	63.738155 
1556.000000	63.745355 
1555.000000	63.751363 
1554.000000	63.757038 
1553.000000	63.763308 
1552.000000	63.770818 
1551.000000	63.779902 
1550.000000	63.790297 
1549.000000	63.801455 
1548.000000	63.812589 
1547.000000	63.822722 
1546.000000	63.831114 
1545.000000	63.837456 
1544.000000	63.841462 
1543.000000	63.843035 
1542.000000	63.842082 
1541.000000	63.838648 
1540.000000	63.832998 
1539.000000	63.825607 
1538.000000	63.817238 
1537.000000	63.808941 
1536.000000	63.801789 
1535.000000	63.796663 
1534.000000	63.793897 
1533.000000	63.793253 
1532.000000	63.794088 
1531.000000	63.795542 
1530.000000	63.796734 
1529.000000	63.797187 
1528.000000	63.796639 
1527.000000	63.795256 
1526.000000	63.793110 
1525.000000	63.790225 
1524.000000	63.786411 
1523.000000	63.781356 
1522.000000	63.774776 
1521.000000	63.766551 
1520.000000	63.756918 
1519.000000	63.746690 
1518.000000	63.737225 
1517.000000	63.730263 
1516.000000	63.727402 
1515.000000	63.730025 
1514.000000	63.738679 
1513.000000	63.752985 
1512.000000	63.771700 
1511.000000	63.792705 
1510.000000	63.813638 
1509.000000	63.831996 
1508.000000	63.845825 
1507.000000	63.853693 
1506.000000	63.855147 
1505.000000	63.850522 
1504.000000	63.840794 
1503.000000	63.827109 
1502.000000	63.810682 
1501.000000	63.792371 
1500.000000	63.772583 
1499.000000	63.751244 
1498.000000	63.728213 
1497.000000	63.703680 
1496.000000	63.678455 
1495.000000	63.654232 
1494.000000	63.633298 
1493.000000	63.618111 
1492.000000	63.611078 
1491.000000	63.613510 
1490.000000	63.625526 
1489.000000	63.645792 
1488.000000	63.671803 
1487.000000	63.700175 
1486.000000	63.727402 
1485.000000	63.750219 
1484.000000	63.766217 
1483.000000	63.774132 
1482.000000	63.773846 
1481.000000	63.766336 
1480.000000	63.753437 
1479.000000	63.737320 
1478.000000	63.720273 
1477.000000	63.704228 
1476.000000	63.690519 
1475.000000	63.679862 
1474.000000	63.672137 
1473.000000	63.666629 
1472.000000	63.662266 
1471.000000	63.657879 
1470.000000	63.652396 
1469.000000	63.645195 
1468.000000	63.636207 
1467.000000	63.626074 
1466.000000	63.615942 
1465.000000	63.607144 
1464.000000	63.600873 
1463.000000	63.598084 
1462.000000	63.598823 
1461.000000	63.602519 
1460.000000	63.608002 
1459.000000	63.614106 
1458.000000	63.620018 
1457.000000	63.625526 
1456.000000	63.631153 
1455.000000	63.637804 
1454.000000	63.646316 
1453.000000	63.657093 
1452.000000	63.669538 
1451.000000	63.682365 
1450.000000	63.693857 
1449.000000	63.702321 
1448.000000	63.706755 
1447.000000	63.707065 
1446.000000	63.704156 
1445.000000	63.699817 
1444.000000	63.696217 
1443.000000	63.695240 
1442.000000	63.698148 
1441.000000	63.705086 
1440.000000	63.715195 
1439.000000	63.726997 
1438.000000	63.738584 
1437.000000	63.748216 
1436.000000	63.754725 
1435.000000	63.757658 
1434.000000	63.757300 
1433.000000	63.754582 
1432.000000	63.750767 
1431.000000	63.747382 
1430.000000	63.745665 
1429.000000	63.746643 
1428.000000	63.750576 
1427.000000	63.757014 
1426.000000	63.764619 
1425.000000	63.771629 
1424.000000	63.776087 
1423.000000	63.776493 
1422.000000	63.772106 
1421.000000	63.763213 
1420.000000	63.750934 
1419.000000	63.737058 
1418.000000	63.723301 
1417.000000	63.711023 
1416.000000	63.700747 
1415.000000	63.692259 
1414.000000	63.684439 
1413.000000	63.675880 
1412.000000	63.665270 
1411.000000	63.652062 
1410.000000	63.636422 
1409.000000	63.619494 
1408.000000	63.602995 
1407.000000	63.588976 
1406.000000	63.578987 
1405.000000	63.574194 
1404.000000	63.574886 
1403.000000	63.580799 
1402.000000	63.590979 
1401.000000	63.604450 
1400.000000	63.619780 
1399.000000	63.635754 
1398.000000	63.651156 
1397.000000	63.664984 
1396.000000	63.676357 
1395.000000	63.684582 
1394.000000	63.689112 
1393.000000	63.689470 
1392.000000	63.685345 
1391.000000	63.676738 
1390.000000	63.664031 
1389.000000	63.648056 
1388.000000	63.630127 
1387.000000	63.612008 
1386.000000	63.595581 
1385.000000	63.582468 
1384.000000	63.573646 
1383.000000	63.569450 
1382.000000	63.569378 
1381.000000	63.572335 
1380.000000	63.576841 
1379.000000	63.581442 
1378.000000	63.585090 
1377.000000	63.587427 
1376.000000	63.588547 
1375.000000	63.589048 
1374.000000	63.589525 
1373.000000	63.590312 
1372.000000	63.591027 
1371.000000	63.590955 
1370.000000	63.588857 
1369.000000	63.583612 
1368.000000	63.574361 
1367.000000	63.560938 
1366.000000	63.543963 
1365.000000	63.524675 
1364.000000	63.504743 
1363.000000	63.485980 
1362.000000	63.470172 
1361.000000	63.458895 
1360.000000	63.453149 
1359.000000	63.453531 
1358.000000	63.460063 
1357.000000	63.472032 
1356.000000	63.488173 
1355.000000	63.506722 
1354.000000	63.525390 
1353.000000	63.541960 
1352.000000	63.554477 
1351.000000	63.561677 
1350.000000	63.563132 
1349.000000	63.559579 
1348.000000	63.552737 
1347.000000	63.544869 
1346.000000	63.538551 
1345.000000	63.536047 
1344.000000	63.538908 
1343.000000	63.547754 
1342.000000	63.562226 
1341.000000	63.581037 
1340.000000	63.602519 
1339.000000	63.624358 
1338.000000	63.644170 
1337.000000	63.659763 
1336.000000	63.669466 
1335.000000	63.672304 
1334.000000	63.668251 
1333.000000	63.658356 
1332.000000	63.644409 
1331.000000	63.628745 
1330.000000	63.613700 
1329.000000	63.601279 
1328.000000	63.592481 
1327.000000	63.587498 
1326.000000	63.585591 
1325.000000	63.585329 
1324.000000	63.584971 
1323.000000	63.583135 
1322.000000	63.579082 
1321.000000	63.572716 
1320.000000	63.564944 
1319.000000	63.556957 
1318.000000	63.550281 
1317.000000	63.546013 
1316.000000	63.544917 
1315.000000	63.547062 
1314.000000	63.551926 
1313.000000	63.558650 
1312.000000	63.566040 
1311.000000	63.573002 
1310.000000	63.578510 
1309.000000	63.581824 
1308.000000	63.582491 
1307.000000	63.580346 
1306.000000	63.575434 
1305.000000	63.567829 
1304.000000	63.557863 
1303.000000	63.545799 
1302.000000	63.532137 
1301.000000	63.517379 
1300.000000	63.502287 
1299.000000	63.487863 
1298.000000	63.475155 
1297.000000	63.465404 
1296.000000	63.459706 
1295.000000	63.459014 
1294.000000	63.463711 
1293.000000	63.473343 
1292.000000	63.486647 
1291.000000	63.501691 
1290.000000	63.515949 
1289.000000	63.526988 
1288.000000	63.532853 
1287.000000	63.532519 
1286.000000	63.526201 
1285.000000	63.515305 
1284.000000	63.501882 
1283.000000	63.488483 
1282.000000	63.477420 
1281.000000	63.470387 
1280.000000	63.468289 
1279.000000	63.471055 
1278.000000	63.477730 
1277.000000	63.486742 
1276.000000	63.496232 
1275.000000	63.504219 
1274.000000	63.508939 
1273.000000	63.508868 
1272.000000	63.502979 
1271.000000	63.490581 
1270.000000	63.471913 
1269.000000	63.447737 
1268.000000	63.419890 
1267.000000	63.390803 
1266.000000	63.363385 
1265.000000	63.340568 
1264.000000	63.324952 
1263.000000	63.318300 
1262.000000	63.321423 
1261.000000	63.333892 
1260.000000	63.354229 
1259.000000	63.380122 
1258.000000	63.408422 
1257.000000	63.435673 
1256.000000	63.458538 
1255.000000	63.474082 
1254.000000	63.480377 
1253.000000	63.476896 
1252.000000	63.464546 
1251.000000	63.445615 
1250.000000	63.423490 
1249.000000	63.401746 
1248.000000	63.383817 
1247.000000	63.371896 
1246.000000	63.366723 
1245.000000	63.367533 
1244.000000	63.372087 
1243.000000	63.377594 
1242.000000	63.381433 
1241.000000	63.382101 
1240.000000	63.379335 
1239.000000	63.374447 
1238.000000	63.369464 
1237.000000	63.366961 
1236.000000	63.369035 
1235.000000	63.376927 
1234.000000	63.390564 
1233.000000	63.408875 
1232.000000	63.430142 
1231.000000	63.452172 
1230.000000	63.472867 
1229.000000	63.490390 
1228.000000	63.503408 
1227.000000	63.510894 
1226.000000	63.512039 
1225.000000	63.506197 
1224.000000	63.492941 
1223.000000	63.472342 
1222.000000	63.444995 
1221.000000	63.412475 
1220.000000	63.376903 
1219.000000	63.341069 
1218.000000	63.307571 
1217.000000	63.278913 
1216.000000	63.256883 
1215.000000	63.242053 
1214.000000	63.234186 
1213.000000	63.232135 
1212.000000	63.234448 
1211.000000	63.239526 
1210.000000	63.246178 
1209.000000	63.253426 
1208.000000	63.260936 
1207.000000	63.268780 
1206.000000	63.277554 
1205.000000	63.287758 
1204.000000	63.300180 
1203.000000	63.315343 
1202.000000	63.333606 
1201.000000	63.354825 
1200.000000	63.378381 
1199.000000	63.403034 
1198.000000	63.426923 
1197.000000	63.447880 
1196.000000	63.463687 
1195.000000	63.472533 
1194.000000	63.473582 
1193.000000	63.466978 
1192.000000	63.454198 
1191.000000	63.437628 
1190.000000	63.420224 
1189.000000	63.404607 
1188.000000	63.392567 
1187.000000	63.384532 
1186.000000	63.379693 
1185.000000	63.376212 
1184.000000	63.371849 
1183.000000	63.364720 
1182.000000	63.353967 
1181.000000	63.339805 
1180.000000	63.323378 
1179.000000	63.306498 
1178.000000	63.290977 
1177.000000	63.278245 
1176.000000	63.268923 
1175.000000	63.263010 
1174.000000	63.259768 
1173.000000	63.258361 
1172.000000	63.258266 
1171.000000	63.259196 
1170.000000	63.261246 
1169.000000	63.264513 
1168.000000	63.268947 
1167.000000	63.273954 
1166.000000	63.278293 
1165.000000	63.280510 
1164.000000	63.279128 
1163.000000	63.272833 
1162.000000	63.261055 
1161.000000	63.244009 
1160.000000	63.222813 
1159.000000	63.199186 
1158.000000	63.175654 
1157.000000	63.155150 
1156.000000	63.140726 
1155.000000	63.135433 
1154.000000	63.141512 
1153.000000	63.160157 
1152.000000	63.190960 
1151.000000	63.231730 
1150.000000	63.278698 
1149.000000	63.326740 
1148.000000	63.370251 
1147.000000	63.404011 
1146.000000	63.424253 
1145.000000	63.429284 
1144.000000	63.419961 
1143.000000	63.399338 
1142.000000	63.372302 
1141.000000	63.344049 
1140.000000	63.319492 
1139.000000	63.301825 
1138.000000	63.292384 
1137.000000	63.290143 
1136.000000	63.292717 
1135.000000	63.296771 
1134.000000	63.298845 
1133.000000	63.296580 
1132.000000	63.289070 
1131.000000	63.277125 
1130.000000	63.262963 
1129.000000	63.249659 
1128.000000	63.240194 
1127.000000	63.236522 
1126.000000	63.239192 
1125.000000	63.246822 
1124.000000	63.256788 
1123.000000	63.265657 
1122.000000	63.270163 
1121.000000	63.267874 
1120.000000	63.257884 
1119.000000	63.240718 
1118.000000	63.218379 
1117.000000	63.193631 
1116.000000	63.169264 
1115.000000	63.147735 
1114.000000	63.130784 
1113.000000	63.119173 
1112.000000	63.113045 
1111.000000	63.112115 
1110.000000	63.115954 
1109.000000	63.124275 
1108.000000	63.136672 
1107.000000	63.152503 
1106.000000	63.170766 
1105.000000	63.189840 
1104.000000	63.207983 
1103.000000	63.223266 
1102.000000	63.234210 
1101.000000	63.239955 
1100.000000	63.240385 
1099.000000	63.235878 
1098.000000	63.227295 
1097.000000	63.215851 
1096.000000	63.202929 
1095.000000	63.189911 
1094.000000	63.178324 
1093.000000	63.169574 
1092.000000	63.164973 
1091.000000	63.165593 
1090.000000	63.171672 
1089.000000	63.182830 
1088.000000	63.197851 
1087.000000	63.214874 
1086.000000	63.231706 
1085.000000	63.246273 
1084.000000	63.256812 
1083.000000	63.262557 
1082.000000	63.263440 
1081.000000	63.260674 
1080.000000	63.255882 
1079.000000	63.251209 
1078.000000	63.248372 
1077.000000	63.248634 
1076.000000	63.252782 
1075.000000	63.260746 
1074.000000	63.271951 
1073.000000	63.285422 
1072.000000	63.300204 
1071.000000	63.315153 
1070.000000	63.329386 
1069.000000	63.341832 
1068.000000	63.351488 
1067.000000	63.357424 
1066.000000	63.358831 
1065.000000	63.355302 
1064.000000	63.347005 
1063.000000	63.334870 
1062.000000	63.320517 
1061.000000	63.306021 
1060.000000	63.293480 
1059.000000	63.284611 
1058.000000	63.280296 
1057.000000	63.280558 
1056.000000	63.284611 
1055.000000	63.290762 
1054.000000	63.297176 
1053.000000	63.302326 
1052.000000	63.305211 
1051.000000	63.305544 
1050.000000	63.303661 
1049.000000	63.300299 
1048.000000	63.296198 
1047.000000	63.291883 
1046.000000	63.287591 
1045.000000	63.283228 
1044.000000	63.278460 
1043.000000	63.273048 
1042.000000	63.266634 
1041.000000	63.259148 
1040.000000	63.250517 
1039.000000	63.240885 
1038.000000	63.230538 
1037.000000	63.219761 
1036.000000	63.208961 
1035.000000	63.198542 
1034.000000	63.188648 
1033.000000	63.179159 
1032.000000	63.169598 
1031.000000	63.159561 
1030.000000	63.148355 
1029.000000	63.135671 
1028.000000	63.121724 
1027.000000	63.107204 
1026.000000	63.093376 
1025.000000	63.081955 
1024.000000	63.074374 
1023.000000	63.071799 
1022.000000	63.074374 
1021.000000	63.081336 
1020.000000	63.090825 
1019.000000	63.100671 
1018.000000	63.108706 
1017.000000	63.113570 
1016.000000	63.114953 
1015.000000	63.113808 
1014.000000	63.111996 
1013.000000	63.111948 
1012.000000	63.115978 
1011.000000	63.125801 
1010.000000	63.142061 
1009.000000	63.164472 
1008.000000	63.191580 
1007.000000	63.221192 
1006.000000	63.250708 
1005.000000	63.277649 
1004.000000	63.299918 
1003.000000	63.316106 
1002.000000	63.325595 
1001.000000	63.328433 
1000.000000	63.325166 
999.000000	 63.316488 
998.000000	 63.303184 
997.000000	 63.286113 
996.000000	 63.266062 
995.000000	 63.244080 
994.000000	 63.221454 
993.000000	 63.199877 
992.000000	 63.181352 
991.000000	 63.167977 
990.000000	 63.161683 
989.000000	 63.163638 
988.000000	 63.174176 
987.000000	 63.192391 
986.000000	 63.216257 
985.000000	 63.242864 
984.000000	 63.269090 
983.000000	 63.291978 
982.000000	 63.309407 
981.000000	 63.320088 
980.000000	 63.323640 
979.000000	 63.320326 
978.000000	 63.310837 
977.000000	 63.296055 
976.000000	 63.276958 
975.000000	 63.254499 
974.000000	 63.229775 
973.000000	 63.203930 
972.000000	 63.178491 
971.000000	 63.155055 
970.000000	 63.135147 
969.000000	 63.120388 
968.000000	 63.111901 
967.000000	 63.110637 
966.000000	 63.116621 
965.000000	 63.129544 
964.000000	 63.148498 
963.000000	 63.172245 
962.000000	 63.199043 
961.000000	 63.227033 
960.000000	 63.254165 
959.000000	 63.278675 
958.000000	 63.299155 
957.000000	 63.314986 
956.000000	 63.326215 
955.000000	 63.333797 
954.000000	 63.338994 
953.000000	 63.343191 
952.000000	 63.347268 
951.000000	 63.351464 
950.000000	 63.355183 
949.000000	 63.357472 
948.000000	 63.357019 
947.000000	 63.353061 
946.000000	 63.345193 
945.000000	 63.333559 
944.000000	 63.318824 
943.000000	 63.301753 
942.000000	 63.283061 
941.000000	 63.263106 
940.000000	 63.241958 
939.000000	 63.219571 
938.000000	 63.196229 
937.000000	 63.172578 
936.000000	 63.150095 
935.000000	 63.130855 
934.000000	 63.117241 
933.000000	 63.111400 
932.000000	 63.114643 
931.000000	 63.126850 
930.000000	 63.146948 
929.000000	 63.173007 
928.000000	 63.202381 
927.000000	 63.232326 
926.000000	 63.260459 
925.000000	 63.285112 
924.000000	 63.305187 
923.000000	 63.320398 
922.000000	 63.330984 
921.000000	 63.337421 
920.000000	 63.340497 
919.000000	 63.340854 
918.000000	 63.338875 
917.000000	 63.334846 
916.000000	 63.329076 
915.000000	 63.322091 
914.000000	 63.314676 
913.000000	 63.308119 
912.000000	 63.303995 
911.000000	 63.303852 
910.000000	 63.308715 
909.000000	 63.318681 
908.000000	 63.332748 
907.000000	 63.348412 
906.000000	 63.362026 
905.000000	 63.369560 
904.000000	 63.367533 
903.000000	 63.353705 
902.000000	 63.327670 
901.000000	 63.291430 
900.000000	 63.248705 
899.000000	 63.204407 
898.000000	 63.163495 
897.000000	 63.129687 
896.000000	 63.104987 
895.000000	 63.089942 
894.000000	 63.083577 
893.000000	 63.084030 
892.000000	 63.089370 
891.000000	 63.098001 
890.000000	 63.109207 
889.000000	 63.122558 
888.000000	 63.137936 
887.000000	 63.154840 
886.000000	 63.172101 
885.000000	 63.187837 
884.000000	 63.200092 
883.000000	 63.207077 
882.000000	 63.208079 
881.000000	 63.203549 
880.000000	 63.195824 
879.000000	 63.188385 
878.000000	 63.185310 
877.000000	 63.190031 
876.000000	 63.204264 
875.000000	 63.227486 
874.000000	 63.256740 
873.000000	 63.287067 
872.000000	 63.312363 
871.000000	 63.326573 
870.000000	 63.325285 
869.000000	 63.306665 
868.000000	 63.271284 
867.000000	 63.222527 
866.000000	 63.165926 
865.000000	 63.108348 
864.000000	 63.056683 
863.000000	 63.016629 
862.000000	 62.992548 
861.000000	 62.985849 
860.000000	 62.995362 
859.000000	 63.017082 
858.000000	 63.045167 
857.000000	 63.072705 
856.000000	 63.092899 
855.000000	 63.100433 
854.000000	 63.092184 
853.000000	 63.068199 
852.000000	 63.031315 
851.000000	 62.986850 
850.000000	 62.941408 
849.000000	 62.901926 
848.000000	 62.874388 
847.000000	 62.862873 
846.000000	 62.868785 
845.000000	 62.891292 
844.000000	 62.927722 
843.000000	 62.973952 
842.000000	 63.025379 
841.000000	 63.077592 
840.000000	 63.126873 
839.000000	 63.170337 
838.000000	 63.206315 
837.000000	 63.233923 
836.000000	 63.253474 
835.000000	 63.266229 
834.000000	 63.274192 
833.000000	 63.279771 
832.000000	 63.285279 
831.000000	 63.293242 
830.000000	 63.305044 
829.000000	 63.321304 
828.000000	 63.340806 
827.000000	 63.361191 
826.000000	 63.378930 
825.000000	 63.390254 
824.000000	 63.391351 
823.000000	 63.379478 
822.000000	 63.353085 
821.000000	 63.312244 
820.000000	 63.258790 
819.000000	 63.196229 
818.000000	 63.129067 
817.000000	 63.062262 
816.000000	 63.000941 
815.000000	 62.949728 
814.000000	 62.912130 
813.000000	 62.890481 
812.000000	 62.885355 
811.000000	 62.895679 
810.000000	 62.919139 
809.000000	 62.952303 
808.000000	 62.990713 
807.000000	 63.029575 
806.000000	 63.064241 
805.000000	 63.090348 
804.000000	 63.104152 
803.000000	 63.103127 
802.000000	 63.086032 
801.000000	 63.053369 
800.000000	 63.007235 
799.000000	 62.952017 
798.000000	 62.893700 
797.000000	 62.839436 
796.000000	 62.796401 
795.000000	 62.770795 
794.000000	 62.766480 
793.000000	 62.784123 
792.000000	 62.820839 
791.000000	 62.870264 
790.000000	 62.924051 
789.000000	 62.973260 
788.000000	 63.010478 
787.000000	 63.030791 
786.000000	 63.033199 
785.000000	 63.020420 
784.000000	 62.998223 
783.000000	 62.973308 
782.000000	 62.951898 
781.000000	 62.938499 
780.000000	 62.934422 
779.000000	 62.938427 
778.000000	 62.946486 
777.000000	 62.953948 
776.000000	 62.955951 
775.000000	 62.949347 
774.000000	 62.932658 
773.000000	 62.906479 
772.000000	 62.872886 
771.000000	 62.834715 
770.000000	 62.795114 
769.000000	 62.756967 
768.000000	 62.722730 
767.000000	 62.694311 
766.000000	 62.673425 
765.000000	 62.661552 
764.000000	 62.659525 
763.000000	 62.667584 
762.000000	 62.684822 
761.000000	 62.709474 
760.000000	 62.739086 
759.000000	 62.770915 
758.000000	 62.802219 
757.000000	 62.830686 
756.000000	 62.855029 
755.000000	 62.874603 
754.000000	 62.889194 
753.000000	 62.898826 
752.000000	 62.903380 
751.000000	 62.902665 
750.000000	 62.896609 
749.000000	 62.885332 
748.000000	 62.869477 
747.000000	 62.850499 
746.000000	 62.830758 
745.000000	 62.812781 
744.000000	 62.798976 
743.000000	 62.791013 
742.000000	 62.789297 
741.000000	 62.792897 
740.000000	 62.799787 
739.000000	 62.807416 
738.000000	 62.813401 
737.000000	 62.815999 
736.000000	 62.814521 
735.000000	 62.809467 
734.000000	 62.802124 
733.000000	 62.793993 
732.000000	 62.786293 
731.000000	 62.779641 
730.000000	 62.773752 
729.000000	 62.768030 
728.000000	 62.761712 
727.000000	 62.754106 
726.000000	 62.745165 
725.000000	 62.735700 
724.000000	 62.727379 
723.000000	 62.721872 
722.000000	 62.720751 
721.000000	 62.725019 
720.000000	 62.734770 
719.000000	 62.749052 
718.000000	 62.765979 
717.000000	 62.782979 
716.000000	 62.797403 
715.000000	 62.807035 
714.000000	 62.810134 
713.000000	 62.805891 
712.000000	 62.794756 
711.000000	 62.778639 
710.000000	 62.760567 
709.000000	 62.744379 
708.000000	 62.734174 
707.000000	 62.733054 
706.000000	 62.742590 
705.000000	 62.761640 
704.000000	 62.786817 
703.000000	 62.812376 
702.000000	 62.832069 
701.000000	 62.840032 
700.000000	 62.832307 
699.000000	 62.807917 
698.000000	 62.769150 
697.000000	 62.721300 
696.000000	 62.670946 
695.000000	 62.625408 
694.000000	 62.590980 
693.000000	 62.572431 
692.000000	 62.572193 
691.000000	 62.590551 
690.000000	 62.625908 
689.000000	 62.675404 
688.000000	 62.735724 
687.000000	 62.803554 
686.000000	 62.875628 
685.000000	 62.948489 
684.000000	 63.018369 
683.000000	 63.080859 
682.000000	 63.131570 
681.000000	 63.166570 
680.000000	 63.183069 
679.000000	 63.181090 
678.000000	 63.162279 
677.000000	 63.131499 
676.000000	 63.093376 
675.000000	 63.052272 
674.000000	 63.009929 
673.000000	 62.965559 
672.000000	 62.916493 
671.000000	 62.859988 
670.000000	 62.795305 
669.000000	 62.724137 
668.000000	 62.652492 
667.000000	 62.589716 
666.000000	 62.546348 
665.000000	 62.531185 
664.000000	 62.548661 
663.000000	 62.596774 
662.000000	 62.667489 
661.000000	 62.748074 
660.000000	 62.824225 
659.000000	 62.883448 
658.000000	 62.917828 
657.000000	 62.925601 
656.000000	 62.910795 
655.000000	 62.881660 
654.000000	 62.847781 
653.000000	 62.817573 
652.000000	 62.797164 
651.000000	 62.788319 
650.000000	 62.790417 
649.000000	 62.798905 
648.000000	 62.807750 
647.000000	 62.808966 
646.000000	 62.795424 
645.000000	 62.760615 
644.000000	 62.699651 
643.000000	 62.611126 
642.000000	 62.497162 
641.000000	 62.364625 
640.000000	 62.223887 
639.000000	 62.088775 
638.000000	 61.973977 
637.000000	 61.892747 
636.000000	 61.853814 
635.000000	 61.859512 
634.000000	 61.905312 
633.000000	 61.980390 
632.000000	 62.070202 
631.000000	 62.158823 
630.000000	 62.232756 
629.000000	 62.283706 
628.000000	 62.310504 
627.000000	 62.317132 
626.000000	 62.312173 
625.000000	 62.306261 
624.000000	 62.309384 
623.000000	 62.328338 
622.000000	 62.365126 
621.000000	 62.417268 
620.000000	 62.478160 
619.000000	 62.540197 
618.000000	 62.595582 
617.000000	 62.638449 
616.000000	 62.666106 
615.000000	 62.679100 
614.000000	 62.680912 
613.000000	 62.676501 
612.000000	 62.671399 
611.000000	 62.670421 
610.000000	 62.676334 
609.000000	 62.689208 
608.000000	 62.706613 
607.000000	 62.724351 
606.000000	 62.736177 
605.000000	 62.735009 
604.000000	 62.714695 
603.000000	 62.670922 
602.000000	 62.601566 
601.000000	 62.507700 
600.000000	 62.393188 
599.000000	 62.265181 
598.000000	 62.133884 
597.000000	 62.011098 
596.000000	 61.907815 
595.000000	 61.833190 
594.000000	 61.791777 
593.000000	 61.784291 
592.000000	 61.806440 
591.000000	 61.851429 
590.000000	 61.910891 
589.000000	 61.977291 
588.000000	 62.045097 
587.000000	 62.110447 
586.000000	 62.169861 
585.000000	 62.220454 
584.000000	 62.258315 
583.000000	 62.280869 
582.000000	 62.287092 
581.000000	 62.279391 
580.000000	 62.263607 
579.000000	 62.248349 
578.000000	 62.243008 
577.000000	 62.255787 
576.000000	 62.290859 
575.000000	 62.346744 
574.000000	 62.415766 
573.000000	 62.486195 
572.000000	 62.544560 
571.000000	 62.577724 
570.000000	 62.577891 
569.000000	 62.543797 
568.000000	 62.483620 
567.000000	 62.411785 
566.000000	 62.348198 
565.000000	 62.313365 
564.000000	 62.324333 
563.000000	 62.390923 
562.000000	 62.512636 
561.000000	 62.678837 
560.000000	 62.870121 
559.000000	 63.063073 
558.000000	 63.233757 
557.000000	 63.362431 
556.000000	 63.437008 
555.000000	 63.455009 
554.000000	 63.422989 
553.000000	 63.354372 
552.000000	 63.268065 
551.000000	 63.184547 
550.000000	 63.121795 
549.000000	 63.092184 
548.000000	 63.102602 
547.000000	 63.153409 
546.000000	 63.239049 
545.000000	 63.350152 
544.000000	 63.477015 
543.000000	 63.610267 
542.000000	 63.741707 
541.000000	 63.863754 
540.000000	 63.970065 
539.000000	 64.053487 
538.000000	 64.106392 
537.000000	 64.120888 
536.000000	 64.090490 
535.000000	 64.012861 
534.000000	 63.892841 
533.000000	 63.741660 
532.000000	 63.576698 
531.000000	 63.417601 
530.000000	 63.283848 
529.000000	 63.187170 
528.000000	 63.129711 
527.000000	 63.100957 
526.000000	 63.080716 
525.000000	 63.043427 
524.000000	 62.964916 
523.000000	 62.829017 
522.000000	 62.631845 
521.000000	 62.381935 
520.000000	 62.098217 
519.000000	 61.805772 
518.000000	 61.530280 
517.000000	 61.289834 
516.000000	 61.094617 
515.000000	 60.944795 
514.000000	 60.836172 
513.000000	 60.761713 
512.000000	 60.718679 
511.000000	 60.707831 
510.000000	 60.736703 
509.000000	 60.814452 
508.000000	 60.949802 
507.000000	 61.142611 
506.000000	 61.384487 
505.000000	 61.657071 
504.000000	 61.934733 
503.000000	 62.187933 
502.000000	 62.391519 
501.000000	 62.530136 
500.000000	 62.600994 
499.000000	 62.614369 
498.000000	 62.591052 
497.000000	 62.557864 
496.000000	 62.542343 
495.000000	 62.567567 
494.000000	 62.648892 
493.000000	 62.791252 
492.000000	 62.991690 
491.000000	 63.238739 
490.000000	 63.514447 
489.000000	 63.797450 
488.000000	 64.066886 
487.000000	 64.304876 
486.000000	 64.498472 
485.000000	 64.640021 
484.000000	 64.730381 
483.000000	 64.771842 
482.000000	 64.770507 
481.000000	 64.727282 
480.000000	 64.641714 
479.000000	 64.506077 
478.000000	 64.312219 
477.000000	 64.050936 
476.000000	 63.719415 
475.000000	 63.323473 
474.000000	 62.881278 
473.000000	 62.421536 
472.000000	 61.980295 
471.000000	 61.595153 
470.000000	 61.299228 
469.000000	 61.112904 
468.000000	 61.042213 
467.000000	 61.079025 
466.000000	 61.205101 
465.000000	 61.394190 
464.000000	 61.618900 
463.000000	 61.854624 
462.000000	 62.082457 
461.000000	 62.285923 
460.000000	 62.452983 
459.000000	 62.575149 
458.000000	 62.645268 
457.000000	 62.657499 
456.000000	 62.606716 
455.000000	 62.490797 
454.000000	 62.312388 
453.000000	 62.082171 
452.000000	 61.818766 
451.000000	 61.547946 
450.000000	 61.299896 
449.000000	 61.105155 
448.000000	 60.988187 
447.000000	 60.962319 
446.000000	 61.027956 
445.000000	 61.172246 
444.000000	 61.370205 
443.000000	 61.589050 
442.000000	 61.796140 
441.000000	 61.963295 
440.000000	 62.069344 
439.000000	 62.101101 
438.000000	 62.054133 
437.000000	 61.930656 
436.000000	 61.735773 
435.000000	 61.479473 
434.000000	 61.173272 
433.000000	 60.836291 
432.000000	 60.497879 
431.000000	 60.195088 
430.000000	 59.966492 
429.000000	 59.847283 
428.000000	 59.865403 
427.000000	 60.028696 
426.000000	 60.318064 
425.000000	 60.692548 
424.000000	 61.096334 
423.000000	 61.468672 
422.000000	 61.753010 
421.000000	 61.917567 
420.000000	 61.960291 
419.000000	 61.910247 
418.000000	 61.818599 
417.000000	 61.735033 
416.000000	 61.693072 
415.000000	 61.709737 
414.000000	 61.780238 
413.000000	 61.881113 
412.000000	 61.976432 
411.000000	 62.039017 
410.000000	 62.048029 
409.000000	 61.997675 
408.000000	 61.886405 
407.000000	 61.712288 
406.000000	 61.467289 
405.000000	 61.139178 
404.000000	 60.711479 
403.000000	 60.182046 
402.000000	 59.551429 
401.000000	 58.832001 
400.000000	 58.037948 
399.000000	 57.198667 
398.000000	 56.330895 
397.000000	 55.427742 
396.000000	 54.486417 
395.000000	 53.514313 
394.000000	 52.554535 
393.000000	 51.682877 
392.000000	 51.035666 
391.000000	 50.783491 
390.000000	 51.098537 
389.000000	 52.102184 
388.000000	 53.823828 
387.000000	 56.165242 
386.000000	 58.903765 
385.000000	 61.719512 
384.000000	 64.221286 
383.000000	 66.043305 
382.000000	 66.961288 
381.000000	 66.924929 
380.000000	 66.017746 
379.000000	 64.480519 
378.000000	 62.671113 
377.000000	 60.986065 
376.000000	 59.761261 
375.000000	 59.245562 
374.000000	 59.542369 
373.000000	 60.656571 
372.000000	 62.540531 
371.000000	 65.094733 
370.000000	 68.183326 

