PE IR       SPECTRUM    SPECTRUM    ASCII       PEDS        1.60        
  -1
BZCB7B~1.ASC
17/04/07
21:37:27.00
17/04/07
21:37:27.00
tln
$BZ1503107-1_t0102$<tbV0>[7.8,10.4,8.0,0.0,27,1,0]
370.000000
64









2002,4.07    
MIRTGS : RIGHTBACK : INTERNAL 2
MIR : ON : INTERNAL 2
OPTKBR

0.200000
8
8.000000
FILLER
RATIO
SPECTRUM
UNLOCKED 256

DOUBLE
64
COMBINED
1
0
0


1.000000
RATIO


1
0
TRUE
51149
0
LEFT NOT FITTED RIGHT NOT FITTED 0
NONE
NONE
15600
12.000000
4.427000
51148
TRUE
1 0 8 72 0 0 0 0 

15798.010000






#HDR
-1
-1
#GR
CM-1
%T
0.00002384185791015625
0.0
5000.000000
-1.000000
4631
8
79.772019
57.984113
#DATA
5000.000000	62.183761 
4999.000000	62.277126 
4998.000000	62.497806 
4997.000000	62.817573 
4996.000000	63.194441 
4995.000000	63.581848 
4994.000000	63.935494 
4993.000000	64.224195 
4992.000000	64.426493 
4991.000000	64.531087 
4990.000000	64.532470 
4989.000000	64.429044 
4988.000000	64.221858 
4987.000000	63.915634 
4986.000000	63.524937 
4985.000000	63.077282 
4984.000000	62.616062 
4983.000000	62.196397 
4982.000000	61.878252 
4981.000000	61.713457 
4980.000000	61.730933 
4979.000000	61.927223 
4978.000000	62.262201 
4977.000000	62.666678 
4976.000000	63.055014 
4975.000000	63.346290 
4974.000000	63.479232 
4973.000000	63.430070 
4972.000000	63.213849 
4971.000000	62.883615 
4970.000000	62.512421 
4969.000000	62.179160 
4968.000000	61.948585 
4967.000000	61.859655 
4966.000000	61.920142 
4965.000000	62.108254 
4964.000000	62.385201 
4963.000000	62.703061 
4962.000000	63.017964 
4961.000000	63.297700 
4960.000000	63.525462 
4959.000000	63.699698 
4958.000000	63.827824 
4957.000000	63.925933 
4956.000000	64.010834 
4955.000000	64.100360 
4954.000000	64.206719 
4953.000000	64.333844 
4952.000000	64.473605 
4951.000000	64.609551 
4950.000000	64.717388 
4949.000000	64.769029 
4948.000000	64.739489 
4947.000000	64.614009 
4946.000000	64.393830 
4945.000000	64.098548 
4944.000000	63.762664 
4943.000000	63.430380 
4942.000000	63.144278 
4941.000000	62.937831 
4940.000000	62.826538 
4939.000000	62.806057 
4938.000000	62.853789 
4937.000000	62.935161 
4936.000000	63.014411 
4935.000000	63.063740 
4934.000000	63.070178 
4933.000000	63.036751 
4932.000000	62.978911 
4931.000000	62.916684 
4930.000000	62.870001 
4929.000000	62.851762 
4928.000000	62.864542 
4927.000000	62.900400 
4926.000000	62.947416 
4925.000000	62.993431 
4924.000000	63.031077 
4923.000000	63.059186 
4922.000000	63.080811 
4921.000000	63.102364 
4920.000000	63.127160 
4919.000000	63.157629 
4918.000000	63.193082 
4917.000000	63.233184 
4916.000000	63.279843 
4915.000000	63.336801 
4914.000000	63.410043 
4913.000000	63.504266 
4912.000000	63.622522 
4911.000000	63.760900 
4910.000000	63.907694 
4909.000000	64.044880 
4908.000000	64.152407 
4907.000000	64.211893 
4906.000000	64.211940 
4905.000000	64.150738 
4904.000000	64.037537 
4903.000000	63.889813 
4902.000000	63.729715 
4901.000000	63.578557 
4900.000000	63.452768 
4899.000000	63.362121 
4898.000000	63.308763 
4897.000000	63.289451 
4896.000000	63.296890 
4895.000000	63.321876 
4894.000000	63.355875 
4893.000000	63.390278 
4892.000000	63.420343 
4891.000000	63.443589 
4890.000000	63.461947 
4889.000000	63.479757 
4888.000000	63.502740 
4887.000000	63.536190 
4886.000000	63.582563 
4885.000000	63.640642 
4884.000000	63.704395 
4883.000000	63.764834 
4882.000000	63.810896 
4881.000000	63.832235 
4880.000000	63.822555 
4879.000000	63.781809 
4878.000000	63.716292 
4877.000000	63.637638 
4876.000000	63.559746 
4875.000000	63.495516 
4874.000000	63.453316 
4873.000000	63.435196 
4872.000000	63.436651 
4871.000000	63.448786 
4870.000000	63.461589 
4869.000000	63.467597 
4868.000000	63.463401 
4867.000000	63.451719 
4866.000000	63.439750 
4865.000000	63.437962 
4864.000000	63.456368 
4863.000000	63.501811 
4862.000000	63.575649 
4861.000000	63.672518 
4860.000000	63.781642 
4859.000000	63.888072 
4858.000000	63.976931 
4857.000000	64.035201 
4856.000000	64.054703 
4855.000000	64.033627 
4854.000000	63.976263 
4853.000000	63.892436 
4852.000000	63.795065 
4851.000000	63.698005 
4850.000000	63.613629 
4849.000000	63.550853 
4848.000000	63.514304 
4847.000000	63.503813 
4846.000000	63.515353 
4845.000000	63.541960 
4844.000000	63.575410 
4843.000000	63.607645 
4842.000000	63.632678 
4841.000000	63.646531 
4840.000000	63.648462 
4839.000000	63.639974 
4838.000000	63.625216 
4837.000000	63.609099 
4836.000000	63.597202 
4835.000000	63.594555 
4834.000000	63.604855 
4833.000000	63.630008 
4832.000000	63.669610 
4831.000000	63.721394 
4830.000000	63.781046 
4829.000000	63.843107 
4828.000000	63.901638 
4827.000000	63.950753 
4826.000000	63.986229 
4825.000000	64.006161 
4824.000000	64.011073 
4823.000000	64.003682 
4822.000000	63.988280 
4821.000000	63.969588 
4820.000000	63.951778 
4819.000000	63.937520 
4818.000000	63.927674 
4817.000000	63.921713 
4816.000000	63.918328 
4815.000000	63.916540 
4814.000000	63.916492 
4813.000000	63.920331 
4812.000000	63.931274 
4811.000000	63.953280 
4810.000000	63.989830 
4809.000000	64.042592 
4808.000000	64.110398 
4807.000000	64.188957 
4806.000000	64.271521 
4805.000000	64.350056 
4804.000000	64.416933 
4803.000000	64.466333 
4802.000000	64.495587 
4801.000000	64.505076 
4800.000000	64.498186 
4799.000000	64.479374 
4798.000000	64.453434 
4797.000000	64.423346 
4796.000000	64.389944 
4795.000000	64.351391 
4794.000000	64.304518 
4793.000000	64.245748 
4792.000000	64.173245 
4791.000000	64.087796 
4790.000000	63.993835 
4789.000000	63.898658 
4788.000000	63.811516 
4787.000000	63.741564 
4786.000000	63.696241 
4785.000000	63.679051 
4784.000000	63.689422 
4783.000000	63.722705 
4782.000000	63.771462 
4781.000000	63.826990 
4780.000000	63.881063 
4779.000000	63.926815 
4778.000000	63.960123 
4777.000000	63.979148 
4776.000000	63.984441 
4775.000000	63.977837 
4774.000000	63.961839 
4773.000000	63.938593 
4772.000000	63.910150 
4771.000000	63.878536 
4770.000000	63.845801 
4769.000000	63.814473 
4768.000000	63.787508 
4767.000000	63.768076 
4766.000000	63.758969 
4765.000000	63.761973 
4764.000000	63.776755 
4763.000000	63.800835 
4762.000000	63.829421 
4761.000000	63.856840 
4760.000000	63.877224 
4759.000000	63.887047 
4758.000000	63.885283 
4757.000000	63.875079 
4756.000000	63.862895 
4755.000000	63.857626 
4754.000000	63.868474 
4753.000000	63.902330 
4752.000000	63.962554 
4751.000000	64.046645 
4750.000000	64.146804 
4749.000000	64.250779 
4748.000000	64.345002 
4747.000000	64.416790 
4746.000000	64.457225 
4745.000000	64.462924 
4744.000000	64.436817 
4743.000000	64.387321 
4742.000000	64.326262 
4741.000000	64.266061 
4740.000000	64.216828 
4739.000000	64.184689 
4738.000000	64.170718 
4737.000000	64.170932 
4736.000000	64.178037 
4735.000000	64.183545 
4734.000000	64.180231 
4733.000000	64.163827 
4732.000000	64.134073 
4731.000000	64.094352 
4730.000000	64.050245 
4729.000000	64.007806 
4728.000000	63.971471 
4727.000000	63.942980 
4726.000000	63.920664 
4725.000000	63.900613 
4724.000000	63.877677 
4723.000000	63.847255 
4722.000000	63.807082 
4721.000000	63.757872 
4720.000000	63.703656 
4719.000000	63.650369 
4718.000000	63.605213 
4717.000000	63.574504 
4716.000000	63.562488 
4715.000000	63.569808 
4714.000000	63.594079 
4713.000000	63.630199 
4712.000000	63.671755 
4711.000000	63.712358 
4710.000000	63.746619 
4709.000000	63.771486 
4708.000000	63.786411 
4707.000000	63.793516 
4706.000000	63.796877 
4705.000000	63.801479 
4704.000000	63.812398 
4703.000000	63.832879 
4702.000000	63.863658 
4701.000000	63.902473 
4700.000000	63.944935 
4699.000000	63.985419 
4698.000000	64.018845 
4697.000000	64.041304 
4696.000000	64.052128 
4695.000000	64.052653 
4694.000000	64.045596 
4693.000000	64.034366 
4692.000000	64.021992 
4691.000000	64.010810 
4690.000000	64.001893 
4689.000000	63.995981 
4688.000000	63.993644 
4687.000000	63.995242 
4686.000000	64.001083 
4685.000000	64.011001 
4684.000000	64.024066 
4683.000000	64.037990 
4682.000000	64.049696 
4681.000000	64.055514 
4680.000000	64.052772 
4679.000000	64.041090 
4678.000000	64.023065 
4677.000000	64.003920 
4676.000000	63.990235 
4675.000000	63.988494 
4674.000000	64.003181 
4673.000000	64.034676 
4672.000000	64.079952 
4671.000000	64.133262 
4670.000000	64.187979 
4669.000000	64.238405 
4668.000000	64.280986 
4667.000000	64.315533 
4666.000000	64.344072 
4665.000000	64.369916 
4664.000000	64.396071 
4663.000000	64.423727 
4662.000000	64.451932 
4661.000000	64.477705 
4660.000000	64.497303 
4659.000000	64.507484 
4658.000000	64.507031 
4657.000000	64.497303 
4656.000000	64.481902 
4655.000000	64.465570 
4654.000000	64.452672 
4653.000000	64.445447 
4652.000000	64.443707 
4651.000000	64.444112 
4650.000000	64.441800 
4649.000000	64.431309 
4648.000000	64.408302 
4647.000000	64.370918 
4646.000000	64.320468 
4645.000000	64.261269 
4644.000000	64.199638 
4643.000000	64.142823 
4642.000000	64.097118 
4641.000000	64.066958 
4640.000000	64.054250 
4639.000000	64.058160 
4638.000000	64.075231 
4637.000000	64.100837 
4636.000000	64.130282 
4635.000000	64.159059 
4634.000000	64.183425 
4633.000000	64.200830 
4632.000000	64.209747 
4631.000000	64.209556 
4630.000000	64.200162 
4629.000000	64.182257 
4628.000000	64.157390 
4627.000000	64.127874 
4626.000000	64.096832 
4625.000000	64.068031 
4624.000000	64.045691 
4623.000000	64.033627 
4622.000000	64.034581 
4621.000000	64.049816 
4620.000000	64.078450 
4619.000000	64.117670 
4618.000000	64.162921 
4617.000000	64.208698 
4616.000000	64.248991 
4615.000000	64.278793 
4614.000000	64.294242 
4613.000000	64.293265 
4612.000000	64.275789 
4611.000000	64.243769 
4610.000000	64.200258 
4609.000000	64.149045 
4608.000000	64.093875 
4607.000000	64.038419 
4606.000000	63.985538 
4605.000000	63.937401 
4604.000000	63.895368 
4603.000000	63.860106 
4602.000000	63.831639 
4601.000000	63.809680 
4600.000000	63.793301 
4599.000000	63.781332 
4598.000000	63.772058 
4597.000000	63.763737 
4596.000000	63.754463 
4595.000000	63.742971 
4594.000000	63.728499 
4593.000000	63.711762 
4592.000000	63.693904 
4591.000000	63.677191 
4590.000000	63.663721 
4589.000000	63.655495 
4588.000000	63.653445 
4587.000000	63.657689 
4586.000000	63.667774 
4585.000000	63.682460 
4584.000000	63.700079 
4583.000000	63.718295 
4582.000000	63.734745 
4581.000000	63.746833 
4580.000000	63.752293 
4579.000000	63.749766 
4578.000000	63.738942 
4577.000000	63.721132 
4576.000000	63.698935 
4575.000000	63.675498 
4574.000000	63.653707 
4573.000000	63.635706 
4572.000000	63.622379 
4571.000000	63.613176 
4570.000000	63.606142 
4569.000000	63.599181 
4568.000000	63.590097 
4567.000000	63.577651 
4566.000000	63.561296 
4565.000000	63.541555 
4564.000000	63.519287 
4563.000000	63.495206 
4562.000000	63.469648 
4561.000000	63.442182 
4560.000000	63.412523 
4559.000000	63.380742 
4558.000000	63.347864 
4557.000000	63.315868 
4556.000000	63.287377 
4555.000000	63.265180 
4554.000000	63.251280 
4553.000000	63.246226 
4552.000000	63.249158 
4551.000000	63.258075 
4550.000000	63.270449 
4549.000000	63.283967 
4548.000000	63.297128 
4547.000000	63.309621 
4546.000000	63.321924 
4545.000000	63.335084 
4544.000000	63.349962 
4543.000000	63.366723 
4542.000000	63.384580 
4541.000000	63.401627 
4540.000000	63.415718 
4539.000000	63.424539 
4538.000000	63.427019 
4537.000000	63.422703 
4536.000000	63.411903 
4535.000000	63.395237 
4534.000000	63.373732 
4533.000000	63.348364 
4532.000000	63.320112 
4531.000000	63.289880 
4530.000000	63.258862 
4529.000000	63.228416 
4528.000000	63.200020 
4527.000000	63.175392 
4526.000000	63.156223 
4525.000000	63.144469 
4524.000000	63.141632 
4523.000000	63.148593 
4522.000000	63.164997 
4521.000000	63.188815 
4520.000000	63.216304 
4519.000000	63.242006 
4518.000000	63.259792 
4517.000000	63.263893 
4516.000000	63.250923 
4515.000000	63.220334 
4514.000000	63.176059 
4513.000000	63.126206 
4512.000000	63.081645 
4511.000000	63.053870 
4510.000000	63.051342 
4509.000000	63.077449 
4508.000000	63.128805 
4507.000000	63.195919 
4506.000000	63.264942 
4505.000000	63.321304 
4504.000000	63.353037 
4503.000000	63.354301 
4502.000000	63.325357 
4501.000000	63.271975 
4500.000000	63.203549 
4499.000000	63.130140 
4498.000000	63.059997 
4497.000000	62.997698 
4496.000000	62.944507 
4495.000000	62.899017 
4494.000000	62.858939 
4493.000000	62.822175 
4492.000000	62.788701 
4491.000000	62.759995 
4490.000000	62.737035 
4489.000000	62.720108 
4488.000000	62.707662 
4487.000000	62.696933 
4486.000000	62.683105 
4485.000000	62.662410 
4484.000000	62.634205 
4483.000000	62.601637 
4482.000000	62.568616 
4481.000000	62.541937 
4480.000000	62.531375 
4479.000000	62.544846 
4478.000000	62.581896 
4477.000000	62.640047 
4476.000000	62.719154 
4475.000000	62.813520 
4474.000000	62.910628 
4473.000000	62.998723 
4472.000000	63.069057 
4471.000000	63.117599 
4470.000000	63.147139 
4469.000000	63.158392 
4468.000000	63.150668 
4467.000000	63.131260 
4466.000000	63.114142 
4465.000000	63.115191 
4464.000000	63.149833 
4463.000000	63.229680 
4462.000000	63.361597 
4461.000000	63.535809 
4460.000000	63.739418 
4459.000000	63.964247 
4458.000000	64.211034 
4457.000000	64.487004 
4456.000000	64.809823 
4455.000000	65.179777 
4454.000000	65.613794 
4453.000000	66.109967 
4452.000000	66.705608 
4451.000000	67.475152 
4450.000000	68.512225 
4449.000000	69.924092 
4448.000000	71.733379 
4447.000000	73.854207 
4446.000000	76.058983 
4445.000000	78.011417 
4444.000000	79.349350 
4443.000000	79.772019 
4442.000000	79.134607 
4441.000000	77.487635 
4440.000000	75.045895 
4439.000000	72.140669 
4438.000000	69.127583 
4437.000000	66.320872 
4436.000000	63.954710 
4435.000000	62.148809 
4434.000000	60.942387 
4433.000000	60.286068 
4432.000000	60.077834 
4431.000000	60.189080 
4430.000000	60.465121 
4429.000000	60.785746 
4428.000000	61.053991 
4427.000000	61.238145 
4426.000000	61.334133 
4425.000000	61.387610 
4424.000000	61.454463 
4423.000000	61.595654 
4422.000000	61.845612 
4421.000000	62.214565 
4420.000000	62.686061 
4419.000000	63.217926 
4418.000000	63.754010 
4417.000000	64.237737 
4416.000000	64.626526 
4415.000000	64.896559 
4414.000000	65.046238 
4413.000000	65.096330 
4412.000000	65.080952 
4411.000000	65.036273 
4410.000000	64.990568 
4409.000000	64.958882 
4408.000000	64.939069 
4407.000000	64.930391 
4406.000000	64.924812 
4405.000000	64.905476 
4404.000000	64.854526 
4403.000000	64.765715 
4402.000000	64.640045 
4401.000000	64.482879 
4400.000000	64.305758 
4399.000000	64.123964 
4398.000000	63.952517 
4397.000000	63.803482 
4396.000000	63.683009 
4395.000000	63.589382 
4394.000000	63.517284 
4393.000000	63.460779 
4392.000000	63.414525 
4391.000000	63.375282 
4390.000000	63.341641 
4389.000000	63.313412 
4388.000000	63.288259 
4387.000000	63.261723 
4386.000000	63.230466 
4385.000000	63.193535 
4384.000000	63.152170 
4383.000000	63.111042 
4382.000000	63.078260 
4381.000000	63.063335 
4380.000000	63.073945 
4379.000000	63.114094 
4378.000000	63.181686 
4377.000000	63.269257 
4376.000000	63.365316 
4375.000000	63.457584 
4374.000000	63.535451 
4373.000000	63.592863 
4372.000000	63.629460 
4371.000000	63.649821 
4370.000000	63.661122 
4369.000000	63.671064 
4368.000000	63.685441 
4367.000000	63.706111 
4366.000000	63.730573 
4365.000000	63.753604 
4364.000000	63.769555 
4363.000000	63.773250 
4362.000000	63.761758 
4361.000000	63.735079 
4360.000000	63.696575 
4359.000000	63.651871 
4358.000000	63.608074 
4357.000000	63.572335 
4356.000000	63.550615 
4355.000000	63.546943 
4354.000000	63.562440 
4353.000000	63.595795 
4352.000000	63.642930 
4351.000000	63.697814 
4350.000000	63.753366 
4349.000000	63.802123 
4348.000000	63.837885 
4347.000000	63.856863 
4346.000000	63.858032 
4345.000000	63.843035 
4344.000000	63.815903 
4343.000000	63.782334 
4342.000000	63.747763 
4341.000000	63.716363 
4340.000000	63.690066 
4339.000000	63.668751 
4338.000000	63.650584 
4337.000000	63.632845 
4336.000000	63.613128 
4335.000000	63.590335 
4334.000000	63.564825 
4333.000000	63.538694 
4332.000000	63.514876 
4331.000000	63.496613 
4330.000000	63.486433 
4329.000000	63.485717 
4328.000000	63.494563 
4327.000000	63.511562 
4326.000000	63.534998 
4325.000000	63.562226 
4324.000000	63.590025 
4323.000000	63.614583 
4322.000000	63.632059 
4321.000000	63.638901 
4320.000000	63.632154 
4319.000000	63.610243 
4318.000000	63.573670 
4317.000000	63.525176 
4316.000000	63.469910 
4315.000000	63.414311 
4314.000000	63.365221 
4313.000000	63.328266 
4312.000000	63.307046 
4311.000000	63.302206 
4310.000000	63.311457 
4309.000000	63.330650 
4308.000000	63.354802 
4307.000000	63.379383 
4306.000000	63.401532 
4305.000000	63.420271 
4304.000000	63.436698 
4303.000000	63.452792 
4302.000000	63.471078 
4301.000000	63.493609 
4300.000000	63.521718 
4299.000000	63.555884 
4298.000000	63.595771 
4297.000000	63.640713 
4296.000000	63.689756 
4295.000000	63.742065 
4294.000000	63.796210 
4293.000000	63.850259 
4292.000000	63.901090 
4291.000000	63.944959 
4290.000000	63.977479 
4289.000000	63.994765 
4288.000000	63.994097 
4287.000000	63.975214 
4286.000000	63.939952 
4285.000000	63.892340 
4284.000000	63.837909 
4283.000000	63.783025 
4282.000000	63.733530 
4281.000000	63.693881 
4280.000000	63.666629 
4279.000000	63.652229 
4278.000000	63.649010 
4277.000000	63.654136 
4276.000000	63.663768 
4275.000000	63.674521 
4274.000000	63.683986 
4273.000000	63.691544 
4272.000000	63.697695 
4271.000000	63.704252 
4270.000000	63.713359 
4269.000000	63.727092 
4268.000000	63.746404 
4267.000000	63.771057 
4266.000000	63.799762 
4265.000000	63.830494 
4264.000000	63.860821 
4263.000000	63.888764 
4262.000000	63.913440 
4261.000000	63.934683 
4260.000000	63.953018 
4259.000000	63.968825 
4258.000000	63.981938 
4257.000000	63.991212 
4256.000000	63.994741 
4255.000000	63.990640 
4254.000000	63.977742 
4253.000000	63.956427 
4252.000000	63.928890 
4251.000000	63.899016 
4250.000000	63.871574 
4249.000000	63.851070 
4248.000000	63.840675 
4247.000000	63.841438 
4246.000000	63.852095 
4245.000000	63.869309 
4244.000000	63.888955 
4243.000000	63.906884 
4242.000000	63.920116 
4241.000000	63.927435 
4240.000000	63.929295 
4239.000000	63.927268 
4238.000000	63.923668 
4237.000000	63.920545 
4236.000000	63.919448 
4235.000000	63.920998 
4234.000000	63.924908 
4233.000000	63.930487 
4232.000000	63.936185 
4231.000000	63.940238 
4230.000000	63.940262 
4229.000000	63.933873 
4228.000000	63.918542 
4227.000000	63.892316 
4226.000000	63.854360 
4225.000000	63.805556 
4224.000000	63.748908 
4223.000000	63.689351 
4222.000000	63.633275 
4221.000000	63.587284 
4220.000000	63.556861 
4219.000000	63.545536 
4218.000000	63.553714 
4217.000000	63.579392 
4216.000000	63.618254 
4215.000000	63.665771 
4214.000000	63.717317 
4213.000000	63.770079 
4212.000000	63.822722 
4211.000000	63.875651 
4210.000000	63.929390 
4209.000000	63.984584 
4208.000000	64.040589 
4207.000000	64.095544 
4206.000000	64.146757 
4205.000000	64.191102 
4204.000000	64.225840 
4203.000000	64.249587 
4202.000000	64.262986 
4201.000000	64.267730 
4200.000000	64.266157 
4199.000000	64.260530 
4198.000000	64.252376 
4197.000000	64.242100 
4196.000000	64.229178 
4195.000000	64.212989 
4194.000000	64.193224 
4193.000000	64.170455 
4192.000000	64.146447 
4191.000000	64.123773 
4190.000000	64.105749 
4189.000000	64.095354 
4188.000000	64.094829 
4187.000000	64.104652 
4186.000000	64.123582 
4185.000000	64.148545 
4184.000000	64.175581 
4183.000000	64.199948 
4182.000000	64.218401 
4181.000000	64.229679 
4180.000000	64.235091 
4179.000000	64.237594 
4178.000000	64.241838 
4177.000000	64.252638 
4176.000000	64.273452 
4175.000000	64.305067 
4174.000000	64.345812 
4173.000000	64.391922 
4172.000000	64.437961 
4171.000000	64.478087 
4170.000000	64.507460 
4169.000000	64.523029 
4168.000000	64.524030 
4167.000000	64.511609 
4166.000000	64.488029 
4165.000000	64.455938 
4164.000000	64.418029 
4163.000000	64.376497 
4162.000000	64.333128 
4161.000000	64.289236 
4160.000000	64.246702 
4159.000000	64.207291 
4158.000000	64.173054 
4157.000000	64.145612 
4156.000000	64.125871 
4155.000000	64.113402 
4154.000000	64.106464 
4153.000000	64.101886 
4152.000000	64.095592 
4151.000000	64.083385 
4150.000000	64.062118 
4149.000000	64.029955 
4148.000000	63.986849 
4147.000000	63.934755 
4146.000000	63.877439 
4145.000000	63.819885 
4144.000000	63.767480 
4143.000000	63.725900 
4142.000000	63.700461 
4141.000000	63.695144 
4140.000000	63.712048 
4139.000000	63.751196 
4138.000000	63.810491 
4137.000000	63.885068 
4136.000000	63.968372 
4135.000000	64.052891 
4134.000000	64.131355 
4133.000000	64.197874 
4132.000000	64.248681 
4131.000000	64.282321 
4130.000000	64.299321 
4129.000000	64.302515 
4128.000000	64.295291 
4127.000000	64.281058 
4126.000000	64.262461 
4125.000000	64.241814 
4124.000000	64.220070 
4123.000000	64.197683 
4122.000000	64.174747 
4121.000000	64.151740 
4120.000000	64.129233 
4119.000000	64.107847 
4118.000000	64.088034 
4117.000000	64.069914 
4116.000000	64.052724 
4115.000000	64.035129 
4114.000000	64.015531 
4113.000000	63.992691 
4112.000000	63.965964 
4111.000000	63.935923 
4110.000000	63.904261 
4109.000000	63.874006 
4108.000000	63.848257 
4107.000000	63.830232 
4106.000000	63.821744 
4105.000000	63.823819 
4104.000000	63.835954 
4103.000000	63.856863 
4102.000000	63.884162 
4101.000000	63.915467 
4100.000000	63.948869 
4099.000000	63.982844 
4098.000000	64.016079 
4097.000000	64.047408 
4096.000000	64.075422 
4095.000000	64.098811 
4094.000000	64.116477 
4093.000000	64.127612 
4092.000000	64.132213 
4091.000000	64.131331 
4090.000000	64.127182 
4089.000000	64.122438 
4088.000000	64.119625 
4087.000000	64.120531 
4086.000000	64.125823 
4085.000000	64.134907 
4084.000000	64.146208 
4083.000000	64.157795 
4082.000000	64.168095 
4081.000000	64.176559 
4080.000000	64.183330 
4079.000000	64.189267 
4078.000000	64.195036 
4077.000000	64.200639 
4076.000000	64.204955 
4075.000000	64.205527 
4074.000000	64.199805 
4073.000000	64.185786 
4072.000000	64.163470 
4071.000000	64.135169 
4070.000000	64.105701 
4069.000000	64.081573 
4068.000000	64.069437 
4067.000000	64.074444 
4066.000000	64.098572 
4065.000000	64.140057 
4064.000000	64.193415 
4063.000000	64.250731 
4062.000000	64.303255 
4061.000000	64.343333 
4060.000000	64.366102 
4059.000000	64.370226 
4058.000000	64.357495 
4057.000000	64.331865 
4056.000000	64.298200 
4055.000000	64.260530 
4054.000000	64.221763 
4053.000000	64.182662 
4052.000000	64.142727 
4051.000000	64.100646 
4050.000000	64.055657 
4049.000000	64.007949 
4048.000000	63.959097 
4047.000000	63.912343 
4046.000000	63.871645 
4045.000000	63.841509 
4044.000000	63.825201 
4043.000000	63.825035 
4042.000000	63.841223 
4041.000000	63.872385 
4040.000000	63.915491 
4039.000000	63.966870 
4038.000000	64.022660 
4037.000000	64.079451 
4036.000000	64.134478 
4035.000000	64.185929 
4034.000000	64.232444 
4033.000000	64.273238 
4032.000000	64.307212 
4031.000000	64.333271 
4030.000000	64.349412 
4029.000000	64.353942 
4028.000000	64.345026 
4027.000000	64.322113 
4026.000000	64.285802 
4025.000000	64.238834 
4024.000000	64.185237 
4023.000000	64.130115 
4022.000000	64.078640 
4021.000000	64.035820 
4020.000000	64.005208 
4019.000000	63.988542 
4018.000000	63.985562 
4017.000000	63.994240 
4016.000000	64.011025 
4015.000000	64.031457 
4014.000000	64.051008 
4013.000000	64.065599 
4012.000000	64.072537 
4011.000000	64.071035 
4010.000000	64.061903 
4009.000000	64.047455 
4008.000000	64.031362 
4007.000000	64.017510 
4006.000000	64.009189 
4005.000000	64.008188 
4004.000000	64.014625 
4003.000000	64.026999 
4002.000000	64.042401 
4001.000000	64.057683 
4000.000000	64.070320 
3999.000000	64.079165 
3998.000000	64.084720 
3997.000000	64.088916 
3996.000000	64.094281 
3995.000000	64.103221 
3994.000000	64.117097 
3993.000000	64.135575 
3992.000000	64.156985 
3991.000000	64.178347 
3990.000000	64.196705 
3989.000000	64.208936 
3988.000000	64.212942 
3987.000000	64.207530 
3986.000000	64.192771 
3985.000000	64.169406 
3984.000000	64.138722 
3983.000000	64.102315 
3982.000000	64.062118 
3981.000000	64.020490 
3980.000000	63.980174 
3979.000000	63.944387 
3978.000000	63.916230 
3977.000000	63.898324 
3976.000000	63.892149 
3975.000000	63.897633 
3974.000000	63.913130 
3973.000000	63.935112 
3972.000000	63.959360 
3971.000000	63.981485 
3970.000000	63.997793 
3969.000000	64.005732 
3968.000000	64.004135 
3967.000000	63.993191 
3966.000000	63.974308 
3965.000000	63.949370 
3964.000000	63.920855 
3963.000000	63.891124 
3962.000000	63.862776 
3961.000000	63.838458 
3960.000000	63.820743 
3959.000000	63.812017 
3958.000000	63.813638 
3957.000000	63.825559 
3956.000000	63.845849 
3955.000000	63.870978 
3954.000000	63.896012 
3953.000000	63.916039 
3952.000000	63.926911 
3951.000000	63.927006 
3950.000000	63.917303 
3949.000000	63.902020 
3948.000000	63.887286 
3947.000000	63.880419 
3946.000000	63.887643 
3945.000000	63.912916 
3944.000000	63.956761 
3943.000000	64.015841 
3942.000000	64.083862 
3941.000000	64.152574 
3940.000000	64.213490 
3939.000000	64.259600 
3938.000000	64.286756 
3937.000000	64.294195 
3936.000000	64.284491 
3935.000000	64.262843 
3934.000000	64.235639 
3933.000000	64.209342 
3932.000000	64.189171 
3931.000000	64.177989 
3930.000000	64.175868 
3929.000000	64.180588 
3928.000000	64.188313 
3927.000000	64.194655 
3926.000000	64.195585 
3925.000000	64.188313 
3924.000000	64.171743 
3923.000000	64.146590 
3922.000000	64.114952 
3921.000000	64.079713 
3920.000000	64.043545 
3919.000000	64.008641 
3918.000000	63.976192 
3917.000000	63.946413 
3916.000000	63.919043 
3915.000000	63.893723 
3914.000000	63.870477 
3913.000000	63.849854 
3912.000000	63.833069 
3911.000000	63.821601 
3910.000000	63.817000 
3909.000000	63.820075 
3908.000000	63.831257 
3907.000000	63.850355 
3906.000000	63.876438 
3905.000000	63.907957 
3904.000000	63.942623 
3903.000000	63.977646 
3902.000000	64.009785 
3901.000000	64.035844 
3900.000000	64.053034 
3899.000000	64.059734 
3898.000000	64.055871 
3897.000000	64.043259 
3896.000000	64.025759 
3895.000000	64.008259 
3894.000000	63.996171 
3893.000000	63.993644 
3892.000000	64.002728 
3891.000000	64.022588 
3890.000000	64.050102 
3889.000000	64.080262 
3888.000000	64.107751 
3887.000000	64.128327 
3886.000000	64.140319 
3885.000000	64.144420 
3884.000000	64.143276 
3883.000000	64.140534 
3882.000000	64.139699 
3881.000000	64.143204 
3880.000000	64.151501 
3879.000000	64.163446 
3878.000000	64.176583 
3877.000000	64.188122 
3876.000000	64.195847 
3875.000000	64.198398 
3874.000000	64.195466 
3873.000000	64.187383 
3872.000000	64.174842 
3871.000000	64.158296 
3870.000000	64.138078 
3869.000000	64.114236 
3868.000000	64.087057 
3867.000000	64.057540 
3866.000000	64.027571 
3865.000000	63.999629 
3864.000000	63.976883 
3863.000000	63.962149 
3862.000000	63.958144 
3861.000000	63.966798 
3860.000000	63.988876 
3859.000000	64.023947 
3858.000000	64.069890 
3857.000000	64.123392 
3856.000000	64.179468 
3855.000000	64.232110 
3854.000000	64.274716 
3853.000000	64.301371 
3852.000000	64.307618 
3851.000000	64.291501 
3850.000000	64.254498 
3849.000000	64.201426 
3848.000000	64.140272 
3847.000000	64.080691 
3846.000000	64.032363 
3845.000000	64.003205 
3844.000000	63.997840 
3843.000000	64.016652 
3842.000000	64.055967 
3841.000000	64.108657 
3840.000000	64.165925 
3839.000000	64.219117 
3838.000000	64.261007 
3837.000000	64.287328 
3836.000000	64.296746 
3835.000000	64.290952 
3834.000000	64.273595 
3833.000000	64.249491 
3832.000000	64.223265 
3831.000000	64.198780 
3830.000000	64.178943 
3829.000000	64.165091 
3828.000000	64.157772 
3827.000000	64.156270 
3826.000000	64.159464 
3825.000000	64.165520 
3824.000000	64.172410 
3823.000000	64.178395 
3822.000000	64.182496 
3821.000000	64.184546 
3820.000000	64.185380 
3819.000000	64.186453 
3818.000000	64.189696 
3817.000000	64.197015 
3816.000000	64.209794 
3815.000000	64.228224 
3814.000000	64.251065 
3813.000000	64.276051 
3812.000000	64.300036 
3811.000000	64.319586 
3810.000000	64.331579 
3809.000000	64.333605 
3808.000000	64.324665 
3807.000000	64.305233 
3806.000000	64.277362 
3805.000000	64.244079 
3804.000000	64.209222 
3803.000000	64.176797 
3802.000000	64.150261 
3801.000000	64.132404 
3800.000000	64.124178 
3799.000000	64.124917 
3798.000000	64.132308 
3797.000000	64.143085 
3796.000000	64.153766 
3795.000000	64.161586 
3794.000000	64.165210 
3793.000000	64.164853 
3792.000000	64.162230 
3791.000000	64.159727 
3790.000000	64.159727 
3789.000000	64.163708 
3788.000000	64.171385 
3787.000000	64.181065 
3786.000000	64.189791 
3785.000000	64.194536 
3784.000000	64.192819 
3783.000000	64.184141 
3782.000000	64.169764 
3781.000000	64.153194 
3780.000000	64.138889 
3779.000000	64.131760 
3778.000000	64.135527 
3777.000000	64.152073 
3776.000000	64.180970 
3775.000000	64.219522 
3774.000000	64.263463 
3773.000000	64.307475 
3772.000000	64.346170 
3771.000000	64.374947 
3770.000000	64.390873 
3769.000000	64.393043 
3768.000000	64.382481 
3767.000000	64.362144 
3766.000000	64.336133 
3765.000000	64.309120 
3764.000000	64.285540 
3763.000000	64.268827 
3762.000000	64.260983 
3761.000000	64.262557 
3760.000000	64.272356 
3759.000000	64.288163 
3758.000000	64.306974 
3757.000000	64.325475 
3756.000000	64.340877 
3755.000000	64.350819 
3754.000000	64.354252 
3753.000000	64.351058 
3752.000000	64.342379 
3751.000000	64.329934 
3750.000000	64.316129 
3749.000000	64.303374 
3748.000000	64.293718 
3747.000000	64.288592 
3746.000000	64.288449 
3745.000000	64.292883 
3744.000000	64.300489 
3743.000000	64.309287 
3742.000000	64.317154 
3741.000000	64.322400 
3740.000000	64.323997 
3739.000000	64.321637 
3738.000000	64.316153 
3737.000000	64.309144 
3736.000000	64.302635 
3735.000000	64.298629 
3734.000000	64.298582 
3733.000000	64.303183 
3732.000000	64.312243 
3731.000000	64.324784 
3730.000000	64.339399 
3729.000000	64.354395 
3728.000000	64.368367 
3727.000000	64.380359 
3726.000000	64.389777 
3725.000000	64.396309 
3724.000000	64.400029 
3723.000000	64.400863 
3722.000000	64.398670 
3721.000000	64.393258 
3720.000000	64.384651 
3719.000000	64.373230 
3718.000000	64.359784 
3717.000000	64.345669 
3716.000000	64.332675 
3715.000000	64.322733 
3714.000000	64.317393 
3713.000000	64.317369 
3712.000000	64.322471 
3711.000000	64.331459 
3710.000000	64.342403 
3709.000000	64.352989 
3708.000000	64.360928 
3707.000000	64.364743 
3706.000000	64.363908 
3705.000000	64.358854 
3704.000000	64.350843 
3703.000000	64.341807 
3702.000000	64.333820 
3701.000000	64.328527 
3700.000000	64.326882 
3699.000000	64.329338 
3698.000000	64.335465 
3697.000000	64.344501 
3696.000000	64.355349 
3695.000000	64.367175 
3694.000000	64.379239 
3693.000000	64.391160 
3692.000000	64.402675 
3691.000000	64.413475 
3690.000000	64.423179 
3689.000000	64.431381 
3688.000000	64.437437 
3687.000000	64.440679 
3686.000000	64.440679 
3685.000000	64.437270 
3684.000000	64.430570 
3683.000000	64.420795 
3682.000000	64.408421 
3681.000000	64.393734 
3680.000000	64.376735 
3679.000000	64.357089 
3678.000000	64.334392 
3677.000000	64.308404 
3676.000000	64.279317 
3675.000000	64.247846 
3674.000000	64.215636 
3673.000000	64.184689 
3672.000000	64.157056 
3671.000000	64.134740 
3670.000000	64.118814 
3669.000000	64.109778 
3668.000000	64.107131 
3667.000000	64.109802 
3666.000000	64.116263 
3665.000000	64.125156 
3664.000000	64.135408 
3663.000000	64.146375 
3662.000000	64.157700 
3661.000000	64.169406 
3660.000000	64.181709 
3659.000000	64.194679 
3658.000000	64.208126 
3657.000000	64.221858 
3656.000000	64.235711 
3655.000000	64.249563 
3654.000000	64.263439 
3653.000000	64.277315 
3652.000000	64.291167 
3651.000000	64.304995 
3650.000000	64.318752 
3649.000000	64.332342 
3648.000000	64.345550 
3647.000000	64.358639 
3646.000000	64.371490 
3645.000000	64.383888 
3644.000000	64.395403 
3643.000000	64.405441 
3642.000000	64.413404 
3641.000000	64.418649 
3640.000000	64.420723 
3639.000000	64.419722 
3638.000000	64.415669 
3637.000000	64.408946 
3636.000000	64.399623 
3635.000000	64.387512 
3634.000000	64.372038 
3633.000000	64.352464 
3632.000000	64.328241 
3631.000000	64.299297 
3630.000000	64.266633 
3629.000000	64.232420 
3628.000000	64.199733 
3627.000000	64.172053 
3626.000000	64.152336 
3625.000000	64.142584 
3624.000000	64.142704 
3623.000000	64.151144 
3622.000000	64.164948 
3621.000000	64.180827 
3620.000000	64.195609 
3619.000000	64.207315 
3618.000000	64.215469 
3617.000000	64.221119 
3616.000000	64.225959 
3615.000000	64.231872 
3614.000000	64.240193 
3613.000000	64.251184 
3612.000000	64.263749 
3611.000000	64.275765 
3610.000000	64.284896 
3609.000000	64.288997 
3608.000000	64.286899 
3607.000000	64.278602 
3606.000000	64.265489 
3605.000000	64.249968 
3604.000000	64.234948 
3603.000000	64.223289 
3602.000000	64.217305 
3601.000000	64.218544 
3600.000000	64.227557 
3599.000000	64.243721 
3598.000000	64.265298 
3597.000000	64.289903 
3596.000000	64.314723 
3595.000000	64.336681 
3594.000000	64.352989 
3593.000000	64.361453 
3592.000000	64.360880 
3591.000000	64.351320 
3590.000000	64.333868 
3589.000000	64.310574 
3588.000000	64.283776 
3587.000000	64.255976 
3586.000000	64.228963 
3585.000000	64.203858 
3584.000000	64.180850 
3583.000000	64.159774 
3582.000000	64.140248 
3581.000000	64.122080 
3580.000000	64.105629 
3579.000000	64.091825 
3578.000000	64.081740 
3577.000000	64.076542 
3576.000000	64.077162 
3575.000000	64.083957 
3574.000000	64.096546 
3573.000000	64.113998 
3572.000000	64.134836 
3571.000000	64.157199 
3570.000000	64.179444 
3569.000000	64.199972 
3568.000000	64.217352 
3567.000000	64.230298 
3566.000000	64.237737 
3565.000000	64.238929 
3564.000000	64.233946 
3563.000000	64.223337 
3562.000000	64.208459 
3561.000000	64.190769 
3560.000000	64.171910 
3559.000000	64.153194 
3558.000000	64.135646 
3557.000000	64.119625 
3556.000000	64.105272 
3555.000000	64.092588 
3554.000000	64.081788 
3553.000000	64.073133 
3552.000000	64.067029 
3551.000000	64.063954 
3550.000000	64.064216 
3549.000000	64.068055 
3548.000000	64.075374 
3547.000000	64.085841 
3546.000000	64.099097 
3545.000000	64.114546 
3544.000000	64.131283 
3543.000000	64.148283 
3542.000000	64.164137 
3541.000000	64.177155 
3540.000000	64.185619 
3539.000000	64.187860 
3538.000000	64.182782 
3537.000000	64.170455 
3536.000000	64.152288 
3535.000000	64.130759 
3534.000000	64.109277 
3533.000000	64.091205 
3532.000000	64.079356 
3531.000000	64.075303 
3530.000000	64.078903 
3529.000000	64.088487 
3528.000000	64.101314 
3527.000000	64.114260 
3526.000000	64.124727 
3525.000000	64.131259 
3524.000000	64.133834 
3523.000000	64.133667 
3522.000000	64.132809 
3521.000000	64.133358 
3520.000000	64.137125 
3519.000000	64.144873 
3518.000000	64.156317 
3517.000000	64.170169 
3516.000000	64.184737 
3515.000000	64.197850 
3514.000000	64.207434 
3513.000000	64.211845 
3512.000000	64.210033 
3511.000000	64.201807 
3510.000000	64.187836 
3509.000000	64.170026 
3508.000000	64.151048 
3507.000000	64.134216 
3506.000000	64.122700 
3505.000000	64.118981 
3504.000000	64.124417 
3503.000000	64.138579 
3502.000000	64.159131 
3501.000000	64.182233 
3500.000000	64.203381 
3499.000000	64.218187 
3498.000000	64.223599 
3497.000000	64.218306 
3496.000000	64.203286 
3495.000000	64.181470 
3494.000000	64.157223 
3493.000000	64.135098 
3492.000000	64.118957 
3491.000000	64.111232 
3490.000000	64.112687 
3489.000000	64.122390 
3488.000000	64.138317 
3487.000000	64.157986 
3486.000000	64.179158 
3485.000000	64.200067 
3484.000000	64.220023 
3483.000000	64.238834 
3482.000000	64.257144 
3481.000000	64.275360 
3480.000000	64.294075 
3479.000000	64.313435 
3478.000000	64.333295 
3477.000000	64.353275 
3476.000000	64.372348 
3475.000000	64.389228 
3474.000000	64.402008 
3473.000000	64.408731 
3472.000000	64.407277 
3471.000000	64.395880 
3470.000000	64.373564 
3469.000000	64.340686 
3468.000000	64.299058 
3467.000000	64.251852 
3466.000000	64.203238 
3465.000000	64.157819 
3464.000000	64.119553 
3463.000000	64.091491 
3462.000000	64.074778 
3461.000000	64.069223 
3460.000000	64.073061 
3459.000000	64.084124 
3458.000000	64.099907 
3457.000000	64.118599 
3456.000000	64.138770 
3455.000000	64.159679 
3454.000000	64.180636 
3453.000000	64.200830 
3452.000000	64.218926 
3451.000000	64.233255 
3450.000000	64.241814 
3449.000000	64.242982 
3448.000000	64.236021 
3447.000000	64.221549 
3446.000000	64.201641 
3445.000000	64.179706 
3444.000000	64.159822 
3443.000000	64.145970 
3442.000000	64.141082 
3441.000000	64.146494 
3440.000000	64.161610 
3439.000000	64.184117 
3438.000000	64.210462 
3437.000000	64.236640 
3436.000000	64.259099 
3435.000000	64.275503 
3434.000000	64.285159 
3433.000000	64.288854 
3432.000000	64.288949 
3431.000000	64.288330 
3430.000000	64.290046 
3429.000000	64.296436 
3428.000000	64.308571 
3427.000000	64.326286 
3426.000000	64.347887 
3425.000000	64.370918 
3424.000000	64.392447 
3423.000000	64.409565 
3422.000000	64.420127 
3421.000000	64.423131 
3420.000000	64.418816 
3419.000000	64.408516 
3418.000000	64.394474 
3417.000000	64.379239 
3416.000000	64.365315 
3415.000000	64.354515 
3414.000000	64.347338 
3413.000000	64.343142 
3412.000000	64.340281 
3411.000000	64.336633 
3410.000000	64.330005 
3409.000000	64.318823 
3408.000000	64.302659 
3407.000000	64.282345 
3406.000000	64.259862 
3405.000000	64.237785 
3404.000000	64.218688 
3403.000000	64.204549 
3402.000000	64.196252 
3401.000000	64.193606 
3400.000000	64.195179 
3399.000000	64.198946 
3398.000000	64.202880 
3397.000000	64.205408 
3396.000000	64.205741 
3395.000000	64.203929 
3394.000000	64.200639 
3393.000000	64.196872 
3392.000000	64.193534 
3391.000000	64.191579 
3390.000000	64.191699 
3389.000000	64.194703 
3388.000000	64.201235 
3387.000000	64.211916 
3386.000000	64.227342 
3385.000000	64.247870 
3384.000000	64.273405 
3383.000000	64.303135 
3382.000000	64.335489 
3381.000000	64.368414 
3380.000000	64.399433 
3379.000000	64.426159 
3378.000000	64.446258 
3377.000000	64.458346 
3376.000000	64.461445 
3375.000000	64.455270 
3374.000000	64.440107 
3373.000000	64.416980 
3372.000000	64.387512 
3371.000000	64.354014 
3370.000000	64.319276 
3369.000000	64.286613 
3368.000000	64.259052 
3367.000000	64.238929 
3366.000000	64.227390 
3365.000000	64.224076 
3364.000000	64.227128 
3363.000000	64.233756 
3362.000000	64.240837 
3361.000000	64.245605 
3360.000000	64.246535 
3359.000000	64.243721 
3358.000000	64.238429 
3357.000000	64.232707 
3356.000000	64.228749 
3355.000000	64.228105 
3354.000000	64.230990 
3353.000000	64.236211 
3352.000000	64.241814 
3351.000000	64.245462 
3350.000000	64.245390 
3349.000000	64.240932 
3348.000000	64.232635 
3347.000000	64.222383 
3346.000000	64.212536 
3345.000000	64.205718 
3344.000000	64.203906 
3343.000000	64.208126 
3342.000000	64.218282 
3341.000000	64.233183 
3340.000000	64.250779 
3339.000000	64.268732 
3338.000000	64.284801 
3337.000000	64.296960 
3336.000000	64.303684 
3335.000000	64.304041 
3334.000000	64.297676 
3333.000000	64.284801 
3332.000000	64.266300 
3331.000000	64.243650 
3330.000000	64.218783 
3329.000000	64.194059 
3328.000000	64.172029 
3327.000000	64.155077 
3326.000000	64.144897 
3325.000000	64.142584 
3324.000000	64.148235 
3323.000000	64.160871 
3322.000000	64.178848 
3321.000000	64.199757 
3320.000000	64.221096 
3319.000000	64.240503 
3318.000000	64.256310 
3317.000000	64.267563 
3316.000000	64.274263 
3315.000000	64.277362 
3314.000000	64.278316 
3313.000000	64.278841 
3312.000000	64.280366 
3311.000000	64.283800 
3310.000000	64.289355 
3309.000000	64.296555 
3308.000000	64.304304 
3307.000000	64.311194 
3306.000000	64.315772 
3305.000000	64.317011 
3304.000000	64.314365 
3303.000000	64.307761 
3302.000000	64.297604 
3301.000000	64.284491 
3300.000000	64.269113 
3299.000000	64.251947 
3298.000000	64.233374 
3297.000000	64.213752 
3296.000000	64.193677 
3295.000000	64.174199 
3294.000000	64.156651 
3293.000000	64.142990 
3292.000000	64.135074 
3291.000000	64.134573 
3290.000000	64.142251 
3289.000000	64.157676 
3288.000000	64.178943 
3287.000000	64.202928 
3286.000000	64.225721 
3285.000000	64.243340 
3284.000000	64.252567 
3283.000000	64.251780 
3282.000000	64.241218 
3281.000000	64.223122 
3280.000000	64.200901 
3279.000000	64.178466 
3278.000000	64.158940 
3277.000000	64.144086 
3276.000000	64.134025 
3275.000000	64.127397 
3274.000000	64.122080 
3273.000000	64.116001 
3272.000000	64.108014 
3271.000000	64.098358 
3270.000000	64.088845 
3269.000000	64.082074 
3268.000000	64.080905 
3267.000000	64.087390 
3266.000000	64.102315 
3265.000000	64.124727 
3264.000000	64.152288 
3263.000000	64.181828 
3262.000000	64.210057 
3261.000000	64.234495 
3260.000000	64.253759 
3259.000000	64.267778 
3258.000000	64.277553 
3257.000000	64.284610 
3256.000000	64.290833 
3255.000000	64.297914 
3254.000000	64.306926 
3253.000000	64.318203 
3252.000000	64.331459 
3251.000000	64.345788 
3250.000000	64.359903 
3249.000000	64.372301 
3248.000000	64.381647 
3247.000000	64.386892 
3246.000000	64.387512 
3245.000000	64.383554 
3244.000000	64.375543 
3243.000000	64.364218 
3242.000000	64.350652 
3241.000000	64.335823 
3240.000000	64.320564 
3239.000000	64.305424 
3238.000000	64.290881 
3237.000000	64.277124 
3236.000000	64.264464 
3235.000000	64.252972 
3234.000000	64.242935 
3233.000000	64.234328 
3232.000000	64.226889 
3231.000000	64.219832 
3230.000000	64.212036 
3229.000000	64.202237 
3228.000000	64.189457 
3227.000000	64.173102 
3226.000000	64.153242 
3225.000000	64.130783 
3224.000000	64.107227 
3223.000000	64.084553 
3222.000000	64.064764 
3221.000000	64.049839 
3220.000000	64.041304 
3219.000000	64.040017 
3218.000000	64.045929 
3217.000000	64.058184 
3216.000000	64.075207 
3215.000000	64.094710 
3214.000000	64.114451 
3213.000000	64.132380 
3212.000000	64.147067 
3211.000000	64.157843 
3210.000000	64.165091 
3209.000000	64.169788 
3208.000000	64.173340 
3207.000000	64.177227 
3206.000000	64.182496 
3205.000000	64.189624 
3204.000000	64.198422 
3203.000000	64.208197 
3202.000000	64.218115 
3201.000000	64.227509 
3200.000000	64.236068 
3199.000000	64.244055 
3198.000000	64.251875 
3197.000000	64.259958 
3196.000000	64.268445 
3195.000000	64.277100 
3194.000000	64.285564 
3193.000000	64.293193 
3192.000000	64.299821 
3191.000000	64.305400 
3190.000000	64.310240 
3189.000000	64.314770 
3188.000000	64.319491 
3187.000000	64.324593 
3186.000000	64.329862 
3185.000000	64.334583 
3184.000000	64.337825 
3183.000000	64.338183 
3182.000000	64.334607 
3181.000000	64.326190 
3180.000000	64.312624 
3179.000000	64.293980 
3178.000000	64.270973 
3177.000000	64.244747 
3176.000000	64.216756 
3175.000000	64.188766 
3174.000000	64.162588 
3173.000000	64.139914 
3172.000000	64.122176 
3171.000000	64.110136 
3170.000000	64.103937 
3169.000000	64.102888 
3168.000000	64.105725 
3167.000000	64.110898 
3166.000000	64.117240 
3165.000000	64.123773 
3164.000000	64.130067 
3163.000000	64.136195 
3162.000000	64.142394 
3161.000000	64.148592 
3160.000000	64.154529 
3159.000000	64.159607 
3158.000000	64.163160 
3157.000000	64.164590 
3156.000000	64.163637 
3155.000000	64.160633 
3154.000000	64.156603 
3153.000000	64.153051 
3152.000000	64.151620 
3151.000000	64.153647 
3150.000000	64.159917 
3149.000000	64.170312 
3148.000000	64.183855 
3147.000000	64.198732 
3146.000000	64.212918 
3145.000000	64.224505 
3144.000000	64.232015 
3143.000000	64.234590 
3142.000000	64.232277 
3141.000000	64.225864 
3140.000000	64.216518 
3139.000000	64.205503 
3138.000000	64.194083 
3137.000000	64.183092 
3136.000000	64.172935 
3135.000000	64.163589 
3134.000000	64.154863 
3133.000000	64.146661 
3132.000000	64.139080 
3131.000000	64.132714 
3130.000000	64.128232 
3129.000000	64.126634 
3128.000000	64.128613 
3127.000000	64.134478 
3126.000000	64.143824 
3125.000000	64.155673 
3124.000000	64.168524 
3123.000000	64.180707 
3122.000000	64.190697 
3121.000000	64.197540 
3120.000000	64.200830 
3119.000000	64.200782 
3118.000000	64.198088 
3117.000000	64.193487 
3116.000000	64.187741 
3115.000000	64.181280 
3114.000000	64.174270 
3113.000000	64.166831 
3112.000000	64.159345 
3111.000000	64.152526 
3110.000000	64.147281 
3109.000000	64.144730 
3108.000000	64.145827 
3107.000000	64.150929 
3106.000000	64.159750 
3105.000000	64.171266 
3104.000000	64.183950 
3103.000000	64.196062 
3102.000000	64.206147 
3101.000000	64.213514 
3100.000000	64.218258 
3099.000000	64.221262 
3098.000000	64.223814 
3097.000000	64.227080 
3096.000000	64.231705 
3095.000000	64.237618 
3094.000000	64.243888 
3093.000000	64.248943 
3092.000000	64.251112 
3091.000000	64.248847 
3090.000000	64.241051 
3089.000000	64.227390 
3088.000000	64.208269 
3087.000000	64.185047 
3086.000000	64.159750 
3085.000000	64.134883 
3084.000000	64.113163 
3083.000000	64.097046 
3082.000000	64.088273 
3081.000000	64.087367 
3080.000000	64.093565 
3079.000000	64.104914 
3078.000000	64.118361 
3077.000000	64.130663 
3076.000000	64.138627 
3075.000000	64.140510 
3074.000000	64.135980 
3073.000000	64.126682 
3072.000000	64.115357 
3071.000000	64.105367 
3070.000000	64.099669 
3069.000000	64.100217 
3068.000000	64.107251 
3067.000000	64.119720 
3066.000000	64.135527 
3065.000000	64.152359 
3064.000000	64.168477 
3063.000000	64.182829 
3062.000000	64.195299 
3061.000000	64.206337 
3060.000000	64.216709 
3059.000000	64.227080 
3058.000000	64.237856 
3057.000000	64.248991 
3056.000000	64.260125 
3055.000000	64.270997 
3054.000000	64.280939 
3053.000000	64.289855 
3052.000000	64.297056 
3051.000000	64.301896 
3050.000000	64.303398 
3049.000000	64.300322 
3048.000000	64.291667 
3047.000000	64.277100 
3046.000000	64.257240 
3045.000000	64.234066 
3044.000000	64.210605 
3043.000000	64.190435 
3042.000000	64.177012 
3041.000000	64.172697 
3040.000000	64.178538 
3039.000000	64.193868 
3038.000000	64.216494 
3037.000000	64.243149 
3036.000000	64.270329 
3035.000000	64.294910 
3034.000000	64.314460 
3033.000000	64.327716 
3032.000000	64.334583 
3031.000000	64.335465 
3030.000000	64.331173 
3029.000000	64.322209 
3028.000000	64.309000 
3027.000000	64.291334 
3026.000000	64.269185 
3025.000000	64.242720 
3024.000000	64.212608 
3023.000000	64.180612 
3022.000000	64.149069 
3021.000000	64.120984 
3020.000000	64.099597 
3019.000000	64.087605 
3018.000000	64.086699 
3017.000000	64.096856 
3016.000000	64.116430 
3015.000000	64.142155 
3014.000000	64.169788 
3013.000000	64.194703 
3012.000000	64.212965 
3011.000000	64.221858 
3010.000000	64.220643 
3009.000000	64.210247 
3008.000000	64.193010 
3007.000000	64.172220 
3006.000000	64.151239 
3005.000000	64.132857 
3004.000000	64.118599 
3003.000000	64.108872 
3002.000000	64.102840 
3001.000000	64.099121 
3000.000000	64.095997 
2999.000000	64.092087 
2998.000000	64.086651 
2997.000000	64.079666 
2996.000000	64.071702 
2995.000000	64.063668 
2994.000000	64.056468 
2993.000000	64.050602 
2992.000000	64.046239 
2991.000000	64.043211 
2990.000000	64.041090 
2989.000000	64.039516 
2988.000000	64.038228 
2987.000000	64.037370 
2986.000000	64.037251 
2985.000000	64.038205 
2984.000000	64.040517 
2983.000000	64.044117 
2982.000000	64.048767 
2981.000000	64.054131 
2980.000000	64.059782 
2979.000000	64.065361 
2978.000000	64.070582 
2977.000000	64.075231 
2976.000000	64.079046 
2975.000000	64.081645 
2974.000000	64.082121 
2973.000000	64.079332 
2972.000000	64.072299 
2971.000000	64.060449 
2970.000000	64.043879 
2969.000000	64.023590 
2968.000000	64.001464 
2967.000000	63.980150 
2966.000000	63.962268 
2965.000000	63.949966 
2964.000000	63.944435 
2963.000000	63.945698 
2962.000000	63.952565 
2961.000000	63.963294 
2960.000000	63.975763 
2959.000000	63.988041 
2958.000000	63.998723 
2957.000000	64.006948 
2956.000000	64.012479 
2955.000000	64.015221 
2954.000000	64.015388 
2953.000000	64.013171 
2952.000000	64.008927 
2951.000000	64.003324 
2950.000000	63.997745 
2949.000000	63.994050 
2948.000000	63.994550 
2947.000000	64.001655 
2946.000000	64.017200 
2945.000000	64.041709 
2944.000000	64.074015 
2943.000000	64.111399 
2942.000000	64.149618 
2941.000000	64.183950 
2940.000000	64.209794 
2939.000000	64.223766 
2938.000000	64.224362 
2937.000000	64.212369 
2936.000000	64.190888 
2935.000000	64.164471 
2934.000000	64.138460 
2933.000000	64.117860 
2932.000000	64.106345 
2931.000000	64.105701 
2930.000000	64.115595 
2929.000000	64.133644 
2928.000000	64.156389 
2927.000000	64.179992 
2926.000000	64.200901 
2925.000000	64.216399 
2924.000000	64.224767 
2923.000000	64.225196 
2922.000000	64.217591 
2921.000000	64.202427 
2920.000000	64.180493 
2919.000000	64.152932 
2918.000000	64.121389 
2917.000000	64.088010 
2916.000000	64.055514 
2915.000000	64.026808 
2914.000000	64.004778 
2913.000000	63.991761 
2912.000000	63.989162 
2911.000000	63.996958 
2910.000000	64.013504 
2909.000000	64.035677 
2908.000000	64.059519 
2907.000000	64.080715 
2906.000000	64.095449 
2905.000000	64.101147 
2904.000000	64.096808 
2903.000000	64.083313 
2902.000000	64.062976 
2901.000000	64.039039 
2900.000000	64.014911 
2899.000000	63.993716 
2898.000000	63.977479 
2897.000000	63.967299 
2896.000000	63.963222 
2895.000000	63.964509 
2894.000000	63.969755 
2893.000000	63.977503 
2892.000000	63.986134 
2891.000000	63.994145 
2890.000000	64.000439 
2889.000000	64.004063 
2888.000000	64.004611 
2887.000000	64.002037 
2886.000000	63.996911 
2885.000000	63.990163 
2884.000000	63.983035 
2883.000000	63.977026 
2882.000000	63.973522 
2881.000000	63.973426 
2880.000000	63.977122 
2879.000000	63.984346 
2878.000000	63.994050 
2877.000000	64.004659 
2876.000000	64.014291 
2875.000000	64.021396 
2874.000000	64.024758 
2873.000000	64.024043 
2872.000000	64.019799 
2871.000000	64.013481 
2870.000000	64.007067 
2869.000000	64.002704 
2868.000000	64.002299 
2867.000000	64.007091 
2866.000000	64.017176 
2865.000000	64.031457 
2864.000000	64.048123 
2863.000000	64.064455 
2862.000000	64.077782 
2861.000000	64.085769 
2860.000000	64.087057 
2859.000000	64.081335 
2858.000000	64.069294 
2857.000000	64.052581 
2856.000000	64.033532 
2855.000000	64.014887 
2854.000000	63.999247 
2853.000000	63.988924 
2852.000000	63.985753 
2851.000000	63.990783 
2850.000000	64.004111 
2849.000000	64.024758 
2848.000000	64.050841 
2847.000000	64.079689 
2846.000000	64.108014 
2845.000000	64.132404 
2844.000000	64.149665 
2843.000000	64.157152 
2842.000000	64.153456 
2841.000000	64.138460 
2840.000000	64.113378 
2839.000000	64.080810 
2838.000000	64.044404 
2837.000000	64.008522 
2836.000000	63.977241 
2835.000000	63.954138 
2834.000000	63.941526 
2833.000000	63.940358 
2832.000000	63.950109 
2831.000000	63.968968 
2830.000000	63.994240 
2829.000000	64.022707 
2828.000000	64.051198 
2827.000000	64.077091 
2826.000000	64.098572 
2825.000000	64.114618 
2824.000000	64.124774 
2823.000000	64.128971 
2822.000000	64.127588 
2821.000000	64.121031 
2820.000000	64.109921 
2819.000000	64.094996 
2818.000000	64.077329 
2817.000000	64.058303 
2816.000000	64.039278 
2815.000000	64.021897 
2814.000000	64.007472 
2813.000000	63.997459 
2812.000000	63.992929 
2811.000000	63.994693 
2810.000000	64.003491 
2809.000000	64.019322 
2808.000000	64.041376 
2807.000000	64.067864 
2806.000000	64.096283 
2805.000000	64.123320 
2804.000000	64.145326 
2803.000000	64.159059 
2802.000000	64.162421 
2801.000000	64.154720 
2800.000000	64.137196 
2799.000000	64.112615 
2798.000000	64.084815 
2797.000000	64.057826 
2796.000000	64.035296 
2795.000000	64.019465 
2794.000000	64.011073 
2793.000000	64.009380 
2792.000000	64.012503 
2791.000000	64.018344 
2790.000000	64.025044 
2789.000000	64.031457 
2788.000000	64.037442 
2787.000000	64.043474 
2786.000000	64.050626 
2785.000000	64.059710 
2784.000000	64.071321 
2783.000000	64.085245 
2782.000000	64.100527 
2781.000000	64.115762 
2780.000000	64.128923 
2779.000000	64.138460 
2778.000000	64.142894 
2777.000000	64.141583 
2776.000000	64.134526 
2775.000000	64.122486 
2774.000000	64.106750 
2773.000000	64.089083 
2772.000000	64.071464 
2771.000000	64.055776 
2770.000000	64.043664 
2769.000000	64.036369 
2768.000000	64.034533 
2767.000000	64.038109 
2766.000000	64.046192 
2765.000000	64.057302 
2764.000000	64.069461 
2763.000000	64.080619 
2762.000000	64.088892 
2761.000000	64.093041 
2760.000000	64.092564 
2759.000000	64.088153 
2758.000000	64.081430 
2757.000000	64.074683 
2756.000000	64.070391 
2755.000000	64.070534 
2754.000000	64.076304 
2753.000000	64.087438 
2752.000000	64.102435 
2751.000000	64.118909 
2750.000000	64.134263 
2749.000000	64.146137 
2748.000000	64.153146 
2747.000000	64.155030 
2746.000000	64.152693 
2745.000000	64.147830 
2744.000000	64.142370 
2743.000000	64.137983 
2742.000000	64.135646 
2741.000000	64.135503 
2740.000000	64.136934 
2739.000000	64.138746 
2738.000000	64.139604 
2737.000000	64.138388 
2736.000000	64.134740 
2735.000000	64.128828 
2734.000000	64.121556 
2733.000000	64.114022 
2732.000000	64.107584 
2731.000000	64.103603 
2730.000000	64.102816 
2729.000000	64.105558 
2728.000000	64.111399 
2727.000000	64.119124 
2726.000000	64.127016 
2725.000000	64.133310 
2724.000000	64.136362 
2723.000000	64.135289 
2722.000000	64.130067 
2721.000000	64.121651 
2720.000000	64.111757 
2719.000000	64.102196 
2718.000000	64.094662 
2717.000000	64.090085 
2716.000000	64.088582 
2715.000000	64.089441 
2714.000000	64.091563 
2713.000000	64.093589 
2712.000000	64.094448 
2711.000000	64.093446 
2710.000000	64.090299 
2709.000000	64.085149 
2708.000000	64.078044 
2707.000000	64.069223 
2706.000000	64.058661 
2705.000000	64.046502 
2704.000000	64.033174 
2703.000000	64.019584 
2702.000000	64.007234 
2701.000000	63.997864 
2700.000000	63.993120 
2699.000000	63.993906 
2698.000000	64.000201 
2697.000000	64.010906 
2696.000000	64.023923 
2695.000000	64.036583 
2694.000000	64.046382 
2693.000000	64.051485 
2692.000000	64.051198 
2691.000000	64.046072 
2690.000000	64.037609 
2689.000000	64.027762 
2688.000000	64.018297 
2687.000000	64.010477 
2686.000000	64.004707 
2685.000000	64.000773 
2684.000000	63.997983 
2683.000000	63.995790 
2682.000000	63.993883 
2681.000000	63.992333 
2680.000000	63.991570 
2679.000000	63.991975 
2678.000000	63.994193 
2677.000000	63.998436 
2676.000000	64.004659 
2675.000000	64.012670 
2674.000000	64.022040 
2673.000000	64.032483 
2672.000000	64.043378 
2671.000000	64.054250 
2670.000000	64.064478 
2669.000000	64.073276 
2668.000000	64.079904 
2667.000000	64.083552 
2666.000000	64.083838 
2665.000000	64.081048 
2664.000000	64.076018 
2663.000000	64.070153 
2662.000000	64.064812 
2661.000000	64.061236 
2660.000000	64.060020 
2659.000000	64.061021 
2658.000000	64.063858 
2657.000000	64.068078 
2656.000000	64.073538 
2655.000000	64.080595 
2654.000000	64.090037 
2653.000000	64.102625 
2652.000000	64.118671 
2651.000000	64.137649 
2650.000000	64.157962 
2649.000000	64.177131 
2648.000000	64.192223 
2647.000000	64.200496 
2646.000000	64.200139 
2645.000000	64.190673 
2644.000000	64.173269 
2643.000000	64.150476 
2642.000000	64.125514 
2641.000000	64.101815 
2640.000000	64.081978 
2639.000000	64.067625 
2638.000000	64.059162 
2637.000000	64.055800 
2636.000000	64.055919 
2635.000000	64.057350 
2634.000000	64.057970 
2633.000000	64.055824 
2632.000000	64.049577 
2631.000000	64.038538 
2630.000000	64.023017 
2629.000000	64.004039 
2628.000000	63.983488 
2627.000000	63.963508 
2626.000000	63.946485 
2625.000000	63.934445 
2624.000000	63.928699 
2623.000000	63.929796 
2622.000000	63.937211 
2621.000000	63.949394 
2620.000000	63.964462 
2619.000000	63.980197 
2618.000000	63.994908 
2617.000000	64.007258 
2616.000000	64.016652 
2615.000000	64.022946 
2614.000000	64.026546 
2613.000000	64.027786 
2612.000000	64.026927 
2611.000000	64.023947 
2610.000000	64.018630 
2609.000000	64.010906 
2608.000000	64.000725 
2607.000000	63.988423 
2606.000000	63.974833 
2605.000000	63.961172 
2604.000000	63.949084 
2603.000000	63.940191 
2602.000000	63.935995 
2601.000000	63.937306 
2600.000000	63.944315 
2599.000000	63.956189 
2598.000000	63.971447 
2597.000000	63.987922 
2596.000000	64.003062 
2595.000000	64.014554 
2594.000000	64.020681 
2593.000000	64.020609 
2592.000000	64.014792 
2591.000000	64.004516 
2590.000000	63.991999 
2589.000000	63.979816 
2588.000000	63.970160 
2587.000000	63.964653 
2586.000000	63.963866 
2585.000000	63.967466 
2584.000000	63.974261 
2583.000000	63.982796 
2582.000000	63.991689 
2581.000000	63.999843 
2580.000000	64.006710 
2579.000000	64.012169 
2578.000000	64.016318 
2577.000000	64.019083 
2576.000000	64.020323 
2575.000000	64.019489 
2574.000000	64.016079 
2573.000000	64.009833 
2572.000000	64.001083 
2571.000000	63.990902 
2570.000000	63.980984 
2569.000000	63.973236 
2568.000000	63.969206 
2567.000000	63.969540 
2566.000000	63.974142 
2565.000000	63.981604 
2564.000000	63.990163 
2563.000000	63.997745 
2562.000000	64.002943 
2561.000000	64.005136 
2560.000000	64.004945 
2559.000000	64.003705 
2558.000000	64.003181 
2557.000000	64.004826 
2556.000000	64.009380 
2555.000000	64.016246 
2554.000000	64.023804 
2553.000000	64.029741 
2552.000000	64.031624 
2551.000000	64.027452 
2550.000000	64.016437 
2549.000000	63.999080 
2548.000000	63.977146 
2547.000000	63.953304 
2546.000000	63.930678 
2545.000000	63.912105 
2544.000000	63.899779 
2543.000000	63.894867 
2542.000000	63.897323 
2541.000000	63.906359 
2540.000000	63.920521 
2539.000000	63.938164 
2538.000000	63.957762 
2537.000000	63.978314 
2536.000000	63.999247 
2535.000000	64.020085 
2534.000000	64.040398 
2533.000000	64.059495 
2532.000000	64.076542 
2531.000000	64.090085 
2530.000000	64.098572 
2529.000000	64.100599 
2528.000000	64.095354 
2527.000000	64.082813 
2526.000000	64.063835 
2525.000000	64.040350 
2524.000000	64.014840 
2523.000000	63.990044 
2522.000000	63.968515 
2521.000000	63.952159 
2520.000000	63.942003 
2519.000000	63.938093 
2518.000000	63.939738 
2517.000000	63.945603 
2516.000000	63.954019 
2515.000000	63.963246 
2514.000000	63.971805 
2513.000000	63.978362 
2512.000000	63.982152 
2511.000000	63.982820 
2510.000000	63.980650 
2509.000000	63.976263 
2508.000000	63.970780 
2507.000000	63.965535 
2506.000000	63.961935 
2505.000000	63.961148 
2504.000000	63.963842 
2503.000000	63.970088 
2502.000000	63.979029 
2501.000000	63.989138 
2500.000000	63.998389 
2499.000000	64.004611 
2498.000000	64.005875 
2497.000000	64.001035 
2496.000000	63.990020 
2495.000000	63.973784 
2494.000000	63.954401 
2493.000000	63.934540 
2492.000000	63.916802 
2491.000000	63.903284 
2490.000000	63.895249 
2489.000000	63.892912 
2488.000000	63.895273 
2487.000000	63.900852 
2486.000000	63.907694 
2485.000000	63.914227 
2484.000000	63.919472 
2483.000000	63.923454 
2482.000000	63.926744 
2481.000000	63.930702 
2480.000000	63.936877 
2479.000000	63.946652 
2478.000000	63.960742 
2477.000000	63.978934 
2476.000000	64.000034 
2475.000000	64.021968 
2474.000000	64.042401 
2473.000000	64.058947 
2472.000000	64.069747 
2471.000000	64.073824 
2470.000000	64.071416 
2469.000000	64.063835 
2468.000000	64.053297 
2467.000000	64.042425 
2466.000000	64.033746 
2465.000000	64.029407 
2464.000000	64.030551 
2463.000000	64.037609 
2462.000000	64.049601 
2461.000000	64.064836 
2460.000000	64.080691 
2459.000000	64.094614 
2458.000000	64.104127 
2457.000000	64.107298 
2456.000000	64.103150 
2455.000000	64.091563 
2454.000000	64.073681 
2453.000000	64.051699 
2452.000000	64.028477 
2451.000000	64.007139 
2450.000000	63.990664 
2449.000000	63.981533 
2448.000000	63.981056 
2447.000000	63.989353 
2446.000000	64.005136 
2445.000000	64.025998 
2444.000000	64.048719 
2443.000000	64.069843 
2442.000000	64.086222 
2441.000000	64.095640 
2440.000000	64.096903 
2439.000000	64.090156 
2438.000000	64.076995 
2437.000000	64.059901 
2436.000000	64.042019 
2435.000000	64.026212 
2434.000000	64.015030 
2433.000000	64.009714 
2432.000000	64.010596 
2431.000000	64.016485 
2430.000000	64.025568 
2429.000000	64.035177 
2428.000000	64.042854 
2427.000000	64.046430 
2426.000000	64.044666 
2425.000000	64.037251 
2424.000000	64.024806 
2423.000000	64.008927 
2422.000000	63.991689 
2421.000000	63.975238 
2420.000000	63.961458 
2419.000000	63.951420 
2418.000000	63.945412 
2417.000000	63.942813 
2416.000000	63.942384 
2415.000000	63.942265 
2414.000000	63.940715 
2413.000000	63.936281 
2412.000000	63.928222 
2411.000000	63.916563 
2410.000000	63.902115 
2409.000000	63.886308 
2408.000000	63.870739 
2407.000000	63.856935 
2406.000000	63.846039 
2405.000000	63.838791 
2404.000000	63.835406 
2403.000000	63.835644 
2402.000000	63.838887 
2401.000000	63.844609 
2400.000000	63.851809 
2399.000000	63.859415 
2398.000000	63.865876 
2397.000000	63.869619 
2396.000000	63.869047 
2395.000000	63.862776 
2394.000000	63.850212 
2393.000000	63.831543 
2392.000000	63.808274 
2391.000000	63.782954 
2390.000000	63.758897 
2389.000000	63.739538 
2388.000000	63.727831 
2387.000000	63.725614 
2386.000000	63.733196 
2385.000000	63.749480 
2384.000000	63.772296 
2383.000000	63.798809 
2382.000000	63.826179 
2381.000000	63.852143 
2380.000000	63.875222 
2379.000000	63.895058 
2378.000000	63.911771 
2377.000000	63.926243 
2376.000000	63.939332 
2375.000000	63.952016 
2374.000000	63.964962 
2373.000000	63.978433 
2372.000000	63.992261 
2371.000000	64.005851 
2370.000000	64.018440 
2369.000000	64.028906 
2368.000000	64.036059 
2367.000000	64.038681 
2366.000000	64.035964 
2365.000000	64.027452 
2364.000000	64.013338 
2363.000000	63.994550 
2362.000000	63.972592 
2361.000000	63.949322 
2360.000000	63.926553 
2359.000000	63.905739 
2358.000000	63.887929 
2357.000000	63.873457 
2356.000000	63.862061 
2355.000000	63.853168 
2354.000000	63.845992 
2353.000000	63.839817 
2352.000000	63.834095 
2351.000000	63.828372 
2350.000000	63.822531 
2349.000000	63.816738 
2348.000000	63.811516 
2347.000000	63.807201 
2346.000000	63.804149 
2345.000000	63.802814 
2344.000000	63.803386 
2343.000000	63.805723 
2342.000000	63.809585 
2341.000000	63.814520 
2340.000000	63.820099 
2339.000000	63.825702 
2338.000000	63.831090 
2337.000000	63.836145 
2336.000000	63.841056 
2335.000000	63.846254 
2334.000000	63.852238 
2333.000000	63.859558 
2332.000000	63.868618 
2331.000000	63.879752 
2330.000000	63.893198 
2329.000000	63.908815 
2328.000000	63.926482 
2327.000000	63.945794 
2326.000000	63.966107 
2325.000000	63.986015 
2324.000000	64.004278 
2323.000000	64.019155 
2322.000000	64.029335 
2321.000000	64.033555 
2320.000000	64.031505 
2319.000000	64.023494 
2318.000000	64.010620 
2317.000000	63.994622 
2316.000000	63.977360 
2315.000000	63.960742 
2314.000000	63.946294 
2313.000000	63.934874 
2312.000000	63.926696 
2311.000000	63.921213 
2310.000000	63.917374 
2309.000000	63.913822 
2308.000000	63.909339 
2307.000000	63.903021 
2306.000000	63.894557 
2305.000000	63.884234 
2304.000000	63.873004 
2303.000000	63.862276 
2302.000000	63.853716 
2301.000000	63.848781 
2300.000000	63.848567 
2299.000000	63.853430 
2298.000000	63.863015 
2297.000000	63.875985 
2296.000000	63.890433 
2295.000000	63.904261 
2294.000000	63.915371 
2293.000000	63.921999 
2292.000000	63.923001 
2291.000000	63.917899 
2290.000000	63.907194 
2289.000000	63.891959 
2288.000000	63.874006 
2287.000000	63.855576 
2286.000000	63.839077 
2285.000000	63.826704 
2284.000000	63.820052 
2283.000000	63.819980 
2282.000000	63.826227 
2281.000000	63.837766 
2280.000000	63.853025 
2279.000000	63.870239 
2278.000000	63.887882 
2277.000000	63.905000 
2276.000000	63.921165 
2275.000000	63.936471 
2274.000000	63.951110 
2273.000000	63.965058 
2272.000000	63.977670 
2271.000000	63.987708 
2270.000000	63.993716 
2269.000000	63.994073 
2268.000000	63.987851 
2267.000000	63.974905 
2266.000000	63.956356 
2265.000000	63.934326 
2264.000000	63.911652 
2263.000000	63.891077 
2262.000000	63.874793 
2261.000000	63.863945 
2260.000000	63.858556 
2259.000000	63.857674 
2258.000000	63.859748 
2257.000000	63.863110 
2256.000000	63.866329 
2255.000000	63.868570 
2254.000000	63.869547 
2253.000000	63.869357 
2252.000000	63.868141 
2251.000000	63.865971 
2250.000000	63.862729 
2249.000000	63.858318 
2248.000000	63.852858 
2247.000000	63.846850 
2246.000000	63.841176 
2245.000000	63.837456 
2244.000000	63.837265 
2243.000000	63.841915 
2242.000000	63.852095 
2241.000000	63.867330 
2240.000000	63.886284 
2239.000000	63.906645 
2238.000000	63.925886 
2237.000000	63.941740 
2236.000000	63.952660 
2235.000000	63.958120 
2234.000000	63.958573 
2233.000000	63.955140 
2232.000000	63.949131 
2231.000000	63.941955 
2230.000000	63.934397 
2229.000000	63.926792 
2228.000000	63.918995 
2227.000000	63.910746 
2226.000000	63.901710 
2225.000000	63.891673 
2224.000000	63.880610 
2223.000000	63.868641 
2222.000000	63.855957 
2221.000000	63.842964 
2220.000000	63.829970 
2219.000000	63.817572 
2218.000000	63.806462 
2217.000000	63.797664 
2216.000000	63.792204 
2215.000000	63.790845 
2214.000000	63.793826 
2213.000000	63.800549 
2212.000000	63.809514 
2211.000000	63.818573 
2210.000000	63.825297 
2209.000000	63.827443 
2208.000000	63.823723 
2207.000000	63.813996 
2206.000000	63.799333 
2205.000000	63.781952 
2204.000000	63.764524 
2203.000000	63.749742 
2202.000000	63.739633 
2201.000000	63.735222 
2200.000000	63.736391 
2199.000000	63.742113 
2198.000000	63.750839 
2197.000000	63.760757 
2196.000000	63.770246 
2195.000000	63.778090 
2194.000000	63.783526 
2193.000000	63.786172 
2192.000000	63.786029 
2191.000000	63.783383 
2190.000000	63.778781 
2189.000000	63.773250 
2188.000000	63.767933 
2187.000000	63.764023 
2186.000000	63.762545 
2185.000000	63.764357 
2184.000000	63.769745 
2183.000000	63.778424 
2182.000000	63.789510 
2181.000000	63.801646 
2180.000000	63.813233 
2179.000000	63.822746 
2178.000000	63.828945 
2177.000000	63.831114 
2176.000000	63.828873 
2175.000000	63.822197 
2174.000000	63.811540 
2173.000000	63.797593 
2172.000000	63.781023 
2171.000000	63.762450 
2170.000000	63.742637 
2169.000000	63.722395 
2168.000000	63.702464 
2167.000000	63.683724 
2166.000000	63.666868 
2165.000000	63.652753 
2164.000000	63.642096 
2163.000000	63.635683 
2162.000000	63.633942 
2161.000000	63.637113 
2160.000000	63.644862 
2159.000000	63.656425 
2158.000000	63.670253 
2157.000000	63.684558 
2156.000000	63.697361 
2155.000000	63.707160 
2154.000000	63.712835 
2153.000000	63.714289 
2152.000000	63.712453 
2151.000000	63.709187 
2150.000000	63.706922 
2149.000000	63.708281 
2148.000000	63.715481 
2147.000000	63.729786 
2146.000000	63.751292 
2145.000000	63.778924 
2144.000000	63.810348 
2143.000000	63.842582 
2142.000000	63.872456 
2141.000000	63.896918 
2140.000000	63.913726 
2139.000000	63.921689 
2138.000000	63.920736 
2137.000000	63.911986 
2136.000000	63.897204 
2135.000000	63.878750 
2134.000000	63.858938 
2133.000000	63.839554 
2132.000000	63.821697 
2131.000000	63.805842 
2130.000000	63.791871 
2129.000000	63.779473 
2128.000000	63.768458 
2127.000000	63.758969 
2126.000000	63.751626 
2125.000000	63.747382 
2124.000000	63.747239 
2123.000000	63.751697 
2122.000000	63.760447 
2121.000000	63.772368 
2120.000000	63.785505 
2119.000000	63.797354 
2118.000000	63.805627 
2117.000000	63.808894 
2116.000000	63.806700 
2115.000000	63.799953 
2114.000000	63.790464 
2113.000000	63.780593 
2112.000000	63.772344 
2111.000000	63.767099 
2110.000000	63.765335 
2109.000000	63.766336 
2108.000000	63.768887 
2107.000000	63.771295 
2106.000000	63.772058 
2105.000000	63.770318 
2104.000000	63.765788 
2103.000000	63.759040 
2102.000000	63.751101 
2101.000000	63.743066 
2100.000000	63.736057 
2099.000000	63.730645 
2098.000000	63.726925 
2097.000000	63.724541 
2096.000000	63.722777 
2095.000000	63.720846 
2094.000000	63.718152 
2093.000000	63.714432 
2092.000000	63.709712 
2091.000000	63.704466 
2090.000000	63.699173 
2089.000000	63.694357 
2088.000000	63.690614 
2087.000000	63.688349 
2086.000000	63.688039 
2085.000000	63.689851 
2084.000000	63.694000 
2083.000000	63.700366 
2082.000000	63.708567 
2081.000000	63.717865 
2080.000000	63.727235 
2079.000000	63.735651 
2078.000000	63.741946 
2077.000000	63.745260 
2076.000000	63.744688 
2075.000000	63.739681 
2074.000000	63.729882 
2073.000000	63.715171 
2072.000000	63.696026 
2071.000000	63.673448 
2070.000000	63.649320 
2069.000000	63.626003 
2068.000000	63.606333 
2067.000000	63.593053 
2066.000000	63.588500 
2065.000000	63.594126 
2064.000000	63.610124 
2063.000000	63.635516 
2062.000000	63.668155 
2061.000000	63.705110 
2060.000000	63.742995 
2059.000000	63.778591 
2058.000000	63.809108 
2057.000000	63.832426 
2056.000000	63.847374 
2055.000000	63.853383 
2054.000000	63.850712 
2053.000000	63.840031 
2052.000000	63.822531 
2051.000000	63.799595 
2050.000000	63.772940 
2049.000000	63.744425 
2048.000000	63.716006 
2047.000000	63.689613 
2046.000000	63.666963 
2045.000000	63.649535 
2044.000000	63.638257 
2043.000000	63.633465 
2042.000000	63.634920 
2041.000000	63.641762 
2040.000000	63.652729 
2039.000000	63.666272 
2038.000000	63.680791 
2037.000000	63.694906 
2036.000000	63.707447 
2035.000000	63.717555 
2034.000000	63.724827 
2033.000000	63.729143 
2032.000000	63.730740 
2031.000000	63.730001 
2030.000000	63.727331 
2029.000000	63.723516 
2028.000000	63.719153 
2027.000000	63.714742 
2026.000000	63.710618 
2025.000000	63.707065 
2024.000000	63.704037 
2023.000000	63.701272 
2022.000000	63.698554 
2021.000000	63.695549 
2020.000000	63.691973 
2019.000000	63.687825 
2018.000000	63.683223 
2017.000000	63.678336 
2016.000000	63.673520 
2015.000000	63.669157 
2014.000000	63.665533 
2013.000000	63.662838 
2012.000000	63.661170 
2011.000000	63.660526 
2010.000000	63.660812 
2009.000000	63.662028 
2008.000000	63.664007 
2007.000000	63.666462 
2006.000000	63.668990 
2005.000000	63.671135 
2004.000000	63.672423 
2003.000000	63.672566 
2002.000000	63.671445 
2001.000000	63.669538 
2000.000000	63.667750 
1999.000000	63.667273 
1998.000000	63.669443 
1997.000000	63.675332 
1996.000000	63.685417 
1995.000000	63.699388 
1994.000000	63.716244 
1993.000000	63.734292 
1992.000000	63.751578 
1991.000000	63.766002 
1990.000000	63.775777 
1989.000000	63.779711 
1988.000000	63.777446 
1987.000000	63.769340 
1986.000000	63.756442 
1985.000000	63.740253 
1984.000000	63.722586 
1983.000000	63.705182 
1982.000000	63.689374 
1981.000000	63.676333 
1980.000000	63.666605 
1979.000000	63.660335 
1978.000000	63.657355 
1977.000000	63.657093 
1976.000000	63.658809 
1975.000000	63.661670 
1974.000000	63.664793 
1973.000000	63.667225 
1972.000000	63.667988 
1971.000000	63.666129 
1970.000000	63.660883 
1969.000000	63.651776 
1968.000000	63.638854 
1967.000000	63.622808 
1966.000000	63.605117 
1965.000000	63.587665 
1964.000000	63.572883 
1963.000000	63.563108 
1962.000000	63.560247 
1961.000000	63.565230 
1960.000000	63.577938 
1959.000000	63.597178 
1958.000000	63.620638 
1957.000000	63.645362 
1956.000000	63.668179 
1955.000000	63.686227 
1954.000000	63.697409 
1953.000000	63.700556 
1952.000000	63.695383 
1951.000000	63.682723 
1950.000000	63.664174 
1949.000000	63.642072 
1948.000000	63.618993 
1947.000000	63.597607 
1946.000000	63.580536 
1945.000000	63.569808 
1944.000000	63.566660 
1943.000000	63.571214 
1942.000000	63.582539 
1941.000000	63.598418 
1940.000000	63.615965 
1939.000000	63.631677 
1938.000000	63.642382 
1937.000000	63.645553 
1936.000000	63.639664 
1935.000000	63.624644 
1934.000000	63.601732 
1933.000000	63.573241 
1932.000000	63.542079 
1931.000000	63.511323 
1930.000000	63.483595 
1929.000000	63.460874 
1928.000000	63.444185 
1927.000000	63.433575 
1926.000000	63.428473 
1925.000000	63.427829 
1924.000000	63.430714 
1923.000000	63.436079 
1922.000000	63.443374 
1921.000000	63.452219 
1920.000000	63.462901 
1919.000000	63.475489 
1918.000000	63.490390 
1917.000000	63.507652 
1916.000000	63.527226 
1915.000000	63.548731 
1914.000000	63.571524 
1913.000000	63.594675 
1912.000000	63.617086 
1911.000000	63.637781 
1910.000000	63.655614 
1909.000000	63.669800 
1908.000000	63.679838 
1907.000000	63.685464 
1906.000000	63.686919 
1905.000000	63.684797 
1904.000000	63.679885 
1903.000000	63.673257 
1902.000000	63.665890 
1901.000000	63.658571 
1900.000000	63.651990 
1899.000000	63.646626 
1898.000000	63.642692 
1897.000000	63.640165 
1896.000000	63.639020 
1895.000000	63.639092 
1894.000000	63.639974 
1893.000000	63.640904 
1892.000000	63.640975 
1891.000000	63.639092 
1890.000000	63.634252 
1889.000000	63.625550 
1888.000000	63.612532 
1887.000000	63.595318 
1886.000000	63.574767 
1885.000000	63.552165 
1884.000000	63.529181 
1883.000000	63.507604 
1882.000000	63.489103 
1881.000000	63.474893 
1880.000000	63.465571 
1879.000000	63.461112 
1878.000000	63.461160 
1877.000000	63.464975 
1876.000000	63.471603 
1875.000000	63.480114 
1874.000000	63.489627 
1873.000000	63.499474 
1872.000000	63.509130 
1871.000000	63.518333 
1870.000000	63.527035 
1869.000000	63.535308 
1868.000000	63.543605 
1867.000000	63.552188 
1866.000000	63.561534 
1865.000000	63.571834 
1864.000000	63.583278 
1863.000000	63.595771 
1862.000000	63.609075 
1861.000000	63.622760 
1860.000000	63.636279 
1859.000000	63.648843 
1858.000000	63.659501 
1857.000000	63.667368 
1856.000000	63.671469 
1855.000000	63.671064 
1854.000000	63.665795 
1853.000000	63.655686 
1852.000000	63.641166 
1851.000000	63.623309 
1850.000000	63.603496 
1849.000000	63.583612 
1848.000000	63.565683 
1847.000000	63.551521 
1846.000000	63.542604 
1845.000000	63.539695 
1844.000000	63.542652 
1843.000000	63.550591 
1842.000000	63.561725 
1841.000000	63.573741 
1840.000000	63.584446 
1839.000000	63.592100 
1838.000000	63.595509 
1837.000000	63.594555 
1836.000000	63.590002 
1835.000000	63.583111 
1834.000000	63.575553 
1833.000000	63.568687 
1832.000000	63.563323 
1831.000000	63.559508 
1830.000000	63.556671 
1829.000000	63.553786 
1828.000000	63.549876 
1827.000000	63.544368 
1826.000000	63.537192 
1825.000000	63.528752 
1824.000000	63.519835 
1823.000000	63.511228 
1822.000000	63.503384 
1821.000000	63.496494 
1820.000000	63.490128 
1819.000000	63.483619 
1818.000000	63.476419 
1817.000000	63.468098 
1816.000000	63.458776 
1815.000000	63.449001 
1814.000000	63.439679 
1813.000000	63.431811 
1812.000000	63.426375 
1811.000000	63.423895 
1810.000000	63.424563 
1809.000000	63.428044 
1808.000000	63.433885 
1807.000000	63.441371 
1806.000000	63.449740 
1805.000000	63.458323 
1804.000000	63.466501 
1803.000000	63.473677 
1802.000000	63.479447 
1801.000000	63.483500 
1800.000000	63.485670 
1799.000000	63.486003 
1798.000000	63.484859 
1797.000000	63.482666 
1796.000000	63.479924 
1795.000000	63.477110 
1794.000000	63.474416 
1793.000000	63.471722 
1792.000000	63.468575 
1791.000000	63.464426 
1790.000000	63.458824 
1789.000000	63.451695 
1788.000000	63.443231 
1787.000000	63.434100 
1786.000000	63.425326 
1785.000000	63.418054 
1784.000000	63.413071 
1783.000000	63.410854 
1782.000000	63.411498 
1781.000000	63.414669 
1780.000000	63.419747 
1779.000000	63.426017 
1778.000000	63.432693 
1777.000000	63.439106 
1776.000000	63.444685 
1775.000000	63.449144 
1774.000000	63.452363 
1773.000000	63.454318 
1772.000000	63.455128 
1771.000000	63.455080 
1770.000000	63.454508 
1769.000000	63.453769 
1768.000000	63.453078 
1767.000000	63.452601 
1766.000000	63.452315 
1765.000000	63.451766 
1764.000000	63.450002 
1763.000000	63.445901 
1762.000000	63.438129 
1761.000000	63.425540 
1760.000000	63.407373 
1759.000000	63.383603 
1758.000000	63.355183 
1757.000000	63.323998 
1756.000000	63.292694 
1755.000000	63.264060 
1754.000000	63.240766 
1753.000000	63.224911 
1752.000000	63.217544 
1751.000000	63.218379 
1750.000000	63.226127 
1749.000000	63.238644 
1748.000000	63.253426 
1747.000000	63.267993 
1746.000000	63.280272 
1745.000000	63.288903 
1744.000000	63.292932 
1743.000000	63.291859 
1742.000000	63.285303 
1741.000000	63.273024 
1740.000000	63.254833 
1739.000000	63.230633 
1738.000000	63.200759 
1737.000000	63.166260 
1736.000000	63.129019 
1735.000000	63.091731 
1734.000000	63.057494 
1733.000000	63.029599 
1732.000000	63.010716 
1731.000000	63.002967 
1730.000000	63.006877 
1729.000000	63.022041 
1728.000000	63.046741 
1727.000000	63.078641 
1726.000000	63.115072 
1725.000000	63.153409 
1724.000000	63.191103 
1723.000000	63.226222 
1722.000000	63.257217 
1721.000000	63.283205 
1720.000000	63.303756 
1719.000000	63.318848 
1718.000000	63.329005 
1717.000000	63.334989 
1716.000000	63.337635 
1715.000000	63.337755 
1714.000000	63.335943 
1713.000000	63.332343 
1712.000000	63.326859 
1711.000000	63.319158 
1710.000000	63.308978 
1709.000000	63.296103 
1708.000000	63.280892 
1707.000000	63.264203 
1706.000000	63.247489 
1705.000000	63.232517 
1704.000000	63.220930 
1703.000000	63.214230 
1702.000000	63.213157 
1701.000000	63.217711 
1700.000000	63.227152 
1699.000000	63.240146 
1698.000000	63.255000 
1697.000000	63.269996 
1696.000000	63.283610 
1695.000000	63.294529 
1694.000000	63.301777 
1693.000000	63.304781 
1692.000000	63.303351 
1691.000000	63.297414 
1690.000000	63.287448 
1689.000000	63.274335 
1688.000000	63.259410 
1687.000000	63.244462 
1686.000000	63.231420 
1685.000000	63.222026 
1684.000000	63.217520 
1683.000000	63.218426 
1682.000000	63.224387 
1681.000000	63.234138 
1680.000000	63.245892 
1679.000000	63.257598 
1678.000000	63.267183 
1677.000000	63.273072 
1676.000000	63.274383 
1675.000000	63.271117 
1674.000000	63.264083 
1673.000000	63.254857 
1672.000000	63.245224 
1671.000000	63.237118 
1670.000000	63.232302 
1669.000000	63.231992 
1668.000000	63.236641 
1667.000000	63.246107 
1666.000000	63.259744 
1665.000000	63.276362 
1664.000000	63.294601 
1663.000000	63.312935 
1662.000000	63.330078 
1661.000000	63.344907 
1660.000000	63.356709 
1659.000000	63.365101 
1658.000000	63.370132 
1657.000000	63.372468 
1656.000000	63.372945 
1655.000000	63.372731 
1654.000000	63.373088 
1653.000000	63.374972 
1652.000000	63.379001 
1651.000000	63.385152 
1650.000000	63.392663 
1649.000000	63.400268 
1648.000000	63.406300 
1647.000000	63.409256 
1646.000000	63.408017 
1645.000000	63.402104 
1644.000000	63.391876 
1643.000000	63.378357 
1642.000000	63.363170 
1641.000000	63.347959 
1640.000000	63.334250 
1639.000000	63.323187 
1638.000000	63.315343 
1637.000000	63.310813 
1636.000000	63.309264 
1635.000000	63.310098 
1634.000000	63.312673 
1633.000000	63.316226 
1632.000000	63.320207 
1631.000000	63.324236 
1630.000000	63.327908 
1629.000000	63.330841 
1628.000000	63.332748 
1627.000000	63.333487 
1626.000000	63.333058 
1625.000000	63.331484 
1624.000000	63.328862 
1623.000000	63.325333 
1622.000000	63.321161 
1621.000000	63.316345 
1620.000000	63.310956 
1619.000000	63.304877 
1618.000000	63.298106 
1617.000000	63.290691 
1616.000000	63.282775 
1615.000000	63.274741 
1614.000000	63.267040 
1613.000000	63.260245 
1612.000000	63.255143 
1611.000000	63.252401 
1610.000000	63.252353 
1609.000000	63.254880 
1608.000000	63.259506 
1607.000000	63.265204 
1606.000000	63.270664 
1605.000000	63.274455 
1604.000000	63.275384 
1603.000000	63.272833 
1602.000000	63.266730 
1601.000000	63.257694 
1600.000000	63.246870 
1599.000000	63.235855 
1598.000000	63.226222 
1597.000000	63.219380 
1596.000000	63.216280 
1595.000000	63.217353 
1594.000000	63.222408 
1593.000000	63.230943 
1592.000000	63.241720 
1591.000000	63.253569 
1590.000000	63.264727 
1589.000000	63.273453 
1588.000000	63.277959 
1587.000000	63.276624 
1586.000000	63.268303 
1585.000000	63.252615 
1584.000000	63.230061 
1583.000000	63.202095 
1582.000000	63.171052 
1581.000000	63.139843 
1580.000000	63.111543 
1579.000000	63.089013 
1578.000000	63.074445 
1577.000000	63.069176 
1576.000000	63.073563 
1575.000000	63.087010 
1574.000000	63.108038 
1573.000000	63.134455 
1572.000000	63.163495 
1571.000000	63.192319 
1570.000000	63.217878 
1569.000000	63.237524 
1568.000000	63.249111 
1567.000000	63.251757 
1566.000000	63.245677 
1565.000000	63.232278 
1564.000000	63.214397 
1563.000000	63.195037 
1562.000000	63.177204 
1561.000000	63.162827 
1560.000000	63.152670 
1559.000000	63.145947 
1558.000000	63.140749 
1557.000000	63.134789 
1556.000000	63.126063 
1555.000000	63.113832 
1554.000000	63.098835 
1553.000000	63.083529 
1552.000000	63.071393 
1551.000000	63.066172 
1550.000000	63.070821 
1549.000000	63.086724 
1548.000000	63.113093 
1547.000000	63.147234 
1546.000000	63.184785 
1545.000000	63.220739 
1544.000000	63.250398 
1543.000000	63.270401 
1542.000000	63.279032 
1541.000000	63.276386 
1540.000000	63.264298 
1539.000000	63.245606 
1538.000000	63.223600 
1537.000000	63.201403 
1536.000000	63.181376 
1535.000000	63.165330 
1534.000000	63.154029 
1533.000000	63.147878 
1532.000000	63.146519 
1531.000000	63.149428 
1530.000000	63.155603 
1529.000000	63.164043 
1528.000000	63.173460 
1527.000000	63.182473 
1526.000000	63.189673 
1525.000000	63.193821 
1524.000000	63.193869 
1523.000000	63.189291 
1522.000000	63.180041 
1521.000000	63.166570 
1520.000000	63.150072 
1519.000000	63.132429 
1518.000000	63.115763 
1517.000000	63.102340 
1516.000000	63.094115 
1515.000000	63.092350 
1514.000000	63.097357 
1513.000000	63.108325 
1512.000000	63.123607 
1511.000000	63.140869 
1510.000000	63.157415 
1509.000000	63.170814 
1508.000000	63.179183 
1507.000000	63.181900 
1506.000000	63.179516 
1505.000000	63.173794 
1504.000000	63.167285 
1503.000000	63.162899 
1502.000000	63.163232 
1501.000000	63.169980 
1500.000000	63.183379 
1499.000000	63.202190 
1498.000000	63.223791 
1497.000000	63.244724 
1496.000000	63.261270 
1495.000000	63.270258 
1494.000000	63.269805 
1493.000000	63.259482 
1492.000000	63.240432 
1491.000000	63.215303 
1490.000000	63.187289 
1489.000000	63.159561 
1488.000000	63.134527 
1487.000000	63.113641 
1486.000000	63.097190 
1485.000000	63.084721 
1484.000000	63.075470 
1483.000000	63.068580 
1482.000000	63.063764 
1481.000000	63.061141 
1480.000000	63.061261 
1479.000000	63.064527 
1478.000000	63.071179 
1477.000000	63.081073 
1476.000000	63.093590 
1475.000000	63.107490 
1474.000000	63.121247 
1473.000000	63.133239 
1472.000000	63.142037 
1471.000000	63.146781 
1470.000000	63.147258 
1469.000000	63.143849 
1468.000000	63.137650 
1467.000000	63.130187 
1466.000000	63.122916 
1465.000000	63.116931 
1464.000000	63.112974 
1463.000000	63.111066 
1462.000000	63.110518 
1461.000000	63.110232 
1460.000000	63.108849 
1459.000000	63.105106 
1458.000000	63.097810 
1457.000000	63.086462 
1456.000000	63.071012 
1455.000000	63.052248 
1454.000000	63.031435 
1453.000000	63.010239 
1452.000000	62.990379 
1451.000000	62.973618 
1450.000000	62.961292 
1449.000000	62.954354 
1448.000000	62.952995 
1447.000000	62.956905 
1446.000000	62.965464 
1445.000000	62.977766 
1444.000000	62.992954 
1443.000000	63.010334 
1442.000000	63.029599 
1441.000000	63.050508 
1440.000000	63.072752 
1439.000000	63.096022 
1438.000000	63.119506 
1437.000000	63.142085 
1436.000000	63.162279 
1435.000000	63.178300 
1434.000000	63.188362 
1433.000000	63.191413 
1432.000000	63.187193 
1431.000000	63.176274 
1430.000000	63.160109 
1429.000000	63.140940 
1428.000000	63.121008 
1427.000000	63.102531 
1426.000000	63.086915 
1425.000000	63.074755 
1424.000000	63.065600 
1423.000000	63.058352 
1422.000000	63.051581 
1421.000000	63.044095 
1420.000000	63.035154 
1419.000000	63.024783 
1418.000000	63.013768 
1417.000000	63.003182 
1416.000000	62.994265 
1415.000000	62.987899 
1414.000000	62.984323 
1413.000000	62.983298 
1412.000000	62.984442 
1411.000000	62.987256 
1410.000000	62.991619 
1409.000000	62.997674 
1408.000000	63.006019 
1407.000000	63.017010 
1406.000000	63.030695 
1405.000000	63.046097 
1404.000000	63.061308 
1403.000000	63.073563 
1402.000000	63.079857 
1401.000000	63.077592 
1400.000000	63.065266 
1399.000000	63.042974 
1398.000000	63.012742 
1397.000000	62.977814 
1396.000000	62.942099 
1395.000000	62.909221 
1394.000000	62.882137 
1393.000000	62.862348 
1392.000000	62.850165 
1391.000000	62.844705 
1390.000000	62.844586 
1389.000000	62.848234 
1388.000000	62.854361 
1387.000000	62.861800 
1386.000000	62.869882 
1385.000000	62.878036 
1384.000000	62.885951 
1383.000000	62.893247 
1382.000000	62.899541 
1381.000000	62.904524 
1380.000000	62.907910 
1379.000000	62.909984 
1378.000000	62.911343 
1377.000000	62.912964 
1376.000000	62.916088 
1375.000000	62.921762 
1374.000000	62.930750 
1373.000000	62.943148 
1372.000000	62.958312 
1371.000000	62.974905 
1370.000000	62.991142 
1369.000000	63.004994 
1368.000000	63.014698 
1367.000000	63.019156 
1366.000000	63.017725 
1365.000000	63.010573 
1364.000000	62.998390 
1363.000000	62.982416 
1362.000000	62.963867 
1361.000000	62.943840 
1360.000000	62.923336 
1359.000000	62.903428 
1358.000000	62.885308 
1357.000000	62.870573 
1356.000000	62.860870 
1355.000000	62.857770 
1354.000000	62.862300 
1353.000000	62.874507 
1352.000000	62.893104 
1351.000000	62.915825 
1350.000000	62.939405 
1349.000000	62.960433 
1348.000000	62.975883 
1347.000000	62.983703 
1346.000000	62.983131 
1345.000000	62.974858 
1344.000000	62.960577 
1343.000000	62.942767 
1342.000000	62.924170 
1341.000000	62.907290 
1340.000000	62.893986 
1339.000000	62.885594 
1338.000000	62.882971 
1337.000000	62.886190 
1336.000000	62.894821 
1335.000000	62.907791 
1334.000000	62.923479 
1333.000000	62.939620 
1332.000000	62.953948 
1331.000000	62.964296 
1330.000000	62.969279 
1329.000000	62.968564 
1328.000000	62.963342 
1327.000000	62.955737 
1326.000000	62.948560 
1325.000000	62.944889 
1324.000000	62.947034 
1323.000000	62.956285 
1322.000000	62.972354 
1321.000000	62.993645 
1320.000000	63.017201 
1319.000000	63.039827 
1318.000000	63.058161 
1317.000000	63.069391 
1316.000000	63.071560 
1315.000000	63.063907 
1314.000000	63.046693 
1313.000000	63.020944 
1312.000000	62.988591 
1311.000000	62.951922 
1310.000000	62.913799 
1309.000000	62.877035 
1308.000000	62.844419 
1307.000000	62.818193 
1306.000000	62.799978 
1305.000000	62.790632 
1304.000000	62.789869 
1303.000000	62.796783 
1302.000000	62.809514 
1301.000000	62.825942 
1300.000000	62.843680 
1299.000000	62.860655 
1298.000000	62.874889 
1297.000000	62.885046 
1296.000000	62.889957 
1295.000000	62.889027 
1294.000000	62.882161 
1293.000000	62.869334 
1292.000000	62.851262 
1291.000000	62.828636 
1290.000000	62.802815 
1289.000000	62.775254 
1288.000000	62.747716 
1287.000000	62.721872 
1286.000000	62.699031 
1285.000000	62.680220 
1284.000000	62.666010 
1283.000000	62.656760 
1282.000000	62.652492 
1281.000000	62.653017 
1280.000000	62.658166 
1279.000000	62.667798 
1278.000000	62.681722 
1277.000000	62.699508 
1276.000000	62.720346 
1275.000000	62.743020 
1274.000000	62.765979 
1273.000000	62.787342 
1272.000000	62.805366 
1271.000000	62.818765 
1270.000000	62.826991 
1269.000000	62.830591 
1268.000000	62.830829 
1267.000000	62.829661 
1266.000000	62.828922 
1265.000000	62.829852 
1264.000000	62.832570 
1263.000000	62.836289 
1262.000000	62.839293 
1261.000000	62.839627 
1260.000000	62.835669 
1259.000000	62.826967 
1258.000000	62.814211 
1257.000000	62.799310 
1256.000000	62.784957 
1255.000000	62.773990 
1254.000000	62.768745 
1253.000000	62.770557 
1252.000000	62.779545 
1251.000000	62.794399 
1250.000000	62.813234 
1249.000000	62.833547 
1248.000000	62.852978 
1247.000000	62.869524 
1246.000000	62.881684 
1245.000000	62.888717 
1244.000000	62.890172 
1243.000000	62.886166 
1242.000000	62.877249 
1241.000000	62.864446 
1240.000000	62.849259 
1239.000000	62.833404 
1238.000000	62.818861 
1237.000000	62.807464 
1236.000000	62.800765 
1235.000000	62.799477 
1234.000000	62.803530 
1233.000000	62.811851 
1232.000000	62.822699 
1231.000000	62.833857 
1230.000000	62.842965 
1229.000000	62.847900 
1228.000000	62.847161 
1227.000000	62.840080 
1226.000000	62.826824 
1225.000000	62.808513 
1224.000000	62.786912 
1223.000000	62.764263 
1222.000000	62.742900 
1221.000000	62.725019 
1220.000000	62.712240 
1219.000000	62.705421 
1218.000000	62.704157 
1217.000000	62.707233 
1216.000000	62.712454 
1215.000000	62.717413 
1214.000000	62.719821 
1213.000000	62.717938 
1212.000000	62.711358 
1211.000000	62.700796 
1210.000000	62.688398 
1209.000000	62.676835 
1208.000000	62.668919 
1207.000000	62.666678 
1206.000000	62.671017 
1205.000000	62.681341 
1204.000000	62.695765 
1203.000000	62.711620 
1202.000000	62.725996 
1201.000000	62.736368 
1200.000000	62.741279 
1199.000000	62.740397 
1198.000000	62.734627 
1197.000000	62.725591 
1196.000000	62.715506 
1195.000000	62.706518 
1194.000000	62.700414 
1193.000000	62.698197 
1192.000000	62.700057 
1191.000000	62.705039 
1190.000000	62.711668 
1189.000000	62.718057 
1188.000000	62.722039 
1187.000000	62.721896 
1186.000000	62.716746 
1185.000000	62.706613 
1184.000000	62.692546 
1183.000000	62.676262 
1182.000000	62.660002 
1181.000000	62.645649 
1180.000000	62.634468 
1179.000000	62.626504 
1178.000000	62.620806 
1177.000000	62.615537 
1176.000000	62.608504 
1175.000000	62.597846 
1174.000000	62.582683 
1173.000000	62.563443 
1172.000000	62.541913 
1171.000000	62.520742 
1170.000000	62.502717 
1169.000000	62.490177 
1168.000000	62.484192 
1167.000000	62.484359 
1166.000000	62.489223 
1165.000000	62.496614 
1164.000000	62.504482 
1163.000000	62.511444 
1162.000000	62.517333 
1161.000000	62.523031 
1160.000000	62.530064 
1159.000000	62.539911 
1158.000000	62.553548 
1157.000000	62.570858 
1156.000000	62.590622 
1155.000000	62.610769 
1154.000000	62.628722 
1153.000000	62.642121 
1152.000000	62.649202 
1151.000000	62.649440 
1150.000000	62.643313 
1149.000000	62.632179 
1148.000000	62.618064 
1147.000000	62.603330 
1146.000000	62.590146 
1145.000000	62.580418 
1144.000000	62.575769 
1143.000000	62.577295 
1142.000000	62.585473 
1141.000000	62.600135 
1140.000000	62.620353 
1139.000000	62.644195 
1138.000000	62.668704 
1137.000000	62.690281 
1136.000000	62.704992 
1135.000000	62.709641 
1134.000000	62.702202 
1133.000000	62.682509 
1132.000000	62.652492 
1131.000000	62.615895 
1130.000000	62.577414 
1129.000000	62.542128 
1128.000000	62.514066 
1127.000000	62.496185 
1126.000000	62.490034 
1125.000000	62.495541 
1124.000000	62.511277 
1123.000000	62.534880 
1122.000000	62.563276 
1121.000000	62.592959 
1120.000000	62.620615 
1119.000000	62.643718 
1118.000000	62.660813 
1117.000000	62.671732 
1116.000000	62.677168 
1115.000000	62.678313 
1114.000000	62.676453 
1113.000000	62.672400 
1112.000000	62.666749 
1111.000000	62.660312 
1110.000000	62.653923 
1109.000000	62.649106 
1108.000000	62.647151 
1107.000000	62.649273 
1106.000000	62.655663 
1105.000000	62.665486 
1104.000000	62.676596 
1103.000000	62.685990 
1102.000000	62.690448 
1101.000000	62.687563 
1100.000000	62.676048 
1099.000000	62.656116 
1098.000000	62.629604 
1097.000000	62.599611 
1096.000000	62.569570 
1095.000000	62.542557 
1094.000000	62.520718 
1093.000000	62.504935 
1092.000000	62.494945 
1091.000000	62.489604 
1090.000000	62.487149 
1089.000000	62.485837 
1088.000000	62.484002 
1087.000000	62.480425 
1086.000000	62.473988 
1085.000000	62.464237 
1084.000000	62.450885 
1083.000000	62.434673 
1082.000000	62.416601 
1081.000000	62.398529 
1080.000000	62.382721 
1079.000000	62.371706 
1078.000000	62.367510 
1077.000000	62.371540 
1076.000000	62.384200 
1075.000000	62.404823 
1074.000000	62.431645 
1073.000000	62.462401 
1072.000000	62.494349 
1071.000000	62.525177 
1070.000000	62.552976 
1069.000000	62.576675 
1068.000000	62.595844 
1067.000000	62.610793 
1066.000000	62.622189 
1065.000000	62.630820 
1064.000000	62.637424 
1063.000000	62.642836 
1062.000000	62.647604 
1061.000000	62.652015 
1060.000000	62.655711 
1059.000000	62.658309 
1058.000000	62.658858 
1057.000000	62.656354 
1056.000000	62.649583 
1055.000000	62.637734 
1054.000000	62.620329 
1053.000000	62.597632 
1052.000000	62.570691 
1051.000000	62.541174 
1050.000000	62.511420 
1049.000000	62.483978 
1048.000000	62.461423 
1047.000000	62.445735 
1046.000000	62.438130 
1045.000000	62.439060 
1044.000000	62.448120 
1043.000000	62.463951 
1042.000000	62.484693 
1041.000000	62.508296 
1040.000000	62.532687 
1039.000000	62.556076 
1038.000000	62.577223 
1037.000000	62.595677 
1036.000000	62.611675 
1035.000000	62.625789 
1034.000000	62.638783 
1033.000000	62.651181 
1032.000000	62.663269 
1031.000000	62.674593 
1030.000000	62.684178 
1029.000000	62.690591 
1028.000000	62.692403 
1027.000000	62.688398 
1026.000000	62.677788 
1025.000000	62.660431 
1024.000000	62.636971 
1023.000000	62.608385 
1022.000000	62.576127 
1021.000000	62.541794 
1020.000000	62.506961 
1019.000000	62.473416 
1018.000000	62.442874 
1017.000000	62.417101 
1016.000000	62.397813 
1015.000000	62.386631 
1014.000000	62.384581 
1013.000000	62.391757 
1012.000000	62.407279 
1011.000000	62.429094 
1010.000000	62.454438 
1009.000000	62.480139 
1008.000000	62.503170 
1007.000000	62.521409 
1006.000000	62.533974 
1005.000000	62.541222 
1004.000000	62.544441 
1003.000000	62.545466 
1002.000000	62.545514 
1001.000000	62.545156 
1000.000000	62.543845 
999.000000	 62.540197 
998.000000	 62.532520 
997.000000	 62.519407 
996.000000	 62.500691 
995.000000	 62.477660 
994.000000	 62.453055 
993.000000	 62.430500 
992.000000	 62.413668 
991.000000	 62.405276 
990.000000	 62.406563 
989.000000	 62.416696 
988.000000	 62.433314 
987.000000	 62.452864 
986.000000	 62.472033 
985.000000	 62.488555 
984.000000	 62.501716 
983.000000	 62.512445 
982.000000	 62.522840 
981.000000	 62.535309 
980.000000	 62.551784 
979.000000	 62.572622 
978.000000	 62.596535 
977.000000	 62.620711 
976.000000	 62.641620 
975.000000	 62.655806 
974.000000	 62.660884 
973.000000	 62.656140 
972.000000	 62.642502 
971.000000	 62.622189 
970.000000	 62.598276 
969.000000	 62.573409 
968.000000	 62.549328 
967.000000	 62.526679 
966.000000	 62.505125 
965.000000	 62.484002 
964.000000	 62.463068 
963.000000	 62.442994 
962.000000	 62.425541 
961.000000	 62.413072 
960.000000	 62.407922 
959.000000	 62.411665 
958.000000	 62.424278 
957.000000	 62.444138 
956.000000	 62.468290 
955.000000	 62.492895 
954.000000	 62.514138 
953.000000	 62.528967 
952.000000	 62.535834 
951.000000	 62.534570 
950.000000	 62.526631 
949.000000	 62.514638 
948.000000	 62.501788 
947.000000	 62.491226 
946.000000	 62.485289 
945.000000	 62.485575 
944.000000	 62.492275 
943.000000	 62.504506 
942.000000	 62.520146 
941.000000	 62.536716 
940.000000	 62.551450 
939.000000	 62.561917 
938.000000	 62.566614 
937.000000	 62.565255 
936.000000	 62.558698 
935.000000	 62.548828 
934.000000	 62.538051 
933.000000	 62.528777 
932.000000	 62.522888 
931.000000	 62.521529 
930.000000	 62.525057 
929.000000	 62.533283 
928.000000	 62.545609 
927.000000	 62.561130 
926.000000	 62.579011 
925.000000	 62.598228 
924.000000	 62.617611 
923.000000	 62.635660 
922.000000	 62.650775 
921.000000	 62.661314 
920.000000	 62.666201 
919.000000	 62.664842 
918.000000	 62.657618 
917.000000	 62.645220 
916.000000	 62.629485 
915.000000	 62.612152 
914.000000	 62.594747 
913.000000	 62.578034 
912.000000	 62.562060 
911.000000	 62.545895 
910.000000	 62.528324 
909.000000	 62.507867 
908.000000	 62.483787 
907.000000	 62.456035 
906.000000	 62.425470 
905.000000	 62.393689 
904.000000	 62.362790 
903.000000	 62.334704 
902.000000	 62.310981 
901.000000	 62.292242 
900.000000	 62.278461 
899.000000	 62.269139 
898.000000	 62.263846 
897.000000	 62.262201 
896.000000	 62.264490 
895.000000	 62.271475 
894.000000	 62.284541 
893.000000	 62.304663 
892.000000	 62.332653 
891.000000	 62.368154 
890.000000	 62.409782 
889.000000	 62.454915 
888.000000	 62.500095 
887.000000	 62.541556 
886.000000	 62.575769 
885.000000	 62.600278 
884.000000	 62.614274 
883.000000	 62.618899 
882.000000	 62.616896 
881.000000	 62.612223 
880.000000	 62.608838 
879.000000	 62.609744 
878.000000	 62.616086 
877.000000	 62.627053 
876.000000	 62.639355 
875.000000	 62.648224 
874.000000	 62.648773 
873.000000	 62.637209 
872.000000	 62.611651 
871.000000	 62.572956 
870.000000	 62.524747 
869.000000	 62.473011 
868.000000	 62.424373 
867.000000	 62.385106 
866.000000	 62.359738 
865.000000	 62.350058 
864.000000	 62.355399 
863.000000	 62.372326 
862.000000	 62.396001 
861.000000	 62.421083 
860.000000	 62.442827 
859.000000	 62.457704 
858.000000	 62.463593 
857.000000	 62.460184 
856.000000	 62.448215 
855.000000	 62.429380 
854.000000	 62.405538 
853.000000	 62.378835 
852.000000	 62.351393 
851.000000	 62.325644 
850.000000	 62.304019 
849.000000	 62.289094 
848.000000	 62.283563 
847.000000	 62.289714 
846.000000	 62.309026 
845.000000	 62.341523 
844.000000	 62.385606 
843.000000	 62.437963 
842.000000	 62.493991 
841.000000	 62.548518 
840.000000	 62.596249 
839.000000	 62.632989 
838.000000	 62.655806 
837.000000	 62.663364 
836.000000	 62.656044 
835.000000	 62.635827 
834.000000	 62.605905 
833.000000	 62.570238 
832.000000	 62.532830 
831.000000	 62.497830 
830.000000	 62.468266 
829.000000	 62.446379 
828.000000	 62.432765 
827.000000	 62.426805 
826.000000	 62.426686 
825.000000	 62.430167 
824.000000	 62.434959 
823.000000	 62.439155 
822.000000	 62.441825 
821.000000	 62.442922 
820.000000	 62.443423 
819.000000	 62.444615 
818.000000	 62.447786 
817.000000	 62.453651 
816.000000	 62.462091 
815.000000	 62.472128 
814.000000	 62.482380 
813.000000	 62.490987 
812.000000	 62.496280 
811.000000	 62.497067 
810.000000	 62.493014 
809.000000	 62.484431 
808.000000	 62.471985 
807.000000	 62.456655 
806.000000	 62.439990 
805.000000	 62.423372 
804.000000	 62.407898 
803.000000	 62.393951 
802.000000	 62.381315 
801.000000	 62.369036 
800.000000	 62.355923 
799.000000	 62.340784 
798.000000	 62.322783 
797.000000	 62.302231 
796.000000	 62.280607 
795.000000	 62.260365 
794.000000	 62.244415 
793.000000	 62.235522 
792.000000	 62.235522 
791.000000	 62.244939 
790.000000	 62.262606 
789.000000	 62.285995 
788.000000	 62.311410 
787.000000	 62.335157 
786.000000	 62.353849 
785.000000	 62.365126 
784.000000	 62.367630 
783.000000	 62.360930 
782.000000	 62.345170 
781.000000	 62.320971 
780.000000	 62.289285 
779.000000	 62.251091 
778.000000	 62.208080 
777.000000	 62.162876 
776.000000	 62.118983 
775.000000	 62.080502 
774.000000	 62.051653 
773.000000	 62.036180 
772.000000	 62.036180 
771.000000	 62.051701 
770.000000	 62.080311 
769.000000	 62.117505 
768.000000	 62.157702 
767.000000	 62.195062 
766.000000	 62.224841 
765.000000	 62.243962 
764.000000	 62.251305 
763.000000	 62.247514 
762.000000	 62.234520 
761.000000	 62.214875 
760.000000	 62.191176 
759.000000	 62.165713 
758.000000	 62.140583 
757.000000	 62.117719 
756.000000	 62.099361 
755.000000	 62.088036 
754.000000	 62.086176 
753.000000	 62.095785 
752.000000	 62.118220 
751.000000	 62.153244 
750.000000	 62.198543 
749.000000	 62.249922 
748.000000	 62.301731 
747.000000	 62.347769 
746.000000	 62.382483 
745.000000	 62.401628 
744.000000	 62.403202 
743.000000	 62.387943 
742.000000	 62.359094 
741.000000	 62.321853 
740.000000	 62.282323 
739.000000	 62.246584 
738.000000	 62.219691 
737.000000	 62.205171 
736.000000	 62.204337 
735.000000	 62.216424 
734.000000	 62.238621 
733.000000	 62.267041 
732.000000	 62.297058 
731.000000	 62.324166 
730.000000	 62.344336 
729.000000	 62.354350 
728.000000	 62.352275 
727.000000	 62.337470 
726.000000	 62.310671 
725.000000	 62.273693 
724.000000	 62.229514 
723.000000	 62.181806 
722.000000	 62.134599 
721.000000	 62.091803 
720.000000	 62.056779 
719.000000	 62.032127 
718.000000	 62.019419 
717.000000	 62.019109 
716.000000	 62.030220 
715.000000	 62.050390 
714.000000	 62.076282 
713.000000	 62.103819 
712.000000	 62.128400 
711.000000	 62.145662 
710.000000	 62.152171 
709.000000	 62.146258 
708.000000	 62.128376 
707.000000	 62.100911 
706.000000	 62.067437 
705.000000	 62.032055 
704.000000	 61.998939 
703.000000	 61.971259 
702.000000	 61.950969 
701.000000	 61.938571 
700.000000	 61.933469 
699.000000	 61.934351 
698.000000	 61.939787 
697.000000	 61.948561 
696.000000	 61.959791 
695.000000	 61.973261 
694.000000	 61.989355 
693.000000	 62.008237 
692.000000	 62.029647 
691.000000	 62.051844 
690.000000	 62.071871 
689.000000	 62.085652 
688.000000	 62.088942 
687.000000	 62.078094 
686.000000	 62.051367 
685.000000	 62.009930 
684.000000	 61.958193 
683.000000	 61.902928 
682.000000	 61.852526 
681.000000	 61.815118 
680.000000	 61.797499 
679.000000	 61.803483 
678.000000	 61.833333 
677.000000	 61.883831 
676.000000	 61.948513 
675.000000	 62.019157 
674.000000	 62.086606 
673.000000	 62.142372 
672.000000	 62.179613 
671.000000	 62.193822 
670.000000	 62.183213 
669.000000	 62.148714 
668.000000	 62.093377 
667.000000	 62.021875 
666.000000	 61.940217 
665.000000	 61.855363 
664.000000	 61.774682 
663.000000	 61.705279 
662.000000	 61.653447 
661.000000	 61.624169 
660.000000	 61.620211 
659.000000	 61.641931 
658.000000	 61.686182 
657.000000	 61.747407 
656.000000	 61.818599 
655.000000	 61.892485 
654.000000	 61.962175 
653.000000	 62.022423 
652.000000	 62.069678 
651.000000	 62.102127 
650.000000	 62.119674 
649.000000	 62.122821 
648.000000	 62.112212 
647.000000	 62.088441 
646.000000	 62.052249 
645.000000	 62.005305 
644.000000	 61.950635 
643.000000	 61.893153 
642.000000	 61.839294 
641.000000	 61.796855 
640.000000	 61.773848 
639.000000	 61.776947 
638.000000	 61.809897 
637.000000	 61.871910 
636.000000	 61.957001 
635.000000	 62.054538 
634.000000	 62.150907 
633.000000	 62.230420 
632.000000	 62.278294 
631.000000	 62.283539 
630.000000	 62.241435 
629.000000	 62.154126 
628.000000	 62.031102 
627.000000	 61.887764 
626.000000	 61.743021 
625.000000	 61.616492 
624.000000	 61.524558 
623.000000	 61.477923 
622.000000	 61.479020 
621.000000	 61.522388 
620.000000	 61.595416 
619.000000	 61.681032 
618.000000	 61.761784 
617.000000	 61.822795 
616.000000	 61.855721 
615.000000	 61.858367 
614.000000	 61.836409 
613.000000	 61.800408 
612.000000	 61.763858 
611.000000	 61.739039 
610.000000	 61.735868 
609.000000	 61.759781 
608.000000	 61.811804 
607.000000	 61.888790 
606.000000	 61.984467 
605.000000	 62.090849 
604.000000	 62.199354 
603.000000	 62.302041 
602.000000	 62.391638 
601.000000	 62.462687 
600.000000	 62.511038 
599.000000	 62.535047 
598.000000	 62.536263 
597.000000	 62.519145 
596.000000	 62.491822 
595.000000	 62.463188 
594.000000	 62.442302 
593.000000	 62.434911 
592.000000	 62.443900 
591.000000	 62.466502 
590.000000	 62.496542 
589.000000	 62.523818 
588.000000	 62.537121 
587.000000	 62.526416 
586.000000	 62.485432 
585.000000	 62.413406 
584.000000	 62.314987 
583.000000	 62.201404 
582.000000	 62.087798 
581.000000	 61.991953 
580.000000	 61.930346 
579.000000	 61.914706 
578.000000	 61.948966 
577.000000	 62.028217 
576.000000	 62.139248 
575.000000	 62.262988 
574.000000	 62.378597 
573.000000	 62.466430 
572.000000	 62.513113 
571.000000	 62.514185 
570.000000	 62.474489 
569.000000	 62.406396 
568.000000	 62.325382 
567.000000	 62.246465 
566.000000	 62.178945 
565.000000	 62.126135 
564.000000	 62.083292 
563.000000	 62.040591 
562.000000	 61.986875 
561.000000	 61.913919 
560.000000	 61.821031 
559.000000	 61.715817 
558.000000	 61.614394 
557.000000	 61.536526 
556.000000	 61.502766 
555.000000	 61.528277 
554.000000	 61.619377 
553.000000	 61.770796 
552.000000	 61.965274 
551.000000	 62.176346 
550.000000	 62.373661 
549.000000	 62.528657 
548.000000	 62.619185 
547.000000	 62.634062 
546.000000	 62.573623 
545.000000	 62.450671 
544.000000	 62.287425 
543.000000	 62.111926 
542.000000	 61.952948 
541.000000	 61.834669 
540.000000	 61.775255 
539.000000	 61.781311 
538.000000	 61.850309 
537.000000	 61.968088 
536.000000	 62.113571 
535.000000	 62.260866 
534.000000	 62.383031 
533.000000	 62.458443 
532.000000	 62.473440 
531.000000	 62.426543 
530.000000	 62.326502 
529.000000	 62.194561 
528.000000	 62.059283 
527.000000	 61.951661 
526.000000	 61.897993 
525.000000	 61.913633 
524.000000	 61.998844 
523.000000	 62.138557 
522.000000	 62.305307 
521.000000	 62.464332 
520.000000	 62.582039 
519.000000	 62.633538 
518.000000	 62.608909 
517.000000	 62.513947 
516.000000	 62.368965 
515.000000	 62.203049 
514.000000	 62.046098 
513.000000	 61.923122 
512.000000	 61.845517 
511.000000	 61.813306 
510.000000	 61.810517 
509.000000	 61.812973 
508.000000	 61.791539 
507.000000	 61.721658 
506.000000	 61.587953 
505.000000	 61.388444 
504.000000	 61.134576 
503.000000	 60.847139 
502.000000	 60.554075 
501.000000	 60.284304 
500.000000	 60.063171 
499.000000	 59.908461 
498.000000	 59.831333 
497.000000	 59.836435 
496.000000	 59.923219 
495.000000	 60.087132 
494.000000	 60.319328 
493.000000	 60.606670 
492.000000	 60.930895 
491.000000	 61.269330 
490.000000	 61.594939 
489.000000	 61.880040 
488.000000	 62.099075 
487.000000	 62.233901 
486.000000	 62.278389 
485.000000	 62.237977 
484.000000	 62.131810 
483.000000	 61.984562 
482.000000	 61.823916 
481.000000	 61.671423 
480.000000	 61.542320 
479.000000	 61.439156 
478.000000	 61.355614 
477.000000	 61.277580 
476.000000	 61.190438 
475.000000	 61.081886 
474.000000	 60.946679 
473.000000	 60.788559 
472.000000	 60.620117 
471.000000	 60.458874 
470.000000	 60.323977 
469.000000	 60.234022 
468.000000	 60.203194 
467.000000	 60.239052 
466.000000	 60.340070 
465.000000	 60.497140 
464.000000	 60.692262 
463.000000	 60.901069 
462.000000	 61.095690 
461.000000	 61.246442 
460.000000	 61.329841 
459.000000	 61.333584 
458.000000	 61.258769 
457.000000	 61.120462 
456.000000	 60.942530 
455.000000	 60.753059 
454.000000	 60.576629 
453.000000	 60.431671 
452.000000	 60.324621 
451.000000	 60.249352 
450.000000	 60.195541 
449.000000	 60.155367 
448.000000	 60.126447 
447.000000	 60.113763 
446.000000	 60.130238 
445.000000	 60.191893 
444.000000	 60.314941 
443.000000	 60.509228 
442.000000	 60.769820 
441.000000	 61.075758 
440.000000	 61.396217 
439.000000	 61.694550 
438.000000	 61.935448 
437.000000	 62.091302 
436.000000	 62.149524 
435.000000	 62.112712 
434.000000	 61.995625 
433.000000	 61.823296 
432.000000	 61.622714 
431.000000	 61.424374 
430.000000	 61.252021 
429.000000	 61.133480 
428.000000	 61.095499 
427.000000	 61.170363 
426.000000	 61.391758 
425.000000	 61.786603 
424.000000	 62.365627 
423.000000	 63.113164 
422.000000	 63.986110 
421.000000	 64.903140 
420.000000	 65.754795 
419.000000	 66.418027 
418.000000	 66.780304 
417.000000	 66.756391 
416.000000	 66.308212 
415.000000	 65.461468 
414.000000	 64.302277 
413.000000	 62.959218 
412.000000	 61.580038 
411.000000	 60.312223 
410.000000	 59.272766 
409.000000	 58.535099 
408.000000	 58.116531 
407.000000	 57.984113 
406.000000	 58.068752 
405.000000	 58.276987 
404.000000	 58.527445 
403.000000	 58.750653 
402.000000	 58.926153 
401.000000	 59.064960 
400.000000	 59.221291 
399.000000	 59.462714 
398.000000	 59.853863 
397.000000	 60.425639 
396.000000	 61.169219 
395.000000	 62.033176 
394.000000	 62.934088 
393.000000	 63.774681 
392.000000	 64.485216 
391.000000	 65.044260 
390.000000	 65.482044 
389.000000	 65.871238 
388.000000	 66.312456 
387.000000	 66.897273 
386.000000	 67.687320 
385.000000	 68.684148 
384.000000	 69.805026 
383.000000	 70.907855 
382.000000	 71.849918 
381.000000	 72.514271 
380.000000	 72.835493 
379.000000	 72.824883 
378.000000	 72.568178 
377.000000	 72.207117 
376.000000	 71.905827 
375.000000	 71.808719 
374.000000	 72.007751 
373.000000	 72.521734 
372.000000	 73.281168 
371.000000	 74.185943 
370.000000	 75.137329 

