PE IR       SPECTRUM    SPECTRUM    ASCII       PEDS        1.60        
  -1
BZ4C7C~1.ASC
17/04/07
22:57:36.00
17/04/07
22:57:36.00
tln
$BZ1503107-1_t0118$<tbV0>[-5.2,13.0,8.0,0.0,27,1,0]
370.000000
64









2002,4.07    
MIRTGS : RIGHTBACK : INTERNAL 2
MIR : ON : INTERNAL 2
OPTKBR

0.200000
8
8.000000
FILLER
RATIO
SPECTRUM
UNLOCKED 256

DOUBLE
64
COMBINED
1
0
0


1.000000
RATIO


1
0
TRUE
51149
0
LEFT NOT FITTED RIGHT NOT FITTED 0
NONE
NONE
15600
12.000000
4.427000
51148
TRUE
1 0 8 72 0 0 0 0 

15798.010000






#HDR
-1
-1
#GR
CM-1
%T
0.00002384185791015625
0.0
5000.000000
-1.000000
4631
8
73.811459
42.404603
#DATA
5000.000000	64.042758 
4999.000000	63.852143 
4998.000000	63.697600 
4997.000000	63.598036 
4996.000000	63.570308 
4995.000000	63.626170 
4994.000000	63.770794 
4993.000000	63.998961 
4992.000000	64.297008 
4991.000000	64.642596 
4990.000000	65.008020 
4989.000000	65.363240 
4988.000000	65.679192 
4987.000000	65.931272 
4986.000000	66.101527 
4985.000000	66.180658 
4984.000000	66.168022 
4983.000000	66.071581 
4982.000000	65.907502 
4981.000000	65.698218 
4980.000000	65.470051 
4979.000000	65.249800 
4978.000000	65.063714 
4977.000000	64.932489 
4976.000000	64.869308 
4975.000000	64.876627 
4974.000000	64.945793 
4973.000000	65.058922 
4972.000000	65.191340 
4971.000000	65.318202 
4970.000000	65.417027 
4969.000000	65.475034 
4968.000000	65.488290 
4967.000000	65.465044 
4966.000000	65.421557 
4965.000000	65.378499 
4964.000000	65.355253 
4963.000000	65.364408 
4962.000000	65.409588 
4961.000000	65.482926 
4960.000000	65.568685 
4959.000000	65.645217 
4958.000000	65.691137 
4957.000000	65.691113 
4956.000000	65.640211 
4955.000000	65.543675 
4954.000000	65.415239 
4953.000000	65.273952 
4952.000000	65.138840 
4951.000000	65.024304 
4950.000000	64.937090 
4949.000000	64.875435 
4948.000000	64.831066 
4947.000000	64.793443 
4946.000000	64.753866 
4945.000000	64.707446 
4944.000000	64.656686 
4943.000000	64.608931 
4942.000000	64.576601 
4941.000000	64.571642 
4940.000000	64.603948 
4939.000000	64.676332 
4938.000000	64.785242 
4937.000000	64.920687 
4936.000000	65.067911 
4935.000000	65.210890 
4934.000000	65.334153 
4933.000000	65.426039 
4932.000000	65.479445 
4931.000000	65.492582 
4930.000000	65.468072 
4929.000000	65.411639 
4928.000000	65.331077 
4927.000000	65.234923 
4926.000000	65.131521 
4925.000000	65.028166 
4924.000000	64.931464 
4923.000000	64.846825 
4922.000000	64.778089 
4921.000000	64.727783 
4920.000000	64.697289 
4919.000000	64.687371 
4918.000000	64.697003 
4917.000000	64.724755 
4916.000000	64.767909 
4915.000000	64.823365 
4914.000000	64.886784 
4913.000000	64.953494 
4912.000000	65.017580 
4911.000000	65.073513 
4910.000000	65.116333 
4909.000000	65.142273 
4908.000000	65.149188 
4907.000000	65.137076 
4906.000000	65.108489 
4905.000000	65.067625 
4904.000000	65.020012 
4903.000000	64.971828 
4902.000000	64.929127 
4901.000000	64.896845 
4900.000000	64.878320 
4899.000000	64.874744 
4898.000000	64.885163 
4897.000000	64.907026 
4896.000000	64.936852 
4895.000000	64.970135 
4894.000000	65.002894 
4893.000000	65.032219 
4892.000000	65.057086 
4891.000000	65.077948 
4890.000000	65.096116 
4889.000000	65.113854 
4888.000000	65.131807 
4887.000000	65.148639 
4886.000000	65.159964 
4885.000000	65.159249 
4884.000000	65.139150 
4883.000000	65.094065 
4882.000000	65.022110 
4881.000000	64.926290 
4880.000000	64.815568 
4879.000000	64.703822 
4878.000000	64.607405 
4877.000000	64.541363 
4876.000000	64.517211 
4875.000000	64.540219 
4874.000000	64.608168 
4873.000000	64.711904 
4872.000000	64.837408 
4871.000000	64.968967 
4870.000000	65.091633 
4869.000000	65.194368 
4868.000000	65.270996 
4867.000000	65.320777 
4866.000000	65.347075 
4865.000000	65.355777 
4864.000000	65.353798 
4863.000000	65.346622 
4862.000000	65.338683 
4861.000000	65.330672 
4860.000000	65.321779 
4859.000000	65.308690 
4858.000000	65.288352 
4857.000000	65.257811 
4856.000000	65.215826 
4855.000000	65.163016 
4854.000000	65.102076 
4853.000000	65.037107 
4852.000000	64.972591 
4851.000000	64.912462 
4850.000000	64.859461 
4849.000000	64.814591 
4848.000000	64.777064 
4847.000000	64.744997 
4846.000000	64.716029 
4845.000000	64.687943 
4844.000000	64.659476 
4843.000000	64.630246 
4842.000000	64.601111 
4841.000000	64.573836 
4840.000000	64.550685 
4839.000000	64.533019 
4838.000000	64.521598 
4837.000000	64.515781 
4836.000000	64.514398 
4835.000000	64.515304 
4834.000000	64.516711 
4833.000000	64.516973 
4832.000000	64.515662 
4831.000000	64.513421 
4830.000000	64.511561 
4829.000000	64.511299 
4828.000000	64.513397 
4827.000000	64.518046 
4826.000000	64.524030 
4825.000000	64.528894 
4824.000000	64.529681 
4823.000000	64.523816 
4822.000000	64.509320 
4821.000000	64.485478 
4820.000000	64.453196 
4819.000000	64.415025 
4818.000000	64.374160 
4817.000000	64.334154 
4816.000000	64.298295 
4815.000000	64.269661 
4814.000000	64.250850 
4813.000000	64.244198 
4812.000000	64.251351 
4811.000000	64.273381 
4810.000000	64.310026 
4809.000000	64.359736 
4808.000000	64.419174 
4807.000000	64.484024 
4806.000000	64.549112 
4805.000000	64.609861 
4804.000000	64.662599 
4803.000000	64.705491 
4802.000000	64.738726 
4801.000000	64.764261 
4800.000000	64.784955 
4799.000000	64.803695 
4798.000000	64.822530 
4797.000000	64.842367 
4796.000000	64.863014 
4795.000000	64.883303 
4794.000000	64.901876 
4793.000000	64.917469 
4792.000000	64.929175 
4791.000000	64.936232 
4790.000000	64.937686 
4789.000000	64.932441 
4788.000000	64.919376 
4787.000000	64.897966 
4786.000000	64.868688 
4785.000000	64.833736 
4784.000000	64.796829 
4783.000000	64.762783 
4782.000000	64.736104 
4781.000000	64.719986 
4780.000000	64.715170 
4779.000000	64.719653 
4778.000000	64.729118 
4777.000000	64.737343 
4776.000000	64.738917 
4775.000000	64.730548 
4774.000000	64.712500 
4773.000000	64.688181 
4772.000000	64.663934 
4771.000000	64.647126 
4770.000000	64.643955 
4769.000000	64.657616 
4768.000000	64.687466 
4767.000000	64.729189 
4766.000000	64.775943 
4765.000000	64.820265 
4764.000000	64.855647 
4763.000000	64.878058 
4762.000000	64.886784 
4761.000000	64.884042 
4760.000000	64.874124 
4759.000000	64.861702 
4758.000000	64.850807 
4757.000000	64.843320 
4756.000000	64.838957 
4755.000000	64.834928 
4754.000000	64.828014 
4753.000000	64.814901 
4752.000000	64.793825 
4751.000000	64.765024 
4750.000000	64.730763 
4749.000000	64.695000 
4748.000000	64.662289 
4747.000000	64.636683 
4746.000000	64.620637 
4745.000000	64.614915 
4744.000000	64.618539 
4743.000000	64.629483 
4742.000000	64.645123 
4741.000000	64.663648 
4740.000000	64.684247 
4739.000000	64.707279 
4738.000000	64.733839 
4737.000000	64.765119 
4736.000000	64.801621 
4735.000000	64.842486 
4734.000000	64.885163 
4733.000000	64.926266 
4732.000000	64.961743 
4731.000000	64.988160 
4730.000000	65.002679 
4729.000000	65.004253 
4728.000000	64.993119 
4727.000000	64.971017 
4726.000000	64.940381 
4725.000000	64.904356 
4724.000000	64.865875 
4723.000000	64.827966 
4722.000000	64.792823 
4721.000000	64.761972 
4720.000000	64.736294 
4719.000000	64.716577 
4718.000000	64.703369 
4717.000000	64.697074 
4716.000000	64.697813 
4715.000000	64.705324 
4714.000000	64.718484 
4713.000000	64.735054 
4712.000000	64.751696 
4711.000000	64.764428 
4710.000000	64.769530 
4709.000000	64.764404 
4708.000000	64.748096 
4707.000000	64.721846 
4706.000000	64.689183 
4705.000000	64.654898 
4704.000000	64.623951 
4703.000000	64.600086 
4702.000000	64.584636 
4701.000000	64.576506 
4700.000000	64.572310 
4699.000000	64.568400 
4698.000000	64.561915 
4697.000000	64.552593 
4696.000000	64.543223 
4695.000000	64.538693 
4694.000000	64.544248 
4693.000000	64.563941 
4692.000000	64.598822 
4691.000000	64.646172 
4690.000000	64.699506 
4689.000000	64.750528 
4688.000000	64.790987 
4687.000000	64.814448 
4686.000000	64.817810 
4685.000000	64.801812 
4684.000000	64.770889 
4683.000000	64.731144 
4682.000000	64.689016 
4681.000000	64.649748 
4680.000000	64.616751 
4679.000000	64.591145 
4678.000000	64.572548 
4677.000000	64.560222 
4676.000000	64.553737 
4675.000000	64.553093 
4674.000000	64.559221 
4673.000000	64.573144 
4672.000000	64.596104 
4671.000000	64.628219 
4670.000000	64.668893 
4669.000000	64.716124 
4668.000000	64.766836 
4667.000000	64.817142 
4666.000000	64.863014 
4665.000000	64.900755 
4664.000000	64.927959 
4663.000000	64.943957 
4662.000000	64.950013 
4661.000000	64.949131 
4660.000000	64.945650 
4659.000000	64.944434 
4658.000000	64.949822 
4657.000000	64.964723 
4656.000000	64.990520 
4655.000000	65.026903 
4654.000000	65.071916 
4653.000000	65.122580 
4652.000000	65.175604 
4651.000000	65.228056 
4650.000000	65.277791 
4649.000000	65.323448 
4648.000000	65.364122 
4647.000000	65.399003 
4646.000000	65.427255 
4645.000000	65.447783 
4644.000000	65.459537 
4643.000000	65.461778 
4642.000000	65.454721 
4641.000000	65.439605 
4640.000000	65.419006 
4639.000000	65.395998 
4638.000000	65.374040 
4637.000000	65.355467 
4636.000000	65.341448 
4635.000000	65.331029 
4634.000000	65.321445 
4633.000000	65.308666 
4632.000000	65.288591 
4631.000000	65.258073 
4630.000000	65.216040 
4629.000000	65.164041 
4628.000000	65.106415 
4627.000000	65.048933 
4626.000000	64.997887 
4625.000000	64.958810 
4624.000000	64.935255 
4623.000000	64.927601 
4622.000000	64.933538 
4621.000000	64.948678 
4620.000000	64.968132 
4619.000000	64.986872 
4618.000000	65.001583 
4617.000000	65.011048 
4616.000000	65.016245 
4615.000000	65.019178 
4614.000000	65.022778 
4613.000000	65.029263 
4612.000000	65.040111 
4611.000000	65.055489 
4610.000000	65.074610 
4609.000000	65.095973 
4608.000000	65.118145 
4607.000000	65.140414 
4606.000000	65.162324 
4605.000000	65.183472 
4604.000000	65.203380 
4603.000000	65.221071 
4602.000000	65.234422 
4601.000000	65.240502 
4600.000000	65.236186 
4599.000000	65.219116 
4598.000000	65.188813 
4597.000000	65.146875 
4596.000000	65.097427 
4595.000000	65.046024 
4594.000000	64.998459 
4593.000000	64.959812 
4592.000000	64.933085 
4591.000000	64.919066 
4590.000000	64.916634 
4589.000000	64.923405 
4588.000000	64.936494 
4587.000000	64.953541 
4586.000000	64.973068 
4585.000000	64.994883 
4584.000000	65.019083 
4583.000000	65.046477 
4582.000000	65.077519 
4581.000000	65.112614 
4580.000000	65.151572 
4579.000000	65.193843 
4578.000000	65.238261 
4577.000000	65.283155 
4576.000000	65.326285 
4575.000000	65.364360 
4574.000000	65.393257 
4573.000000	65.408539 
4572.000000	65.406131 
4571.000000	65.383362 
4570.000000	65.339922 
4569.000000	65.278720 
4568.000000	65.205454 
4567.000000	65.128064 
4566.000000	65.055108 
4565.000000	64.994311 
4564.000000	64.950823 
4563.000000	64.926195 
4562.000000	64.918541 
4561.000000	64.923071 
4560.000000	64.934158 
4559.000000	64.946413 
4558.000000	64.956831 
4557.000000	64.964747 
4556.000000	64.972138 
4555.000000	64.982104 
4554.000000	64.997959 
4553.000000	65.021586 
4552.000000	65.052700 
4551.000000	65.088486 
4550.000000	65.124535 
4549.000000	65.155839 
4548.000000	65.177941 
4547.000000	65.188074 
4546.000000	65.185523 
4545.000000	65.171766 
4544.000000	65.149879 
4543.000000	65.123844 
4542.000000	65.097880 
4541.000000	65.075516 
4540.000000	65.059518 
4539.000000	65.050983 
4538.000000	65.050101 
4537.000000	65.055537 
4536.000000	65.064883 
4535.000000	65.075397 
4534.000000	65.083956 
4533.000000	65.088915 
4532.000000	65.089392 
4531.000000	65.087294 
4530.000000	65.086460 
4529.000000	65.092921 
4528.000000	65.113115 
4527.000000	65.152478 
4526.000000	65.213418 
4525.000000	65.294265 
4524.000000	65.389227 
4523.000000	65.488600 
4522.000000	65.580749 
4521.000000	65.655136 
4520.000000	65.704774 
4519.000000	65.727281 
4518.000000	65.725207 
4517.000000	65.706133 
4516.000000	65.679502 
4515.000000	65.654492 
4514.000000	65.636587 
4513.000000	65.626287 
4512.000000	65.619373 
4511.000000	65.608644 
4510.000000	65.587544 
4509.000000	65.553069 
4508.000000	65.507388 
4507.000000	65.458583 
4506.000000	65.417408 
4505.000000	65.394091 
4504.000000	65.395116 
4503.000000	65.420150 
4502.000000	65.462851 
4501.000000	65.512132 
4500.000000	65.555644 
4499.000000	65.583586 
4498.000000	65.588450 
4497.000000	65.566444 
4496.000000	65.516948 
4495.000000	65.442156 
4494.000000	65.344810 
4493.000000	65.228128 
4492.000000	65.096545 
4491.000000	64.956212 
4490.000000	64.815068 
4489.000000	64.682936 
4488.000000	64.571046 
4487.000000	64.489746 
4486.000000	64.446568 
4485.000000	64.444231 
4484.000000	64.477968 
4483.000000	64.537858 
4482.000000	64.610028 
4481.000000	64.680790 
4480.000000	64.737772 
4479.000000	64.774775 
4478.000000	64.790725 
4477.000000	64.792203 
4476.000000	64.788770 
4475.000000	64.795064 
4474.000000	64.826893 
4473.000000	64.897966 
4472.000000	65.015411 
4471.000000	65.181922 
4470.000000	65.396094 
4469.000000	65.644240 
4468.000000	65.903449 
4467.000000	66.157817 
4466.000000	66.399097 
4465.000000	66.622471 
4464.000000	66.824841 
4463.000000	67.006230 
4462.000000	67.163491 
4461.000000	67.286753 
4460.000000	67.360782 
4459.000000	67.371940 
4458.000000	67.309069 
4457.000000	67.177200 
4456.000000	66.988468 
4455.000000	66.754126 
4454.000000	66.490936 
4453.000000	66.225528 
4452.000000	65.984225 
4451.000000	65.787172 
4450.000000	65.647721 
4449.000000	65.580987 
4448.000000	65.576028 
4447.000000	65.600466 
4446.000000	65.585780 
4445.000000	65.442562 
4444.000000	65.057754 
4443.000000	64.321684 
4442.000000	63.151168 
4441.000000	61.517262 
4440.000000	59.463405 
4439.000000	57.108521 
4438.000000	54.630589 
4437.000000	52.240085 
4436.000000	50.130963 
4435.000000	48.463702 
4434.000000	47.313404 
4433.000000	46.706724 
4432.000000	46.609568 
4431.000000	46.990942 
4430.000000	47.808599 
4429.000000	49.062132 
4428.000000	50.761103 
4427.000000	52.927613 
4426.000000	55.538010 
4425.000000	58.516979 
4424.000000	61.706852 
4423.000000	64.886856 
4422.000000	67.797160 
4421.000000	70.187807 
4420.000000	71.869349 
4419.000000	72.752571 
4418.000000	72.873687 
4417.000000	72.370195 
4416.000000	71.450448 
4415.000000	70.347714 
4414.000000	69.271564 
4413.000000	68.370342 
4412.000000	67.709755 
4411.000000	67.294502 
4410.000000	67.077374 
4409.000000	66.990566 
4408.000000	66.967034 
4407.000000	66.965365 
4406.000000	66.973328 
4405.000000	66.987752 
4404.000000	67.018866 
4403.000000	67.066025 
4402.000000	67.124319 
4401.000000	67.175745 
4400.000000	67.198967 
4399.000000	67.175722 
4398.000000	67.095613 
4397.000000	66.966176 
4396.000000	66.801285 
4395.000000	66.612124 
4394.000000	66.414594 
4393.000000	66.228866 
4392.000000	66.069579 
4391.000000	65.941762 
4390.000000	65.849947 
4389.000000	65.799617 
4388.000000	65.787553 
4387.000000	65.803408 
4386.000000	65.835309 
4385.000000	65.871357 
4384.000000	65.902566 
4383.000000	65.923595 
4382.000000	65.928745 
4381.000000	65.914463 
4380.000000	65.881681 
4379.000000	65.834331 
4378.000000	65.777277 
4377.000000	65.716457 
4376.000000	65.657830 
4375.000000	65.606641 
4374.000000	65.567803 
4373.000000	65.544342 
4372.000000	65.537929 
4371.000000	65.547800 
4370.000000	65.570735 
4369.000000	65.601611 
4368.000000	65.633940 
4367.000000	65.661668 
4366.000000	65.679788 
4365.000000	65.686416 
4364.000000	65.683031 
4363.000000	65.673017 
4362.000000	65.660333 
4361.000000	65.648770 
4360.000000	65.640759 
4359.000000	65.636157 
4358.000000	65.631937 
4357.000000	65.623831 
4356.000000	65.606784 
4355.000000	65.576696 
4354.000000	65.531158 
4353.000000	65.470051 
4352.000000	65.395736 
4351.000000	65.312290 
4350.000000	65.225076 
4349.000000	65.139245 
4348.000000	65.059614 
4347.000000	64.989829 
4346.000000	64.932823 
4345.000000	64.890217 
4344.000000	64.863514 
4343.000000	64.853525 
4342.000000	64.861392 
4341.000000	64.887237 
4340.000000	64.931392 
4339.000000	64.993309 
4338.000000	65.071463 
4337.000000	65.162086 
4336.000000	65.259265 
4335.000000	65.355014 
4334.000000	65.439915 
4333.000000	65.504646 
4332.000000	65.541672 
4331.000000	65.546703 
4330.000000	65.520596 
4329.000000	65.468883 
4328.000000	65.400815 
4327.000000	65.326976 
4326.000000	65.258240 
4325.000000	65.202784 
4324.000000	65.165376 
4323.000000	65.145969 
4322.000000	65.141534 
4321.000000	65.145921 
4320.000000	65.152287 
4319.000000	65.153789 
4318.000000	65.145754 
4317.000000	65.125441 
4316.000000	65.091919 
4315.000000	65.046143 
4314.000000	64.989924 
4313.000000	64.926242 
4312.000000	64.858484 
4311.000000	64.790725 
4310.000000	64.727354 
4309.000000	64.673185 
4308.000000	64.633035 
4307.000000	64.610981 
4306.000000	64.609789 
4305.000000	64.631032 
4304.000000	64.674496 
4303.000000	64.737510 
4302.000000	64.815044 
4301.000000	64.900231 
4300.000000	64.985179 
4299.000000	65.061259 
4298.000000	65.121078 
4297.000000	65.159177 
4296.000000	65.173411 
4295.000000	65.165805 
4294.000000	65.141582 
4293.000000	65.107893 
4292.000000	65.072393 
4291.000000	65.042471 
4290.000000	65.022659 
4289.000000	65.014100 
4288.000000	65.014719 
4287.000000	65.020275 
4286.000000	65.025496 
4285.000000	65.025973 
4284.000000	65.019440 
4283.000000	65.006327 
4282.000000	64.989328 
4281.000000	64.972352 
4280.000000	64.959049 
4279.000000	64.951562 
4278.000000	64.949870 
4277.000000	64.951729 
4276.000000	64.953303 
4275.000000	64.950656 
4274.000000	64.940595 
4273.000000	64.922404 
4272.000000	64.897370 
4271.000000	64.869475 
4270.000000	64.844274 
4269.000000	64.827871 
4268.000000	64.825034 
4267.000000	64.838433 
4266.000000	64.867711 
4265.000000	64.909911 
4264.000000	64.959836 
4263.000000	65.011286 
4262.000000	65.058493 
4261.000000	65.097165 
4260.000000	65.125274 
4259.000000	65.142631 
4258.000000	65.150356 
4257.000000	65.149879 
4256.000000	65.142488 
4255.000000	65.128564 
4254.000000	65.107440 
4253.000000	65.078067 
4252.000000	65.039730 
4251.000000	64.992618 
4250.000000	64.938426 
4249.000000	64.880514 
4248.000000	64.823603 
4247.000000	64.772534 
4246.000000	64.731884 
4245.000000	64.704704 
4244.000000	64.692497 
4243.000000	64.694714 
4242.000000	64.709544 
4241.000000	64.734053 
4240.000000	64.765310 
4239.000000	64.800262 
4238.000000	64.836645 
4237.000000	64.872574 
4236.000000	64.906668 
4235.000000	64.937448 
4234.000000	64.963555 
4233.000000	64.983701 
4232.000000	64.996623 
4231.000000	65.001583 
4230.000000	64.998197 
4229.000000	64.986920 
4228.000000	64.968943 
4227.000000	64.946293 
4226.000000	64.921307 
4225.000000	64.896559 
4224.000000	64.874267 
4223.000000	64.856243 
4222.000000	64.843606 
4221.000000	64.836907 
4220.000000	64.836025 
4219.000000	64.840602 
4218.000000	64.849758 
4217.000000	64.862680 
4216.000000	64.878273 
4215.000000	64.895963 
4214.000000	64.914965 
4213.000000	64.935398 
4212.000000	64.957642 
4211.000000	64.982700 
4210.000000	65.011644 
4209.000000	65.045094 
4208.000000	65.083336 
4207.000000	65.125179 
4206.000000	65.168118 
4205.000000	65.208292 
4204.000000	65.241384 
4203.000000	65.262985 
4202.000000	65.269732 
4201.000000	65.259981 
4200.000000	65.234255 
4199.000000	65.195274 
4198.000000	65.147566 
4197.000000	65.096402 
4196.000000	65.046596 
4195.000000	65.002155 
4194.000000	64.965534 
4193.000000	64.937257 
4192.000000	64.916372 
4191.000000	64.901328 
4190.000000	64.890146 
4189.000000	64.880919 
4188.000000	64.871859 
4187.000000	64.861679 
4186.000000	64.849472 
4185.000000	64.834499 
4184.000000	64.816451 
4183.000000	64.794945 
4182.000000	64.770221 
4181.000000	64.743304 
4180.000000	64.715766 
4179.000000	64.689540 
4178.000000	64.666771 
4177.000000	64.649677 
4176.000000	64.639854 
4175.000000	64.637851 
4174.000000	64.643359 
4173.000000	64.655280 
4172.000000	64.671993 
4171.000000	64.691734 
4170.000000	64.712882 
4169.000000	64.734530 
4168.000000	64.756369 
4167.000000	64.778876 
4166.000000	64.803004 
4165.000000	64.829778 
4164.000000	64.860224 
4163.000000	64.894747 
4162.000000	64.932823 
4161.000000	64.972496 
4160.000000	65.011239 
4159.000000	65.045189 
4158.000000	65.070199 
4157.000000	65.081954 
4156.000000	65.077495 
4155.000000	65.055346 
4154.000000	65.016317 
4153.000000	64.963531 
4152.000000	64.902305 
4151.000000	64.839053 
4150.000000	64.780282 
4149.000000	64.731431 
4148.000000	64.696145 
4147.000000	64.675974 
4146.000000	64.670586 
4145.000000	64.677953 
4144.000000	64.694952 
4143.000000	64.717817 
4142.000000	64.742875 
4141.000000	64.766359 
4140.000000	64.785361 
4139.000000	64.797806 
4138.000000	64.803218 
4137.000000	64.802098 
4136.000000	64.796328 
4135.000000	64.788651 
4134.000000	64.781928 
4133.000000	64.779019 
4132.000000	64.781880 
4131.000000	64.791345 
4130.000000	64.806747 
4129.000000	64.826393 
4128.000000	64.847421 
4127.000000	64.866805 
4126.000000	64.881324 
4125.000000	64.888334 
4124.000000	64.885687 
4123.000000	64.872121 
4122.000000	64.847421 
4121.000000	64.812493 
4120.000000	64.769458 
4119.000000	64.721441 
4118.000000	64.672684 
4117.000000	64.627909 
4116.000000	64.591479 
4115.000000	64.566659 
4114.000000	64.554929 
4113.000000	64.556145 
4112.000000	64.568209 
4111.000000	64.588236 
4110.000000	64.612865 
4109.000000	64.639568 
4108.000000	64.666771 
4107.000000	64.694452 
4106.000000	64.723324 
4105.000000	64.754343 
4104.000000	64.787697 
4103.000000	64.822483 
4102.000000	64.856338 
4101.000000	64.885759 
4100.000000	64.906978 
4099.000000	64.916801 
4098.000000	64.913868 
4097.000000	64.898633 
4096.000000	64.873671 
4095.000000	64.842772 
4094.000000	64.810442 
4093.000000	64.780640 
4092.000000	64.756202 
4091.000000	64.738559 
4090.000000	64.727711 
4089.000000	64.722824 
4088.000000	64.722871 
4087.000000	64.726996 
4086.000000	64.734983 
4085.000000	64.747142 
4084.000000	64.763879 
4083.000000	64.785289 
4082.000000	64.810800 
4081.000000	64.839076 
4080.000000	64.868307 
4079.000000	64.896154 
4078.000000	64.920425 
4077.000000	64.939737 
4076.000000	64.953756 
4075.000000	64.962959 
4074.000000	64.968705 
4073.000000	64.972853 
4072.000000	64.977264 
4071.000000	64.983272 
4070.000000	64.991497 
4069.000000	65.002059 
4068.000000	65.014028 
4067.000000	65.025949 
4066.000000	65.035891 
4065.000000	65.042018 
4064.000000	65.042710 
4063.000000	65.037107 
4062.000000	65.025115 
4061.000000	65.007567 
4060.000000	64.986205 
4059.000000	64.963293 
4058.000000	64.940929 
4057.000000	64.920592 
4056.000000	64.902853 
4055.000000	64.887213 
4054.000000	64.872360 
4053.000000	64.856457 
4052.000000	64.838147 
4051.000000	64.816927 
4050.000000	64.793634 
4049.000000	64.770293 
4048.000000	64.749622 
4047.000000	64.734172 
4046.000000	64.725303 
4045.000000	64.722800 
4044.000000	64.724564 
4043.000000	64.727187 
4042.000000	64.726805 
4041.000000	64.720273 
4040.000000	64.706277 
4039.000000	64.685606 
4038.000000	64.660954 
4037.000000	64.636301 
4036.000000	64.615869 
4035.000000	64.603066 
4034.000000	64.599633 
4033.000000	64.605259 
4032.000000	64.617824 
4031.000000	64.634394 
4030.000000	64.651799 
4029.000000	64.667510 
4028.000000	64.680242 
4027.000000	64.689779 
4026.000000	64.696979 
4025.000000	64.702844 
4024.000000	64.708757 
4023.000000	64.715623 
4022.000000	64.724326 
4021.000000	64.735341 
4020.000000	64.749169 
4019.000000	64.766478 
4018.000000	64.788007 
4017.000000	64.814329 
4016.000000	64.845728 
4015.000000	64.882016 
4014.000000	64.922237 
4013.000000	64.964795 
4012.000000	65.007519 
4011.000000	65.047764 
4010.000000	65.083146 
4009.000000	65.111613 
4008.000000	65.131807 
4007.000000	65.143227 
4006.000000	65.146374 
4005.000000	65.142464 
4004.000000	65.133357 
4003.000000	65.120983 
4002.000000	65.107631 
4001.000000	65.094876 
4000.000000	65.083837 
3999.000000	65.074157 
3998.000000	65.064930 
3997.000000	65.054106 
3996.000000	65.039300 
3995.000000	65.018081 
3994.000000	64.988613 
3993.000000	64.950227 
3992.000000	64.903712 
3991.000000	64.851498 
3990.000000	64.797163 
3989.000000	64.745306 
3988.000000	64.700746 
3987.000000	64.667701 
3986.000000	64.649009 
3985.000000	64.645528 
3984.000000	64.656090 
3983.000000	64.677500 
3982.000000	64.705419 
3981.000000	64.735007 
3980.000000	64.762353 
3979.000000	64.784765 
3978.000000	64.801478 
3977.000000	64.813423 
3976.000000	64.822912 
3975.000000	64.832901 
3974.000000	64.845895 
3973.000000	64.863348 
3972.000000	64.885020 
3971.000000	64.909434 
3970.000000	64.933753 
3969.000000	64.954686 
3968.000000	64.969110 
3967.000000	64.975166 
3966.000000	64.972162 
3965.000000	64.960789 
3964.000000	64.942884 
3963.000000	64.921212 
3962.000000	64.898991 
3961.000000	64.879226 
3960.000000	64.864540 
3959.000000	64.856672 
3958.000000	64.856457 
3957.000000	64.863801 
3956.000000	64.877820 
3955.000000	64.897155 
3954.000000	64.920401 
3953.000000	64.946317 
3952.000000	64.974045 
3951.000000	65.002965 
3950.000000	65.032672 
3949.000000	65.062355 
3948.000000	65.090560 
3947.000000	65.115189 
3946.000000	65.133690 
3945.000000	65.143823 
3944.000000	65.143895 
3943.000000	65.134119 
3942.000000	65.116643 
3941.000000	65.095543 
3940.000000	65.076303 
3939.000000	65.064024 
3938.000000	65.062594 
3937.000000	65.072751 
3936.000000	65.092158 
3935.000000	65.115189 
3934.000000	65.134572 
3933.000000	65.143060 
3932.000000	65.135312 
3931.000000	65.109300 
3930.000000	65.066790 
3929.000000	65.013098 
3928.000000	64.955854 
3927.000000	64.903068 
3926.000000	64.861321 
3925.000000	64.834356 
3924.000000	64.822506 
3923.000000	64.823341 
3922.000000	64.832615 
3921.000000	64.845466 
3920.000000	64.857649 
3919.000000	64.866638 
3918.000000	64.871859 
3917.000000	64.873838 
3916.000000	64.874386 
3915.000000	64.875078 
3914.000000	64.877104 
3913.000000	64.880800 
3912.000000	64.885377 
3911.000000	64.889264 
3910.000000	64.890694 
3909.000000	64.888286 
3908.000000	64.881491 
3907.000000	64.870762 
3906.000000	64.857840 
3905.000000	64.845514 
3904.000000	64.836573 
3903.000000	64.833188 
3902.000000	64.836549 
3901.000000	64.846301 
3900.000000	64.860224 
3899.000000	64.874577 
3898.000000	64.884948 
3897.000000	64.887285 
3896.000000	64.878463 
3895.000000	64.857625 
3894.000000	64.826226 
3893.000000	64.788341 
3892.000000	64.749407 
3891.000000	64.715576 
3890.000000	64.692306 
3889.000000	64.683341 
3888.000000	64.689755 
3887.000000	64.709997 
3886.000000	64.740157 
3885.000000	64.775180 
3884.000000	64.809679 
3883.000000	64.839720 
3882.000000	64.863014 
3881.000000	64.880108 
3880.000000	64.893746 
3879.000000	64.908170 
3878.000000	64.927792 
3877.000000	64.955925 
3876.000000	64.993691 
3875.000000	65.039491 
3874.000000	65.089201 
3873.000000	65.136981 
3872.000000	65.176606 
3871.000000	65.202879 
3870.000000	65.212845 
3869.000000	65.206408 
3868.000000	65.186452 
3867.000000	65.158295 
3866.000000	65.128469 
3865.000000	65.103697 
3864.000000	65.089106 
3863.000000	65.088176 
3862.000000	65.101146 
3861.000000	65.125751 
3860.000000	65.157103 
3859.000000	65.189361 
3858.000000	65.216279 
3857.000000	65.232586 
3856.000000	65.234875 
3855.000000	65.222215 
3854.000000	65.196061 
3853.000000	65.159821 
3852.000000	65.118169 
3851.000000	65.075850 
3850.000000	65.036988 
3849.000000	65.004491 
3848.000000	64.979290 
3847.000000	64.960527 
3846.000000	64.946103 
3845.000000	64.933633 
3844.000000	64.920711 
3843.000000	64.905929 
3842.000000	64.889407 
3841.000000	64.872980 
3840.000000	64.859127 
3839.000000	64.850974 
3838.000000	64.851236 
3837.000000	64.861345 
3836.000000	64.881062 
3835.000000	64.908194 
3834.000000	64.939045 
3833.000000	64.969491 
3832.000000	64.995622 
3831.000000	65.015006 
3830.000000	65.027070 
3829.000000	65.033197 
3828.000000	65.036249 
3827.000000	65.038967 
3826.000000	65.043210 
3825.000000	65.048670 
3824.000000	65.053081 
3823.000000	65.052461 
3822.000000	65.042376 
3821.000000	65.019655 
3820.000000	64.983510 
3819.000000	64.936280 
3818.000000	64.883446 
3817.000000	64.832472 
3816.000000	64.791345 
3815.000000	64.766383 
3814.000000	64.760899 
3813.000000	64.774394 
3812.000000	64.802598 
3811.000000	64.838910 
3810.000000	64.875721 
3809.000000	64.906263 
3808.000000	64.926075 
3807.000000	64.932966 
3806.000000	64.927840 
3805.000000	64.913439 
3804.000000	64.894366 
3803.000000	64.875316 
3802.000000	64.860725 
3801.000000	64.853978 
3800.000000	64.856529 
3799.000000	64.868283 
3798.000000	64.886999 
3797.000000	64.909172 
3796.000000	64.930319 
3795.000000	64.946126 
3794.000000	64.953279 
3793.000000	64.950013 
3792.000000	64.936685 
3791.000000	64.915752 
3790.000000	64.891171 
3789.000000	64.867544 
3788.000000	64.848947 
3787.000000	64.838051 
3786.000000	64.835596 
3785.000000	64.840912 
3784.000000	64.852023 
3783.000000	64.866900 
3782.000000	64.884233 
3781.000000	64.903736 
3780.000000	64.925980 
3779.000000	64.952087 
3778.000000	64.982628 
3777.000000	65.017199 
3776.000000	65.053844 
3775.000000	65.089225 
3774.000000	65.119266 
3773.000000	65.139818 
3772.000000	65.147781 
3771.000000	65.141725 
3770.000000	65.122485 
3769.000000	65.092682 
3768.000000	65.056371 
3767.000000	65.018129 
3766.000000	64.982223 
3765.000000	64.952111 
3764.000000	64.929842 
3763.000000	64.916086 
3762.000000	64.910030 
3761.000000	64.909720 
3760.000000	64.912319 
3759.000000	64.914679 
3758.000000	64.914298 
3757.000000	64.909243 
3756.000000	64.899682 
3755.000000	64.886856 
3754.000000	64.874005 
3753.000000	64.865112 
3752.000000	64.864349 
3751.000000	64.874839 
3750.000000	64.897632 
3749.000000	64.931440 
3748.000000	64.972496 
3747.000000	65.015220 
3746.000000	65.053391 
3745.000000	65.081691 
3744.000000	65.096592 
3743.000000	65.097212 
3742.000000	65.085148 
3741.000000	65.064096 
3740.000000	65.038585 
3739.000000	65.013146 
3738.000000	64.991140 
3737.000000	64.974498 
3736.000000	64.964008 
3735.000000	64.959549 
3734.000000	64.960551 
3733.000000	64.966177 
3732.000000	64.976000 
3731.000000	64.989519 
3730.000000	65.005850 
3729.000000	65.023493 
3728.000000	65.040230 
3727.000000	65.053653 
3726.000000	65.061497 
3725.000000	65.062379 
3724.000000	65.056419 
3723.000000	65.045213 
3722.000000	65.031504 
3721.000000	65.018343 
3720.000000	65.008187 
3719.000000	65.002131 
3718.000000	64.999628 
3717.000000	64.998579 
3716.000000	64.995980 
3715.000000	64.989447 
3714.000000	64.978194 
3713.000000	64.963483 
3712.000000	64.948320 
3711.000000	64.936971 
3710.000000	64.933824 
3709.000000	64.941740 
3708.000000	64.961314 
3707.000000	64.990496 
3706.000000	65.024971 
3705.000000	65.059685 
3704.000000	65.089678 
3703.000000	65.111494 
3702.000000	65.123867 
3701.000000	65.127706 
3700.000000	65.125751 
3699.000000	65.121221 
3698.000000	65.117073 
3697.000000	65.115118 
3696.000000	65.115547 
3695.000000	65.117406 
3694.000000	65.118837 
3693.000000	65.118145 
3692.000000	65.114068 
3691.000000	65.106296 
3690.000000	65.094971 
3689.000000	65.080881 
3688.000000	65.064573 
3687.000000	65.046215 
3686.000000	65.025377 
3685.000000	65.001511 
3684.000000	64.974427 
3683.000000	64.944767 
3682.000000	64.914226 
3681.000000	64.885616 
3680.000000	64.862275 
3679.000000	64.847731 
3678.000000	64.844417 
3677.000000	64.853477 
3676.000000	64.874339 
3675.000000	64.904832 
3674.000000	64.941620 
3673.000000	64.980506 
3672.000000	65.017461 
3671.000000	65.048980 
3670.000000	65.072417 
3669.000000	65.086531 
3668.000000	65.091347 
3667.000000	65.088224 
3666.000000	65.079498 
3665.000000	65.067768 
3664.000000	65.055727 
3663.000000	65.045452 
3662.000000	65.038251 
3661.000000	65.034317 
3660.000000	65.032768 
3659.000000	65.031814 
3658.000000	65.029430 
3657.000000	65.023589 
3656.000000	65.012693 
3655.000000	64.996170 
3654.000000	64.974403 
3653.000000	64.948606 
3652.000000	64.920806 
3651.000000	64.893412 
3650.000000	64.868950 
3649.000000	64.849638 
3648.000000	64.837455 
3647.000000	64.833569 
3646.000000	64.838504 
3645.000000	64.851999 
3644.000000	64.872908 
3643.000000	64.899325 
3642.000000	64.928913 
3641.000000	64.959287 
3640.000000	64.988303 
3639.000000	65.014076 
3638.000000	65.035653 
3637.000000	65.052938 
3636.000000	65.066528 
3635.000000	65.077257 
3634.000000	65.085887 
3633.000000	65.092873 
3632.000000	65.098071 
3631.000000	65.100765 
3630.000000	65.100002 
3629.000000	65.094876 
3628.000000	65.085148 
3627.000000	65.071392 
3626.000000	65.055108 
3625.000000	65.038371 
3624.000000	65.023684 
3623.000000	65.013217 
3622.000000	65.008449 
3621.000000	65.009880 
3620.000000	65.017056 
3619.000000	65.028643 
3618.000000	65.042829 
3617.000000	65.057682 
3616.000000	65.071773 
3615.000000	65.083837 
3614.000000	65.093159 
3613.000000	65.099191 
3612.000000	65.101289 
3611.000000	65.098714 
3610.000000	65.090751 
3609.000000	65.076589 
3608.000000	65.055704 
3607.000000	65.028357 
3606.000000	64.995813 
3605.000000	64.960289 
3604.000000	64.924836 
3603.000000	64.893102 
3602.000000	64.868664 
3601.000000	64.854240 
3600.000000	64.851260 
3599.000000	64.859151 
3598.000000	64.875626 
3597.000000	64.897012 
3596.000000	64.918804 
3595.000000	64.936733 
3594.000000	64.947962 
3593.000000	64.951157 
3592.000000	64.947390 
3591.000000	64.939236 
3590.000000	64.930367 
3589.000000	64.924597 
3588.000000	64.924836 
3587.000000	64.932227 
3586.000000	64.946007 
3585.000000	64.963626 
3584.000000	64.981484 
3583.000000	64.995932 
3582.000000	65.004134 
3581.000000	65.004730 
3580.000000	64.997959 
3579.000000	64.985489 
3578.000000	64.969801 
3577.000000	64.953589 
3576.000000	64.939045 
3575.000000	64.927411 
3574.000000	64.919209 
3573.000000	64.914011 
3572.000000	64.910936 
3571.000000	64.908981 
3570.000000	64.907479 
3569.000000	64.906287 
3568.000000	64.905667 
3567.000000	64.906215 
3566.000000	64.908480 
3565.000000	64.912700 
3564.000000	64.918637 
3563.000000	64.925289 
3562.000000	64.931249 
3561.000000	64.934563 
3560.000000	64.933395 
3559.000000	64.926266 
3558.000000	64.912486 
3557.000000	64.892506 
3556.000000	64.867973 
3555.000000	64.841389 
3554.000000	64.815640 
3553.000000	64.793610 
3552.000000	64.777588 
3551.000000	64.768671 
3550.000000	64.766764 
3549.000000	64.771032 
3548.000000	64.780282 
3547.000000	64.793229 
3546.000000	64.808917 
3545.000000	64.826440 
3544.000000	64.845013 
3543.000000	64.863824 
3542.000000	64.882111 
3541.000000	64.898514 
3540.000000	64.911770 
3539.000000	64.920830 
3538.000000	64.925193 
3537.000000	64.925050 
3536.000000	64.921259 
3535.000000	64.915227 
3534.000000	64.908361 
3533.000000	64.901924 
3532.000000	64.896321 
3531.000000	64.891386 
3530.000000	64.886546 
3529.000000	64.880919 
3528.000000	64.873838 
3527.000000	64.865136 
3526.000000	64.854669 
3525.000000	64.842438 
3524.000000	64.828443 
3523.000000	64.812541 
3522.000000	64.794731 
3521.000000	64.775514 
3520.000000	64.756155 
3519.000000	64.738726 
3518.000000	64.726138 
3517.000000	64.721393 
3516.000000	64.726924 
3515.000000	64.743685 
3514.000000	64.770889 
3513.000000	64.805698 
3512.000000	64.843583 
3511.000000	64.879083 
3510.000000	64.907145 
3509.000000	64.923834 
3508.000000	64.927387 
3507.000000	64.918422 
3506.000000	64.899563 
3505.000000	64.874696 
3504.000000	64.848351 
3503.000000	64.824724 
3502.000000	64.806890 
3501.000000	64.796710 
3500.000000	64.794921 
3499.000000	64.801049 
3498.000000	64.813852 
3497.000000	64.831519 
3496.000000	64.852094 
3495.000000	64.873504 
3494.000000	64.893889 
3493.000000	64.911341 
3492.000000	64.924454 
3491.000000	64.932250 
3490.000000	64.934492 
3489.000000	64.931845 
3488.000000	64.925742 
3487.000000	64.918494 
3486.000000	64.912462 
3485.000000	64.910030 
3484.000000	64.912962 
3483.000000	64.921927 
3482.000000	64.936423 
3481.000000	64.954733 
3480.000000	64.974641 
3479.000000	64.993691 
3478.000000	65.009903 
3477.000000	65.022087 
3476.000000	65.029835 
3475.000000	65.033626 
3474.000000	65.034270 
3473.000000	65.032553 
3472.000000	65.028595 
3471.000000	65.021705 
3470.000000	65.010595 
3469.000000	64.993739 
3468.000000	64.969825 
3467.000000	64.938282 
3466.000000	64.899969 
3465.000000	64.857196 
3464.000000	64.813590 
3463.000000	64.773416 
3462.000000	64.740753 
3461.000000	64.718818 
3460.000000	64.709186 
3459.000000	64.711380 
3458.000000	64.722990 
3457.000000	64.740109 
3456.000000	64.758300 
3455.000000	64.773488 
3454.000000	64.782476 
3453.000000	64.783930 
3452.000000	64.778232 
3451.000000	64.767503 
3450.000000	64.754772 
3449.000000	64.743471 
3448.000000	64.736461 
3447.000000	64.735746 
3446.000000	64.741992 
3445.000000	64.754819 
3444.000000	64.773035 
3443.000000	64.795017 
3442.000000	64.819192 
3441.000000	64.844417 
3440.000000	64.870071 
3439.000000	64.895939 
3438.000000	64.922070 
3437.000000	64.948749 
3436.000000	64.975857 
3435.000000	65.003061 
3434.000000	65.029263 
3433.000000	65.052890 
3432.000000	65.071702 
3431.000000	65.083551 
3430.000000	65.086460 
3429.000000	65.079450 
3428.000000	65.062713 
3427.000000	65.037894 
3426.000000	65.008068 
3425.000000	64.977312 
3424.000000	64.949989 
3423.000000	64.930033 
3422.000000	64.919948 
3421.000000	64.920544 
3420.000000	64.930582 
3419.000000	64.947104 
3418.000000	64.965915 
3417.000000	64.982724 
3416.000000	64.993739 
3415.000000	64.996528 
3414.000000	64.990162 
3413.000000	64.975380 
3412.000000	64.954042 
3411.000000	64.928722 
3410.000000	64.902162 
3409.000000	64.876723 
3408.000000	64.854240 
3407.000000	64.835429 
3406.000000	64.820146 
3405.000000	64.807581 
3404.000000	64.796590 
3403.000000	64.786148 
3402.000000	64.775538 
3401.000000	64.764809 
3400.000000	64.754509 
3399.000000	64.745879 
3398.000000	64.740228 
3397.000000	64.738774 
3396.000000	64.741945 
3395.000000	64.749217 
3394.000000	64.758992 
3393.000000	64.768815 
3392.000000	64.775967 
3391.000000	64.778089 
3390.000000	64.773869 
3389.000000	64.763283 
3388.000000	64.747905 
3387.000000	64.730191 
3386.000000	64.713215 
3385.000000	64.699840 
3384.000000	64.692378 
3383.000000	64.692163 
3382.000000	64.699697 
3381.000000	64.714908 
3380.000000	64.737272 
3379.000000	64.765906 
3378.000000	64.799547 
3377.000000	64.836740 
3376.000000	64.875316 
3375.000000	64.912629 
3374.000000	64.945626 
3373.000000	64.971256 
3372.000000	64.987039 
3371.000000	64.991664 
3370.000000	64.985299 
3369.000000	64.969682 
3368.000000	64.947748 
3367.000000	64.922928 
3366.000000	64.898324 
3365.000000	64.876389 
3364.000000	64.858579 
3363.000000	64.845228 
3362.000000	64.835929 
3361.000000	64.830207 
3360.000000	64.827752 
3359.000000	64.828634 
3358.000000	64.833140 
3357.000000	64.841556 
3356.000000	64.853787 
3355.000000	64.869379 
3354.000000	64.887070 
3353.000000	64.905071 
3352.000000	64.921784 
3351.000000	64.935731 
3350.000000	64.946413 
3349.000000	64.953780 
3348.000000	64.958477 
3347.000000	64.961242 
3346.000000	64.962744 
3345.000000	64.963221 
3344.000000	64.962649 
3343.000000	64.960646 
3342.000000	64.957070 
3341.000000	64.952230 
3340.000000	64.947247 
3339.000000	64.943742 
3338.000000	64.943504 
3337.000000	64.947867 
3336.000000	64.957261 
3335.000000	64.970827 
3334.000000	64.986348 
3333.000000	65.000891 
3332.000000	65.011119 
3331.000000	65.014219 
3330.000000	65.008497 
3329.000000	64.993691 
3328.000000	64.970898 
3327.000000	64.942240 
3326.000000	64.910650 
3325.000000	64.879441 
3324.000000	64.851808 
3323.000000	64.830565 
3322.000000	64.817619 
3321.000000	64.814066 
3320.000000	64.819645 
3319.000000	64.832901 
3318.000000	64.851379 
3317.000000	64.871811 
3316.000000	64.890718 
3315.000000	64.904665 
3314.000000	64.911103 
3313.000000	64.908790 
3312.000000	64.897942 
3311.000000	64.880275 
3310.000000	64.858651 
3309.000000	64.836454 
3308.000000	64.816808 
3307.000000	64.801931 
3306.000000	64.792704 
3305.000000	64.788556 
3304.000000	64.787840 
3303.000000	64.788246 
3302.000000	64.787435 
3301.000000	64.783740 
3300.000000	64.776492 
3299.000000	64.766407 
3298.000000	64.755082 
3297.000000	64.744806 
3296.000000	64.737701 
3295.000000	64.735436 
3294.000000	64.738512 
3293.000000	64.746260 
3292.000000	64.757251 
3291.000000	64.769434 
3290.000000	64.780783 
3289.000000	64.789557 
3288.000000	64.794874 
3287.000000	64.796543 
3286.000000	64.794826 
3285.000000	64.790296 
3284.000000	64.783501 
3283.000000	64.775061 
3282.000000	64.765620 
3281.000000	64.756131 
3280.000000	64.747786 
3279.000000	64.742064 
3278.000000	64.740538 
3277.000000	64.744615 
3276.000000	64.754915 
3275.000000	64.770984 
3274.000000	64.791035 
3273.000000	64.812088 
3272.000000	64.830660 
3271.000000	64.843320 
3270.000000	64.847564 
3269.000000	64.842438 
3268.000000	64.829039 
3267.000000	64.810132 
3266.000000	64.789915 
3265.000000	64.772987 
3264.000000	64.763474 
3263.000000	64.764118 
3262.000000	64.775443 
3261.000000	64.796137 
3260.000000	64.822721 
3259.000000	64.850735 
3258.000000	64.875078 
3257.000000	64.891409 
3256.000000	64.896631 
3255.000000	64.889621 
3254.000000	64.871096 
3253.000000	64.843678 
3252.000000	64.811205 
3251.000000	64.778041 
3250.000000	64.748334 
3249.000000	64.725351 
3248.000000	64.711070 
3247.000000	64.705920 
3246.000000	64.708876 
3245.000000	64.717864 
3244.000000	64.730119 
3243.000000	64.742922 
3242.000000	64.753866 
3241.000000	64.761447 
3240.000000	64.764833 
3239.000000	64.764189 
3238.000000	64.760279 
3237.000000	64.754390 
3236.000000	64.747953 
3235.000000	64.742112 
3234.000000	64.737844 
3233.000000	64.735555 
3232.000000	64.735126 
3231.000000	64.735889 
3230.000000	64.736986 
3229.000000	64.737534 
3228.000000	64.736771 
3227.000000	64.734244 
3226.000000	64.729785 
3225.000000	64.723491 
3224.000000	64.715480 
3223.000000	64.705896 
3222.000000	64.695000 
3221.000000	64.682888 
3220.000000	64.669823 
3219.000000	64.656352 
3218.000000	64.643645 
3217.000000	64.633202 
3216.000000	64.627289 
3215.000000	64.627957 
3214.000000	64.637017 
3213.000000	64.655256 
3212.000000	64.682388 
3211.000000	64.716625 
3210.000000	64.754939 
3209.000000	64.793896 
3208.000000	64.829754 
3207.000000	64.859437 
3206.000000	64.880752 
3205.000000	64.892506 
3204.000000	64.894747 
3203.000000	64.888668 
3202.000000	64.876413 
3201.000000	64.860820 
3200.000000	64.845180 
3199.000000	64.832782 
3198.000000	64.826655 
3197.000000	64.828753 
3196.000000	64.839792 
3195.000000	64.858770 
3194.000000	64.882850 
3193.000000	64.907884 
3192.000000	64.928960 
3191.000000	64.941549 
3190.000000	64.942407 
3189.000000	64.930438 
3188.000000	64.906930 
3187.000000	64.875459 
3186.000000	64.841008 
3185.000000	64.808940 
3184.000000	64.783883 
3183.000000	64.768862 
3182.000000	64.765095 
3181.000000	64.771699 
3180.000000	64.786195 
3179.000000	64.805293 
3178.000000	64.825820 
3177.000000	64.844846 
3176.000000	64.860177 
3175.000000	64.870667 
3174.000000	64.876174 
3173.000000	64.877223 
3172.000000	64.874601 
3171.000000	64.869475 
3170.000000	64.862942 
3169.000000	64.856266 
3168.000000	64.850449 
3167.000000	64.846396 
3166.000000	64.844608 
3165.000000	64.845275 
3164.000000	64.848256 
3163.000000	64.853024 
3162.000000	64.858794 
3161.000000	64.864540 
3160.000000	64.869475 
3159.000000	64.872932 
3158.000000	64.874458 
3157.000000	64.873909 
3156.000000	64.871215 
3155.000000	64.866161 
3154.000000	64.858555 
3153.000000	64.848351 
3152.000000	64.835619 
3151.000000	64.820647 
3150.000000	64.804029 
3149.000000	64.786791 
3148.000000	64.770245 
3147.000000	64.755535 
3146.000000	64.743518 
3145.000000	64.734387 
3144.000000	64.727926 
3143.000000	64.723682 
3142.000000	64.720964 
3141.000000	64.719200 
3140.000000	64.718365 
3139.000000	64.718818 
3138.000000	64.721155 
3137.000000	64.725804 
3136.000000	64.732813 
3135.000000	64.741587 
3134.000000	64.750719 
3133.000000	64.758753 
3132.000000	64.764332 
3131.000000	64.766979 
3130.000000	64.767193 
3129.000000	64.766430 
3128.000000	64.766812 
3127.000000	64.770579 
3126.000000	64.779305 
3125.000000	64.793348 
3124.000000	64.811658 
3123.000000	64.832043 
3122.000000	64.851689 
3121.000000	64.867639 
3120.000000	64.877462 
3119.000000	64.879894 
3118.000000	64.874935 
3117.000000	64.863419 
3116.000000	64.846754 
3115.000000	64.826440 
3114.000000	64.804005 
3113.000000	64.780688 
3112.000000	64.757299 
3111.000000	64.734816 
3110.000000	64.714074 
3109.000000	64.695835 
3108.000000	64.680838 
3107.000000	64.669370 
3106.000000	64.661407 
3105.000000	64.656758 
3104.000000	64.655089 
3103.000000	64.655709 
3102.000000	64.658284 
3101.000000	64.662623 
3100.000000	64.668703 
3099.000000	64.676403 
3098.000000	64.685606 
3097.000000	64.696049 
3096.000000	64.707374 
3095.000000	64.719033 
3094.000000	64.730548 
3093.000000	64.741706 
3092.000000	64.752531 
3091.000000	64.763402 
3090.000000	64.774727 
3089.000000	64.786720 
3088.000000	64.799332 
3087.000000	64.811968 
3086.000000	64.823579 
3085.000000	64.832854 
3084.000000	64.838671 
3083.000000	64.840173 
3082.000000	64.837169 
3081.000000	64.829897 
3080.000000	64.819407 
3079.000000	64.806938 
3078.000000	64.793586 
3077.000000	64.780068 
3076.000000	64.766788 
3075.000000	64.753913 
3074.000000	64.741325 
3073.000000	64.729046 
3072.000000	64.717602 
3071.000000	64.707899 
3070.000000	64.701294 
3069.000000	64.699339 
3068.000000	64.703130 
3067.000000	64.713215 
3066.000000	64.729166 
3065.000000	64.749526 
3064.000000	64.772129 
3063.000000	64.794278 
3062.000000	64.813399 
3061.000000	64.827418 
3060.000000	64.835000 
3059.000000	64.835739 
3058.000000	64.830136 
3057.000000	64.819288 
3056.000000	64.804720 
3055.000000	64.788293 
3054.000000	64.772057 
3053.000000	64.758014 
3052.000000	64.747810 
3051.000000	64.742898 
3050.000000	64.743924 
3049.000000	64.750885 
3048.000000	64.762806 
3047.000000	64.777708 
3046.000000	64.793109 
3045.000000	64.806199 
3044.000000	64.814567 
3043.000000	64.816784 
3042.000000	64.812684 
3041.000000	64.803671 
3040.000000	64.792418 
3039.000000	64.782238 
3038.000000	64.776611 
3037.000000	64.778161 
3036.000000	64.788198 
3035.000000	64.806079 
3034.000000	64.829587 
3033.000000	64.855074 
3032.000000	64.878344 
3031.000000	64.895296 
3030.000000	64.902782 
3029.000000	64.899349 
3028.000000	64.885139 
3027.000000	64.862108 
3026.000000	64.833378 
3025.000000	64.802646 
3024.000000	64.773368 
3023.000000	64.747977 
3022.000000	64.727973 
3021.000000	64.713215 
3020.000000	64.702653 
3019.000000	64.694595 
3018.000000	64.687228 
3017.000000	64.679265 
3016.000000	64.670133 
3015.000000	64.660429 
3014.000000	64.651322 
3013.000000	64.644646 
3012.000000	64.642405 
3011.000000	64.646244 
3010.000000	64.656925 
3009.000000	64.674258 
3008.000000	64.697122 
3007.000000	64.723515 
3006.000000	64.751005 
3005.000000	64.777255 
3004.000000	64.800453 
3003.000000	64.819407 
3002.000000	64.833641 
3001.000000	64.843440 
3000.000000	64.849305 
2999.000000	64.851856 
2998.000000	64.851307 
2997.000000	64.847660 
2996.000000	64.840555 
2995.000000	64.829778 
2994.000000	64.815330 
2993.000000	64.797687 
2992.000000	64.778017 
2991.000000	64.758181 
2990.000000	64.740061 
2989.000000	64.725446 
2988.000000	64.715528 
2987.000000	64.710450 
2986.000000	64.709544 
2985.000000	64.711236 
2984.000000	64.713501 
2983.000000	64.714193 
2982.000000	64.711570 
2981.000000	64.704418 
2980.000000	64.692425 
2979.000000	64.676070 
2978.000000	64.656543 
2977.000000	64.635539 
2976.000000	64.615011 
2975.000000	64.596748 
2974.000000	64.582204 
2973.000000	64.572143 
2972.000000	64.566683 
2971.000000	64.565300 
2970.000000	64.566850 
2969.000000	64.569902 
2968.000000	64.572930 
2967.000000	64.574718 
2966.000000	64.574313 
2965.000000	64.571428 
2964.000000	64.566278 
2963.000000	64.559555 
2962.000000	64.552235 
2961.000000	64.545321 
2960.000000	64.539599 
2959.000000	64.535498 
2958.000000	64.533066 
2957.000000	64.532041 
2956.000000	64.531874 
2955.000000	64.532041 
2954.000000	64.532041 
2953.000000	64.531683 
2952.000000	64.531278 
2951.000000	64.531350 
2950.000000	64.532852 
2949.000000	64.536547 
2948.000000	64.543175 
2947.000000	64.553022 
2946.000000	64.566016 
2945.000000	64.581394 
2944.000000	64.598274 
2943.000000	64.615654 
2942.000000	64.632391 
2941.000000	64.647793 
2940.000000	64.660906 
2939.000000	64.670801 
2938.000000	64.676141 
2937.000000	64.675617 
2936.000000	64.667725 
2935.000000	64.651179 
2934.000000	64.625358 
2933.000000	64.590811 
2932.000000	64.549517 
2931.000000	64.504671 
2930.000000	64.460515 
2929.000000	64.421534 
2928.000000	64.391708 
2927.000000	64.373421 
2926.000000	64.367222 
2925.000000	64.371228 
2924.000000	64.381814 
2923.000000	64.394211 
2922.000000	64.403343 
2921.000000	64.405298 
2920.000000	64.397335 
2919.000000	64.379167 
2918.000000	64.352178 
2917.000000	64.319992 
2916.000000	64.286899 
2915.000000	64.257788 
2914.000000	64.236879 
2913.000000	64.227247 
2912.000000	64.230251 
2911.000000	64.245462 
2910.000000	64.270782 
2909.000000	64.303135 
2908.000000	64.339160 
2907.000000	64.375519 
2906.000000	64.409351 
2905.000000	64.438629 
2904.000000	64.461946 
2903.000000	64.478611 
2902.000000	64.488291 
2901.000000	64.491248 
2900.000000	64.488220 
2899.000000	64.480662 
2898.000000	64.470553 
2897.000000	64.460539 
2896.000000	64.453387 
2895.000000	64.451885 
2894.000000	64.458203 
2893.000000	64.473533 
2892.000000	64.497756 
2891.000000	64.529538 
2890.000000	64.566516 
2889.000000	64.605903 
2888.000000	64.644908 
2887.000000	64.681077 
2886.000000	64.712405 
2885.000000	64.737319 
2884.000000	64.754390 
2883.000000	64.762854 
2882.000000	64.762020 
2881.000000	64.751601 
2880.000000	64.731955 
2879.000000	64.704203 
2878.000000	64.670205 
2877.000000	64.632391 
2876.000000	64.593434 
2875.000000	64.555859 
2874.000000	64.521598 
2873.000000	64.491868 
2872.000000	64.467000 
2871.000000	64.446759 
2870.000000	64.430594 
2869.000000	64.418148 
2868.000000	64.409089 
2867.000000	64.403462 
2866.000000	64.401102 
2865.000000	64.401984 
2864.000000	64.405369 
2863.000000	64.410424 
2862.000000	64.416027 
2861.000000	64.421319 
2860.000000	64.425849 
2859.000000	64.429616 
2858.000000	64.433097 
2857.000000	64.436888 
2856.000000	64.441347 
2855.000000	64.446401 
2854.000000	64.451479 
2853.000000	64.455723 
2852.000000	64.458155 
2851.000000	64.458346 
2850.000000	64.456486 
2849.000000	64.453625 
2848.000000	64.451479 
2847.000000	64.451766 
2846.000000	64.455652 
2845.000000	64.463472 
2844.000000	64.474415 
2843.000000	64.486479 
2842.000000	64.497041 
2841.000000	64.503693 
2840.000000	64.504837 
2839.000000	64.499783 
2838.000000	64.489293 
2837.000000	64.475226 
2836.000000	64.460277 
2835.000000	64.447116 
2834.000000	64.438223 
2833.000000	64.435172 
2832.000000	64.438700 
2831.000000	64.448642 
2830.000000	64.463996 
2829.000000	64.483284 
2828.000000	64.504647 
2827.000000	64.526200 
2826.000000	64.545917 
2825.000000	64.561891 
2824.000000	64.572572 
2823.000000	64.576864 
2822.000000	64.574384 
2821.000000	64.565682 
2820.000000	64.552187 
2819.000000	64.536190 
2818.000000	64.520454 
2817.000000	64.507770 
2816.000000	64.500856 
2815.000000	64.501523 
2814.000000	64.510631 
2813.000000	64.527750 
2812.000000	64.551568 
2811.000000	64.579677 
2810.000000	64.609360 
2809.000000	64.637660 
2808.000000	64.662051 
2807.000000	64.680528 
2806.000000	64.691972 
2805.000000	64.695930 
2804.000000	64.692664 
2803.000000	64.682936 
2802.000000	64.668035 
2801.000000	64.649391 
2800.000000	64.628720 
2799.000000	64.607858 
2798.000000	64.588713 
2797.000000	64.573192 
2796.000000	64.563012 
2795.000000	64.559435 
2794.000000	64.563012 
2793.000000	64.573144 
2792.000000	64.588427 
2791.000000	64.606332 
2790.000000	64.623904 
2789.000000	64.638185 
2788.000000	64.646983 
2787.000000	64.649200 
2786.000000	64.645290 
2785.000000	64.636898 
2784.000000	64.626765 
2783.000000	64.617872 
2782.000000	64.612555 
2781.000000	64.612412 
2780.000000	64.617586 
2779.000000	64.627051 
2778.000000	64.638686 
2777.000000	64.650225 
2776.000000	64.659452 
2775.000000	64.665174 
2774.000000	64.667057 
2773.000000	64.665770 
2772.000000	64.662575 
2771.000000	64.658808 
2770.000000	64.655447 
2769.000000	64.652657 
2768.000000	64.649724 
2767.000000	64.645528 
2766.000000	64.638924 
2765.000000	64.629268 
2764.000000	64.616870 
2763.000000	64.603090 
2762.000000	64.589858 
2761.000000	64.579510 
2760.000000	64.573836 
2759.000000	64.573693 
2758.000000	64.578843 
2757.000000	64.587688 
2756.000000	64.598035 
2755.000000	64.607357 
2754.000000	64.613771 
2753.000000	64.616513 
2752.000000	64.615941 
2751.000000	64.613723 
2750.000000	64.612078 
2749.000000	64.613366 
2748.000000	64.619374 
2747.000000	64.630889 
2746.000000	64.647555 
2745.000000	64.667654 
2744.000000	64.688777 
2743.000000	64.707970 
2742.000000	64.722323 
2741.000000	64.729547 
2740.000000	64.728331 
2739.000000	64.718818 
2738.000000	64.702486 
2737.000000	64.682006 
2736.000000	64.660739 
2735.000000	64.642071 
2734.000000	64.628839 
2733.000000	64.622640 
2732.000000	64.623713 
2731.000000	64.630985 
2730.000000	64.642524 
2729.000000	64.655876 
2728.000000	64.668822 
2727.000000	64.679789 
2726.000000	64.687991 
2725.000000	64.693427 
2724.000000	64.696574 
2723.000000	64.697813 
2722.000000	64.697360 
2721.000000	64.695000 
2720.000000	64.690065 
2719.000000	64.681982 
2718.000000	64.670348 
2717.000000	64.655494 
2716.000000	64.638257 
2715.000000	64.619946 
2714.000000	64.601922 
2713.000000	64.585494 
2712.000000	64.571619 
2711.000000	64.560842 
2710.000000	64.553141 
2709.000000	64.548134 
2708.000000	64.545059 
2707.000000	64.543128 
2706.000000	64.541292 
2705.000000	64.538812 
2704.000000	64.534974 
2703.000000	64.529609 
2702.000000	64.522743 
2701.000000	64.514851 
2700.000000	64.506816 
2699.000000	64.499735 
2698.000000	64.494776 
2697.000000	64.492869 
2696.000000	64.494681 
2695.000000	64.500403 
2694.000000	64.509725 
2693.000000	64.522075 
2692.000000	64.536499 
2691.000000	64.551925 
2690.000000	64.567494 
2689.000000	64.582419 
2688.000000	64.595913 
2687.000000	64.607334 
2686.000000	64.615941 
2685.000000	64.621043 
2684.000000	64.621973 
2683.000000	64.618206 
2682.000000	64.609694 
2681.000000	64.596772 
2680.000000	64.580106 
2679.000000	64.560818 
2678.000000	64.540266 
2677.000000	64.519739 
2676.000000	64.500260 
2675.000000	64.482569 
2674.000000	64.467000 
2673.000000	64.453482 
2672.000000	64.441752 
2671.000000	64.431715 
2670.000000	64.423489 
2669.000000	64.417576 
2668.000000	64.414763 
2667.000000	64.415788 
2666.000000	64.420986 
2665.000000	64.429831 
2664.000000	64.440917 
2663.000000	64.452195 
2662.000000	64.461135 
2661.000000	64.465475 
2660.000000	64.463829 
2659.000000	64.456129 
2658.000000	64.443564 
2657.000000	64.428305 
2656.000000	64.413094 
2655.000000	64.400601 
2654.000000	64.392781 
2653.000000	64.390587 
2652.000000	64.393901 
2651.000000	64.401650 
2650.000000	64.412331 
2649.000000	64.424347 
2648.000000	64.436340 
2647.000000	64.447498 
2646.000000	64.457297 
2645.000000	64.465570 
2644.000000	64.472126 
2643.000000	64.476799 
2642.000000	64.479231 
2641.000000	64.479017 
2640.000000	64.476060 
2639.000000	64.470672 
2638.000000	64.463615 
2637.000000	64.456152 
2636.000000	64.449930 
2635.000000	64.446663 
2634.000000	64.447951 
2633.000000	64.454817 
2632.000000	64.467358 
2631.000000	64.484834 
2630.000000	64.505457 
2629.000000	64.526915 
2628.000000	64.546561 
2627.000000	64.562034 
2626.000000	64.571571 
2625.000000	64.574313 
2624.000000	64.570355 
2623.000000	64.560556 
2622.000000	64.546561 
2621.000000	64.530277 
2620.000000	64.513897 
2619.000000	64.499616 
2618.000000	64.489245 
2617.000000	64.484333 
2616.000000	64.485669 
2615.000000	64.493513 
2614.000000	64.507055 
2613.000000	64.524722 
2612.000000	64.543819 
2611.000000	64.561176 
2610.000000	64.573574 
2609.000000	64.578247 
2608.000000	64.573645 
2607.000000	64.559698 
2606.000000	64.538002 
2605.000000	64.511370 
2604.000000	64.483237 
2603.000000	64.456844 
2602.000000	64.434456 
2601.000000	64.417219 
2600.000000	64.405083 
2599.000000	64.397215 
2598.000000	64.392614 
2597.000000	64.390349 
2596.000000	64.389944 
2595.000000	64.391541 
2594.000000	64.395356 
2593.000000	64.401531 
2592.000000	64.409637 
2591.000000	64.418911 
2590.000000	64.427852 
2589.000000	64.435124 
2588.000000	64.439606 
2587.000000	64.440751 
2586.000000	64.439129 
2585.000000	64.436054 
2584.000000	64.433312 
2583.000000	64.432644 
2582.000000	64.435267 
2581.000000	64.441585 
2580.000000	64.451098 
2579.000000	64.462566 
2578.000000	64.474320 
2577.000000	64.484596 
2576.000000	64.491963 
2575.000000	64.495468 
2574.000000	64.495015 
2573.000000	64.491105 
2572.000000	64.484906 
2571.000000	64.477968 
2570.000000	64.471817 
2569.000000	64.467501 
2568.000000	64.465427 
2567.000000	64.465498 
2566.000000	64.467096 
2565.000000	64.469408 
2564.000000	64.471817 
2563.000000	64.474010 
2562.000000	64.475965 
2561.000000	64.478158 
2560.000000	64.481258 
2559.000000	64.485645 
2558.000000	64.491534 
2557.000000	64.498877 
2556.000000	64.507055 
2555.000000	64.515352 
2554.000000	64.522647 
2553.000000	64.527869 
2552.000000	64.530158 
2551.000000	64.529013 
2550.000000	64.524221 
2549.000000	64.516115 
2548.000000	64.505290 
2547.000000	64.492750 
2546.000000	64.479613 
2545.000000	64.467072 
2544.000000	64.456033 
2543.000000	64.447331 
2542.000000	64.441418 
2541.000000	64.438390 
2540.000000	64.438080 
2539.000000	64.439940 
2538.000000	64.443230 
2537.000000	64.446973 
2536.000000	64.450001 
2535.000000	64.451146 
2534.000000	64.449477 
2533.000000	64.444279 
2532.000000	64.435458 
2531.000000	64.423561 
2530.000000	64.409780 
2529.000000	64.395928 
2528.000000	64.384150 
2527.000000	64.376640 
2526.000000	64.375281 
2525.000000	64.381217 
2524.000000	64.394521 
2523.000000	64.414048 
2522.000000	64.437723 
2521.000000	64.462637 
2520.000000	64.485931 
2519.000000	64.505100 
2518.000000	64.518642 
2517.000000	64.526295 
2516.000000	64.528751 
2515.000000	64.527368 
2514.000000	64.523482 
2513.000000	64.518117 
2512.000000	64.511561 
2511.000000	64.503479 
2510.000000	64.492893 
2509.000000	64.479184 
2508.000000	64.462113 
2507.000000	64.442372 
2506.000000	64.421486 
2505.000000	64.401483 
2504.000000	64.384508 
2503.000000	64.372158 
2502.000000	64.365196 
2501.000000	64.363217 
2500.000000	64.365172 
2499.000000	64.369678 
2498.000000	64.375543 
2497.000000	64.382195 
2496.000000	64.389753 
2495.000000	64.398860 
2494.000000	64.410257 
2493.000000	64.424419 
2492.000000	64.441132 
2491.000000	64.459276 
2490.000000	64.477205 
2489.000000	64.492774 
2488.000000	64.504313 
2487.000000	64.510536 
2486.000000	64.511346 
2485.000000	64.507246 
2484.000000	64.499568 
2483.000000	64.489865 
2482.000000	64.479446 
2481.000000	64.469218 
2480.000000	64.459562 
2479.000000	64.450335 
2478.000000	64.441347 
2477.000000	64.432406 
2476.000000	64.423608 
2475.000000	64.415407 
2474.000000	64.408493 
2473.000000	64.403843 
2472.000000	64.402198 
2471.000000	64.404034 
2470.000000	64.409327 
2469.000000	64.417815 
2468.000000	64.428782 
2467.000000	64.441251 
2466.000000	64.454293 
2465.000000	64.467048 
2464.000000	64.478826 
2463.000000	64.489078 
2462.000000	64.497280 
2461.000000	64.502930 
2460.000000	64.505457 
2459.000000	64.504170 
2458.000000	64.498305 
2457.000000	64.487528 
2456.000000	64.471769 
2455.000000	64.451551 
2454.000000	64.427971 
2453.000000	64.402866 
2452.000000	64.378452 
2451.000000	64.357161 
2450.000000	64.340996 
2449.000000	64.331293 
2448.000000	64.328336 
2447.000000	64.331388 
2446.000000	64.338684 
2445.000000	64.348030 
2444.000000	64.357066 
2443.000000	64.363813 
2442.000000	64.367079 
2441.000000	64.366626 
2440.000000	64.363169 
2439.000000	64.358162 
2438.000000	64.353346 
2437.000000	64.350175 
2436.000000	64.349818 
2435.000000	64.352154 
2434.000000	64.356327 
2433.000000	64.360451 
2432.000000	64.362430 
2431.000000	64.360332 
2430.000000	64.353013 
2429.000000	64.340639 
2428.000000	64.324712 
2427.000000	64.307880 
2426.000000	64.293241 
2425.000000	64.283680 
2424.000000	64.281058 
2423.000000	64.285469 
2422.000000	64.295172 
2421.000000	64.307212 
2420.000000	64.317893 
2419.000000	64.324092 
2418.000000	64.323854 
2417.000000	64.317202 
2416.000000	64.306020 
2415.000000	64.293599 
2414.000000	64.283609 
2413.000000	64.278936 
2412.000000	64.281010 
2411.000000	64.289474 
2410.000000	64.302325 
2409.000000	64.316415 
2408.000000	64.328694 
2407.000000	64.336872 
2406.000000	64.340162 
2405.000000	64.339232 
2404.000000	64.336204 
2403.000000	64.333534 
2402.000000	64.333748 
2401.000000	64.338207 
2400.000000	64.346909 
2399.000000	64.358544 
2398.000000	64.370751 
2397.000000	64.380860 
2396.000000	64.386510 
2395.000000	64.386296 
2394.000000	64.380002 
2393.000000	64.368605 
2392.000000	64.354085 
2391.000000	64.338684 
2390.000000	64.324593 
2389.000000	64.313292 
2388.000000	64.305448 
2387.000000	64.300632 
2386.000000	64.297771 
2385.000000	64.295148 
2384.000000	64.290904 
2383.000000	64.283609 
2382.000000	64.272356 
2381.000000	64.257168 
2380.000000	64.238905 
2379.000000	64.219284 
2378.000000	64.200329 
2377.000000	64.184165 
2376.000000	64.172458 
2375.000000	64.166212 
2374.000000	64.165377 
2373.000000	64.169001 
2372.000000	64.175462 
2371.000000	64.182758 
2370.000000	64.189004 
2369.000000	64.192891 
2368.000000	64.193749 
2367.000000	64.191937 
2366.000000	64.188361 
2365.000000	64.184379 
2364.000000	64.181399 
2363.000000	64.180660 
2362.000000	64.182806 
2361.000000	64.187812 
2360.000000	64.195084 
2359.000000	64.203596 
2358.000000	64.212107 
2357.000000	64.219379 
2356.000000	64.224338 
2355.000000	64.226317 
2354.000000	64.225077 
2353.000000	64.220881 
2352.000000	64.214587 
2351.000000	64.207291 
2350.000000	64.200329 
2349.000000	64.194869 
2348.000000	64.191746 
2347.000000	64.191436 
2346.000000	64.193868 
2345.000000	64.198637 
2344.000000	64.205026 
2343.000000	64.212322 
2342.000000	64.219832 
2341.000000	64.227080 
2340.000000	64.233851 
2339.000000	64.240097 
2338.000000	64.245986 
2337.000000	64.251685 
2336.000000	64.257287 
2335.000000	64.262771 
2334.000000	64.267849 
2333.000000	64.272022 
2332.000000	64.274668 
2331.000000	64.275097 
2330.000000	64.272594 
2329.000000	64.266633 
2328.000000	64.257073 
2327.000000	64.244389 
2326.000000	64.229631 
2325.000000	64.214372 
2324.000000	64.200592 
2323.000000	64.189958 
2322.000000	64.183759 
2321.000000	64.182615 
2320.000000	64.186000 
2319.000000	64.192938 
2318.000000	64.201951 
2317.000000	64.211750 
2316.000000	64.221382 
2315.000000	64.230465 
2314.000000	64.239239 
2313.000000	64.248156 
2312.000000	64.257526 
2311.000000	64.267230 
2310.000000	64.276576 
2309.000000	64.284420 
2308.000000	64.289355 
2307.000000	64.290332 
2306.000000	64.287114 
2305.000000	64.280438 
2304.000000	64.271807 
2303.000000	64.263200 
2302.000000	64.256572 
2301.000000	64.253234 
2300.000000	64.253282 
2299.000000	64.255714 
2298.000000	64.258503 
2297.000000	64.259243 
2296.000000	64.255881 
2295.000000	64.246892 
2294.000000	64.232158 
2293.000000	64.212703 
2292.000000	64.190721 
2291.000000	64.168858 
2290.000000	64.149856 
2289.000000	64.135909 
2288.000000	64.128351 
2287.000000	64.127397 
2286.000000	64.132189 
2285.000000	64.141130 
2284.000000	64.152050 
2283.000000	64.162778 
2282.000000	64.171409 
2281.000000	64.176583 
2280.000000	64.177703 
2279.000000	64.175057 
2278.000000	64.169597 
2277.000000	64.162826 
2276.000000	64.156365 
2275.000000	64.151573 
2274.000000	64.149427 
2273.000000	64.150309 
2272.000000	64.153885 
2271.000000	64.159297 
2270.000000	64.165377 
2269.000000	64.171123 
2268.000000	64.175796 
2267.000000	64.179182 
2266.000000	64.181566 
2265.000000	64.183712 
2264.000000	64.186263 
2263.000000	64.189791 
2262.000000	64.194393 
2261.000000	64.199638 
2260.000000	64.204692 
2259.000000	64.208340 
2258.000000	64.209532 
2257.000000	64.207506 
2256.000000	64.201927 
2255.000000	64.193081 
2254.000000	64.181852 
2253.000000	64.169764 
2252.000000	64.158797 
2251.000000	64.150881 
2250.000000	64.147782 
2249.000000	64.150738 
2248.000000	64.160180 
2247.000000	64.175534 
2246.000000	64.195418 
2245.000000	64.217400 
2244.000000	64.238762 
2243.000000	64.256715 
2242.000000	64.269161 
2241.000000	64.274883 
2240.000000	64.273786 
2239.000000	64.266872 
2238.000000	64.255881 
2237.000000	64.242911 
2236.000000	64.229631 
2235.000000	64.217209 
2234.000000	64.206004 
2233.000000	64.195775 
2232.000000	64.185738 
2231.000000	64.175319 
2230.000000	64.164137 
2229.000000	64.152383 
2228.000000	64.140653 
2227.000000	64.129781 
2226.000000	64.120650 
2225.000000	64.113950 
2224.000000	64.110064 
2223.000000	64.109134 
2222.000000	64.111304 
2221.000000	64.116811 
2220.000000	64.126157 
2219.000000	64.139771 
2218.000000	64.157891 
2217.000000	64.180135 
2216.000000	64.205217 
2215.000000	64.231085 
2214.000000	64.254879 
2213.000000	64.273786 
2212.000000	64.285445 
2211.000000	64.288520 
2210.000000	64.283156 
2209.000000	64.270639 
2208.000000	64.253520 
2207.000000	64.234638 
2206.000000	64.216446 
2205.000000	64.200639 
2204.000000	64.187908 
2203.000000	64.177942 
2202.000000	64.169859 
2201.000000	64.162755 
2200.000000	64.156031 
2199.000000	64.149665 
2198.000000	64.143991 
2197.000000	64.139485 
2196.000000	64.136719 
2195.000000	64.135670 
2194.000000	64.136028 
2193.000000	64.137101 
2192.000000	64.138174 
2191.000000	64.138913 
2190.000000	64.139485 
2189.000000	64.140582 
2188.000000	64.143204 
2187.000000	64.148378 
2186.000000	64.156818 
2185.000000	64.168357 
2184.000000	64.182186 
2183.000000	64.196896 
2182.000000	64.210748 
2181.000000	64.222121 
2180.000000	64.229655 
2179.000000	64.232563 
2178.000000	64.230585 
2177.000000	64.224028 
2176.000000	64.213538 
2175.000000	64.200091 
2174.000000	64.184927 
2173.000000	64.169645 
2172.000000	64.155960 
2171.000000	64.145588 
2170.000000	64.140105 
2169.000000	64.140534 
2168.000000	64.146876 
2167.000000	64.158201 
2166.000000	64.172339 
2165.000000	64.186573 
2164.000000	64.198064 
2163.000000	64.204716 
2162.000000	64.205265 
2161.000000	64.199972 
2160.000000	64.190316 
2159.000000	64.178705 
2158.000000	64.167642 
2157.000000	64.159274 
2156.000000	64.154911 
2155.000000	64.154696 
2154.000000	64.157962 
2153.000000	64.163279 
2152.000000	64.169287 
2151.000000	64.174699 
2150.000000	64.178776 
2149.000000	64.181232 
2148.000000	64.182353 
2147.000000	64.182591 
2146.000000	64.182281 
2145.000000	64.181542 
2144.000000	64.180207 
2143.000000	64.178037 
2142.000000	64.174628 
2141.000000	64.169764 
2140.000000	64.163303 
2139.000000	64.155292 
2138.000000	64.146018 
2137.000000	64.135813 
2136.000000	64.125323 
2135.000000	64.115262 
2134.000000	64.106559 
2133.000000	64.100527 
2132.000000	64.098453 
2131.000000	64.101481 
2130.000000	64.109802 
2129.000000	64.122533 
2128.000000	64.137578 
2127.000000	64.151716 
2126.000000	64.161252 
2125.000000	64.162826 
2124.000000	64.154410 
2123.000000	64.136004 
2122.000000	64.109945 
2121.000000	64.080452 
2120.000000	64.052677 
2119.000000	64.031553 
2118.000000	64.020705 
2117.000000	64.021539 
2116.000000	64.032840 
2115.000000	64.051318 
2114.000000	64.072442 
2113.000000	64.091730 
2112.000000	64.105796 
2111.000000	64.112997 
2110.000000	64.113521 
2109.000000	64.109015 
2108.000000	64.101791 
2107.000000	64.094114 
2106.000000	64.087510 
2105.000000	64.082574 
2104.000000	64.079093 
2103.000000	64.076375 
2102.000000	64.073729 
2101.000000	64.070868 
2100.000000	64.068126 
2099.000000	64.066219 
2098.000000	64.066123 
2097.000000	64.068508 
2096.000000	64.073443 
2095.000000	64.080047 
2094.000000	64.086961 
2093.000000	64.092302 
2092.000000	64.094305 
2091.000000	64.091634 
2090.000000	64.083695 
2089.000000	64.070796 
2088.000000	64.054274 
2087.000000	64.035797 
2086.000000	64.017343 
2085.000000	64.000749 
2084.000000	63.987660 
2083.000000	63.979077 
2082.000000	63.975310 
2081.000000	63.976025 
2080.000000	63.980317 
2079.000000	63.986897 
2078.000000	63.994479 
2077.000000	64.001417 
2076.000000	64.006543 
2075.000000	64.008951 
2074.000000	64.008522 
2073.000000	64.005732 
2072.000000	64.001655 
2071.000000	63.997626 
2070.000000	63.995218 
2069.000000	63.995623 
2068.000000	63.999509 
2067.000000	64.006757 
2066.000000	64.016675 
2065.000000	64.028048 
2064.000000	64.039492 
2063.000000	64.049983 
2062.000000	64.058876 
2061.000000	64.066219 
2060.000000	64.072442 
2059.000000	64.078187 
2058.000000	64.083981 
2057.000000	64.089584 
2056.000000	64.094209 
2055.000000	64.096307 
2054.000000	64.094257 
2053.000000	64.086556 
2052.000000	64.072370 
2051.000000	64.052009 
2050.000000	64.027047 
2049.000000	64.000153 
2048.000000	63.974523 
2047.000000	63.953280 
2046.000000	63.938784 
2045.000000	63.932228 
2044.000000	63.933324 
2043.000000	63.940429 
2042.000000	63.951063 
2041.000000	63.962388 
2040.000000	63.971853 
2039.000000	63.977766 
2038.000000	63.979363 
2037.000000	63.976836 
2036.000000	63.971042 
2035.000000	63.963031 
2034.000000	63.953804 
2033.000000	63.943886 
2032.000000	63.933539 
2031.000000	63.922691 
2030.000000	63.911199 
2029.000000	63.899111 
2028.000000	63.886952 
2027.000000	63.875579 
2026.000000	63.866329 
2025.000000	63.860273 
2024.000000	63.858532 
2023.000000	63.861346 
2022.000000	63.868546 
2021.000000	63.879036 
2020.000000	63.891458 
2019.000000	63.904166 
2018.000000	63.915729 
2017.000000	63.925313 
2016.000000	63.932681 
2015.000000	63.938093 
2014.000000	63.942170 
2013.000000	63.945436 
2012.000000	63.948225 
2011.000000	63.950419 
2010.000000	63.951516 
2009.000000	63.950824 
2008.000000	63.947844 
2007.000000	63.942503 
2006.000000	63.935375 
2005.000000	63.927459 
2004.000000	63.920283 
2003.000000	63.915419 
2002.000000	63.914084 
2001.000000	63.916754 
2000.000000	63.923025 
1999.000000	63.931703 
1998.000000	63.941025 
1997.000000	63.949036 
1996.000000	63.954234 
1995.000000	63.955521 
1994.000000	63.952612 
1993.000000	63.945865 
1992.000000	63.936185 
1991.000000	63.924694 
1990.000000	63.912510 
1989.000000	63.900446 
1988.000000	63.888931 
1987.000000	63.877987 
1986.000000	63.867330 
1985.000000	63.856768 
1984.000000	63.846182 
1983.000000	63.835978 
1982.000000	63.827109 
1981.000000	63.820862 
1980.000000	63.818454 
1979.000000	63.820767 
1978.000000	63.828063 
1977.000000	63.839697 
1976.000000	63.854169 
1975.000000	63.869380 
1974.000000	63.883161 
1973.000000	63.893651 
1972.000000	63.899755 
1971.000000	63.901543 
1970.000000	63.899898 
1969.000000	63.896441 
1968.000000	63.892960 
1967.000000	63.890767 
1966.000000	63.890433 
1965.000000	63.891744 
1964.000000	63.893938 
1963.000000	63.896155 
1962.000000	63.897919 
1961.000000	63.899183 
1960.000000	63.900279 
1959.000000	63.901948 
1958.000000	63.904666 
1957.000000	63.908410 
1956.000000	63.912701 
1955.000000	63.916611 
1954.000000	63.919162 
1953.000000	63.919615 
1952.000000	63.917732 
1951.000000	63.913989 
1950.000000	63.909339 
1949.000000	63.905048 
1948.000000	63.902211 
1947.000000	63.901638 
1946.000000	63.903474 
1945.000000	63.907408 
1944.000000	63.912963 
1943.000000	63.919734 
1942.000000	63.927459 
1941.000000	63.936042 
1940.000000	63.945531 
1939.000000	63.955760 
1938.000000	63.966131 
1937.000000	63.975596 
1936.000000	63.982534 
1935.000000	63.985371 
1934.000000	63.982868 
1933.000000	63.974499 
1932.000000	63.960719 
1931.000000	63.943028 
1930.000000	63.923597 
1929.000000	63.904857 
1928.000000	63.888812 
1927.000000	63.876748 
1926.000000	63.868999 
1925.000000	63.865089 
1924.000000	63.863945 
1923.000000	63.864326 
1922.000000	63.865089 
1921.000000	63.865375 
1920.000000	63.864660 
1919.000000	63.862681 
1918.000000	63.859510 
1917.000000	63.855314 
1916.000000	63.850808 
1915.000000	63.846755 
1914.000000	63.844156 
1913.000000	63.844060 
1912.000000	63.847279 
1911.000000	63.854193 
1910.000000	63.864278 
1909.000000	63.876438 
1908.000000	63.888788 
1907.000000	63.899183 
1906.000000	63.905739 
1905.000000	63.907241 
1904.000000	63.903594 
1903.000000	63.895726 
1902.000000	63.885378 
1901.000000	63.874554 
1900.000000	63.864946 
1899.000000	63.857746 
1898.000000	63.853025 
1897.000000	63.850283 
1896.000000	63.848590 
1895.000000	63.846921 
1894.000000	63.844466 
1893.000000	63.840866 
1892.000000	63.836169 
1891.000000	63.830947 
1890.000000	63.825678 
1889.000000	63.820815 
1888.000000	63.816404 
1887.000000	63.812184 
1886.000000	63.807678 
1885.000000	63.802313 
1884.000000	63.795781 
1883.000000	63.788104 
1882.000000	63.779735 
1881.000000	63.771510 
1880.000000	63.764429 
1879.000000	63.759279 
1878.000000	63.756632 
1877.000000	63.756513 
1876.000000	63.758444 
1875.000000	63.761663 
1874.000000	63.765430 
1873.000000	63.769030 
1872.000000	63.771986 
1871.000000	63.774180 
1870.000000	63.775777 
1869.000000	63.777160 
1868.000000	63.778734 
1867.000000	63.780713 
1866.000000	63.783073 
1865.000000	63.785696 
1864.000000	63.788318 
1863.000000	63.790941 
1862.000000	63.793444 
1861.000000	63.796114 
1860.000000	63.798999 
1859.000000	63.802051 
1858.000000	63.805079 
1857.000000	63.807439 
1856.000000	63.808441 
1855.000000	63.807368 
1854.000000	63.803672 
1853.000000	63.797354 
1852.000000	63.788676 
1851.000000	63.778209 
1850.000000	63.766598 
1849.000000	63.754487 
1848.000000	63.742303 
1847.000000	63.730311 
1846.000000	63.718748 
1845.000000	63.707852 
1844.000000	63.698148 
1843.000000	63.690471 
1842.000000	63.685870 
1841.000000	63.685274 
1840.000000	63.689160 
1839.000000	63.697361 
1838.000000	63.708829 
1837.000000	63.721919 
1836.000000	63.734650 
1835.000000	63.745069 
1834.000000	63.751816 
1833.000000	63.754200 
1832.000000	63.752412 
1831.000000	63.747239 
1830.000000	63.739943 
1829.000000	63.731932 
1828.000000	63.724660 
1827.000000	63.719391 
1826.000000	63.716959 
1825.000000	63.718008 
1824.000000	63.722777 
1823.000000	63.731074 
1822.000000	63.742256 
1821.000000	63.755297 
1820.000000	63.768935 
1819.000000	63.781762 
1818.000000	63.792514 
1817.000000	63.800311 
1816.000000	63.804793 
1815.000000	63.806319 
1814.000000	63.805723 
1813.000000	63.804149 
1812.000000	63.802623 
1811.000000	63.802099 
1810.000000	63.802862 
1809.000000	63.804864 
1808.000000	63.807606 
1807.000000	63.810443 
1806.000000	63.812732 
1805.000000	63.813924 
1804.000000	63.813567 
1803.000000	63.811421 
1802.000000	63.807344 
1801.000000	63.801240 
1800.000000	63.793015 
1799.000000	63.782644 
1798.000000	63.769960 
1797.000000	63.755035 
1796.000000	63.737940 
1795.000000	63.718962 
1794.000000	63.698577 
1793.000000	63.677668 
1792.000000	63.657236 
1791.000000	63.638663 
1790.000000	63.623499 
1789.000000	63.613319 
1788.000000	63.609433 
1787.000000	63.612723 
1786.000000	63.623213 
1785.000000	63.639903 
1784.000000	63.660931 
1783.000000	63.683652 
1782.000000	63.705039 
1781.000000	63.722348 
1780.000000	63.733482 
1779.000000	63.737273 
1778.000000	63.733673 
1777.000000	63.723564 
1776.000000	63.708519 
1775.000000	63.690280 
1774.000000	63.670301 
1773.000000	63.649654 
1772.000000	63.628935 
1771.000000	63.608312 
1770.000000	63.587903 
1769.000000	63.567900 
1768.000000	63.548851 
1767.000000	63.531517 
1766.000000	63.516902 
1765.000000	63.505840 
1764.000000	63.499045 
1763.000000	63.496780 
1762.000000	63.498902 
1761.000000	63.504862 
1760.000000	63.513898 
1759.000000	63.524937 
1758.000000	63.536739 
1757.000000	63.548016 
1756.000000	63.557577 
1755.000000	63.564085 
1754.000000	63.566517 
1753.000000	63.564085 
1752.000000	63.556456 
1751.000000	63.543963 
1750.000000	63.527250 
1749.000000	63.507723 
1748.000000	63.486909 
1747.000000	63.466215 
1746.000000	63.446760 
1745.000000	63.429141 
1744.000000	63.413357 
1743.000000	63.399004 
1742.000000	63.385319 
1741.000000	63.371610 
1740.000000	63.357329 
1739.000000	63.342332 
1738.000000	63.326859 
1737.000000	63.311672 
1736.000000	63.297748 
1735.000000	63.286137 
1734.000000	63.277864 
1733.000000	63.273787 
1732.000000	63.274192 
1731.000000	63.278961 
1730.000000	63.287520 
1729.000000	63.299179 
1728.000000	63.312983 
1727.000000	63.328456 
1726.000000	63.345098 
1725.000000	63.362884 
1724.000000	63.381958 
1723.000000	63.402581 
1722.000000	63.424754 
1721.000000	63.447928 
1720.000000	63.470935 
1719.000000	63.492083 
1718.000000	63.509583 
1717.000000	63.521623 
1716.000000	63.526916 
1715.000000	63.525152 
1714.000000	63.517093 
1713.000000	63.504314 
1712.000000	63.489079 
1711.000000	63.473796 
1710.000000	63.460588 
1709.000000	63.451123 
1708.000000	63.446283 
1707.000000	63.446283 
1706.000000	63.450551 
1705.000000	63.458204 
1704.000000	63.467955 
1703.000000	63.478422 
1702.000000	63.488340 
1701.000000	63.496494 
1700.000000	63.502097 
1699.000000	63.504528 
1698.000000	63.503789 
1697.000000	63.500404 
1696.000000	63.495182 
1695.000000	63.489484 
1694.000000	63.484573 
1693.000000	63.481807 
1692.000000	63.481926 
1691.000000	63.485050 
1690.000000	63.490605 
1689.000000	63.497471 
1688.000000	63.504076 
1687.000000	63.508677 
1686.000000	63.509821 
1685.000000	63.506722 
1684.000000	63.499212 
1683.000000	63.487744 
1682.000000	63.473558 
1681.000000	63.458156 
1680.000000	63.443136 
1679.000000	63.430213 
1678.000000	63.420605 
1677.000000	63.415312 
1676.000000	63.414859 
1675.000000	63.419437 
1674.000000	63.428783 
1673.000000	63.442277 
1672.000000	63.458895 
1671.000000	63.477444 
1670.000000	63.496565 
1669.000000	63.515067 
1668.000000	63.531756 
1667.000000	63.545536 
1666.000000	63.555669 
1665.000000	63.561606 
1664.000000	63.563179 
1663.000000	63.560509 
1662.000000	63.553953 
1661.000000	63.544058 
1660.000000	63.531589 
1659.000000	63.517284 
1658.000000	63.501667 
1657.000000	63.485169 
1656.000000	63.468146 
1655.000000	63.450980 
1654.000000	63.434195 
1653.000000	63.418531 
1652.000000	63.404989 
1651.000000	63.394737 
1650.000000	63.388800 
1649.000000	63.387894 
1648.000000	63.392138 
1647.000000	63.400888 
1646.000000	63.412690 
1645.000000	63.425588 
1644.000000	63.437652 
1643.000000	63.447427 
1642.000000	63.454222 
1641.000000	63.458251 
1640.000000	63.460540 
1639.000000	63.462543 
1638.000000	63.465642 
1637.000000	63.470602 
1636.000000	63.477325 
1635.000000	63.484859 
1634.000000	63.491559 
1633.000000	63.495540 
1632.000000	63.495063 
1631.000000	63.489055 
1630.000000	63.477420 
1629.000000	63.461112 
1628.000000	63.441920 
1627.000000	63.422203 
1626.000000	63.404464 
1625.000000	63.390994 
1624.000000	63.383173 
1623.000000	63.381481 
1622.000000	63.385319 
1621.000000	63.393259 
1620.000000	63.403201 
1619.000000	63.412928 
1618.000000	63.420295 
1617.000000	63.423895 
1616.000000	63.423037 
1615.000000	63.417911 
1614.000000	63.409376 
1613.000000	63.398599 
1612.000000	63.386726 
1611.000000	63.374543 
1610.000000	63.362383 
1609.000000	63.350176 
1608.000000	63.337826 
1607.000000	63.325309 
1606.000000	63.313055 
1605.000000	63.301849 
1604.000000	63.292813 
1603.000000	63.287115 
1602.000000	63.285660 
1601.000000	63.288974 
1600.000000	63.297057 
1599.000000	63.309192 
1598.000000	63.324165 
1597.000000	63.340163 
1596.000000	63.355255 
1595.000000	63.367414 
1594.000000	63.375139 
1593.000000	63.377261 
1592.000000	63.373351 
1591.000000	63.363647 
1590.000000	63.349103 
1589.000000	63.331127 
1588.000000	63.311409 
1587.000000	63.291621 
1586.000000	63.273096 
1585.000000	63.256788 
1584.000000	63.243055 
1583.000000	63.231801 
1582.000000	63.222575 
1581.000000	63.214850 
1580.000000	63.208174 
1579.000000	63.202214 
1578.000000	63.196754 
1577.000000	63.191699 
1576.000000	63.187050 
1575.000000	63.183116 
1574.000000	63.180232 
1573.000000	63.179183 
1572.000000	63.180875 
1571.000000	63.186240 
1570.000000	63.195896 
1569.000000	63.209843 
1568.000000	63.227224 
1567.000000	63.246440 
1566.000000	63.265323 
1565.000000	63.281583 
1564.000000	63.293147 
1563.000000	63.298535 
1562.000000	63.297367 
1561.000000	63.289976 
1560.000000	63.277602 
1559.000000	63.261747 
1558.000000	63.243889 
1557.000000	63.225221 
1556.000000	63.206768 
1555.000000	63.189339 
1554.000000	63.173675 
1553.000000	63.160753 
1552.000000	63.151597 
1551.000000	63.147091 
1550.000000	63.147521 
1549.000000	63.152503 
1548.000000	63.160991 
1547.000000	63.171148 
1546.000000	63.181066 
1545.000000	63.189005 
1544.000000	63.193941 
1543.000000	63.195633 
1542.000000	63.194513 
1541.000000	63.191533 
1540.000000	63.187742 
1539.000000	63.183879 
1538.000000	63.180398 
1537.000000	63.177156 
1536.000000	63.173913 
1535.000000	63.170576 
1534.000000	63.167452 
1533.000000	63.165402 
1532.000000	63.165402 
1531.000000	63.168501 
1530.000000	63.175249 
1529.000000	63.185358 
1528.000000	63.198018 
1527.000000	63.211917 
1526.000000	63.225626 
1525.000000	63.238048 
1524.000000	63.248610 
1523.000000	63.257288 
1522.000000	63.264656 
1521.000000	63.271403 
1520.000000	63.277912 
1519.000000	63.284230 
1518.000000	63.289833 
1517.000000	63.293886 
1516.000000	63.295412 
1515.000000	63.293814 
1514.000000	63.289117 
1513.000000	63.281989 
1512.000000	63.273692 
1511.000000	63.265752 
1510.000000	63.259768 
1509.000000	63.256835 
1508.000000	63.257646 
1507.000000	63.261890 
1506.000000	63.268566 
1505.000000	63.275623 
1504.000000	63.280510 
1503.000000	63.280415 
1502.000000	63.272833 
1501.000000	63.256549 
1500.000000	63.232064 
1499.000000	63.201689 
1498.000000	63.169288 
1497.000000	63.139605 
1496.000000	63.117146 
1495.000000	63.105082 
1494.000000	63.104534 
1493.000000	63.114142 
1492.000000	63.130736 
1491.000000	63.149738 
1490.000000	63.166642 
1489.000000	63.178062 
1488.000000	63.182377 
1487.000000	63.180088 
1486.000000	63.173341 
1485.000000	63.164830 
1484.000000	63.157081 
1483.000000	63.151645 
1482.000000	63.148617 
1481.000000	63.147139 
1480.000000	63.145661 
1479.000000	63.142848 
1478.000000	63.137936 
1477.000000	63.130927 
1476.000000	63.122606 
1475.000000	63.113951 
1474.000000	63.106083 
1473.000000	63.099718 
1472.000000	63.095164 
1471.000000	63.092136 
1470.000000	63.089942 
1469.000000	63.087677 
1468.000000	63.084673 
1467.000000	63.080573 
1466.000000	63.075351 
1465.000000	63.069534 
1464.000000	63.063907 
1463.000000	63.059496 
1462.000000	63.057184 
1461.000000	63.057732 
1460.000000	63.061523 
1459.000000	63.068580 
1458.000000	63.078618 
1457.000000	63.090825 
1456.000000	63.104176 
1455.000000	63.117337 
1454.000000	63.128757 
1453.000000	63.137006 
1452.000000	63.141012 
1451.000000	63.140177 
1450.000000	63.134407 
1449.000000	63.124251 
1448.000000	63.110828 
1447.000000	63.095641 
1446.000000	63.080334 
1445.000000	63.066387 
1444.000000	63.054919 
1443.000000	63.046503 
1442.000000	63.041162 
1441.000000	63.038349 
1440.000000	63.037300 
1439.000000	63.037014 
1438.000000	63.036513 
1437.000000	63.034892 
1436.000000	63.031649 
1435.000000	63.026428 
1434.000000	63.019371 
1433.000000	63.010597 
1432.000000	63.000679 
1431.000000	62.990331 
1430.000000	62.980628 
1429.000000	62.972640 
1428.000000	62.967514 
1427.000000	62.966132 
1426.000000	62.969064 
1425.000000	62.976384 
1424.000000	62.987375 
1423.000000	63.000845 
1422.000000	63.015103 
1421.000000	63.028120 
1420.000000	63.037967 
1419.000000	63.043117 
1418.000000	63.042759 
1417.000000	63.037109 
1416.000000	63.027334 
1415.000000	63.015365 
1414.000000	63.003659 
1413.000000	62.994670 
1412.000000	62.990117 
1411.000000	62.990546 
1410.000000	62.995409 
1409.000000	63.002872 
1408.000000	63.010334 
1407.000000	63.014912 
1406.000000	63.014340 
1405.000000	63.007521 
1404.000000	62.995004 
1403.000000	62.978911 
1402.000000	62.962412 
1401.000000	62.949037 
1400.000000	62.941622 
1399.000000	62.941718 
1398.000000	62.948966 
1397.000000	62.961387 
1396.000000	62.975859 
1395.000000	62.988829 
1394.000000	62.997317 
1393.000000	62.999415 
1392.000000	62.994694 
1391.000000	62.984180 
1390.000000	62.969827 
1389.000000	62.954497 
1388.000000	62.941122 
1387.000000	62.932181 
1386.000000	62.929248 
1385.000000	62.932729 
1384.000000	62.941908 
1383.000000	62.955212 
1382.000000	62.970495 
1381.000000	62.985634 
1380.000000	62.998938 
1379.000000	63.009548 
1378.000000	63.017320 
1377.000000	63.022828 
1376.000000	63.027000 
1375.000000	63.030743 
1374.000000	63.034510 
1373.000000	63.038277 
1372.000000	63.041353 
1371.000000	63.042926 
1370.000000	63.042306 
1369.000000	63.039326 
1368.000000	63.034605 
1367.000000	63.029360 
1366.000000	63.025140 
1365.000000	63.023114 
1364.000000	63.023686 
1363.000000	63.026213 
1362.000000	63.029146 
1361.000000	63.030505 
1360.000000	63.028502 
1359.000000	63.022136 
1358.000000	63.011503 
1357.000000	62.997984 
1356.000000	62.983798 
1355.000000	62.971735 
1354.000000	62.964034 
1353.000000	62.962055 
1352.000000	62.965726 
1351.000000	62.973713 
1350.000000	62.983918 
1349.000000	62.993764 
1348.000000	63.000965 
1347.000000	63.004136 
1346.000000	63.002967 
1345.000000	62.998414 
1344.000000	62.991905 
1343.000000	62.985253 
1342.000000	62.979984 
1341.000000	62.977051 
1340.000000	62.976574 
1339.000000	62.977910 
1338.000000	62.980079 
1337.000000	62.981843 
1336.000000	62.982320 
1335.000000	62.981081 
1334.000000	62.978434 
1333.000000	62.975120 
1332.000000	62.972283 
1331.000000	62.971234 
1330.000000	62.973189 
1329.000000	62.978839 
1328.000000	62.988376 
1327.000000	63.001608 
1326.000000	63.017749 
1325.000000	63.035631 
1324.000000	63.053750 
1323.000000	63.070607 
1322.000000	63.084626 
1321.000000	63.094592 
1320.000000	63.099551 
1319.000000	63.099288 
1318.000000	63.093900 
1317.000000	63.084292 
1316.000000	63.071393 
1315.000000	63.056254 
1314.000000	63.039779 
1313.000000	63.022518 
1312.000000	63.004708 
1311.000000	62.986469 
1310.000000	62.967991 
1309.000000	62.949776 
1308.000000	62.932801 
1307.000000	62.918257 
1306.000000	62.907361 
1305.000000	62.901210 
1304.000000	62.900066 
1303.000000	62.903451 
1302.000000	62.909746 
1301.000000	62.916779 
1300.000000	62.922191 
1299.000000	62.923979 
1298.000000	62.920951 
1297.000000	62.912940 
1296.000000	62.901067 
1295.000000	62.887382 
1294.000000	62.874245 
1293.000000	62.864017 
1292.000000	62.858724 
1291.000000	62.859439 
1290.000000	62.866187 
1289.000000	62.877941 
1288.000000	62.893080 
1287.000000	62.909412 
1286.000000	62.924718 
1285.000000	62.937092 
1284.000000	62.945246 
1283.000000	62.948656 
1282.000000	62.947654 
1281.000000	62.943267 
1280.000000	62.936663 
1279.000000	62.929368 
1278.000000	62.922668 
1277.000000	62.917351 
1276.000000	62.913584 
1275.000000	62.911176 
1274.000000	62.909531 
1273.000000	62.907695 
1272.000000	62.904620 
1271.000000	62.899422 
1270.000000	62.891197 
1269.000000	62.879276 
1268.000000	62.862873 
1267.000000	62.841463 
1266.000000	62.814617 
1265.000000	62.782311 
1264.000000	62.745141 
1263.000000	62.704372 
1262.000000	62.662100 
1261.000000	62.620854 
1260.000000	62.583565 
1259.000000	62.552928 
1258.000000	62.530946 
1257.000000	62.518858 
1256.000000	62.516593 
1255.000000	62.522983 
1254.000000	62.536287 
1253.000000	62.554430 
1252.000000	62.575411 
1251.000000	62.597918 
1250.000000	62.621164 
1249.000000	62.645030 
1248.000000	62.669563 
1247.000000	62.694787 
1246.000000	62.720012 
1245.000000	62.743902 
1244.000000	62.764573 
1243.000000	62.780117 
1242.000000	62.789082 
1241.000000	62.790656 
1240.000000	62.785744 
1239.000000	62.776017 
1238.000000	62.764000 
1237.000000	62.752127 
1236.000000	62.742471 
1235.000000	62.736034 
1234.000000	62.732386 
1233.000000	62.730216 
1232.000000	62.727785 
1231.000000	62.723565 
1230.000000	62.716674 
1229.000000	62.707328 
1228.000000	62.696886 
1227.000000	62.687301 
1226.000000	62.680602 
1225.000000	62.678170 
1224.000000	62.680292 
1223.000000	62.686276 
1222.000000	62.694501 
1221.000000	62.702941 
1220.000000	62.709760 
1219.000000	62.714076 
1218.000000	62.715983 
1217.000000	62.716293 
1216.000000	62.716579 
1215.000000	62.718152 
1214.000000	62.721967 
1213.000000	62.727856 
1212.000000	62.734937 
1211.000000	62.742018 
1210.000000	62.747883 
1209.000000	62.751746 
1208.000000	62.753582 
1207.000000	62.754225 
1206.000000	62.754917 
1205.000000	62.756943 
1204.000000	62.761139 
1203.000000	62.767577 
1202.000000	62.775421 
1201.000000	62.783288 
1200.000000	62.789368 
1199.000000	62.792134 
1198.000000	62.790632 
1197.000000	62.784790 
1196.000000	62.775135 
1195.000000	62.762951 
1194.000000	62.749767 
1193.000000	62.737154 
1192.000000	62.726497 
1191.000000	62.718582 
1190.000000	62.713813 
1189.000000	62.711834 
1188.000000	62.711691 
1187.000000	62.711763 
1186.000000	62.710165 
1185.000000	62.705063 
1184.000000	62.695121 
1183.000000	62.679862 
1182.000000	62.659764 
1181.000000	62.636208 
1180.000000	62.611198 
1179.000000	62.586808 
1178.000000	62.564730 
1177.000000	62.546157 
1176.000000	62.531495 
1175.000000	62.520408 
1174.000000	62.512254 
1173.000000	62.506484 
1172.000000	62.502932 
1171.000000	62.501907 
1170.000000	62.504363 
1169.000000	62.511348 
1168.000000	62.523746 
1167.000000	62.541937 
1166.000000	62.565255 
1165.000000	62.592363 
1164.000000	62.621068 
1163.000000	62.649035 
1162.000000	62.673830 
1161.000000	62.693405 
1160.000000	62.706398 
1159.000000	62.712311 
1158.000000	62.711501 
1157.000000	62.705111 
1156.000000	62.694716 
1155.000000	62.682199 
1154.000000	62.669444 
1153.000000	62.658047 
1152.000000	62.649154 
1151.000000	62.643313 
1150.000000	62.640571 
1149.000000	62.640595 
1148.000000	62.642741 
1147.000000	62.646341 
1146.000000	62.650704 
1145.000000	62.655329 
1144.000000	62.659907 
1143.000000	62.664198 
1142.000000	62.667918 
1141.000000	62.670636 
1140.000000	62.671852 
1139.000000	62.670850 
1138.000000	62.667369 
1137.000000	62.661218 
1136.000000	62.652778 
1135.000000	62.642765 
1134.000000	62.632155 
1133.000000	62.621784 
1132.000000	62.612342 
1131.000000	62.603950 
1130.000000	62.596440 
1129.000000	62.589073 
1128.000000	62.581038 
1127.000000	62.571430 
1126.000000	62.559485 
1125.000000	62.544918 
1124.000000	62.527966 
1123.000000	62.509584 
1122.000000	62.491059 
1121.000000	62.474179 
1120.000000	62.460541 
1119.000000	62.451863 
1118.000000	62.449145 
1117.000000	62.452626 
1116.000000	62.461495 
1115.000000	62.473750 
1114.000000	62.486743 
1113.000000	62.497377 
1112.000000	62.503242 
1111.000000	62.503099 
1110.000000	62.497401 
1109.000000	62.488317 
1108.000000	62.479138 
1107.000000	62.473249 
1106.000000	62.473511 
1105.000000	62.481164 
1104.000000	62.495899 
1103.000000	62.515902 
1102.000000	62.538456 
1101.000000	62.561082 
1100.000000	62.581467 
1099.000000	62.598156 
1098.000000	62.610363 
1097.000000	62.617826 
1096.000000	62.620234 
1095.000000	62.617015 
1094.000000	62.607455 
1093.000000	62.591028 
1092.000000	62.567925 
1091.000000	62.539458 
1090.000000	62.508344 
1089.000000	62.478327 
1088.000000	62.453556 
1087.000000	62.437939 
1086.000000	62.433767 
1085.000000	62.441587 
1084.000000	62.459993 
1083.000000	62.485933 
1082.000000	62.515377 
1081.000000	62.544107 
1080.000000	62.568593 
1079.000000	62.586474 
1078.000000	62.596440 
1077.000000	62.598419 
1076.000000	62.593197 
1075.000000	62.582206 
1074.000000	62.567210 
1073.000000	62.550187 
1072.000000	62.533330 
1071.000000	62.518715 
1070.000000	62.508368 
1069.000000	62.503552 
1068.000000	62.504792 
1067.000000	62.511301 
1066.000000	62.521171 
1065.000000	62.531638 
1064.000000	62.539410 
1063.000000	62.541580 
1062.000000	62.536168 
1061.000000	62.522268 
1060.000000	62.500262 
1059.000000	62.471771 
1058.000000	62.439298 
1057.000000	62.405395 
1056.000000	62.372541 
1055.000000	62.342786 
1054.000000	62.317609 
1053.000000	62.297987 
1052.000000	62.284159 
1051.000000	62.275958 
1050.000000	62.272739 
1049.000000	62.273669 
1048.000000	62.277698 
1047.000000	62.283372 
1046.000000	62.289333 
1045.000000	62.294435 
1044.000000	62.298083 
1043.000000	62.300157 
1042.000000	62.301063 
1041.000000	62.301659 
1040.000000	62.302827 
1039.000000	62.305593 
1038.000000	62.310671 
1037.000000	62.318634 
1036.000000	62.329912 
1035.000000	62.344861 
1034.000000	62.363958 
1033.000000	62.387633 
1032.000000	62.416124 
1031.000000	62.448954 
1030.000000	62.484788 
1029.000000	62.520933 
1028.000000	62.553882 
1027.000000	62.579536 
1026.000000	62.593913 
1025.000000	62.594008 
1024.000000	62.578725 
1023.000000	62.549090 
1022.000000	62.508153 
1021.000000	62.460327 
1020.000000	62.411022 
1019.000000	62.365484 
1018.000000	62.328028 
1017.000000	62.301588 
1016.000000	62.287521 
1015.000000	62.285542 
1014.000000	62.294268 
1013.000000	62.311458 
1012.000000	62.334465 
1011.000000	62.360334 
1010.000000	62.386345 
1009.000000	62.409663 
1008.000000	62.428092 
1007.000000	62.440061 
1006.000000	62.445139 
1005.000000	62.443923 
1004.000000	62.438106 
1003.000000	62.430191 
1002.000000	62.422895 
1001.000000	62.418484 
1000.000000	62.418270 
999.000000	 62.422513 
998.000000	 62.430024 
997.000000	 62.438607 
996.000000	 62.445664 
995.000000	 62.448668 
994.000000	 62.445831 
993.000000	 62.436461 
992.000000	 62.421321 
991.000000	 62.402248 
990.000000	 62.382054 
989.000000	 62.363719 
988.000000	 62.350010 
987.000000	 62.342715 
986.000000	 62.342643 
985.000000	 62.349581 
984.000000	 62.362194 
983.000000	 62.378454 
982.000000	 62.396025 
981.000000	 62.412548 
980.000000	 62.426090 
979.000000	 62.435340 
978.000000	 62.439513 
977.000000	 62.438488 
976.000000	 62.432670 
975.000000	 62.423014 
974.000000	 62.410712 
973.000000	 62.396883 
972.000000	 62.382841 
971.000000	 62.369608 
970.000000	 62.357854 
969.000000	 62.348055 
968.000000	 62.340331 
967.000000	 62.334585 
966.000000	 62.330555 
965.000000	 62.328028 
964.000000	 62.326955 
963.000000	 62.327623 
962.000000	 62.330436 
961.000000	 62.336254 
960.000000	 62.345790 
959.000000	 62.359642 
958.000000	 62.377929 
957.000000	 62.400031 
956.000000	 62.424492 
955.000000	 62.449336 
954.000000	 62.472224 
953.000000	 62.490963 
952.000000	 62.503862 
951.000000	 62.510108 
950.000000	 62.509560 
949.000000	 62.503004 
948.000000	 62.491512 
947.000000	 62.476301 
946.000000	 62.458300 
945.000000	 62.438178 
944.000000	 62.416505 
943.000000	 62.393951 
942.000000	 62.371540 
941.000000	 62.350869 
940.000000	 62.333893 
939.000000	 62.322759 
938.000000	 62.319159 
937.000000	 62.323737 
936.000000	 62.335824 
935.000000	 62.353253 
934.000000	 62.372875 
933.000000	 62.390995 
932.000000	 62.404370 
931.000000	 62.410712 
930.000000	 62.409186 
929.000000	 62.400460 
928.000000	 62.386202 
927.000000	 62.368726 
926.000000	 62.350249 
925.000000	 62.332749 
924.000000	 62.317466 
923.000000	 62.305140 
922.000000	 62.296223 
921.000000	 62.291193 
920.000000	 62.290668 
919.000000	 62.295436 
918.000000	 62.306141 
917.000000	 62.322878 
916.000000	 62.344932 
915.000000	 62.370586 
914.000000	 62.397146 
913.000000	 62.421369 
912.000000	 62.440228 
911.000000	 62.451505 
910.000000	 62.454199 
909.000000	 62.449026 
908.000000	 62.438011 
907.000000	 62.423944 
906.000000	 62.409710 
905.000000	 62.397480 
904.000000	 62.388420 
903.000000	 62.382340 
902.000000	 62.378120 
901.000000	 62.373948 
900.000000	 62.368392 
899.000000	 62.360954 
898.000000	 62.352299 
897.000000	 62.343955 
896.000000	 62.338280 
895.000000	 62.337255 
894.000000	 62.342166 
893.000000	 62.352967 
892.000000	 62.368106 
891.000000	 62.385296 
890.000000	 62.401390 
889.000000	 62.413692 
888.000000	 62.420058 
887.000000	 62.419652 
886.000000	 62.413001 
885.000000	 62.401676 
884.000000	 62.388157 
883.000000	 62.375307 
882.000000	 62.365937 
881.000000	 62.362241 
880.000000	 62.365460 
879.000000	 62.375807 
878.000000	 62.392091 
877.000000	 62.412047 
876.000000	 62.432265 
875.000000	 62.449002 
874.000000	 62.458443 
873.000000	 62.457895 
872.000000	 62.446069 
871.000000	 62.423729 
870.000000	 62.393426 
869.000000	 62.358999 
868.000000	 62.325096 
867.000000	 62.295842 
866.000000	 62.274193 
865.000000	 62.261676 
864.000000	 62.258195 
863.000000	 62.262487 
862.000000	 62.272644 
861.000000	 62.286829 
860.000000	 62.303423 
859.000000	 62.321352 
858.000000	 62.339639 
857.000000	 62.357330 
856.000000	 62.373280 
855.000000	 62.386155 
854.000000	 62.394332 
853.000000	 62.396526 
852.000000	 62.392020 
851.000000	 62.381267 
850.000000	 62.365818 
849.000000	 62.347626 
848.000000	 62.328457 
847.000000	 62.309575 
846.000000	 62.291312 
845.000000	 62.273216 
844.000000	 62.254261 
843.000000	 62.233352 
842.000000	 62.210154 
841.000000	 62.185144 
840.000000	 62.160110 
839.000000	 62.137246 
838.000000	 62.119483 
837.000000	 62.109327 
836.000000	 62.108492 
835.000000	 62.117528 
834.000000	 62.135386 
833.000000	 62.159299 
832.000000	 62.185359 
831.000000	 62.209200 
830.000000	 62.226986 
829.000000	 62.235975 
828.000000	 62.235522 
827.000000	 62.226986 
826.000000	 62.213897 
825.000000	 62.201142 
824.000000	 62.194156 
823.000000	 62.197446 
822.000000	 62.213683 
821.000000	 62.242794 
820.000000	 62.281823 
819.000000	 62.325358 
818.000000	 62.366914 
817.000000	 62.400007 
816.000000	 62.419581 
815.000000	 62.422871 
814.000000	 62.409520 
813.000000	 62.381839 
812.000000	 62.343955 
811.000000	 62.301158 
810.000000	 62.259364 
809.000000	 62.223839 
808.000000	 62.199020 
807.000000	 62.187218 
806.000000	 62.188887 
805.000000	 62.202382 
804.000000	 62.224125 
803.000000	 62.249898 
802.000000	 62.275767 
801.000000	 62.298703 
800.000000	 62.316846 
799.000000	 62.329864 
798.000000	 62.338685 
797.000000	 62.344312 
796.000000	 62.347197 
795.000000	 62.346887 
794.000000	 62.341666 
793.000000	 62.329196 
792.000000	 62.307143 
791.000000	 62.274289 
790.000000	 62.231254 
789.000000	 62.180900 
788.000000	 62.128019 
787.000000	 62.078118 
786.000000	 62.036490 
785.000000	 62.006855 
784.000000	 61.990737 
783.000000	 61.987233 
782.000000	 61.993074 
781.000000	 62.004065 
780.000000	 62.015056 
779.000000	 62.021160 
778.000000	 62.018513 
777.000000	 62.004637 
776.000000	 61.979174 
775.000000	 61.943268 
774.000000	 61.899900 
773.000000	 61.852836 
772.000000	 61.806178 
771.000000	 61.763548 
770.000000	 61.727213 
769.000000	 61.697983 
768.000000	 61.675262 
767.000000	 61.657547 
766.000000	 61.643147 
765.000000	 61.631059 
764.000000	 61.621522 
763.000000	 61.616539 
762.000000	 61.619067 
761.000000	 61.632490 
760.000000	 61.659216 
759.000000	 61.700010 
758.000000	 61.753010 
757.000000	 61.814069 
756.000000	 61.877298 
755.000000	 61.936306 
754.000000	 61.985778 
753.000000	 62.022089 
752.000000	 62.044191 
751.000000	 62.053155 
750.000000	 62.051868 
749.000000	 62.043929 
748.000000	 62.032675 
747.000000	 62.020492 
746.000000	 62.008929 
745.000000	 61.998581 
744.000000	 61.989831 
743.000000	 61.983108 
742.000000	 61.979436 
741.000000	 61.979722 
740.000000	 61.984610 
739.000000	 61.994028 
738.000000	 62.006711 
737.000000	 62.020277 
736.000000	 62.031316 
735.000000	 62.036442 
734.000000	 62.032866 
733.000000	 62.019157 
732.000000	 61.995267 
731.000000	 61.962795 
730.000000	 61.924147 
729.000000	 61.882114 
728.000000	 61.839532 
727.000000	 61.798501 
726.000000	 61.760592 
725.000000	 61.727237 
724.000000	 61.699795 
723.000000	 61.679434 
722.000000	 61.667537 
721.000000	 61.665463 
720.000000	 61.673736 
719.000000	 61.691403 
718.000000	 61.716055 
717.000000	 61.743950 
716.000000	 61.770510 
715.000000	 61.791157 
714.000000	 61.802577 
713.000000	 61.803436 
712.000000	 61.794734 
711.000000	 61.779451 
710.000000	 61.761641 
709.000000	 61.745214 
708.000000	 61.733031 
707.000000	 61.726164 
706.000000	 61.724233 
705.000000	 61.725544 
704.000000	 61.728239 
703.000000	 61.730647 
702.000000	 61.731767 
701.000000	 61.731553 
700.000000	 61.730408 
699.000000	 61.728882 
698.000000	 61.727190 
697.000000	 61.724591 
696.000000	 61.720085 
695.000000	 61.711549 
694.000000	 61.696243 
693.000000	 61.671686 
692.000000	 61.636447 
691.000000	 61.591005 
690.000000	 61.538076 
689.000000	 61.482262 
688.000000	 61.429476 
687.000000	 61.385560 
686.000000	 61.355185 
685.000000	 61.340522 
684.000000	 61.341094 
683.000000	 61.354255 
682.000000	 61.375784 
681.000000	 61.401224 
680.000000	 61.426806 
679.000000	 61.449813 
678.000000	 61.469101 
677.000000	 61.484313 
676.000000	 61.496186 
675.000000	 61.505651 
674.000000	 61.513972 
673.000000	 61.522197 
672.000000	 61.531281 
671.000000	 61.542367 
670.000000	 61.556243 
669.000000	 61.574029 
668.000000	 61.595630 
667.000000	 61.619853 
666.000000	 61.643624 
665.000000	 61.663007 
664.000000	 61.673140 
663.000000	 61.669683 
662.000000	 61.649560 
661.000000	 61.612105 
660.000000	 61.559391 
659.000000	 61.496210 
658.000000	 61.430001 
657.000000	 61.369395 
656.000000	 61.322522 
655.000000	 61.295223 
654.000000	 61.291146 
653.000000	 61.309790 
652.000000	 61.346244 
651.000000	 61.391854 
650.000000	 61.435866 
649.000000	 61.467909 
648.000000	 61.479282 
647.000000	 61.466431 
646.000000	 61.430907 
645.000000	 61.380410 
644.000000	 61.326503 
643.000000	 61.282253 
642.000000	 61.259841 
641.000000	 61.265707 
640.000000	 61.299133 
639.000000	 61.351203 
638.000000	 61.407065 
637.000000	 61.449837 
636.000000	 61.465573 
635.000000	 61.446452 
634.000000	 61.393594 
633.000000	 61.318707 
632.000000	 61.242151 
631.000000	 61.187028 
630.000000	 61.174035 
629.000000	 61.217737 
628.000000	 61.322426 
627.000000	 61.480855 
626.000000	 61.675715 
625.000000	 61.884045 
624.000000	 62.082266 
623.000000	 62.250328 
622.000000	 62.376999 
621.000000	 62.459635 
620.000000	 62.505865 
619.000000	 62.528681 
618.000000	 62.544584 
617.000000	 62.570047 
616.000000	 62.615895 
615.000000	 62.687206 
614.000000	 62.778496 
613.000000	 62.877607 
612.000000	 62.964749 
611.000000	 63.019752 
610.000000	 63.021564 
609.000000	 62.953853 
608.000000	 62.807512 
607.000000	 62.583208 
606.000000	 62.290930 
605.000000	 61.948609 
604.000000	 61.579394 
603.000000	 61.208200 
602.000000	 60.857677 
601.000000	 60.546112 
600.000000	 60.286068 
599.000000	 60.084724 
598.000000	 59.944462 
597.000000	 59.864044 
596.000000	 59.839129 
595.000000	 59.862399 
594.000000	 59.921431 
593.000000	 60.001111 
592.000000	 60.079550 
591.000000	 60.137152 
590.000000	 60.156488 
589.000000	 60.130763 
588.000000	 60.062146 
587.000000	 59.966659 
586.000000	 59.869766 
585.000000	 59.801554 
584.000000	 59.788870 
583.000000	 59.847974 
582.000000	 59.979701 
581.000000	 60.168170 
580.000000	 60.384559 
579.000000	 60.593795 
578.000000	 60.763764 
577.000000	 60.873293 
576.000000	 60.917997 
575.000000	 60.909318 
574.000000	 60.871982 
573.000000	 60.837793 
572.000000	 60.836815 
571.000000	 60.888481 
570.000000	 60.996747 
569.000000	 61.154246 
568.000000	 61.339998 
567.000000	 61.527681 
566.000000	 61.688542 
565.000000	 61.800980 
564.000000	 61.850619 
563.000000	 61.832809 
562.000000	 61.751508 
561.000000	 61.615943 
560.000000	 61.441278 
559.000000	 61.246132 
558.000000	 61.050486 
557.000000	 60.873842 
556.000000	 60.731935 
555.000000	 60.635876 
554.000000	 60.588955 
553.000000	 60.587239 
552.000000	 60.620689 
551.000000	 60.676455 
550.000000	 60.740947 
549.000000	 60.804390 
548.000000	 60.862684 
547.000000	 60.919356 
546.000000	 60.981535 
545.000000	 61.059165 
544.000000	 61.161947 
543.000000	 61.295151 
542.000000	 61.458230 
541.000000	 61.641287 
540.000000	 61.827826 
539.000000	 61.994457 
538.000000	 62.118077 
537.000000	 62.177348 
536.000000	 62.159824 
535.000000	 62.062048 
534.000000	 61.891746 
533.000000	 61.665439 
532.000000	 61.406445 
531.000000	 61.140489 
530.000000	 60.892391 
529.000000	 60.682392 
528.000000	 60.524129 
527.000000	 60.423779 
526.000000	 60.380506 
525.000000	 60.385608 
524.000000	 60.425329 
523.000000	 60.482120 
522.000000	 60.539197 
521.000000	 60.582423 
520.000000	 60.604381 
519.000000	 60.603904 
518.000000	 60.587000 
517.000000	 60.565114 
516.000000	 60.550999 
515.000000	 60.555481 
514.000000	 60.582637 
513.000000	 60.629010 
512.000000	 60.682940 
511.000000	 60.727405 
510.000000	 60.745000 
509.000000	 60.723733 
508.000000	 60.660195 
507.000000	 60.561585 
506.000000	 60.442996 
505.000000	 60.323429 
504.000000	 60.221171 
503.000000	 60.149025 
502.000000	 60.112786 
501.000000	 60.110425 
500.000000	 60.135149 
499.000000	 60.178160 
498.000000	 60.229444 
497.000000	 60.280585 
496.000000	 60.325217 
495.000000	 60.360240 
494.000000	 60.385441 
493.000000	 60.403227 
492.000000	 60.417199 
491.000000	 60.430550 
490.000000	 60.445785 
489.000000	 60.462450 
488.000000	 60.477447 
487.000000	 60.485053 
486.000000	 60.478544 
485.000000	 60.452651 
484.000000	 60.405278 
483.000000	 60.339760 
482.000000	 60.264635 
481.000000	 60.193061 
480.000000	 60.140657 
479.000000	 60.120820 
478.000000	 60.141253 
477.000000	 60.201215 
476.000000	 60.290908 
475.000000	 60.394048 
474.000000	 60.491585 
473.000000	 60.565948 
472.000000	 60.604882 
471.000000	 60.603523 
470.000000	 60.564517 
469.000000	 60.495781 
468.000000	 60.407757 
467.000000	 60.311079 
466.000000	 60.213923 
465.000000	 60.120892 
464.000000	 60.033082 
463.000000	 59.949946 
462.000000	 59.871029 
461.000000	 59.797263 
460.000000	 59.732532 
459.000000	 59.682011 
458.000000	 59.652924 
457.000000	 59.651756 
456.000000	 59.683609 
455.000000	 59.749150 
454.000000	 59.844589 
453.000000	 59.962439 
452.000000	 60.089826 
451.000000	 60.210299 
450.000000	 60.305905 
449.000000	 60.360670 
448.000000	 60.362815 
447.000000	 60.307216 
446.000000	 60.196495 
445.000000	 60.040450 
444.000000	 59.854984 
443.000000	 59.658956 
442.000000	 59.469723 
441.000000	 59.300613 
440.000000	 59.159469 
439.000000	 59.049081 
438.000000	 58.969187 
437.000000	 58.919024 
436.000000	 58.895850 
435.000000	 58.899736 
434.000000	 58.931517 
433.000000	 58.995556 
432.000000	 59.096050 
431.000000	 59.237480 
430.000000	 59.417009 
429.000000	 59.629249 
428.000000	 59.864497 
427.000000	 60.111427 
426.000000	 60.358166 
425.000000	 60.593366 
424.000000	 60.808229 
423.000000	 60.993504 
422.000000	 61.141276 
421.000000	 61.240601 
420.000000	 61.278748 
419.000000	 61.243438 
418.000000	 61.128640 
417.000000	 60.926961 
416.000000	 60.637331 
415.000000	 60.279178 
414.000000	 59.894347 
413.000000	 59.544157 
412.000000	 59.297442 
411.000000	 59.220433 
410.000000	 59.351778 
409.000000	 59.697389 
408.000000	 60.213541 
407.000000	 60.799884 
406.000000	 61.328673 
405.000000	 61.679244 
404.000000	 61.765718 
403.000000	 61.552524 
402.000000	 61.069893 
401.000000	 60.413932 
400.000000	 59.710049 
399.000000	 59.074711 
398.000000	 58.594870 
397.000000	 58.306288 
396.000000	 58.201670 
395.000000	 58.238840 
394.000000	 58.383131 
393.000000	 58.625626 
392.000000	 59.013891 
391.000000	 59.638810 
390.000000	 60.625243 
389.000000	 62.075042 
388.000000	 64.021897 
387.000000	 66.374754 
386.000000	 68.905448 
385.000000	 71.261453 
384.000000	 73.028326 
383.000000	 73.811459 
382.000000	 73.365449 
381.000000	 71.624875 
380.000000	 68.751716 
379.000000	 65.069198 
378.000000	 61.003112 
377.000000	 56.970286 
376.000000	 53.322815 
375.000000	 50.265192 
374.000000	 47.831940 
373.000000	 45.943856 
372.000000	 44.458794 
371.000000	 43.279099 
370.000000	 42.404603 

