PE IR       SPECTRUM    SPECTRUM    ASCII       PEDS        1.60        
  -1
BZ60B1~1.ASC
17/04/07
14:39:36.00
17/04/07
14:39:36.00
tln
$BZ1503107-1_t0018$<tbV0>[-2.6,-10.4,8.0,0.0,27,1,0]
370.000000
64









2002,4.07    
MIRTGS : RIGHTBACK : INTERNAL 2
MIR : ON : INTERNAL 2
OPTKBR

0.200000
8
8.000000
FILLER
RATIO
SPECTRUM
UNLOCKED 256

DOUBLE
64
COMBINED
1
0
0


1.000000
RATIO


1
0
TRUE
51149
0
LEFT NOT FITTED RIGHT NOT FITTED 0
NONE
NONE
15600
12.000000
4.427000
51148
TRUE
1 0 8 72 0 0 0 0 

15798.010000






#HDR
-1
-1
#GR
CM-1
%T
0.00002384185791015625
0.0
5000.000000
-1.000000
4631
8
70.498251
47.952699
#DATA
5000.000000	66.116738 
4999.000000	65.978312 
4998.000000	65.720319 
4997.000000	65.374588 
4996.000000	64.977931 
4995.000000	64.570379 
4994.000000	64.183807 
4993.000000	63.844513 
4992.000000	63.561987 
4991.000000	63.332986 
4990.000000	63.140916 
4989.000000	62.964153 
4988.000000	62.779283 
4987.000000	62.567567 
4986.000000	62.320303 
4985.000000	62.040209 
4984.000000	61.742758 
4983.000000	61.453104 
4982.000000	61.200976 
4981.000000	61.016440 
4980.000000	60.926508 
4979.000000	60.952329 
4978.000000	61.104869 
4977.000000	61.384654 
4976.000000	61.780667 
4975.000000	62.272047 
4974.000000	62.826848 
4973.000000	63.407611 
4972.000000	63.974332 
4971.000000	64.490032 
4970.000000	64.923834 
4969.000000	65.255117 
4968.000000	65.474867 
4967.000000	65.586328 
4966.000000	65.606474 
4965.000000	65.559363 
4964.000000	65.474152 
4963.000000	65.377902 
4962.000000	65.296816 
4961.000000	65.244960 
4960.000000	65.226054 
4959.000000	65.231704 
4958.000000	65.247368 
4957.000000	65.253973 
4956.000000	65.234684 
4955.000000	65.178799 
4954.000000	65.085554 
4953.000000	64.963960 
4952.000000	64.831709 
4951.000000	64.709687 
4950.000000	64.618563 
4949.000000	64.573645 
4948.000000	64.583039 
4947.000000	64.645075 
4946.000000	64.750838 
4945.000000	64.888858 
4944.000000	65.046024 
4943.000000	65.209841 
4942.000000	65.369415 
4941.000000	65.516996 
4940.000000	65.645670 
4939.000000	65.746784 
4938.000000	65.812468 
4937.000000	65.837025 
4936.000000	65.817761 
4935.000000	65.756750 
4934.000000	65.660619 
4933.000000	65.541076 
4932.000000	65.411734 
4931.000000	65.286779 
4930.000000	65.176486 
4929.000000	65.085649 
4928.000000	65.013122 
4927.000000	64.952921 
4926.000000	64.895606 
4925.000000	64.831447 
4924.000000	64.753079 
4923.000000	64.658093 
4922.000000	64.548134 
4921.000000	64.430165 
4920.000000	64.313459 
4919.000000	64.209723 
4918.000000	64.129424 
4917.000000	64.081621 
4916.000000	64.072036 
4915.000000	64.102268 
4914.000000	64.169454 
4913.000000	64.266252 
4912.000000	64.381217 
4911.000000	64.501237 
4910.000000	64.613294 
4909.000000	64.706850 
4908.000000	64.774346 
4907.000000	64.813637 
4906.000000	64.827442 
4905.000000	64.822745 
4904.000000	64.808654 
4903.000000	64.794874 
4902.000000	64.789628 
4901.000000	64.798927 
4900.000000	64.825987 
4899.000000	64.871120 
4898.000000	64.932203 
4897.000000	65.006446 
4896.000000	65.090274 
4895.000000	65.178704 
4894.000000	65.266227 
4893.000000	65.346789 
4892.000000	65.415215 
4891.000000	65.467262 
4890.000000	65.501141 
4889.000000	65.518641 
4888.000000	65.523982 
4887.000000	65.523433 
4886.000000	65.522694 
4885.000000	65.526509 
4884.000000	65.535974 
4883.000000	65.549635 
4882.000000	65.562295 
4881.000000	65.567207 
4880.000000	65.557146 
4879.000000	65.527057 
4878.000000	65.474820 
4877.000000	65.401935 
4876.000000	65.313601 
4875.000000	65.217828 
4874.000000	65.123629 
4873.000000	65.039539 
4872.000000	64.972877 
4871.000000	64.928936 
4870.000000	64.910435 
4869.000000	64.917731 
4868.000000	64.949321 
4867.000000	65.002322 
4866.000000	65.071940 
4865.000000	65.152335 
4864.000000	65.237331 
4863.000000	65.320181 
4862.000000	65.393495 
4861.000000	65.449714 
4860.000000	65.481972 
4859.000000	65.484881 
4858.000000	65.455555 
4857.000000	65.395045 
4856.000000	65.308713 
4855.000000	65.206503 
4854.000000	65.102124 
4853.000000	65.010285 
4852.000000	64.944338 
4851.000000	64.913272 
4850.000000	64.920115 
4849.000000	64.960551 
4848.000000	65.024089 
4847.000000	65.096092 
4846.000000	65.161323 
4845.000000	65.206670 
4844.000000	65.223908 
4843.000000	65.210914 
4842.000000	65.171551 
4841.000000	65.113663 
4840.000000	65.046334 
4839.000000	64.977478 
4838.000000	64.912104 
4837.000000	64.851331 
4836.000000	64.793777 
4835.000000	64.737892 
4834.000000	64.683485 
4833.000000	64.633011 
4832.000000	64.591956 
4831.000000	64.567875 
4830.000000	64.567852 
4829.000000	64.595937 
4828.000000	64.651131 
4827.000000	64.726090 
4826.000000	64.809131 
4825.000000	64.886426 
4824.000000	64.946293 
4823.000000	64.981722 
4822.000000	64.993095 
4821.000000	64.987492 
4820.000000	64.976835 
4819.000000	64.973425 
4818.000000	64.985179 
4817.000000	65.012645 
4816.000000	65.047812 
4815.000000	65.077018 
4814.000000	65.085721 
4813.000000	65.064525 
4812.000000	65.012454 
4811.000000	64.940118 
4810.000000	64.867568 
4809.000000	64.820384 
4808.000000	64.822411 
4807.000000	64.889430 
4806.000000	65.024352 
4805.000000	65.215134 
4804.000000	65.438055 
4803.000000	65.661072 
4802.000000	65.851902 
4801.000000	65.983605 
4800.000000	66.040706 
4799.000000	66.021013 
4798.000000	65.935349 
4797.000000	65.803909 
4796.000000	65.650868 
4795.000000	65.499901 
4794.000000	65.369486 
4793.000000	65.271329 
4792.000000	65.209054 
4791.000000	65.178847 
4790.000000	65.171170 
4789.000000	65.173649 
4788.000000	65.173888 
4787.000000	65.160822 
4786.000000	65.127944 
4785.000000	65.071702 
4784.000000	64.994645 
4783.000000	64.903593 
4782.000000	64.809918 
4781.000000	64.726257 
4780.000000	64.664888 
4779.000000	64.635872 
4778.000000	64.643359 
4777.000000	64.685344 
4776.000000	64.751839 
4775.000000	64.827203 
4774.000000	64.892292 
4773.000000	64.928078 
4772.000000	64.921259 
4771.000000	64.867162 
4770.000000	64.772367 
4769.000000	64.652824 
4768.000000	64.533209 
4767.000000	64.441275 
4766.000000	64.402484 
4765.000000	64.433264 
4764.000000	64.536643 
4763.000000	64.700293 
4762.000000	64.899587 
4761.000000	65.101957 
4760.000000	65.273666 
4759.000000	65.387010 
4758.000000	65.425872 
4757.000000	65.388703 
4756.000000	65.287351 
4755.000000	65.143990 
4754.000000	64.984941 
4753.000000	64.834809 
4752.000000	64.712190 
4751.000000	64.626145 
4750.000000	64.578032 
4749.000000	64.561033 
4748.000000	64.564943 
4747.000000	64.578270 
4746.000000	64.592504 
4745.000000	64.602303 
4744.000000	64.605426 
4743.000000	64.602446 
4742.000000	64.594554 
4741.000000	64.584207 
4740.000000	64.573836 
4739.000000	64.566087 
4738.000000	64.563202 
4737.000000	64.566922 
4736.000000	64.577674 
4735.000000	64.594793 
4734.000000	64.615774 
4733.000000	64.636182 
4732.000000	64.650416 
4731.000000	64.652562 
4730.000000	64.637970 
4729.000000	64.604663 
4728.000000	64.554119 
4727.000000	64.490294 
4726.000000	64.420223 
4725.000000	64.352226 
4724.000000	64.295411 
4723.000000	64.257788 
4722.000000	64.245581 
4721.000000	64.261817 
4720.000000	64.306449 
4719.000000	64.376902 
4718.000000	64.466977 
4717.000000	64.567303 
4716.000000	64.666461 
4715.000000	64.752531 
4714.000000	64.814996 
4713.000000	64.846611 
4712.000000	64.845418 
4711.000000	64.815139 
4710.000000	64.764571 
4709.000000	64.705443 
4708.000000	64.650511 
4707.000000	64.609789 
4706.000000	64.588832 
4705.000000	64.587068 
4704.000000	64.598751 
4703.000000	64.614248 
4702.000000	64.623284 
4701.000000	64.617681 
4700.000000	64.593386 
4699.000000	64.552068 
4698.000000	64.499831 
4697.000000	64.446520 
4696.000000	64.402079 
4695.000000	64.375209 
4694.000000	64.370656 
4693.000000	64.389348 
4692.000000	64.428353 
4691.000000	64.482617 
4690.000000	64.546322 
4689.000000	64.614439 
4688.000000	64.683437 
4687.000000	64.751696 
4686.000000	64.818930 
4685.000000	64.884853 
4684.000000	64.948368 
4683.000000	65.007305 
4682.000000	65.058445 
4681.000000	65.098285 
4680.000000	65.123534 
4679.000000	65.132188 
4678.000000	65.123558 
4677.000000	65.099763 
4676.000000	65.064382 
4675.000000	65.021777 
4674.000000	64.976501 
4673.000000	64.933013 
4672.000000	64.894819 
4671.000000	64.864826 
4670.000000	64.844751 
4669.000000	64.835286 
4668.000000	64.836096 
4667.000000	64.846301 
4666.000000	64.864110 
4665.000000	64.886760 
4664.000000	64.911150 
4663.000000	64.933872 
4662.000000	64.951920 
4661.000000	64.962768 
4660.000000	64.965176 
4659.000000	64.959454 
4658.000000	64.947056 
4657.000000	64.930486 
4656.000000	64.913153 
4655.000000	64.899301 
4654.000000	64.892935 
4653.000000	64.897656 
4652.000000	64.916968 
4651.000000	64.952898 
4650.000000	65.005993 
4649.000000	65.073776 
4648.000000	65.151047 
4647.000000	65.229344 
4646.000000	65.298342 
4645.000000	65.347361 
4644.000000	65.367364 
4643.000000	65.353012 
4642.000000	65.304470 
4641.000000	65.227103 
4640.000000	65.130352 
4639.000000	65.025997 
4638.000000	64.926242 
4637.000000	64.840769 
4636.000000	64.775228 
4635.000000	64.730954 
4634.000000	64.705634 
4633.000000	64.694499 
4632.000000	64.692115 
4631.000000	64.693665 
4630.000000	64.695763 
4629.000000	64.696431 
4628.000000	64.695024 
4627.000000	64.690780 
4626.000000	64.682841 
4625.000000	64.670443 
4624.000000	64.653062 
4623.000000	64.631104 
4622.000000	64.605784 
4621.000000	64.578938 
4620.000000	64.552807 
4619.000000	64.529490 
4618.000000	64.511203 
4617.000000	64.499473 
4616.000000	64.495897 
4615.000000	64.501500 
4614.000000	64.517545 
4613.000000	64.544987 
4612.000000	64.584493 
4611.000000	64.635777 
4610.000000	64.697670 
4609.000000	64.767551 
4608.000000	64.841771 
4607.000000	64.915752 
4606.000000	64.984107 
4605.000000	65.041327 
4604.000000	65.082502 
4603.000000	65.104365 
4602.000000	65.105152 
4601.000000	65.085268 
4600.000000	65.047264 
4599.000000	64.995956 
4598.000000	64.938330 
4597.000000	64.882564 
4596.000000	64.837384 
4595.000000	64.810323 
4594.000000	64.806771 
4593.000000	64.828658 
4592.000000	64.873862 
4591.000000	64.936637 
4590.000000	65.008449 
4589.000000	65.079498 
4588.000000	65.140366 
4587.000000	65.183591 
4586.000000	65.204858 
4585.000000	65.203404 
4584.000000	65.181517 
4583.000000	65.144157 
4582.000000	65.097856 
4581.000000	65.049362 
4580.000000	65.004563 
4579.000000	64.967346 
4578.000000	64.939427 
4577.000000	64.920496 
4576.000000	64.908623 
4575.000000	64.900779 
4574.000000	64.893579 
4573.000000	64.883995 
4572.000000	64.870119 
4571.000000	64.850640 
4570.000000	64.825582 
4569.000000	64.795875 
4568.000000	64.763069 
4567.000000	64.728999 
4566.000000	64.695501 
4565.000000	64.664340 
4564.000000	64.636611 
4563.000000	64.612674 
4562.000000	64.591646 
4561.000000	64.571809 
4560.000000	64.550805 
4559.000000	64.525866 
4558.000000	64.494943 
4557.000000	64.456868 
4556.000000	64.413022 
4555.000000	64.366769 
4554.000000	64.323997 
4553.000000	64.291620 
4552.000000	64.277267 
4551.000000	64.287185 
4550.000000	64.325237 
4549.000000	64.391422 
4548.000000	64.481472 
4547.000000	64.587306 
4546.000000	64.698266 
4545.000000	64.803266 
4544.000000	64.892578 
4543.000000	64.959621 
4542.000000	65.002250 
4541.000000	65.022134 
4540.000000	65.023446 
4539.000000	65.011787 
4538.000000	64.992809 
4537.000000	64.971566 
4536.000000	64.952206 
4535.000000	64.937710 
4534.000000	64.931273 
4533.000000	64.935016 
4532.000000	64.950346 
4531.000000	64.977478 
4530.000000	65.015268 
4529.000000	65.060639 
4528.000000	65.108299 
4527.000000	65.152454 
4526.000000	65.188050 
4525.000000	65.210938 
4524.000000	65.218520 
4523.000000	65.211796 
4522.000000	65.194988 
4521.000000	65.172719 
4520.000000	65.149331 
4519.000000	65.128326 
4518.000000	65.112376 
4517.000000	65.103769 
4516.000000	65.104317 
4515.000000	65.117645 
4514.000000	65.146255 
4513.000000	65.189003 
4512.000000	65.241909 
4511.000000	65.297865 
4510.000000	65.349531 
4509.000000	65.391063 
4508.000000	65.419936 
4507.000000	65.436196 
4506.000000	65.444159 
4505.000000	65.451169 
4504.000000	65.465903 
4503.000000	65.493440 
4502.000000	65.540552 
4501.000000	65.614509 
4500.000000	65.723943 
4499.000000	65.876030 
4498.000000	66.079354 
4497.000000	66.340708 
4496.000000	66.658473 
4495.000000	67.020368 
4494.000000	67.400670 
4493.000000	67.766594 
4492.000000	68.080902 
4491.000000	68.316340 
4490.000000	68.467450 
4489.000000	68.553090 
4488.000000	68.619132 
4487.000000	68.718290 
4486.000000	68.898940 
4485.000000	69.179940 
4484.000000	69.546127 
4483.000000	69.941520 
4482.000000	70.287799 
4481.000000	70.495915 
4480.000000	70.498251 
4479.000000	70.257139 
4478.000000	69.781303 
4477.000000	69.117307 
4476.000000	68.340897 
4475.000000	67.535948 
4474.000000	66.778159 
4473.000000	66.116070 
4472.000000	65.564942 
4471.000000	65.115594 
4470.000000	64.746713 
4469.000000	64.431452 
4468.000000	64.149928 
4467.000000	63.896965 
4466.000000	63.684129 
4465.000000	63.523554 
4464.000000	63.427424 
4463.000000	63.400530 
4462.000000	63.439416 
4461.000000	63.531136 
4460.000000	63.655757 
4459.000000	63.786077 
4458.000000	63.897037 
4457.000000	63.966965 
4456.000000	63.986921 
4455.000000	63.961505 
4454.000000	63.906836 
4453.000000	63.851642 
4452.000000	63.817501 
4451.000000	63.813138 
4450.000000	63.823628 
4449.000000	63.819408 
4448.000000	63.748598 
4447.000000	63.553237 
4446.000000	63.178658 
4445.000000	62.593650 
4444.000000	61.784529 
4443.000000	60.763120 
4442.000000	59.567570 
4441.000000	58.263564 
4440.000000	56.932735 
4439.000000	55.670881 
4438.000000	54.578042 
4437.000000	53.751754 
4436.000000	53.273367 
4435.000000	53.196978 
4434.000000	53.533983 
4433.000000	54.250526 
4432.000000	55.257368 
4431.000000	56.434655 
4430.000000	57.630586 
4429.000000	58.713579 
4428.000000	59.581398 
4427.000000	60.197281 
4426.000000	60.582900 
4425.000000	60.817456 
4424.000000	61.007666 
4423.000000	61.260509 
4422.000000	61.653113 
4421.000000	62.213969 
4420.000000	62.920165 
4419.000000	63.706493 
4418.000000	64.491081 
4417.000000	65.190768 
4416.000000	65.744662 
4415.000000	66.124725 
4414.000000	66.339159 
4413.000000	66.419482 
4412.000000	66.408085 
4411.000000	66.348314 
4410.000000	66.271591 
4409.000000	66.193056 
4408.000000	66.109800 
4407.000000	66.019773 
4406.000000	65.917253 
4405.000000	65.801978 
4404.000000	65.676784 
4403.000000	65.548896 
4402.000000	65.427303 
4401.000000	65.320515 
4400.000000	65.234041 
4399.000000	65.165543 
4398.000000	65.110206 
4397.000000	65.064644 
4396.000000	65.024876 
4395.000000	64.985275 
4394.000000	64.944338 
4393.000000	64.905548 
4392.000000	64.874410 
4391.000000	64.855790 
4390.000000	64.854145 
4389.000000	64.872026 
4388.000000	64.907860 
4387.000000	64.956331 
4386.000000	65.013098 
4385.000000	65.075039 
4384.000000	65.138697 
4383.000000	65.200734 
4382.000000	65.258836 
4381.000000	65.310931 
4380.000000	65.354108 
4379.000000	65.385460 
4378.000000	65.401864 
4377.000000	65.402007 
4376.000000	65.388131 
4375.000000	65.365600 
4374.000000	65.342259 
4373.000000	65.326714 
4372.000000	65.327334 
4371.000000	65.348958 
4370.000000	65.391564 
4369.000000	65.449810 
4368.000000	65.514564 
4367.000000	65.574979 
4366.000000	65.621042 
4365.000000	65.646028 
4364.000000	65.647912 
4363.000000	65.629363 
4362.000000	65.596532 
4361.000000	65.557003 
4360.000000	65.517568 
4359.000000	65.482950 
4358.000000	65.454912 
4357.000000	65.433025 
4356.000000	65.415310 
4355.000000	65.399622 
4354.000000	65.385079 
4353.000000	65.371847 
4352.000000	65.362405 
4351.000000	65.360713 
4350.000000	65.371298 
4349.000000	65.397620 
4348.000000	65.440535 
4347.000000	65.497660 
4346.000000	65.562796 
4345.000000	65.627408 
4344.000000	65.681433 
4343.000000	65.715765 
4342.000000	65.723681 
4341.000000	65.702748 
4340.000000	65.654587 
4339.000000	65.584683 
4338.000000	65.500950 
4337.000000	65.412211 
4336.000000	65.326809 
4335.000000	65.251517 
4334.000000	65.190768 
4333.000000	65.146517 
4332.000000	65.119123 
4331.000000	65.107488 
4330.000000	65.109467 
4329.000000	65.122556 
4328.000000	65.143346 
4327.000000	65.168786 
4326.000000	65.194940 
4325.000000	65.219044 
4324.000000	65.239167 
4323.000000	65.255618 
4322.000000	65.270137 
4321.000000	65.286064 
4320.000000	65.307474 
4319.000000	65.337586 
4318.000000	65.377974 
4317.000000	65.427374 
4316.000000	65.481829 
4315.000000	65.535354 
4314.000000	65.581178 
4313.000000	65.613532 
4312.000000	65.629220 
4311.000000	65.628123 
4310.000000	65.613245 
4309.000000	65.589618 
4308.000000	65.562725 
4307.000000	65.537095 
4306.000000	65.515184 
4305.000000	65.496659 
4304.000000	65.478801 
4303.000000	65.458273 
4302.000000	65.431904 
4301.000000	65.397882 
4300.000000	65.356254 
4299.000000	65.308904 
4298.000000	65.259170 
4297.000000	65.210890 
4296.000000	65.167593 
4295.000000	65.131425 
4294.000000	65.103459 
4293.000000	65.083789 
4292.000000	65.071749 
4291.000000	65.066146 
4290.000000	65.065908 
4289.000000	65.070319 
4288.000000	65.078568 
4287.000000	65.089225 
4286.000000	65.100526 
4285.000000	65.110254 
4284.000000	65.116262 
4283.000000	65.116643 
4282.000000	65.110540 
4281.000000	65.098357 
4280.000000	65.081810 
4279.000000	65.063714 
4278.000000	65.046906 
4277.000000	65.033745 
4276.000000	65.025615 
4275.000000	65.022492 
4274.000000	65.022945 
4273.000000	65.024518 
4272.000000	65.024995 
4271.000000	65.022778 
4270.000000	65.017318 
4269.000000	65.008592 
4268.000000	64.997768 
4267.000000	64.985632 
4266.000000	64.972066 
4265.000000	64.955806 
4264.000000	64.934730 
4263.000000	64.906573 
4262.000000	64.870142 
4261.000000	64.826107 
4260.000000	64.777684 
4259.000000	64.730358 
4258.000000	64.690828 
4257.000000	64.665794 
4256.000000	64.660191 
4255.000000	64.676237 
4254.000000	64.712858 
4253.000000	64.765858 
4252.000000	64.828824 
4251.000000	64.894676 
4250.000000	64.957070 
4249.000000	65.011453 
4248.000000	65.055894 
4247.000000	65.090775 
4246.000000	65.118384 
4245.000000	65.141820 
4244.000000	65.163850 
4243.000000	65.186429 
4242.000000	65.209507 
4241.000000	65.232157 
4240.000000	65.251564 
4239.000000	65.264463 
4238.000000	65.267419 
4237.000000	65.258383 
4236.000000	65.237021 
4235.000000	65.205264 
4234.000000	65.167212 
4233.000000	65.128684 
4232.000000	65.095567 
4231.000000	65.072536 
4230.000000	65.061950 
4229.000000	65.063452 
4228.000000	65.074372 
4227.000000	65.090656 
4226.000000	65.107798 
4225.000000	65.122175 
4224.000000	65.131711 
4223.000000	65.136051 
4222.000000	65.135908 
4221.000000	65.132665 
4220.000000	65.127515 
4219.000000	65.121269 
4218.000000	65.113472 
4217.000000	65.103340 
4216.000000	65.090751 
4215.000000	65.076541 
4214.000000	65.062618 
4213.000000	65.052103 
4212.000000	65.048313 
4211.000000	65.054416 
4210.000000	65.072107 
4209.000000	65.101480 
4208.000000	65.140914 
4207.000000	65.187096 
4206.000000	65.235948 
4205.000000	65.282106 
4204.000000	65.319705 
4203.000000	65.342998 
4202.000000	65.347146 
4201.000000	65.329122 
4200.000000	65.288090 
4199.000000	65.226411 
4198.000000	65.149354 
4197.000000	65.064454 
4196.000000	64.980173 
4195.000000	64.904546 
4194.000000	64.843535 
4193.000000	64.800047 
4192.000000	64.773750 
4191.000000	64.761114 
4190.000000	64.757299 
4189.000000	64.757084 
4188.000000	64.756965 
4187.000000	64.755201 
4186.000000	64.752960 
4185.000000	64.752388 
4184.000000	64.757227 
4183.000000	64.769911 
4182.000000	64.792609 
4181.000000	64.825963 
4180.000000	64.869570 
4179.000000	64.921975 
4178.000000	64.980816 
4177.000000	65.043425 
4176.000000	65.106296 
4175.000000	65.165352 
4174.000000	65.215945 
4173.000000	65.253663 
4172.000000	65.274906 
4171.000000	65.277671 
4170.000000	65.262365 
4169.000000	65.231800 
4168.000000	65.191388 
4167.000000	65.147924 
4166.000000	65.107917 
4165.000000	65.076446 
4164.000000	65.056562 
4163.000000	65.048599 
4162.000000	65.050768 
4161.000000	65.059685 
4160.000000	65.072131 
4159.000000	65.084934 
4158.000000	65.095949 
4157.000000	65.103292 
4156.000000	65.105319 
4155.000000	65.100193 
4154.000000	65.085506 
4153.000000	65.059185 
4152.000000	65.019536 
4151.000000	64.966940 
4150.000000	64.904189 
4149.000000	64.836835 
4148.000000	64.772224 
4147.000000	64.718461 
4146.000000	64.682674 
4145.000000	64.669251 
4144.000000	64.678835 
4143.000000	64.708399 
4142.000000	64.752125 
4141.000000	64.802527 
4140.000000	64.852428 
4139.000000	64.895868 
4138.000000	64.929199 
4137.000000	64.951181 
4136.000000	64.962720 
4135.000000	64.965772 
4134.000000	64.962983 
4133.000000	64.956951 
4132.000000	64.950037 
4131.000000	64.944386 
4130.000000	64.941334 
4129.000000	64.942359 
4128.000000	64.947891 
4127.000000	64.957785 
4126.000000	64.970612 
4125.000000	64.983844 
4124.000000	64.994382 
4123.000000	64.999175 
4122.000000	64.996337 
4121.000000	64.985752 
4120.000000	64.969182 
4119.000000	64.949965 
4118.000000	64.932632 
4117.000000	64.921998 
4116.000000	64.921998 
4115.000000	64.934968 
4114.000000	64.961361 
4113.000000	64.999508 
4112.000000	65.045976 
4111.000000	65.096020 
4110.000000	65.144491 
4109.000000	65.186691 
4108.000000	65.219545 
4107.000000	65.241503 
4106.000000	65.252590 
4105.000000	65.253567 
4104.000000	65.245628 
4103.000000	65.229439 
4102.000000	65.205311 
4101.000000	65.172982 
4100.000000	65.132713 
4099.000000	65.085482 
4098.000000	65.033888 
4097.000000	64.981842 
4096.000000	64.934349 
4095.000000	64.896559 
4094.000000	64.872932 
4093.000000	64.866304 
4092.000000	64.877057 
4091.000000	64.903235 
4090.000000	64.940810 
4089.000000	64.984536 
4088.000000	65.028953 
4087.000000	65.069341 
4086.000000	65.102434 
4085.000000	65.126276 
4084.000000	65.140366 
4083.000000	65.145516 
4082.000000	65.143108 
4081.000000	65.135192 
4080.000000	65.123367 
4079.000000	65.109324 
4078.000000	65.093660 
4077.000000	65.076398 
4076.000000	65.056681 
4075.000000	65.033268 
4074.000000	65.005230 
4073.000000	64.972829 
4072.000000	64.938092 
4071.000000	64.904522 
4070.000000	64.876723 
4069.000000	64.859414 
4068.000000	64.856457 
4067.000000	64.869689 
4066.000000	64.898633 
4065.000000	64.940261 
4064.000000	64.989995 
4063.000000	65.042662 
4062.000000	65.093564 
4061.000000	65.139341 
4060.000000	65.178442 
4059.000000	65.211224 
4058.000000	65.239334 
4057.000000	65.265154 
4056.000000	65.290522 
4055.000000	65.315937 
4054.000000	65.341258 
4053.000000	65.364480 
4052.000000	65.383458 
4051.000000	65.395188 
4050.000000	65.397429 
4049.000000	65.388226 
4048.000000	65.366983 
4047.000000	65.334486 
4046.000000	65.293049 
4045.000000	65.246248 
4044.000000	65.198540 
4043.000000	65.154552 
4042.000000	65.118575 
4041.000000	65.093922 
4040.000000	65.082359 
4039.000000	65.084075 
4038.000000	65.097546 
4037.000000	65.119957 
4036.000000	65.147495 
4035.000000	65.175795 
4034.000000	65.200471 
4033.000000	65.217447 
4032.000000	65.223503 
4031.000000	65.216779 
4030.000000	65.197038 
4029.000000	65.165567 
4028.000000	65.125012 
4027.000000	65.079188 
4026.000000	65.032124 
4025.000000	64.987874 
4024.000000	64.949035 
4023.000000	64.916634 
4022.000000	64.889717 
4021.000000	64.865827 
4020.000000	64.841771 
4019.000000	64.814281 
4018.000000	64.781498 
4017.000000	64.743351 
4016.000000	64.701986 
4015.000000	64.661121 
4014.000000	64.625644 
4013.000000	64.600205 
4012.000000	64.588141 
4011.000000	64.590454 
4010.000000	64.605879 
4009.000000	64.631199 
4008.000000	64.661979 
4007.000000	64.693593 
4006.000000	64.722275 
4005.000000	64.745879 
4004.000000	64.763903 
4003.000000	64.777159 
4002.000000	64.787387 
4001.000000	64.796590 
4000.000000	64.805960 
3999.000000	64.815950 
3998.000000	64.826464 
3997.000000	64.836955 
3996.000000	64.846754 
3995.000000	64.855670 
3994.000000	64.864277 
3993.000000	64.873743 
3992.000000	64.885401 
3991.000000	64.900469 
3990.000000	64.919543 
3989.000000	64.942622 
3988.000000	64.968967 
3987.000000	64.997076 
3986.000000	65.025258 
3985.000000	65.051388 
3984.000000	65.073585 
3983.000000	65.090346 
3982.000000	65.101075 
3981.000000	65.106272 
3980.000000	65.107822 
3979.000000	65.108823 
3978.000000	65.113186 
3977.000000	65.125274 
3976.000000	65.148901 
3975.000000	65.186333 
3974.000000	65.237379 
3973.000000	65.299701 
3972.000000	65.368318 
3971.000000	65.436840 
3970.000000	65.497970 
3969.000000	65.545654 
3968.000000	65.575289 
3967.000000	65.585064 
3966.000000	65.575265 
3965.000000	65.548419 
3964.000000	65.508151 
3963.000000	65.458655 
3962.000000	65.404152 
3961.000000	65.348672 
3960.000000	65.295743 
3959.000000	65.248394 
3958.000000	65.208959 
3957.000000	65.179204 
3956.000000	65.159654 
3955.000000	65.149784 
3954.000000	65.147852 
3953.000000	65.151500 
3952.000000	65.157675 
3951.000000	65.163469 
3950.000000	65.166306 
3949.000000	65.164542 
3948.000000	65.157532 
3947.000000	65.145540 
3946.000000	65.129113 
3945.000000	65.109276 
3944.000000	65.086865 
3943.000000	65.063142 
3942.000000	65.039706 
3941.000000	65.018296 
3940.000000	65.001034 
3939.000000	64.989423 
3938.000000	64.984321 
3937.000000	64.985060 
3936.000000	64.989399 
3935.000000	64.993977 
3934.000000	64.994931 
3933.000000	64.989066 
3932.000000	64.974331 
3931.000000	64.950537 
3930.000000	64.919328 
3929.000000	64.883971 
3928.000000	64.849114 
3927.000000	64.819455 
3926.000000	64.799451 
3925.000000	64.792728 
3924.000000	64.801621 
3923.000000	64.827036 
3922.000000	64.868235 
3921.000000	64.922857 
3920.000000	64.986944 
3919.000000	65.055060 
3918.000000	65.121006 
3917.000000	65.178442 
3916.000000	65.222048 
3915.000000	65.248465 
3914.000000	65.256905 
3913.000000	65.249848 
3912.000000	65.231466 
3911.000000	65.207433 
3910.000000	65.182685 
3909.000000	65.160918 
3908.000000	65.143442 
3907.000000	65.129661 
3906.000000	65.117669 
3905.000000	65.105319 
3904.000000	65.091395 
3903.000000	65.076398 
3902.000000	65.062427 
3901.000000	65.052628 
3900.000000	65.049910 
3899.000000	65.056180 
3898.000000	65.071105 
3897.000000	65.092349 
3896.000000	65.115761 
3895.000000	65.137004 
3894.000000	65.152597 
3893.000000	65.161395 
3892.000000	65.164828 
3891.000000	65.166282 
3890.000000	65.170526 
3889.000000	65.181255 
3888.000000	65.200471 
3887.000000	65.226697 
3886.000000	65.255832 
3885.000000	65.281295 
3884.000000	65.296268 
3883.000000	65.294837 
3882.000000	65.274143 
3881.000000	65.234327 
3880.000000	65.179061 
3879.000000	65.114259 
3878.000000	65.046906 
3877.000000	64.983558 
3876.000000	64.929509 
3875.000000	64.888215 
3874.000000	64.861226 
3873.000000	64.848756 
3872.000000	64.850306 
3871.000000	64.864754 
3870.000000	64.890742 
3869.000000	64.925932 
3868.000000	64.967775 
3867.000000	65.012526 
3866.000000	65.056848 
3865.000000	65.097856 
3864.000000	65.134286 
3863.000000	65.166473 
3862.000000	65.196156 
3861.000000	65.226411 
3860.000000	65.259695 
3859.000000	65.297484 
3858.000000	65.338540 
3857.000000	65.379595 
3856.000000	65.415310 
3855.000000	65.439939 
3854.000000	65.448331 
3853.000000	65.437817 
3852.000000	65.408539 
3851.000000	65.363907 
3850.000000	65.309381 
3849.000000	65.251588 
3848.000000	65.197134 
3847.000000	65.151548 
3846.000000	65.118980 
3845.000000	65.102076 
3844.000000	65.102338 
3843.000000	65.119814 
3842.000000	65.152931 
3841.000000	65.198397 
3840.000000	65.250849 
3839.000000	65.303444 
3838.000000	65.348792 
3837.000000	65.379977 
3836.000000	65.391874 
3835.000000	65.382051 
3834.000000	65.351200 
3833.000000	65.302872 
3832.000000	65.243005 
3831.000000	65.178561 
3830.000000	65.116643 
3829.000000	65.062904 
3828.000000	65.021061 
3827.000000	64.992237 
3826.000000	64.975714 
3825.000000	64.968967 
3824.000000	64.968562 
3823.000000	64.971041 
3822.000000	64.973568 
3821.000000	64.973974 
3820.000000	64.971137 
3819.000000	64.964914 
3818.000000	64.955997 
3817.000000	64.945697 
3816.000000	64.935660 
3815.000000	64.927339 
3814.000000	64.921951 
3813.000000	64.920306 
3812.000000	64.923310 
3811.000000	64.932084 
3810.000000	64.948034 
3809.000000	64.972400 
3808.000000	65.005946 
3807.000000	65.048336 
3806.000000	65.097475 
3805.000000	65.149521 
3804.000000	65.199160 
3803.000000	65.240550 
3802.000000	65.268278 
3801.000000	65.278720 
3800.000000	65.270447 
3799.000000	65.244436 
3798.000000	65.204119 
3797.000000	65.155029 
3796.000000	65.103268 
3795.000000	65.054512 
3794.000000	65.013670 
3793.000000	64.984107 
3792.000000	64.967346 
3791.000000	64.963030 
3790.000000	64.969420 
3789.000000	64.983415 
3788.000000	65.000867 
3787.000000	65.017557 
3786.000000	65.029096 
3785.000000	65.032672 
3784.000000	65.026736 
3783.000000	65.012073 
3782.000000	64.991474 
3781.000000	64.969110 
3780.000000	64.949131 
3779.000000	64.934968 
3778.000000	64.928102 
3777.000000	64.928054 
3776.000000	64.932537 
3775.000000	64.938330 
3774.000000	64.942240 
3773.000000	64.942598 
3772.000000	64.939928 
3771.000000	64.936780 
3770.000000	64.936804 
3769.000000	64.943742 
3768.000000	64.960217 
3767.000000	64.986705 
3766.000000	65.021419 
3765.000000	65.060734 
3764.000000	65.100073 
3763.000000	65.135502 
3762.000000	65.164637 
3761.000000	65.186953 
3760.000000	65.203881 
3759.000000	65.217947 
3758.000000	65.232300 
3757.000000	65.249657 
3756.000000	65.271663 
3755.000000	65.298867 
3754.000000	65.330123 
3753.000000	65.363550 
3752.000000	65.396022 
3751.000000	65.424466 
3750.000000	65.445542 
3749.000000	65.456199 
3748.000000	65.454101 
3747.000000	65.438127 
3746.000000	65.408802 
3745.000000	65.368509 
3744.000000	65.321588 
3743.000000	65.273809 
3742.000000	65.231132 
3741.000000	65.198826 
3740.000000	65.180015 
3739.000000	65.175151 
3738.000000	65.181565 
3737.000000	65.194344 
3736.000000	65.207052 
3735.000000	65.213632 
3734.000000	65.209531 
3733.000000	65.193080 
3732.000000	65.165448 
3731.000000	65.130400 
3730.000000	65.093588 
3729.000000	65.061140 
3728.000000	65.038084 
3727.000000	65.027618 
3726.000000	65.030574 
3725.000000	65.045475 
3724.000000	65.069150 
3723.000000	65.097546 
3722.000000	65.126490 
3721.000000	65.152621 
3720.000000	65.173554 
3719.000000	65.188550 
3718.000000	65.198111 
3717.000000	65.203809 
3716.000000	65.207719 
3715.000000	65.211677 
3714.000000	65.216779 
3713.000000	65.223407 
3712.000000	65.231060 
3711.000000	65.238404 
3710.000000	65.243673 
3709.000000	65.245413 
3708.000000	65.242648 
3707.000000	65.234899 
3706.000000	65.222334 
3705.000000	65.205860 
3704.000000	65.186953 
3703.000000	65.167307 
3702.000000	65.148758 
3701.000000	65.132951 
3700.000000	65.121197 
3699.000000	65.114593 
3698.000000	65.113592 
3697.000000	65.118122 
3696.000000	65.127563 
3695.000000	65.140819 
3694.000000	65.156483 
3693.000000	65.172886 
3692.000000	65.188598 
3691.000000	65.202641 
3690.000000	65.214467 
3689.000000	65.223932 
3688.000000	65.231299 
3687.000000	65.237092 
3686.000000	65.241765 
3685.000000	65.245914 
3684.000000	65.250182 
3683.000000	65.255308 
3682.000000	65.262460 
3681.000000	65.273094 
3680.000000	65.288543 
3679.000000	65.309476 
3678.000000	65.335822 
3677.000000	65.365982 
3676.000000	65.397024 
3675.000000	65.424585 
3674.000000	65.443873 
3673.000000	65.450239 
3672.000000	65.440440 
3671.000000	65.413165 
3670.000000	65.369868 
3669.000000	65.314412 
3668.000000	65.252614 
3667.000000	65.191173 
3666.000000	65.136504 
3665.000000	65.093612 
3664.000000	65.065288 
3663.000000	65.052032 
3662.000000	65.052103 
3661.000000	65.062379 
3660.000000	65.078997 
3659.000000	65.098404 
3658.000000	65.118002 
3657.000000	65.136480 
3656.000000	65.153765 
3655.000000	65.170407 
3654.000000	65.187096 
3653.000000	65.204095 
3652.000000	65.220761 
3651.000000	65.235614 
3650.000000	65.246653 
3649.000000	65.252280 
3648.000000	65.251493 
3647.000000	65.244746 
3646.000000	65.233325 
3645.000000	65.219092 
3644.000000	65.204071 
3643.000000	65.189671 
3642.000000	65.176725 
3641.000000	65.165281 
3640.000000	65.155196 
3639.000000	65.146422 
3638.000000	65.139389 
3637.000000	65.134978 
3636.000000	65.134644 
3635.000000	65.139937 
3634.000000	65.151834 
3633.000000	65.170454 
3632.000000	65.194702 
3631.000000	65.222382 
3630.000000	65.250468 
3629.000000	65.275835 
3628.000000	65.295481 
3627.000000	65.307283 
3626.000000	65.310144 
3625.000000	65.304183 
3624.000000	65.290522 
3623.000000	65.271186 
3622.000000	65.248966 
3621.000000	65.226960 
3620.000000	65.208435 
3619.000000	65.196204 
3618.000000	65.192055 
3617.000000	65.196752 
3616.000000	65.209650 
3615.000000	65.228819 
3614.000000	65.251612 
3613.000000	65.274977 
3612.000000	65.296149 
3611.000000	65.313053 
3610.000000	65.324521 
3609.000000	65.330362 
3608.000000	65.331053 
3607.000000	65.327429 
3606.000000	65.320158 
3605.000000	65.309691 
3604.000000	65.296173 
3603.000000	65.279746 
3602.000000	65.260720 
3601.000000	65.239739 
3600.000000	65.217971 
3599.000000	65.197086 
3598.000000	65.178871 
3597.000000	65.164732 
3596.000000	65.155649 
3595.000000	65.152025 
3594.000000	65.153884 
3593.000000	65.160608 
3592.000000	65.171360 
3591.000000	65.185284 
3590.000000	65.201616 
3589.000000	65.219402 
3588.000000	65.237784 
3587.000000	65.255784 
3586.000000	65.272259 
3585.000000	65.285968 
3584.000000	65.295910 
3583.000000	65.301227 
3582.000000	65.301632 
3581.000000	65.297555 
3580.000000	65.290141 
3579.000000	65.280866 
3578.000000	65.271592 
3577.000000	65.263891 
3576.000000	65.258789 
3575.000000	65.256404 
3574.000000	65.256071 
3573.000000	65.256333 
3572.000000	65.255212 
3571.000000	65.250349 
3570.000000	65.239906 
3569.000000	65.222716 
3568.000000	65.198588 
3567.000000	65.168333 
3566.000000	65.133738 
3565.000000	65.097045 
3564.000000	65.060758 
3563.000000	65.027141 
3562.000000	64.997673 
3561.000000	64.973497 
3560.000000	64.955306 
3559.000000	64.943647 
3558.000000	64.938664 
3557.000000	64.940476 
3556.000000	64.948964 
3555.000000	64.963769 
3554.000000	64.983892 
3553.000000	65.007901 
3552.000000	65.033936 
3551.000000	65.060019 
3550.000000	65.084242 
3549.000000	65.104937 
3548.000000	65.121269 
3547.000000	65.133023 
3546.000000	65.140867 
3545.000000	65.145993 
3544.000000	65.149807 
3543.000000	65.153980 
3542.000000	65.159249 
3541.000000	65.165710 
3540.000000	65.171837 
3539.000000	65.175819 
3538.000000	65.174984 
3537.000000	65.166974 
3536.000000	65.150189 
3535.000000	65.124511 
3534.000000	65.091514 
3533.000000	65.054249 
3532.000000	65.016961 
3531.000000	64.984273 
3530.000000	64.960360 
3529.000000	64.948129 
3528.000000	64.948654 
3527.000000	64.960956 
3526.000000	64.982223 
3525.000000	65.008354 
3524.000000	65.034627 
3523.000000	65.056848 
3522.000000	65.071964 
3521.000000	65.078926 
3520.000000	65.078496 
3519.000000	65.073180 
3518.000000	65.066599 
3517.000000	65.062499 
3516.000000	65.064167 
3515.000000	65.073418 
3514.000000	65.090560 
3513.000000	65.113997 
3512.000000	65.140962 
3511.000000	65.167760 
3510.000000	65.190744 
3509.000000	65.206885 
3508.000000	65.214276 
3507.000000	65.212345 
3506.000000	65.201926 
3505.000000	65.185022 
3504.000000	65.164184 
3503.000000	65.142202 
3502.000000	65.121483 
3501.000000	65.103864 
3500.000000	65.090465 
3499.000000	65.081524 
3498.000000	65.076828 
3497.000000	65.075659 
3496.000000	65.077257 
3495.000000	65.081095 
3494.000000	65.087294 
3493.000000	65.096187 
3492.000000	65.108370 
3491.000000	65.124416 
3490.000000	65.144562 
3489.000000	65.168380 
3488.000000	65.194606 
3487.000000	65.221095 
3486.000000	65.245032 
3485.000000	65.263724 
3484.000000	65.274620 
3483.000000	65.276050 
3482.000000	65.267562 
3481.000000	65.250158 
3480.000000	65.225887 
3479.000000	65.197777 
3478.000000	65.168881 
3477.000000	65.142130 
3476.000000	65.119338 
3475.000000	65.101242 
3474.000000	65.087199 
3473.000000	65.075659 
3472.000000	65.064382 
3471.000000	65.051007 
3470.000000	65.033721 
3469.000000	65.011906 
3468.000000	64.986276 
3467.000000	64.958930 
3466.000000	64.932942 
3465.000000	64.911937 
3464.000000	64.899253 
3463.000000	64.897441 
3462.000000	64.907455 
3461.000000	64.928746 
3460.000000	64.959311 
3459.000000	64.996099 
3458.000000	65.035533 
3457.000000	65.074133 
3456.000000	65.108752 
3455.000000	65.137243 
3454.000000	65.158343 
3453.000000	65.171861 
3452.000000	65.178513 
3451.000000	65.179657 
3450.000000	65.177297 
3449.000000	65.173339 
3448.000000	65.169525 
3447.000000	65.167140 
3446.000000	65.167093 
3445.000000	65.169382 
3444.000000	65.173482 
3443.000000	65.178442 
3442.000000	65.183138 
3441.000000	65.186643 
3440.000000	65.188455 
3439.000000	65.188503 
3438.000000	65.187263 
3437.000000	65.185308 
3436.000000	65.183353 
3435.000000	65.181899 
3434.000000	65.181303 
3433.000000	65.181589 
3432.000000	65.182733 
3431.000000	65.184783 
3430.000000	65.187716 
3429.000000	65.191578 
3428.000000	65.196371 
3427.000000	65.201926 
3426.000000	65.207982 
3425.000000	65.214300 
3424.000000	65.220665 
3423.000000	65.226840 
3422.000000	65.232491 
3421.000000	65.237236 
3420.000000	65.240359 
3419.000000	65.240955 
3418.000000	65.237617 
3417.000000	65.228772 
3416.000000	65.213012 
3415.000000	65.189599 
3414.000000	65.158843 
3413.000000	65.122294 
3412.000000	65.082764 
3411.000000	65.043902 
3410.000000	65.009689 
3409.000000	64.983725 
3408.000000	64.968204 
3407.000000	64.963746 
3406.000000	64.969468 
3405.000000	64.983272 
3404.000000	65.002202 
3403.000000	65.023469 
3402.000000	65.044355 
3401.000000	65.063095 
3400.000000	65.078735 
3399.000000	65.091085 
3398.000000	65.100240 
3397.000000	65.106606 
3396.000000	65.110445 
3395.000000	65.112113 
3394.000000	65.111851 
3393.000000	65.110254 
3392.000000	65.108275 
3391.000000	65.107178 
3390.000000	65.108418 
3389.000000	65.113282 
3388.000000	65.122509 
3387.000000	65.135693 
3386.000000	65.150928 
3385.000000	65.165162 
3384.000000	65.174651 
3383.000000	65.175485 
3382.000000	65.164804 
3381.000000	65.141296 
3380.000000	65.106272 
3379.000000	65.063095 
3378.000000	65.017247 
3377.000000	64.975214 
3376.000000	64.943242 
3375.000000	64.926099 
3374.000000	64.926218 
3373.000000	64.943146 
3372.000000	64.973688 
3371.000000	65.012621 
3370.000000	65.053820 
3369.000000	65.091323 
3368.000000	65.120530 
3367.000000	65.139079 
3366.000000	65.146946 
3365.000000	65.146064 
3364.000000	65.139794 
3363.000000	65.131735 
3362.000000	65.125226 
3361.000000	65.122342 
3360.000000	65.123510 
3359.000000	65.127468 
3358.000000	65.132045 
3357.000000	65.134572 
3356.000000	65.132880 
3355.000000	65.125799 
3354.000000	65.113496 
3353.000000	65.097475 
3352.000000	65.080308 
3351.000000	65.065073 
3350.000000	65.054464 
3349.000000	65.050315 
3348.000000	65.053272 
3347.000000	65.062522 
3346.000000	65.076351 
3345.000000	65.092206 
3344.000000	65.107417 
3343.000000	65.119791 
3342.000000	65.127849 
3341.000000	65.131425 
3340.000000	65.131354 
3339.000000	65.129613 
3338.000000	65.128469 
3337.000000	65.130591 
3336.000000	65.138506 
3335.000000	65.153789 
3334.000000	65.176749 
3333.000000	65.206480 
3332.000000	65.240836 
3331.000000	65.276551 
3330.000000	65.309953 
3329.000000	65.337634 
3328.000000	65.357017 
3327.000000	65.366888 
3326.000000	65.367484 
3325.000000	65.360307 
3324.000000	65.347671 
3323.000000	65.332269 
3322.000000	65.316390 
3321.000000	65.301823 
3320.000000	65.289258 
3319.000000	65.278935 
3318.000000	65.270495 
3317.000000	65.263462 
3316.000000	65.257406 
3315.000000	65.252280 
3314.000000	65.248227 
3313.000000	65.245246 
3312.000000	65.243124 
3311.000000	65.241241 
3310.000000	65.238046 
3309.000000	65.231609 
3308.000000	65.219593 
3307.000000	65.200042 
3306.000000	65.171742 
3305.000000	65.134692 
3304.000000	65.090346 
3303.000000	65.041446 
3302.000000	64.991974 
3301.000000	64.946579 
3300.000000	64.909505 
3299.000000	64.884185 
3298.000000	64.872694 
3297.000000	64.875459 
3296.000000	64.891052 
3295.000000	64.916753 
3294.000000	64.948582 
3293.000000	64.982628 
3292.000000	65.015053 
3291.000000	65.043187 
3290.000000	65.065336 
3289.000000	65.081453 
3288.000000	65.092515 
3287.000000	65.100455 
3286.000000	65.107488 
3285.000000	65.115594 
3284.000000	65.126132 
3283.000000	65.139365 
3282.000000	65.154409 
3281.000000	65.169358 
3280.000000	65.181708 
3279.000000	65.188765 
3278.000000	65.188217 
3277.000000	65.178513 
3276.000000	65.159368 
3275.000000	65.131425 
3274.000000	65.096449 
3273.000000	65.056920 
3272.000000	65.016031 
3271.000000	64.976978 
3270.000000	64.942741 
3269.000000	64.915966 
3268.000000	64.898180 
3267.000000	64.889740 
3266.000000	64.889717 
3265.000000	64.896154 
3264.000000	64.906716 
3263.000000	64.918875 
3262.000000	64.930748 
3261.000000	64.941120 
3260.000000	64.949703 
3259.000000	64.956760 
3258.000000	64.962863 
3257.000000	64.968276 
3256.000000	64.972853 
3255.000000	64.975714 
3254.000000	64.975881 
3253.000000	64.972376 
3252.000000	64.964866 
3251.000000	64.953660 
3250.000000	64.940071 
3249.000000	64.925837 
3248.000000	64.912700 
3247.000000	64.901876 
3246.000000	64.893531 
3245.000000	64.887332 
3244.000000	64.882540 
3243.000000	64.878773 
3242.000000	64.876341 
3241.000000	64.876413 
3240.000000	64.880514 
3239.000000	64.890193 
3238.000000	64.906287 
3237.000000	64.928627 
3236.000000	64.955449 
3235.000000	64.984178 
3234.000000	65.011477 
3233.000000	65.034389 
3232.000000	65.050816 
3231.000000	65.059995 
3230.000000	65.062689 
3229.000000	65.060734 
3228.000000	65.056586 
3227.000000	65.052676 
3226.000000	65.050721 
3225.000000	65.051507 
3224.000000	65.054774 
3223.000000	65.059518 
3222.000000	65.064215 
3221.000000	65.067052 
3220.000000	65.066623 
3219.000000	65.061879 
3218.000000	65.052723 
3217.000000	65.039920 
3216.000000	65.025210 
3215.000000	65.011072 
3214.000000	65.000224 
3213.000000	64.995336 
3212.000000	64.997959 
3211.000000	65.008592 
3210.000000	65.026021 
3209.000000	65.047788 
3208.000000	65.070438 
3207.000000	65.090394 
3206.000000	65.104770 
3205.000000	65.112042 
3204.000000	65.112328 
3203.000000	65.107369 
3202.000000	65.099573 
3201.000000	65.091371 
3200.000000	65.084552 
3199.000000	65.079641 
3198.000000	65.076017 
3197.000000	65.072154 
3196.000000	65.066623 
3195.000000	65.058469 
3194.000000	65.047740 
3193.000000	65.035629 
3192.000000	65.023851 
3191.000000	65.014553 
3190.000000	65.009307 
3189.000000	65.008997 
3188.000000	65.013265 
3187.000000	65.020823 
3186.000000	65.029931 
3185.000000	65.038943 
3184.000000	65.046644 
3183.000000	65.052652 
3182.000000	65.057373 
3181.000000	65.061974 
3180.000000	65.067672 
3179.000000	65.076017 
3178.000000	65.088152 
3177.000000	65.104842 
3176.000000	65.126323 
3175.000000	65.152406 
3174.000000	65.182518 
3173.000000	65.215659 
3172.000000	65.250229 
3171.000000	65.284466 
3170.000000	65.316438 
3169.000000	65.344309 
3168.000000	65.366601 
3167.000000	65.382266 
3166.000000	65.390801 
3165.000000	65.392494 
3164.000000	65.388011 
3163.000000	65.378403 
3162.000000	65.364718 
3161.000000	65.348076 
3160.000000	65.329241 
3159.000000	65.308928 
3158.000000	65.287542 
3157.000000	65.265822 
3156.000000	65.244650 
3155.000000	65.225219 
3154.000000	65.208697 
3153.000000	65.196156 
3152.000000	65.188097 
3151.000000	65.184164 
3150.000000	65.182995 
3149.000000	65.182423 
3148.000000	65.180063 
3147.000000	65.173768 
3146.000000	65.162205 
3145.000000	65.145087 
3144.000000	65.123510 
3143.000000	65.099883 
3142.000000	65.077066 
3141.000000	65.057802 
3140.000000	65.044355 
3139.000000	65.037918 
3138.000000	65.038394 
3137.000000	65.044641 
3136.000000	65.054845 
3135.000000	65.066957 
3134.000000	65.079045 
3133.000000	65.089845 
3132.000000	65.098667 
3131.000000	65.105557 
3130.000000	65.110993 
3129.000000	65.115928 
3128.000000	65.121316 
3127.000000	65.128135 
3126.000000	65.137171 
3125.000000	65.148377 
3124.000000	65.161156 
3123.000000	65.173792 
3122.000000	65.184283 
3121.000000	65.190005 
3120.000000	65.188455 
3119.000000	65.177965 
3118.000000	65.158104 
3117.000000	65.130019 
3116.000000	65.096521 
3115.000000	65.061640 
3114.000000	65.029931 
3113.000000	65.005540 
3112.000000	64.991450 
3111.000000	64.989042 
3110.000000	64.997792 
3109.000000	65.015482 
3108.000000	65.038752 
3107.000000	65.064048 
3106.000000	65.088009 
3105.000000	65.107774 
3104.000000	65.121555 
3103.000000	65.128326 
3102.000000	65.128183 
3101.000000	65.122032 
3100.000000	65.111494 
3099.000000	65.098595 
3098.000000	65.085816 
3097.000000	65.075659 
3096.000000	65.070223 
3095.000000	65.070986 
3094.000000	65.078258 
3093.000000	65.091133 
3092.000000	65.107536 
3091.000000	65.124607 
3090.000000	65.139389 
3089.000000	65.149450 
3088.000000	65.153336 
3087.000000	65.150880 
3086.000000	65.142893 
3085.000000	65.130949 
3084.000000	65.117001 
3083.000000	65.103006 
3082.000000	65.090417 
3081.000000	65.080499 
3080.000000	65.074181 
3079.000000	65.072321 
3078.000000	65.075540 
3077.000000	65.084028 
3076.000000	65.097713 
3075.000000	65.115642 
3074.000000	65.135955 
3073.000000	65.156173 
3072.000000	65.173268 
3071.000000	65.184521 
3070.000000	65.187764 
3069.000000	65.182209 
3068.000000	65.168476 
3067.000000	65.148353 
3066.000000	65.124344 
3065.000000	65.099072 
3064.000000	65.074634 
3063.000000	65.052485 
3062.000000	65.033507 
3061.000000	65.017867 
3060.000000	65.005469 
3059.000000	64.996194 
3058.000000	64.990139 
3057.000000	64.987182 
3056.000000	64.987421 
3055.000000	64.990615 
3054.000000	64.996480 
3053.000000	65.004324 
3052.000000	65.013837 
3051.000000	65.024662 
3050.000000	65.037059 
3049.000000	65.051722 
3048.000000	65.069723 
3047.000000	65.092182 
3046.000000	65.119504 
3045.000000	65.151357 
3044.000000	65.186023 
3043.000000	65.220737 
3042.000000	65.251922 
3041.000000	65.275740 
3040.000000	65.288710 
3039.000000	65.288591 
3038.000000	65.274739 
3037.000000	65.248489 
3036.000000	65.212965 
3035.000000	65.172481 
3034.000000	65.132021 
3033.000000	65.096282 
3032.000000	65.068840 
3031.000000	65.051507 
3030.000000	65.044355 
3029.000000	65.046024 
3028.000000	65.054202 
3027.000000	65.066528 
3026.000000	65.080761 
3025.000000	65.095686 
3024.000000	65.110993 
3023.000000	65.126967 
3022.000000	65.143799 
3021.000000	65.161418 
3020.000000	65.178942 
3019.000000	65.194940 
3018.000000	65.207338 
3017.000000	65.214323 
3016.000000	65.214753 
3015.000000	65.208840 
3014.000000	65.197968 
3013.000000	65.184760 
3012.000000	65.172553 
3011.000000	65.164351 
3010.000000	65.162229 
3009.000000	65.167140 
3008.000000	65.178656 
3007.000000	65.195035 
3006.000000	65.213751 
3005.000000	65.231990 
3004.000000	65.247035 
3003.000000	65.256929 
3002.000000	65.260434 
3001.000000	65.256953 
3000.000000	65.246486 
2999.000000	65.229678 
2998.000000	65.207266 
2997.000000	65.180325 
2996.000000	65.149903 
2995.000000	65.117287 
2994.000000	65.084004 
2993.000000	65.051865 
2992.000000	65.022635 
2991.000000	64.998006 
2990.000000	64.979243 
2989.000000	64.966988 
2988.000000	64.960932 
2987.000000	64.959764 
2986.000000	64.961385 
2985.000000	64.963126 
2984.000000	64.962363 
2983.000000	64.956903 
2982.000000	64.945459 
2981.000000	64.928030 
2980.000000	64.905905 
2979.000000	64.881491 
2978.000000	64.857912 
2977.000000	64.838528 
2976.000000	64.826345 
2975.000000	64.823269 
2974.000000	64.830088 
2973.000000	64.846014 
2972.000000	64.869117 
2971.000000	64.896559 
2970.000000	64.925146 
2969.000000	64.951753 
2968.000000	64.973759 
2967.000000	64.989566 
2966.000000	64.998412 
2965.000000	65.000796 
2964.000000	64.997887 
2963.000000	64.991402 
2962.000000	64.983201 
2961.000000	64.975070 
2960.000000	64.968514 
2959.000000	64.964437 
2958.000000	64.962959 
2957.000000	64.963507 
2956.000000	64.965081 
2955.000000	64.966177 
2954.000000	64.965367 
2953.000000	64.961457 
2952.000000	64.954233 
2951.000000	64.944434 
2950.000000	64.933943 
2949.000000	64.925432 
2948.000000	64.921784 
2947.000000	64.925146 
2946.000000	64.936327 
2945.000000	64.954471 
2944.000000	64.976787 
2943.000000	64.999079 
2942.000000	65.016722 
2941.000000	65.025568 
2940.000000	65.023136 
2939.000000	65.009188 
2938.000000	64.986038 
2937.000000	64.957666 
2936.000000	64.929008 
2935.000000	64.904904 
2934.000000	64.888787 
2933.000000	64.881992 
2932.000000	64.883685 
2931.000000	64.891362 
2930.000000	64.901638 
2929.000000	64.911365 
2928.000000	64.918255 
2927.000000	64.921426 
2926.000000	64.921355 
2925.000000	64.919638 
2924.000000	64.918088 
2923.000000	64.918375 
2922.000000	64.921402 
2921.000000	64.927101 
2920.000000	64.934587 
2919.000000	64.942193 
2918.000000	64.948582 
2917.000000	64.952492 
2916.000000	64.953446 
2915.000000	64.951443 
2914.000000	64.946961 
2913.000000	64.940595 
2912.000000	64.932823 
2911.000000	64.923787 
2910.000000	64.913225 
2909.000000	64.900875 
2908.000000	64.886569 
2907.000000	64.870762 
2906.000000	64.854454 
2905.000000	64.839172 
2904.000000	64.826536 
2903.000000	64.818263 
2902.000000	64.815545 
2901.000000	64.818787 
2900.000000	64.827632 
2899.000000	64.841008 
2898.000000	64.857459 
2897.000000	64.875555 
2896.000000	64.894080 
2895.000000	64.912271 
2894.000000	64.929604 
2893.000000	64.945793 
2892.000000	64.960312 
2891.000000	64.972639 
2890.000000	64.981698 
2889.000000	64.986634 
2888.000000	64.986443 
2887.000000	64.980769 
2886.000000	64.969706 
2885.000000	64.954233 
2884.000000	64.935731 
2883.000000	64.916133 
2882.000000	64.897465 
2881.000000	64.881443 
2880.000000	64.869475 
2879.000000	64.862465 
2878.000000	64.860630 
2877.000000	64.863538 
2876.000000	64.870357 
2875.000000	64.879918 
2874.000000	64.890956 
2873.000000	64.902329 
2872.000000	64.913082 
2871.000000	64.922618 
2870.000000	64.930605 
2869.000000	64.937090 
2868.000000	64.942145 
2867.000000	64.945936 
2866.000000	64.948487 
2865.000000	64.949488 
2864.000000	64.948415 
2863.000000	64.944744 
2862.000000	64.937949 
2861.000000	64.928197 
2860.000000	64.916157 
2859.000000	64.903283 
2858.000000	64.891600 
2857.000000	64.883470 
2856.000000	64.880847 
2855.000000	64.885234 
2854.000000	64.897108 
2853.000000	64.915704 
2852.000000	64.939188 
2851.000000	64.964962 
2850.000000	64.990115 
2849.000000	65.012097 
2848.000000	65.029287 
2847.000000	65.041089 
2846.000000	65.048074 
2845.000000	65.051603 
2844.000000	65.053367 
2843.000000	65.054988 
2842.000000	65.057277 
2841.000000	65.060424 
2840.000000	65.063786 
2839.000000	65.066409 
2838.000000	65.067267 
2837.000000	65.065956 
2836.000000	65.062665 
2835.000000	65.058279 
2834.000000	65.053772 
2833.000000	65.050268 
2832.000000	65.048098 
2831.000000	65.046906 
2830.000000	65.045475 
2829.000000	65.042066 
2828.000000	65.034890 
2827.000000	65.022850 
2826.000000	65.005731 
2825.000000	64.984560 
2824.000000	64.961528 
2823.000000	64.939427 
2822.000000	64.920973 
2821.000000	64.908361 
2820.000000	64.902806 
2819.000000	64.904332 
2818.000000	64.911794 
2817.000000	64.923071 
2816.000000	64.935922 
2815.000000	64.948248 
2814.000000	64.958333 
2813.000000	64.965605 
2812.000000	64.969968 
2811.000000	64.972281 
2810.000000	64.973711 
2809.000000	64.975643 
2808.000000	64.979243 
2807.000000	64.985132 
2806.000000	64.993572 
2805.000000	65.003991 
2804.000000	65.015363 
2803.000000	65.026140 
2802.000000	65.034794 
2801.000000	65.039777 
2800.000000	65.039992 
2799.000000	65.035009 
2798.000000	65.025210 
2797.000000	65.011501 
2796.000000	64.995336 
2795.000000	64.978456 
2794.000000	64.962577 
2793.000000	64.949035 
2792.000000	64.938545 
2791.000000	64.931273 
2790.000000	64.926934 
2789.000000	64.924979 
2788.000000	64.924883 
2787.000000	64.926123 
2786.000000	64.928436 
2785.000000	64.931631 
2784.000000	64.935660 
2783.000000	64.940237 
2782.000000	64.944934 
2781.000000	64.949250 
2780.000000	64.952683 
2779.000000	64.954686 
2778.000000	64.955019 
2777.000000	64.953494 
2776.000000	64.950323 
2775.000000	64.945960 
2774.000000	64.941048 
2773.000000	64.936566 
2772.000000	64.933466 
2771.000000	64.932847 
2770.000000	64.935588 
2769.000000	64.942264 
2768.000000	64.952874 
2767.000000	64.966797 
2766.000000	64.982652 
2765.000000	64.998531 
2764.000000	65.012168 
2763.000000	65.021467 
2762.000000	65.024971 
2761.000000	65.022087 
2760.000000	65.013384 
2759.000000	65.000510 
2758.000000	64.985680 
2757.000000	64.971256 
2756.000000	64.959311 
2755.000000	64.951324 
2754.000000	64.948034 
2753.000000	64.949369 
2752.000000	64.954710 
2751.000000	64.963006 
2750.000000	64.972972 
2749.000000	64.983320 
2748.000000	64.992809 
2747.000000	65.000557 
2746.000000	65.005970 
2745.000000	65.009045 
2744.000000	65.010166 
2743.000000	65.010356 
2742.000000	65.010929 
2741.000000	65.013194 
2740.000000	65.018129 
2739.000000	65.026044 
2738.000000	65.036368 
2737.000000	65.047717 
2736.000000	65.058279 
2735.000000	65.066289 
2734.000000	65.070533 
2733.000000	65.070939 
2732.000000	65.068292 
2731.000000	65.064048 
2730.000000	65.059638 
2729.000000	65.056037 
2728.000000	65.053534 
2727.000000	65.051388 
2726.000000	65.048480 
2725.000000	65.043544 
2724.000000	65.035915 
2723.000000	65.025901 
2722.000000	65.014815 
2721.000000	65.004754 
2720.000000	64.997911 
2719.000000	64.995861 
2718.000000	64.998912 
2717.000000	65.005803 
2716.000000	65.014100 
2715.000000	65.020751 
2714.000000	65.022969 
2713.000000	65.018892 
2712.000000	65.008378 
2711.000000	64.992952 
2710.000000	64.975500 
2709.000000	64.959692 
2708.000000	64.949011 
2707.000000	64.946150 
2706.000000	64.952254 
2705.000000	64.966773 
2704.000000	64.987707 
2703.000000	65.012001 
2702.000000	65.036273 
2701.000000	65.057229 
2700.000000	65.072584 
2699.000000	65.081071 
2698.000000	65.082669 
2697.000000	65.078401 
2696.000000	65.069913 
2695.000000	65.059041 
2694.000000	65.047669 
2693.000000	65.036988 
2692.000000	65.027642 
2691.000000	65.019559 
2690.000000	65.012311 
2689.000000	65.005230 
2688.000000	64.997720 
2687.000000	64.989566 
2686.000000	64.981126 
2685.000000	64.973187 
2684.000000	64.966821 
2683.000000	64.963054 
2682.000000	64.962434 
2681.000000	64.964842 
2680.000000	64.969491 
2679.000000	64.974808 
2678.000000	64.978957 
2677.000000	64.980316 
2676.000000	64.977812 
2675.000000	64.971327 
2674.000000	64.961600 
2673.000000	64.950394 
2672.000000	64.939522 
2671.000000	64.930796 
2670.000000	64.925360 
2669.000000	64.923381 
2668.000000	64.924168 
2667.000000	64.926362 
2666.000000	64.928531 
2665.000000	64.929652 
2664.000000	64.929342 
2663.000000	64.928054 
2662.000000	64.926576 
2661.000000	64.925622 
2660.000000	64.925622 
2659.000000	64.926290 
2658.000000	64.926815 
2657.000000	64.925885 
2656.000000	64.922380 
2655.000000	64.915633 
2654.000000	64.905619 
2653.000000	64.892721 
2652.000000	64.877700 
2651.000000	64.861583 
2650.000000	64.845037 
2649.000000	64.828896 
2648.000000	64.813590 
2647.000000	64.799952 
2646.000000	64.789175 
2645.000000	64.782857 
2644.000000	64.782762 
2643.000000	64.790391 
2642.000000	64.806461 
2641.000000	64.830350 
2640.000000	64.859890 
2639.000000	64.891791 
2638.000000	64.921951 
2637.000000	64.946746 
2636.000000	64.963412 
2635.000000	64.970993 
2634.000000	64.970278 
2633.000000	64.963650 
2632.000000	64.954400 
2631.000000	64.945840 
2630.000000	64.940500 
2629.000000	64.939713 
2628.000000	64.943313 
2627.000000	64.950060 
2626.000000	64.957952 
2625.000000	64.965105 
2624.000000	64.969944 
2623.000000	64.971756 
2622.000000	64.970636 
2621.000000	64.967226 
2620.000000	64.962720 
2619.000000	64.958286 
2618.000000	64.954996 
2617.000000	64.953613 
2616.000000	64.954257 
2615.000000	64.956545 
2614.000000	64.959454 
2613.000000	64.961695 
2612.000000	64.961910 
2611.000000	64.959168 
2610.000000	64.953112 
2609.000000	64.944052 
2608.000000	64.933085 
2607.000000	64.921855 
2606.000000	64.912199 
2605.000000	64.905786 
2604.000000	64.903855 
2603.000000	64.906883 
2602.000000	64.914655 
2601.000000	64.926290 
2600.000000	64.940619 
2599.000000	64.956188 
2598.000000	64.971709 
2597.000000	64.986276 
2596.000000	64.999103 
2595.000000	65.009737 
2594.000000	65.017819 
2593.000000	65.023255 
2592.000000	65.026378 
2591.000000	65.027403 
2590.000000	65.027093 
2589.000000	65.025830 
2588.000000	65.023946 
2587.000000	65.021324 
2586.000000	65.017461 
2585.000000	65.011858 
2584.000000	65.004086 
2583.000000	64.994168 
2582.000000	64.982748 
2581.000000	64.971160 
2580.000000	64.961338 
2579.000000	64.955258 
2578.000000	64.954447 
2577.000000	64.959549 
2576.000000	64.970183 
2575.000000	64.984893 
2574.000000	65.001511 
2573.000000	65.017580 
2572.000000	65.031099 
2571.000000	65.040731 
2570.000000	65.046191 
2569.000000	65.047836 
2568.000000	65.046715 
2567.000000	65.043973 
2566.000000	65.040755 
2565.000000	65.037775 
2564.000000	65.035629 
2563.000000	65.034723 
2562.000000	65.035438 
2561.000000	65.038108 
2560.000000	65.042924 
2559.000000	65.049934 
2558.000000	65.058541 
2557.000000	65.067720 
2556.000000	65.075802 
2555.000000	65.080857 
2554.000000	65.081191 
2553.000000	65.075588 
2552.000000	65.063881 
2551.000000	65.046858 
2550.000000	65.026021 
2549.000000	65.003347 
2548.000000	64.980697 
2547.000000	64.959812 
2546.000000	64.941740 
2545.000000	64.927220 
2544.000000	64.916563 
2543.000000	64.910173 
2542.000000	64.908218 
2541.000000	64.911174 
2540.000000	64.919233 
2539.000000	64.932584 
2538.000000	64.950942 
2537.000000	64.973688 
2536.000000	64.999794 
2535.000000	65.027976 
2534.000000	65.056657 
2533.000000	65.084314 
2532.000000	65.109419 
2531.000000	65.130519 
2530.000000	65.146303 
2529.000000	65.155529 
2528.000000	65.157294 
2527.000000	65.151262 
2526.000000	65.137958 
2525.000000	65.119004 
2524.000000	65.096831 
2523.000000	65.074539 
2522.000000	65.055274 
2521.000000	65.041685 
2520.000000	65.035557 
2519.000000	65.036964 
2518.000000	65.044903 
2517.000000	65.057134 
2516.000000	65.071272 
2515.000000	65.085053 
2514.000000	65.097212 
2513.000000	65.107393 
2512.000000	65.116167 
2511.000000	65.124273 
2510.000000	65.132141 
2509.000000	65.139460 
2508.000000	65.144848 
2507.000000	65.146327 
2506.000000	65.141344 
2505.000000	65.128040 
2504.000000	65.105152 
2503.000000	65.073084 
2502.000000	65.033555 
2501.000000	64.989495 
2500.000000	64.944767 
2499.000000	64.903497 
2498.000000	64.869546 
2497.000000	64.845943 
2496.000000	64.834713 
2495.000000	64.836478 
2494.000000	64.850592 
2493.000000	64.875268 
2492.000000	64.907622 
2491.000000	64.944195 
2490.000000	64.981126 
2489.000000	65.015053 
2488.000000	65.043377 
2487.000000	65.064764 
2486.000000	65.079236 
2485.000000	65.087795 
2484.000000	65.092420 
2483.000000	65.094971 
2482.000000	65.097022 
2481.000000	65.099191 
2480.000000	65.101480 
2479.000000	65.102910 
2478.000000	65.102481 
2477.000000	65.099191 
2476.000000	65.092730 
2475.000000	65.083622 
2474.000000	65.073132 
2473.000000	65.063023 
2472.000000	65.055108 
2471.000000	65.050864 
2470.000000	65.051102 
2469.000000	65.055632 
2468.000000	65.063190 
2467.000000	65.072059 
2466.000000	65.080261 
2465.000000	65.085911 
2464.000000	65.087485 
2463.000000	65.084242 
2462.000000	65.076303 
2461.000000	65.064525 
2460.000000	65.050411 
2459.000000	65.035653 
2458.000000	65.022110 
2457.000000	65.011310 
2456.000000	65.004372 
2455.000000	65.001654 
2454.000000	65.002775 
2453.000000	65.006852 
2452.000000	65.012502 
2451.000000	65.018153 
2450.000000	65.022325 
2449.000000	65.023827 
2448.000000	65.022253 
2447.000000	65.017724 
2446.000000	65.011167 
2445.000000	65.003943 
2444.000000	64.997625 
2443.000000	64.993715 
2442.000000	64.993214 
2441.000000	64.996361 
2440.000000	65.002655 
2439.000000	65.010976 
2438.000000	65.020108 
2437.000000	65.028858 
2436.000000	65.036368 
2435.000000	65.042400 
2434.000000	65.047216 
2433.000000	65.051627 
2432.000000	65.056419 
2431.000000	65.062212 
2430.000000	65.069198 
2429.000000	65.077137 
2428.000000	65.085482 
2427.000000	65.093636 
2426.000000	65.100932 
2425.000000	65.107154 
2424.000000	65.112328 
2423.000000	65.117001 
2422.000000	65.121603 
2421.000000	65.126633 
2420.000000	65.132331 
2419.000000	65.138459 
2418.000000	65.144538 
2417.000000	65.149855 
2416.000000	65.153479 
2415.000000	65.154337 
2414.000000	65.151214 
2413.000000	65.142917 
2412.000000	65.128564 
2411.000000	65.107631 
2410.000000	65.080332 
2409.000000	65.047574 
2408.000000	65.011286 
2407.000000	64.974021 
2406.000000	64.938855 
2405.000000	64.908742 
2404.000000	64.886260 
2403.000000	64.873147 
2402.000000	64.869999 
2401.000000	64.876055 
2400.000000	64.889574 
2399.000000	64.907908 
2398.000000	64.928340 
2397.000000	64.948081 
2396.000000	64.965128 
2395.000000	64.978408 
2394.000000	64.987778 
2393.000000	64.993906 
2392.000000	64.998054 
2391.000000	65.001583 
2390.000000	65.005660 
2389.000000	65.010857 
2388.000000	65.017008 
2387.000000	65.023255 
2386.000000	65.028285 
2385.000000	65.030574 
2384.000000	65.028977 
2383.000000	65.022873 
2382.000000	65.012502 
2381.000000	64.998936 
2380.000000	64.983654 
2379.000000	64.968371 
2378.000000	64.954686 
2377.000000	64.943647 
2376.000000	64.935588 
2375.000000	64.930152 
2374.000000	64.926552 
2373.000000	64.923787 
2372.000000	64.920854 
2371.000000	64.917230 
2370.000000	64.912772 
2369.000000	64.907860 
2368.000000	64.903354 
2367.000000	64.900231 
2366.000000	64.899277 
2365.000000	64.901041 
2364.000000	64.905738 
2363.000000	64.913034 
2362.000000	64.922118 
2361.000000	64.932084 
2360.000000	64.942026 
2359.000000	64.951038 
2358.000000	64.958453 
2357.000000	64.964079 
2356.000000	64.967942 
2355.000000	64.970207 
2354.000000	64.971256 
2353.000000	64.971446 
2352.000000	64.970827 
2351.000000	64.969515 
2350.000000	64.967274 
2349.000000	64.963746 
2348.000000	64.958405 
2347.000000	64.950919 
2346.000000	64.941167 
2345.000000	64.929366 
2344.000000	64.916157 
2343.000000	64.902472 
2342.000000	64.889645 
2341.000000	64.878988 
2340.000000	64.871597 
2339.000000	64.868211 
2338.000000	64.868831 
2337.000000	64.872884 
2336.000000	64.879250 
2335.000000	64.886260 
2334.000000	64.892315 
2333.000000	64.895892 
2332.000000	64.895915 
2331.000000	64.891862 
2330.000000	64.883899 
2329.000000	64.872932 
2328.000000	64.860486 
2327.000000	64.848351 
2326.000000	64.838647 
2325.000000	64.833354 
2324.000000	64.834022 
2323.000000	64.841532 
2322.000000	64.855957 
2321.000000	64.876604 
2320.000000	64.901781 
2319.000000	64.929485 
2318.000000	64.957332 
2317.000000	64.983177 
2316.000000	65.005350 
2315.000000	65.022873 
2314.000000	65.035414 
2313.000000	65.043044 
2312.000000	65.046286 
2311.000000	65.045452 
2310.000000	65.040564 
2309.000000	65.031361 
2308.000000	65.017533 
2307.000000	64.999103 
2306.000000	64.976525 
2305.000000	64.951252 
2304.000000	64.925289 
2303.000000	64.901208 
2302.000000	64.881396 
2301.000000	64.867734 
2300.000000	64.861011 
2299.000000	64.860677 
2298.000000	64.865016 
2297.000000	64.871501 
2296.000000	64.877557 
2295.000000	64.881014 
2294.000000	64.880633 
2293.000000	64.876198 
2292.000000	64.868593 
2291.000000	64.859271 
2290.000000	64.849996 
2289.000000	64.842128 
2288.000000	64.836859 
2287.000000	64.834833 
2286.000000	64.836502 
2285.000000	64.841914 
2284.000000	64.850854 
2283.000000	64.862918 
2282.000000	64.877271 
2281.000000	64.892721 
2280.000000	64.907622 
2279.000000	64.920091 
2278.000000	64.928579 
2277.000000	64.931917 
2276.000000	64.929914 
2275.000000	64.923286 
2274.000000	64.913797 
2273.000000	64.903616 
2272.000000	64.894938 
2271.000000	64.889168 
2270.000000	64.886927 
2269.000000	64.887619 
2268.000000	64.889955 
2267.000000	64.892125 
2266.000000	64.892601 
2265.000000	64.890384 
2264.000000	64.885473 
2263.000000	64.878630 
2262.000000	64.870953 
2261.000000	64.863967 
2260.000000	64.858913 
2259.000000	64.856672 
2258.000000	64.857530 
2257.000000	64.861345 
2256.000000	64.867758 
2255.000000	64.876174 
2254.000000	64.886093 
2253.000000	64.897179 
2252.000000	64.909052 
2251.000000	64.921331 
2250.000000	64.933490 
2249.000000	64.944815 
2248.000000	64.954543 
2247.000000	64.961957 
2246.000000	64.966249 
2245.000000	64.966964 
2244.000000	64.963769 
2243.000000	64.956521 
2242.000000	64.945220 
2241.000000	64.930367 
2240.000000	64.912676 
2239.000000	64.893269 
2238.000000	64.873528 
2237.000000	64.855146 
2236.000000	64.839768 
2235.000000	64.828824 
2234.000000	64.823007 
2233.000000	64.822363 
2232.000000	64.825987 
2231.000000	64.832162 
2230.000000	64.838695 
2229.000000	64.843416 
2228.000000	64.844751 
2227.000000	64.842033 
2226.000000	64.835858 
2225.000000	64.827823 
2224.000000	64.820289 
2223.000000	64.815545 
2222.000000	64.815258 
2221.000000	64.819884 
2220.000000	64.828538 
2219.000000	64.839100 
2218.000000	64.848899 
2217.000000	64.855289 
2216.000000	64.856338 
2215.000000	64.851546 
2214.000000	64.841699 
2213.000000	64.828944 
2212.000000	64.815855 
2211.000000	64.805102 
2210.000000	64.798498 
2209.000000	64.796829 
2208.000000	64.799714 
2207.000000	64.805698 
2206.000000	64.812922 
2205.000000	64.819622 
2204.000000	64.824652 
2203.000000	64.827775 
2202.000000	64.829611 
2201.000000	64.831328 
2200.000000	64.834475 
2199.000000	64.840221 
2198.000000	64.849185 
2197.000000	64.861416 
2196.000000	64.875960 
2195.000000	64.891338 
2194.000000	64.905691 
2193.000000	64.917063 
2192.000000	64.923977 
2191.000000	64.925527 
2190.000000	64.921402 
2189.000000	64.912128 
2188.000000	64.898586 
2187.000000	64.882063 
2186.000000	64.864087 
2185.000000	64.845967 
2184.000000	64.829015 
2183.000000	64.814448 
2182.000000	64.803385 
2181.000000	64.796590 
2180.000000	64.794659 
2179.000000	64.797687 
2178.000000	64.805293 
2177.000000	64.816594 
2176.000000	64.830422 
2175.000000	64.845418 
2174.000000	64.860415 
2173.000000	64.874577 
2172.000000	64.887738 
2171.000000	64.900064 
2170.000000	64.912176 
2169.000000	64.924311 
2168.000000	64.935994 
2167.000000	64.945888 
2166.000000	64.951944 
2165.000000	64.951682 
2164.000000	64.943313 
2163.000000	64.926004 
2162.000000	64.900469 
2161.000000	64.869046 
2160.000000	64.835143 
2159.000000	64.802408 
2158.000000	64.773988 
2157.000000	64.751911 
2156.000000	64.736533 
2155.000000	64.727139 
2154.000000	64.722013 
2153.000000	64.719414 
2152.000000	64.718103 
2151.000000	64.717721 
2150.000000	64.718747 
2149.000000	64.722037 
2148.000000	64.728331 
2147.000000	64.737796 
2146.000000	64.749717 
2145.000000	64.762830 
2144.000000	64.775657 
2143.000000	64.787149 
2142.000000	64.796733 
2141.000000	64.804697 
2140.000000	64.811635 
2139.000000	64.818286 
2138.000000	64.825129 
2137.000000	64.831948 
2136.000000	64.838147 
2135.000000	64.842820 
2134.000000	64.844894 
2133.000000	64.843726 
2132.000000	64.839220 
2131.000000	64.832091 
2130.000000	64.823579 
2129.000000	64.815330 
2128.000000	64.808702 
2127.000000	64.804816 
2126.000000	64.804053 
2125.000000	64.805984 
2124.000000	64.809608 
2123.000000	64.813709 
2122.000000	64.817023 
2121.000000	64.818787 
2120.000000	64.818835 
2119.000000	64.817571 
2118.000000	64.815878 
2117.000000	64.814925 
2116.000000	64.815640 
2115.000000	64.818477 
2114.000000	64.823126 
2113.000000	64.828419 
2112.000000	64.832758 
2111.000000	64.834332 
2110.000000	64.831972 
2109.000000	64.825367 
2108.000000	64.815235 
2107.000000	64.803147 
2106.000000	64.791083 
2105.000000	64.780998 
2104.000000	64.774155 
2103.000000	64.770936 
2102.000000	64.770793 
2101.000000	64.772439 
2100.000000	64.774346 
2099.000000	64.775085 
2098.000000	64.773583 
2097.000000	64.769554 
2096.000000	64.763259 
2095.000000	64.755511 
2094.000000	64.747238 
2093.000000	64.739465 
2092.000000	64.733052 
2091.000000	64.728641 
2090.000000	64.726734 
2089.000000	64.727735 
2088.000000	64.731740 
2087.000000	64.738821 
2086.000000	64.748692 
2085.000000	64.760637 
2084.000000	64.773583 
2083.000000	64.786148 
2082.000000	64.796900 
2081.000000	64.804792 
2080.000000	64.809060 
2079.000000	64.809799 
2078.000000	64.807724 
2077.000000	64.804053 
2076.000000	64.800381 
2075.000000	64.797949 
2074.000000	64.797639 
2073.000000	64.799666 
2072.000000	64.803814 
2071.000000	64.809632 
2070.000000	64.816403 
2069.000000	64.823842 
2068.000000	64.831638 
2067.000000	64.839649 
2066.000000	64.847564 
2065.000000	64.854860 
2064.000000	64.860630 
2063.000000	64.863681 
2062.000000	64.862799 
2061.000000	64.857172 
2060.000000	64.846348 
2059.000000	64.830899 
2058.000000	64.811968 
2057.000000	64.791703 
2056.000000	64.772534 
2055.000000	64.757394 
2054.000000	64.748764 
2053.000000	64.748311 
2052.000000	64.756822 
2051.000000	64.773583 
2050.000000	64.796710 
2049.000000	64.823317 
2048.000000	64.849925 
2047.000000	64.873003 
2046.000000	64.889502 
2045.000000	64.897584 
2044.000000	64.896655 
2043.000000	64.887642 
2042.000000	64.872741 
2041.000000	64.854931 
2040.000000	64.837217 
2039.000000	64.821982 
2038.000000	64.810800 
2037.000000	64.803957 
2036.000000	64.800667 
2035.000000	64.799404 
2034.000000	64.798617 
2033.000000	64.796972 
2032.000000	64.794039 
2031.000000	64.790225 
2030.000000	64.786720 
2029.000000	64.785003 
2028.000000	64.786386 
2027.000000	64.791512 
2026.000000	64.799880 
2025.000000	64.810085 
2024.000000	64.820027 
2023.000000	64.827251 
2022.000000	64.829754 
2021.000000	64.826488 
2020.000000	64.817762 
2019.000000	64.805054 
2018.000000	64.790773 
2017.000000	64.777994 
2016.000000	64.769411 
2015.000000	64.766955 
2014.000000	64.771413 
2013.000000	64.782309 
2012.000000	64.797973 
2011.000000	64.816188 
2010.000000	64.834332 
2009.000000	64.849901 
2008.000000	64.861130 
2007.000000	64.866900 
2006.000000	64.866948 
2005.000000	64.861655 
2004.000000	64.851832 
2003.000000	64.838600 
2002.000000	64.823126 
2001.000000	64.806294 
2000.000000	64.788818 
1999.000000	64.771103 
1998.000000	64.753365 
1997.000000	64.735770 
1996.000000	64.718341 
1995.000000	64.701342 
1994.000000	64.685249 
1993.000000	64.670729 
1992.000000	64.658570 
1991.000000	64.649605 
1990.000000	64.644527 
1989.000000	64.643788 
1988.000000	64.647293 
1987.000000	64.654779 
1986.000000	64.665555 
1985.000000	64.678859 
1984.000000	64.693880 
1983.000000	64.709782 
1982.000000	64.725804 
1981.000000	64.741110 
1980.000000	64.755201 
1979.000000	64.767837 
1978.000000	64.779043 
1977.000000	64.789104 
1976.000000	64.798378 
1975.000000	64.807152 
1974.000000	64.815330 
1973.000000	64.822435 
1972.000000	64.827656 
1971.000000	64.830040 
1970.000000	64.828395 
1969.000000	64.822196 
1968.000000	64.811277 
1967.000000	64.796471 
1966.000000	64.779233 
1965.000000	64.761590 
1964.000000	64.745736 
1963.000000	64.733600 
1962.000000	64.726543 
1961.000000	64.725160 
1960.000000	64.729404 
1959.000000	64.738678 
1958.000000	64.752078 
1957.000000	64.768481 
1956.000000	64.786672 
1955.000000	64.805388 
1954.000000	64.823293 
1953.000000	64.839124 
1952.000000	64.852046 
1951.000000	64.861512 
1950.000000	64.867711 
1949.000000	64.871048 
1948.000000	64.872312 
1947.000000	64.871907 
1946.000000	64.870285 
1945.000000	64.867067 
1944.000000	64.861655 
1943.000000	64.853119 
1942.000000	64.840745 
1941.000000	64.824342 
1940.000000	64.804577 
1939.000000	64.782881 
1938.000000	64.761352 
1937.000000	64.742159 
1936.000000	64.727091 
1935.000000	64.717221 
1934.000000	64.712619 
1933.000000	64.712476 
1932.000000	64.715218 
1931.000000	64.719295 
1930.000000	64.723348 
1929.000000	64.726471 
1928.000000	64.728522 
1927.000000	64.729642 
1926.000000	64.730405 
1925.000000	64.731359 
1924.000000	64.733052 
1923.000000	64.735651 
1922.000000	64.739179 
1921.000000	64.743447 
1920.000000	64.748215 
1919.000000	64.753031 
1918.000000	64.757466 
1917.000000	64.761090 
1916.000000	64.763355 
1915.000000	64.763641 
1914.000000	64.761710 
1913.000000	64.757657 
1912.000000	64.751935 
1911.000000	64.745545 
1910.000000	64.739990 
1909.000000	64.736795 
1908.000000	64.737462 
1907.000000	64.742898 
1906.000000	64.753174 
1905.000000	64.767503 
1904.000000	64.784383 
1903.000000	64.801883 
1902.000000	64.818072 
1901.000000	64.831447 
1900.000000	64.841127 
1899.000000	64.847230 
1898.000000	64.850449 
1897.000000	64.851999 
1896.000000	64.853072 
1895.000000	64.854311 
1894.000000	64.855885 
1893.000000	64.857125 
1892.000000	64.856934 
1891.000000	64.853763 
1890.000000	64.846229 
1889.000000	64.833402 
1888.000000	64.815211 
1887.000000	64.792537 
1886.000000	64.766883 
1885.000000	64.740514 
1884.000000	64.715909 
1883.000000	64.695572 
1882.000000	64.681529 
1881.000000	64.675164 
1880.000000	64.677023 
1879.000000	64.686870 
1878.000000	64.703488 
1877.000000	64.725065 
1876.000000	64.749288 
1875.000000	64.773702 
1874.000000	64.796042 
1873.000000	64.814329 
1872.000000	64.827084 
1871.000000	64.833378 
1870.000000	64.832997 
1869.000000	64.826107 
1868.000000	64.813351 
1867.000000	64.795827 
1866.000000	64.774894 
1865.000000	64.752221 
1864.000000	64.729595 
1863.000000	64.708900 
1862.000000	64.691829 
1861.000000	64.679956 
1860.000000	64.674425 
1859.000000	64.675784 
1858.000000	64.683914 
1857.000000	64.697980 
1856.000000	64.716672 
1855.000000	64.738154 
1854.000000	64.760518 
1853.000000	64.781880 
1852.000000	64.800596 
1851.000000	64.815402 
1850.000000	64.825487 
1849.000000	64.830517 
1848.000000	64.830684 
1847.000000	64.826416 
1846.000000	64.818525 
1845.000000	64.807772 
1844.000000	64.795112 
1843.000000	64.781260 
1842.000000	64.766931 
1841.000000	64.752817 
1840.000000	64.739704 
1839.000000	64.728498 
1838.000000	64.720129 
1837.000000	64.715552 
1836.000000	64.715290 
1835.000000	64.719486 
1834.000000	64.727568 
1833.000000	64.738368 
1832.000000	64.750003 
1831.000000	64.760470 
1830.000000	64.767861 
1829.000000	64.770913 
1828.000000	64.769124 
1827.000000	64.763116 
1826.000000	64.754104 
1825.000000	64.744043 
1824.000000	64.735150 
1823.000000	64.729261 
1822.000000	64.727544 
1821.000000	64.730477 
1820.000000	64.737915 
1819.000000	64.748954 
1818.000000	64.762234 
1817.000000	64.776158 
1816.000000	64.789104 
1815.000000	64.799475 
1814.000000	64.805889 
1813.000000	64.807415 
1812.000000	64.803695 
1811.000000	64.794898 
1810.000000	64.782142 
1809.000000	64.767193 
1808.000000	64.752292 
1807.000000	64.740037 
1806.000000	64.732742 
1805.000000	64.731979 
1804.000000	64.738154 
1803.000000	64.750552 
1802.000000	64.767169 
1801.000000	64.785051 
1800.000000	64.801001 
1799.000000	64.812016 
1798.000000	64.816045 
1797.000000	64.812207 
1796.000000	64.801096 
1795.000000	64.784455 
1794.000000	64.764881 
1793.000000	64.745187 
1792.000000	64.727950 
1791.000000	64.715099 
1790.000000	64.707541 
1789.000000	64.705204 
1788.000000	64.707112 
1787.000000	64.711689 
1786.000000	64.717006 
1785.000000	64.721155 
1784.000000	64.722394 
1783.000000	64.719867 
1782.000000	64.713191 
1781.000000	64.703083 
1780.000000	64.690637 
1779.000000	64.677619 
1778.000000	64.666080 
1777.000000	64.658045 
1776.000000	64.654874 
1775.000000	64.657163 
1774.000000	64.664864 
1773.000000	64.677047 
1772.000000	64.691948 
1771.000000	64.707756 
1770.000000	64.722752 
1769.000000	64.735484 
1768.000000	64.745044 
1767.000000	64.751100 
1766.000000	64.753818 
1765.000000	64.753699 
1764.000000	64.751458 
1763.000000	64.747881 
1762.000000	64.743828 
1761.000000	64.740252 
1760.000000	64.737915 
1759.000000	64.737296 
1758.000000	64.738082 
1757.000000	64.739632 
1756.000000	64.740300 
1755.000000	64.738035 
1754.000000	64.730238 
1753.000000	64.714837 
1752.000000	64.690184 
1751.000000	64.655780 
1750.000000	64.612317 
1749.000000	64.562082 
1748.000000	64.508008 
1747.000000	64.453315 
1746.000000	64.400959 
1745.000000	64.353322 
1744.000000	64.311790 
1743.000000	64.276766 
1742.000000	64.247918 
1741.000000	64.224410 
1740.000000	64.205193 
1739.000000	64.189410 
1738.000000	64.176344 
1737.000000	64.165592 
1736.000000	64.156866 
1735.000000	64.150142 
1734.000000	64.145445 
1733.000000	64.143061 
1732.000000	64.142870 
1731.000000	64.144992 
1730.000000	64.149475 
1729.000000	64.156651 
1728.000000	64.166665 
1727.000000	64.180088 
1726.000000	64.197278 
1725.000000	64.218902 
1724.000000	64.245700 
1723.000000	64.278125 
1722.000000	64.316320 
1721.000000	64.359450 
1720.000000	64.405703 
1719.000000	64.452314 
1718.000000	64.496135 
1717.000000	64.533686 
1716.000000	64.562010 
1715.000000	64.579486 
1714.000000	64.586257 
1713.000000	64.584231 
1712.000000	64.576697 
1711.000000	64.568018 
1710.000000	64.562678 
1709.000000	64.564800 
1708.000000	64.577364 
1707.000000	64.601969 
1706.000000	64.638423 
1705.000000	64.685082 
1704.000000	64.738607 
1703.000000	64.794802 
1702.000000	64.848613 
1701.000000	64.894723 
1700.000000	64.928174 
1699.000000	64.944911 
1698.000000	64.942884 
1697.000000	64.922213 
1696.000000	64.885759 
1695.000000	64.838671 
1694.000000	64.787697 
1693.000000	64.740443 
1692.000000	64.703536 
1691.000000	64.681577 
1690.000000	64.676165 
1689.000000	64.685797 
1688.000000	64.705872 
1687.000000	64.729952 
1686.000000	64.751100 
1685.000000	64.763402 
1684.000000	64.762949 
1683.000000	64.748644 
1682.000000	64.722585 
1681.000000	64.689302 
1680.000000	64.654588 
1679.000000	64.624333 
1678.000000	64.603424 
1677.000000	64.594602 
1676.000000	64.598417 
1675.000000	64.612865 
1674.000000	64.634585 
1673.000000	64.659047 
1672.000000	64.681720 
1671.000000	64.698982 
1670.000000	64.708399 
1669.000000	64.709401 
1668.000000	64.702677 
1667.000000	64.690327 
1666.000000	64.675092 
1665.000000	64.660024 
1664.000000	64.647841 
1663.000000	64.640784 
1662.000000	64.640045 
1661.000000	64.645934 
1660.000000	64.657807 
1659.000000	64.673924 
1658.000000	64.691710 
1657.000000	64.708256 
1656.000000	64.720678 
1655.000000	64.726781 
1654.000000	64.725470 
1653.000000	64.716887 
1652.000000	64.702343 
1651.000000	64.683866 
1650.000000	64.664053 
1649.000000	64.645338 
1648.000000	64.629936 
1647.000000	64.619374 
1646.000000	64.614892 
1645.000000	64.617133 
1644.000000	64.626336 
1643.000000	64.642548 
1642.000000	64.664912 
1641.000000	64.691734 
1640.000000	64.720320 
1639.000000	64.747142 
1638.000000	64.768218 
1637.000000	64.779710 
1636.000000	64.778995 
1635.000000	64.765286 
1634.000000	64.740109 
1633.000000	64.707112 
1632.000000	64.671254 
1631.000000	64.637827 
1630.000000	64.611315 
1629.000000	64.594531 
1628.000000	64.588427 
1627.000000	64.592099 
1626.000000	64.603543 
1625.000000	64.620018 
1624.000000	64.638876 
1623.000000	64.657831 
1622.000000	64.675116 
1621.000000	64.689278 
1620.000000	64.698839 
1619.000000	64.702486 
1618.000000	64.698863 
1617.000000	64.687132 
1616.000000	64.667320 
1615.000000	64.640545 
1614.000000	64.609432 
1613.000000	64.577507 
1612.000000	64.548778 
1611.000000	64.526891 
1610.000000	64.514398 
1609.000000	64.512062 
1608.000000	64.518785 
1607.000000	64.531970 
1606.000000	64.548110 
1605.000000	64.563751 
1604.000000	64.576292 
1603.000000	64.584350 
1602.000000	64.587926 
1601.000000	64.588141 
1600.000000	64.586830 
1599.000000	64.586019 
1598.000000	64.587140 
1597.000000	64.591121 
1596.000000	64.597892 
1595.000000	64.607048 
1594.000000	64.617609 
1593.000000	64.628505 
1592.000000	64.638590 
1591.000000	64.646959 
1590.000000	64.653015 
1589.000000	64.656138 
1588.000000	64.656496 
1587.000000	64.654517 
1586.000000	64.651417 
1585.000000	64.649295 
1584.000000	64.650392 
1583.000000	64.657092 
1582.000000	64.670634 
1581.000000	64.690923 
1580.000000	64.716029 
1579.000000	64.742445 
1578.000000	64.765977 
1577.000000	64.782452 
1576.000000	64.788866 
1575.000000	64.784002 
1574.000000	64.768362 
1573.000000	64.744353 
1572.000000	64.715170 
1571.000000	64.684820 
1570.000000	64.657139 
1569.000000	64.635801 
1568.000000	64.623856 
1567.000000	64.623451 
1566.000000	64.635801 
1565.000000	64.660573 
1564.000000	64.696216 
1563.000000	64.739322 
1562.000000	64.785289 
1561.000000	64.828610 
1560.000000	64.863491 
1559.000000	64.885258 
1558.000000	64.891028 
1557.000000	64.880299 
1556.000000	64.855289 
1555.000000	64.820051 
1554.000000	64.779710 
1553.000000	64.739489 
1552.000000	64.703631 
1551.000000	64.674925 
1550.000000	64.654731 
1549.000000	64.642977 
1548.000000	64.638590 
1547.000000	64.640021 
1546.000000	64.645719 
1545.000000	64.653801 
1544.000000	64.662694 
1543.000000	64.670872 
1542.000000	64.676976 
1541.000000	64.679956 
1540.000000	64.679265 
1539.000000	64.674758 
1538.000000	64.667081 
1537.000000	64.657521 
1536.000000	64.647912 
1535.000000	64.640307 
1534.000000	64.636373 
1533.000000	64.637255 
1532.000000	64.643239 
1531.000000	64.654016 
1530.000000	64.668607 
1529.000000	64.685535 
1528.000000	64.703154 
1527.000000	64.719963 
1526.000000	64.734506 
1525.000000	64.745616 
1524.000000	64.752364 
1523.000000	64.754128 
1522.000000	64.750623 
1521.000000	64.742136 
1520.000000	64.729499 
1519.000000	64.714074 
1518.000000	64.697980 
1517.000000	64.683699 
1516.000000	64.673995 
1515.000000	64.671301 
1514.000000	64.677238 
1513.000000	64.691877 
1512.000000	64.713835 
1511.000000	64.739918 
1510.000000	64.765882 
1509.000000	64.787149 
1508.000000	64.799380 
1507.000000	64.799833 
1506.000000	64.787912 
1505.000000	64.765477 
1504.000000	64.736318 
1503.000000	64.705514 
1502.000000	64.678192 
1501.000000	64.658188 
1500.000000	64.647388 
1499.000000	64.645051 
1498.000000	64.648437 
1497.000000	64.653682 
1496.000000	64.657235 
1495.000000	64.656543 
1494.000000	64.650750 
1493.000000	64.640712 
1492.000000	64.628505 
1491.000000	64.616298 
1490.000000	64.605855 
1489.000000	64.597868 
1488.000000	64.592313 
1487.000000	64.588332 
1486.000000	64.585232 
1485.000000	64.582943 
1484.000000	64.582490 
1483.000000	64.585494 
1482.000000	64.594030 
1481.000000	64.609980 
1480.000000	64.633893 
1479.000000	64.664816 
1478.000000	64.699983 
1477.000000	64.735484 
1476.000000	64.766883 
1475.000000	64.790225 
1474.000000	64.802646 
1473.000000	64.802861 
1472.000000	64.791369 
1471.000000	64.770293 
1470.000000	64.742541 
1469.000000	64.711165 
1468.000000	64.679050 
1467.000000	64.648461 
1466.000000	64.620947 
1465.000000	64.597082 
1464.000000	64.576959 
1463.000000	64.559841 
1462.000000	64.544868 
1461.000000	64.530777 
1460.000000	64.516115 
1459.000000	64.499616 
1458.000000	64.480209 
1457.000000	64.457559 
1456.000000	64.431834 
1455.000000	64.404201 
1454.000000	64.376282 
1453.000000	64.350318 
1452.000000	64.328360 
1451.000000	64.312314 
1450.000000	64.303398 
1449.000000	64.302110 
1448.000000	64.308118 
1447.000000	64.320731 
1446.000000	64.338850 
1445.000000	64.361071 
1444.000000	64.385771 
1443.000000	64.410996 
1442.000000	64.434647 
1441.000000	64.454245 
1440.000000	64.467453 
1439.000000	64.472532 
1438.000000	64.468622 
1437.000000	64.456343 
1436.000000	64.437484 
1435.000000	64.414834 
1434.000000	64.391613 
1433.000000	64.370870 
1432.000000	64.354920 
1431.000000	64.344859 
1430.000000	64.340591 
1429.000000	64.341211 
1428.000000	64.345240 
1427.000000	64.351248 
1426.000000	64.358067 
1425.000000	64.365077 
1424.000000	64.372205 
1423.000000	64.379596 
1422.000000	64.387297 
1421.000000	64.395141 
1420.000000	64.402532 
1419.000000	64.408540 
1418.000000	64.412093 
1417.000000	64.412331 
1416.000000	64.408493 
1415.000000	64.400339 
1414.000000	64.387965 
1413.000000	64.371728 
1412.000000	64.352321 
1411.000000	64.330792 
1410.000000	64.308214 
1409.000000	64.286017 
1408.000000	64.265847 
1407.000000	64.249444 
1406.000000	64.238405 
1405.000000	64.233851 
1404.000000	64.236307 
1403.000000	64.245343 
1402.000000	64.259409 
1401.000000	64.276218 
1400.000000	64.292955 
1399.000000	64.306950 
1398.000000	64.316225 
1397.000000	64.320039 
1396.000000	64.318680 
1395.000000	64.313745 
1394.000000	64.307451 
1393.000000	64.302134 
1392.000000	64.299702 
1391.000000	64.301228 
1390.000000	64.306664 
1389.000000	64.314866 
1388.000000	64.323925 
1387.000000	64.331769 
1386.000000	64.336609 
1385.000000	64.337229 
1384.000000	64.333200 
1383.000000	64.324951 
1382.000000	64.313173 
1381.000000	64.298820 
1380.000000	64.282560 
1379.000000	64.264917 
1378.000000	64.246034 
1377.000000	64.225983 
1376.000000	64.204812 
1375.000000	64.183187 
1374.000000	64.162302 
1373.000000	64.143729 
1372.000000	64.129281 
1371.000000	64.120531 
1370.000000	64.118671 
1369.000000	64.124202 
1368.000000	64.136838 
1367.000000	64.155387 
1366.000000	64.178228 
1365.000000	64.203500 
1364.000000	64.229583 
1363.000000	64.255118 
1362.000000	64.279127 
1361.000000	64.301037 
1360.000000	64.320397 
1359.000000	64.336895 
1358.000000	64.350271 
1357.000000	64.360117 
1356.000000	64.366173 
1355.000000	64.368367 
1354.000000	64.367055 
1353.000000	64.363098 
1352.000000	64.357781 
1351.000000	64.352607 
1350.000000	64.349079 
1349.000000	64.348459 
1348.000000	64.351391 
1347.000000	64.357757 
1346.000000	64.366459 
1345.000000	64.375734 
1344.000000	64.383602 
1343.000000	64.388155 
1342.000000	64.388084 
1341.000000	64.383053 
1340.000000	64.373779 
1339.000000	64.361882 
1338.000000	64.349412 
1337.000000	64.338517 
1336.000000	64.330840 
1335.000000	64.327239 
1334.000000	64.327597 
1333.000000	64.330792 
1332.000000	64.335060 
1331.000000	64.338541 
1330.000000	64.339590 
1329.000000	64.337086 
1328.000000	64.330625 
1327.000000	64.320635 
1326.000000	64.308118 
1325.000000	64.294385 
1324.000000	64.280629 
1323.000000	64.267754 
1322.000000	64.256310 
1321.000000	64.246368 
1320.000000	64.237809 
1319.000000	64.230418 
1318.000000	64.224147 
1317.000000	64.219188 
1316.000000	64.215970 
1315.000000	64.214825 
1314.000000	64.216160 
1313.000000	64.220046 
1312.000000	64.226293 
1311.000000	64.234471 
1310.000000	64.243888 
1309.000000	64.253759 
1308.000000	64.263176 
1307.000000	64.271163 
1306.000000	64.276766 
1305.000000	64.278960 
1304.000000	64.277124 
1303.000000	64.270877 
1302.000000	64.260411 
1301.000000	64.246392 
1300.000000	64.230203 
1299.000000	64.213800 
1298.000000	64.199304 
1297.000000	64.188790 
1296.000000	64.184021 
1295.000000	64.185976 
1294.000000	64.194846 
1293.000000	64.209818 
1292.000000	64.229059 
1291.000000	64.250159 
1290.000000	64.270448 
1289.000000	64.287567 
1288.000000	64.299488 
1287.000000	64.305138 
1286.000000	64.304423 
1285.000000	64.298272 
1284.000000	64.288163 
1283.000000	64.276123 
1282.000000	64.264011 
1281.000000	64.253211 
1280.000000	64.244365 
1279.000000	64.237165 
1278.000000	64.230585 
1277.000000	64.223146 
1276.000000	64.213299 
1275.000000	64.199924 
1274.000000	64.182543 
1273.000000	64.161515 
1272.000000	64.138293 
1271.000000	64.114618 
1270.000000	64.092993 
1269.000000	64.075446 
1268.000000	64.063739 
1267.000000	64.058732 
1266.000000	64.060616 
1265.000000	64.068651 
1264.000000	64.081668 
1263.000000	64.098024 
1262.000000	64.116072 
1261.000000	64.134287 
1260.000000	64.151477 
1259.000000	64.166831 
1258.000000	64.179849 
1257.000000	64.190244 
1256.000000	64.197826 
1255.000000	64.202570 
1254.000000	64.204311 
1253.000000	64.202690 
1252.000000	64.197421 
1251.000000	64.188337 
1250.000000	64.175438 
1249.000000	64.159178 
1248.000000	64.140558 
1247.000000	64.121150 
1246.000000	64.102935 
1245.000000	64.087939 
1244.000000	64.078044 
1243.000000	64.074301 
1242.000000	64.076828 
1241.000000	64.084410 
1240.000000	64.094758 
1239.000000	64.104938 
1238.000000	64.111757 
1237.000000	64.112758 
1236.000000	64.106678 
1235.000000	64.093947 
1234.000000	64.076638 
1233.000000	64.058184 
1232.000000	64.042568 
1231.000000	64.033627 
1230.000000	64.034128 
1229.000000	64.045000 
1228.000000	64.065289 
1227.000000	64.092350 
1226.000000	64.122629 
1225.000000	64.152050 
1224.000000	64.177036 
1223.000000	64.195132 
1222.000000	64.205408 
1221.000000	64.208149 
1220.000000	64.204859 
1219.000000	64.197516 
1218.000000	64.188432 
1217.000000	64.179420 
1216.000000	64.172029 
1215.000000	64.167165 
1214.000000	64.165258 
1213.000000	64.166331 
1212.000000	64.170122 
1211.000000	64.176416 
1210.000000	64.184880 
1209.000000	64.194917 
1208.000000	64.206027 
1207.000000	64.217686 
1206.000000	64.229393 
1205.000000	64.240455 
1204.000000	64.250254 
1203.000000	64.258146 
1202.000000	64.263463 
1201.000000	64.265561 
1200.000000	64.263963 
1199.000000	64.258337 
1198.000000	64.248800 
1197.000000	64.235925 
1196.000000	64.220905 
1195.000000	64.205360 
1194.000000	64.191150 
1193.000000	64.179801 
1192.000000	64.172220 
1191.000000	64.168334 
1190.000000	64.166784 
1189.000000	64.165163 
1188.000000	64.160561 
1187.000000	64.150071 
1186.000000	64.131689 
1185.000000	64.104795 
1184.000000	64.070367 
1183.000000	64.031100 
1182.000000	63.990640 
1181.000000	63.953232 
1180.000000	63.922500 
1179.000000	63.900852 
1178.000000	63.889050 
1177.000000	63.886046 
1176.000000	63.889384 
1175.000000	63.895678 
1174.000000	63.901567 
1173.000000	63.904380 
1172.000000	63.902664 
1171.000000	63.896393 
1170.000000	63.886833 
1169.000000	63.875865 
1168.000000	63.865494 
1167.000000	63.857436 
1166.000000	63.852691 
1165.000000	63.851404 
1164.000000	63.853263 
1163.000000	63.857841 
1162.000000	63.864731 
1161.000000	63.873648 
1160.000000	63.884639 
1159.000000	63.897919 
1158.000000	63.913941 
1157.000000	63.932824 
1156.000000	63.954424 
1155.000000	63.978266 
1154.000000	64.003396 
1153.000000	64.028429 
1152.000000	64.051961 
1151.000000	64.072775 
1150.000000	64.089989 
1149.000000	64.103174 
1148.000000	64.112687 
1147.000000	64.119434 
1146.000000	64.124608 
1145.000000	64.129424 
1144.000000	64.134860 
1143.000000	64.141201 
1142.000000	64.148139 
1141.000000	64.154624 
1140.000000	64.159202 
1139.000000	64.160513 
1138.000000	64.157962 
1137.000000	64.151835 
1136.000000	64.143466 
1135.000000	64.135026 
1134.000000	64.128756 
1133.000000	64.126515 
1132.000000	64.129424 
1131.000000	64.137387 
1130.000000	64.149332 
1129.000000	64.163446 
1128.000000	64.177727 
1127.000000	64.190340 
1126.000000	64.199757 
1125.000000	64.205169 
1124.000000	64.206480 
1123.000000	64.204072 
1122.000000	64.198613 
1121.000000	64.190983 
1120.000000	64.182138 
1119.000000	64.173150 
1118.000000	64.165043 
1117.000000	64.158535 
1116.000000	64.153885 
1115.000000	64.150619 
1114.000000	64.147639 
1113.000000	64.143347 
1112.000000	64.136266 
1111.000000	64.125204 
1110.000000	64.110326 
1109.000000	64.093041 
1108.000000	64.076280 
1107.000000	64.063835 
1106.000000	64.059543 
1105.000000	64.066290 
1104.000000	64.085412 
1103.000000	64.116263 
1102.000000	64.156460 
1101.000000	64.202022 
1100.000000	64.248991 
1099.000000	64.294385 
1098.000000	64.336633 
1097.000000	64.375352 
1096.000000	64.410829 
1095.000000	64.443469 
1094.000000	64.472556 
1093.000000	64.496040 
1092.000000	64.511132 
1091.000000	64.515018 
1090.000000	64.506077 
1089.000000	64.484643 
1088.000000	64.453697 
1087.000000	64.418220 
1086.000000	64.384698 
1085.000000	64.359354 
1084.000000	64.347171 
1083.000000	64.350390 
1082.000000	64.368391 
1081.000000	64.397358 
1080.000000	64.431595 
1079.000000	64.464020 
1078.000000	64.488148 
1077.000000	64.498519 
1076.000000	64.491963 
1075.000000	64.467763 
1074.000000	64.427185 
1073.000000	64.373373 
1072.000000	64.310741 
1071.000000	64.244151 
1070.000000	64.178323 
1069.000000	64.117217 
1068.000000	64.063787 
1067.000000	64.019584 
1066.000000	63.985061 
1065.000000	63.959717 
1064.000000	63.942909 
1063.000000	63.933682 
1062.000000	63.931536 
1061.000000	63.935995 
1060.000000	63.947224 
1059.000000	63.964986 
1058.000000	63.989019 
1057.000000	64.018511 
1056.000000	64.051651 
1055.000000	64.086389 
1054.000000	64.119791 
1053.000000	64.148378 
1052.000000	64.168620 
1051.000000	64.177799 
1050.000000	64.174032 
1049.000000	64.157009 
1048.000000	64.128088 
1047.000000	64.090204 
1046.000000	64.047431 
1045.000000	64.004421 
1044.000000	63.965654 
1043.000000	63.934898 
1042.000000	63.914513 
1041.000000	63.905286 
1040.000000	63.906574 
1039.000000	63.916802 
1038.000000	63.933444 
1037.000000	63.953757 
1036.000000	63.975024 
1035.000000	63.995194 
1034.000000	64.012694 
1033.000000	64.026641 
1032.000000	64.036893 
1031.000000	64.043784 
1030.000000	64.048242 
1029.000000	64.051413 
1028.000000	64.054679 
1027.000000	64.058876 
1026.000000	64.064478 
1025.000000	64.071202 
1024.000000	64.078116 
1023.000000	64.083862 
1022.000000	64.087104 
1021.000000	64.086890 
1020.000000	64.083003 
1019.000000	64.076066 
1018.000000	64.067292 
1017.000000	64.058494 
1016.000000	64.051556 
1015.000000	64.048051 
1014.000000	64.048957 
1013.000000	64.054679 
1012.000000	64.064884 
1011.000000	64.078569 
1010.000000	64.094185 
1009.000000	64.109849 
1008.000000	64.123558 
1007.000000	64.133286 
1006.000000	64.137506 
1005.000000	64.135122 
1004.000000	64.126133 
1003.000000	64.111542 
1002.000000	64.093470 
1001.000000	64.075279 
1000.000000	64.060163 
999.000000	 64.050984 
998.000000	 64.049434 
997.000000	 64.055633 
996.000000	 64.068174 
995.000000	 64.084529 
994.000000	 64.101696 
993.000000	 64.116954 
992.000000	 64.128327 
991.000000	 64.135074 
990.000000	 64.137554 
989.000000	 64.136672 
988.000000	 64.133763 
987.000000	 64.130020 
986.000000	 64.126181 
985.000000	 64.122462 
984.000000	 64.118623 
983.000000	 64.114403 
982.000000	 64.109778 
981.000000	 64.105224 
980.000000	 64.101696 
979.000000	 64.100408 
978.000000	 64.102458 
977.000000	 64.108705 
976.000000	 64.119434 
975.000000	 64.134407 
974.000000	 64.152765 
973.000000	 64.173293 
972.000000	 64.194583 
971.000000	 64.215350 
970.000000	 64.234566 
969.000000	 64.251494 
968.000000	 64.265990 
967.000000	 64.278054 
966.000000	 64.287948 
965.000000	 64.295434 
964.000000	 64.300060 
963.000000	 64.300823 
962.000000	 64.296627 
961.000000	 64.286589 
960.000000	 64.270710 
959.000000	 64.250111 
958.000000	 64.227080 
957.000000	 64.204549 
956.000000	 64.185595 
955.000000	 64.172887 
954.000000	 64.167857 
953.000000	 64.170551 
952.000000	 64.179325 
951.000000	 64.191484 
950.000000	 64.203786 
949.000000	 64.212918 
948.000000	 64.216279 
947.000000	 64.212441 
946.000000	 64.201402 
945.000000	 64.184355 
944.000000	 64.163565 
943.000000	 64.141798 
942.000000	 64.121747 
941.000000	 64.105749 
940.000000	 64.095139 
939.000000	 64.090394 
938.000000	 64.090657 
937.000000	 64.094090 
936.000000	 64.098334 
935.000000	 64.100837 
934.000000	 64.099812 
933.000000	 64.094591 
932.000000	 64.085912 
931.000000	 64.075613 
930.000000	 64.066100 
929.000000	 64.059877 
928.000000	 64.058685 
927.000000	 64.063072 
926.000000	 64.072346 
925.000000	 64.084768 
924.000000	 64.098167 
923.000000	 64.110302 
922.000000	 64.119625 
921.000000	 64.125537 
920.000000	 64.128160 
919.000000	 64.128518 
918.000000	 64.127945 
917.000000	 64.127993 
916.000000	 64.129829 
915.000000	 64.134311 
914.000000	 64.141821 
913.000000	 64.152216 
912.000000	 64.165091 
911.000000	 64.179348 
910.000000	 64.193582 
909.000000	 64.205908 
908.000000	 64.214563 
907.000000	 64.218139 
906.000000	 64.215898 
905.000000	 64.208173 
904.000000	 64.196228 
903.000000	 64.182162 
902.000000	 64.168334 
901.000000	 64.156770 
900.000000	 64.148569 
899.000000	 64.143466 
898.000000	 64.139914 
897.000000	 64.135670 
896.000000	 64.128541 
895.000000	 64.117145 
894.000000	 64.101767 
893.000000	 64.084029 
892.000000	 64.066958 
891.000000	 64.053726 
890.000000	 64.047098 
889.000000	 64.048266 
888.000000	 64.057064 
887.000000	 64.071679 
886.000000	 64.089608 
885.000000	 64.108204 
884.000000	 64.125466 
883.000000	 64.140343 
882.000000	 64.152550 
881.000000	 64.162254 
880.000000	 64.169502 
879.000000	 64.173913 
878.000000	 64.174628 
877.000000	 64.170503 
876.000000	 64.160966 
875.000000	 64.146518 
874.000000	 64.129185 
873.000000	 64.112091 
872.000000	 64.098739 
871.000000	 64.092087 
870.000000	 64.093470 
869.000000	 64.102387 
868.000000	 64.116549 
867.000000	 64.132571 
866.000000	 64.146971 
865.000000	 64.157104 
864.000000	 64.161920 
863.000000	 64.162111 
862.000000	 64.159393 
861.000000	 64.156150 
860.000000	 64.154720 
859.000000	 64.156508 
858.000000	 64.161729 
857.000000	 64.169287 
856.000000	 64.177370 
855.000000	 64.184045 
854.000000	 64.188003 
853.000000	 64.188909 
852.000000	 64.187622 
851.000000	 64.185714 
850.000000	 64.184904 
849.000000	 64.186501 
848.000000	 64.190959 
847.000000	 64.197492 
846.000000	 64.204072 
845.000000	 64.208245 
844.000000	 64.207482 
843.000000	 64.200282 
842.000000	 64.186120 
841.000000	 64.165711 
840.000000	 64.140605 
839.000000	 64.112830 
838.000000	 64.084148 
837.000000	 64.055204 
836.000000	 64.025783 
835.000000	 63.994789 
834.000000	 63.961219 
833.000000	 63.924765 
832.000000	 63.886785 
831.000000	 63.849997 
830.000000	 63.818478 
829.000000	 63.796591 
828.000000	 63.787794 
827.000000	 63.793659 
826.000000	 63.812923 
825.000000	 63.841366 
824.000000	 63.872647 
823.000000	 63.899612 
822.000000	 63.916087 
821.000000	 63.918256 
820.000000	 63.905620 
819.000000	 63.881182 
818.000000	 63.850092 
817.000000	 63.818669 
816.000000	 63.792943 
815.000000	 63.777136 
814.000000	 63.773393 
813.000000	 63.781189 
812.000000	 63.798427 
811.000000	 63.821315 
810.000000	 63.845443 
809.000000	 63.866472 
808.000000	 63.880658 
807.000000	 63.886046 
806.000000	 63.882422 
805.000000	 63.871979 
804.000000	 63.858532 
803.000000	 63.847136 
802.000000	 63.842773 
801.000000	 63.849258 
800.000000	 63.868474 
799.000000	 63.899660 
798.000000	 63.939809 
797.000000	 63.984274 
796.000000	 64.027929 
795.000000	 64.066457 
794.000000	 64.097356 
793.000000	 64.120554 
792.000000	 64.138007 
791.000000	 64.153170 
790.000000	 64.169406 
789.000000	 64.189100 
788.000000	 64.212512 
787.000000	 64.237880 
786.000000	 64.261388 
785.000000	 64.278650 
784.000000	 64.285206 
783.000000	 64.278268 
782.000000	 64.256906 
781.000000	 64.222669 
780.000000	 64.179229 
779.000000	 64.131402 
778.000000	 64.084362 
777.000000	 64.042782 
776.000000	 64.009499 
775.000000	 63.985466 
774.000000	 63.969564 
773.000000	 63.959574 
772.000000	 63.952469 
771.000000	 63.945627 
770.000000	 63.937377 
769.000000	 63.927531 
768.000000	 63.917303 
767.000000	 63.908767 
766.000000	 63.904237 
765.000000	 63.905143 
764.000000	 63.911533 
763.000000	 63.921666 
762.000000	 63.932061 
761.000000	 63.938021 
760.000000	 63.934755 
759.000000	 63.918638 
758.000000	 63.888049 
757.000000	 63.844680 
756.000000	 63.792920 
755.000000	 63.740158 
754.000000	 63.694810 
753.000000	 63.665342 
752.000000	 63.658261 
751.000000	 63.676929 
750.000000	 63.720536 
749.000000	 63.784527 
748.000000	 63.861250 
747.000000	 63.941597 
746.000000	 64.016747 
745.000000	 64.079475 
744.000000	 64.125275 
743.000000	 64.153027 
742.000000	 64.164543 
741.000000	 64.163804 
740.000000	 64.155578 
739.000000	 64.144635 
738.000000	 64.134407 
737.000000	 64.127111 
736.000000	 64.123201 
735.000000	 64.121961 
734.000000	 64.121985 
733.000000	 64.122247 
732.000000	 64.122128 
731.000000	 64.121770 
730.000000	 64.121890 
729.000000	 64.123845 
728.000000	 64.128756 
727.000000	 64.137148 
726.000000	 64.148092 
725.000000	 64.159750 
724.000000	 64.169239 
723.000000	 64.173388 
722.000000	 64.169454 
721.000000	 64.155793 
720.000000	 64.132595 
719.000000	 64.102125 
718.000000	 64.067983 
717.000000	 64.034557 
716.000000	 64.005732 
715.000000	 63.983964 
714.000000	 63.969373 
713.000000	 63.959717 
712.000000	 63.950753 
711.000000	 63.937067 
710.000000	 63.913488 
709.000000	 63.876247 
708.000000	 63.824105 
707.000000	 63.758492 
706.000000	 63.682651 
705.000000	 63.601279 
704.000000	 63.519525 
703.000000	 63.442087 
702.000000	 63.372230 
701.000000	 63.311862 
700.000000	 63.261795 
699.000000	 63.222265 
698.000000	 63.193035 
697.000000	 63.174223 
696.000000	 63.165926 
695.000000	 63.168764 
694.000000	 63.182902 
693.000000	 63.208341 
692.000000	 63.243985 
691.000000	 63.287878 
690.000000	 63.337063 
689.000000	 63.387846 
688.000000	 63.436150 
687.000000	 63.478350 
686.000000	 63.511705 
685.000000	 63.534879 
684.000000	 63.548183 
683.000000	 63.553357 
682.000000	 63.553738 
681.000000	 63.553571 
680.000000	 63.557481 
679.000000	 63.569951 
678.000000	 63.594150 
677.000000	 63.632011 
676.000000	 63.683056 
675.000000	 63.743972 
674.000000	 63.809609 
673.000000	 63.873672 
672.000000	 63.930344 
671.000000	 63.975143 
670.000000	 64.006280 
669.000000	 64.025020 
668.000000	 64.034938 
667.000000	 64.040923 
666.000000	 64.047408 
665.000000	 64.057326 
664.000000	 64.070463 
663.000000	 64.083886 
662.000000	 64.092445 
661.000000	 64.090561 
660.000000	 64.073872 
659.000000	 64.040637 
658.000000	 63.991928 
657.000000	 63.931488 
656.000000	 63.864707 
655.000000	 63.797783 
654.000000	 63.735342 
653.000000	 63.680911 
652.000000	 63.636875 
651.000000	 63.604760 
650.000000	 63.585877 
649.000000	 63.580894 
648.000000	 63.590002 
647.000000	 63.611936 
646.000000	 63.643264 
645.000000	 63.678765 
644.000000	 63.711571 
643.000000	 63.735151 
642.000000	 63.743972 
641.000000	 63.736271 
640.000000	 63.714599 
639.000000	 63.685345 
638.000000	 63.657426 
637.000000	 63.639712 
636.000000	 63.638734 
635.000000	 63.656425 
634.000000	 63.689279 
633.000000	 63.729166 
632.000000	 63.765430 
631.000000	 63.787865 
630.000000	 63.789272 
629.000000	 63.766980 
628.000000	 63.723564 
627.000000	 63.665699 
626.000000	 63.602542 
625.000000	 63.543033 
624.000000	 63.494038 
623.000000	 63.459587 
622.000000	 63.440322 
621.000000	 63.434195 
620.000000	 63.437724 
619.000000	 63.447690 
618.000000	 63.461661 
617.000000	 63.478374 
616.000000	 63.497233 
615.000000	 63.517427 
614.000000	 63.537406 
613.000000	 63.554501 
612.000000	 63.565206 
611.000000	 63.565897 
610.000000	 63.553881 
609.000000	 63.528442 
608.000000	 63.491678 
607.000000	 63.448452 
606.000000	 63.405203 
605.000000	 63.368630 
604.000000	 63.344693 
603.000000	 63.337230 
602.000000	 63.346457 
601.000000	 63.369560 
600.000000	 63.401103 
599.000000	 63.435101 
598.000000	 63.466954 
597.000000	 63.494420 
596.000000	 63.518023 
595.000000	 63.540220 
594.000000	 63.563513 
593.000000	 63.589549 
592.000000	 63.618326 
591.000000	 63.647699 
590.000000	 63.673639 
589.000000	 63.691878 
588.000000	 63.699674 
587.000000	 63.696193 
586.000000	 63.683152 
585.000000	 63.664340 
584.000000	 63.644099 
583.000000	 63.628745 
582.000000	 63.625144 
581.000000	 63.639879 
580.000000	 63.677597 
579.000000	 63.740992 
578.000000	 63.829350 
577.000000	 63.938522 
576.000000	 64.060306 
575.000000	 64.182496 
574.000000	 64.290571 
573.000000	 64.370441 
572.000000	 64.411520 
571.000000	 64.407920 
570.000000	 64.361834 
569.000000	 64.283061 
568.000000	 64.188957 
567.000000	 64.101791 
566.000000	 64.044117 
565.000000	 64.034199 
564.000000	 64.081382 
563.000000	 64.186739 
562.000000	 64.337921 
561.000000	 64.513778 
560.000000	 64.684104 
559.000000	 64.817023 
558.000000	 64.882826 
557.000000	 64.860272 
556.000000	 64.741683 
555.000000	 64.534926 
554.000000	 64.263582 
553.000000	 63.963007 
552.000000	 63.674330 
551.000000	 63.437128 
550.000000	 63.283634 
549.000000	 63.233470 
548.000000	 63.291859 
547.000000	 63.448953 
546.000000	 63.683915 
545.000000	 63.966822 
544.000000	 64.263939 
543.000000	 64.540553 
542.000000	 64.763689 
541.000000	 64.906263 
540.000000	 64.949703 
539.000000	 64.886164 
538.000000	 64.719390 
537.000000	 64.464259 
536.000000	 64.145636 
535.000000	 63.794708 
534.000000	 63.446974 
533.000000	 63.135600 
532.000000	 62.888288 
531.000000	 62.722682 
530.000000	 62.645196 
529.000000	 62.651157 
528.000000	 62.727260 
527.000000	 62.855052 
526.000000	 63.014888 
525.000000	 63.191986 
524.000000	 63.377976 
523.000000	 63.571381 
522.000000	 63.774204 
521.000000	 63.986706 
520.000000	 64.203357 
519.000000	 64.411520 
518.000000	 64.591073 
517.000000	 64.719390 
516.000000	 64.775252 
515.000000	 64.747118 
514.000000	 64.635443 
513.000000	 64.456105 
512.000000	 64.236426 
511.000000	 64.010763 
510.000000	 63.813376 
509.000000	 63.672661 
508.000000	 63.604664 
507.000000	 63.612341 
506.000000	 63.683438 
505.000000	 63.794994 
504.000000	 63.918566 
503.000000	 64.027523 
502.000000	 64.101982 
501.000000	 64.132046 
500.000000	 64.119720 
499.000000	 64.076280 
498.000000	 64.019632 
497.000000	 63.968563 
496.000000	 63.938450 
495.000000	 63.936495 
494.000000	 63.962435 
493.000000	 64.007401 
492.000000	 64.057087 
491.000000	 64.094781 
490.000000	 64.106678 
489.000000	 64.084863 
488.000000	 64.027595 
487.000000	 63.941884 
486.000000	 63.840436 
485.000000	 63.740992 
484.000000	 63.660645 
483.000000	 63.614583 
482.000000	 63.612437 
481.000000	 63.656854 
480.000000	 63.745021 
479.000000	 63.865613 
478.000000	 64.000940 
477.000000	 64.129257 
476.000000	 64.228987 
475.000000	 64.281129 
474.000000	 64.272761 
473.000000	 64.198875 
472.000000	 64.063334 
471.000000	 63.879108 
470.000000	 63.665986 
469.000000	 63.446784 
468.000000	 63.243103 
467.000000	 63.073825 
466.000000	 62.950992 
465.000000	 62.879061 
464.000000	 62.853670 
463.000000	 62.862324 
462.000000	 62.888550 
461.000000	 62.913179 
460.000000	 62.922787 
459.000000	 62.909650 
458.000000	 62.878417 
457.000000	 62.840867 
456.000000	 62.817621 
455.000000	 62.831091 
454.000000	 62.900257 
453.000000	 63.034200 
452.000000	 63.229203 
451.000000	 63.469672 
450.000000	 63.728547 
449.000000	 63.973450 
448.000000	 64.170980 
447.000000	 64.293527 
446.000000	 64.323639 
445.000000	 64.257264 
444.000000	 64.101529 
443.000000	 63.872981 
442.000000	 63.594341 
441.000000	 63.291311 
440.000000	 62.989044 
439.000000	 62.709808 
438.000000	 62.474727 
437.000000	 62.300634 
436.000000	 62.198019 
435.000000	 62.170314 
434.000000	 62.214255 
433.000000	 62.318682 
432.000000	 62.467265 
431.000000	 62.636160 
430.000000	 62.795305 
429.000000	 62.911844 
428.000000	 62.955331 
427.000000	 62.902426 
426.000000	 62.736511 
425.000000	 62.461709 
424.000000	 62.103128 
423.000000	 61.707186 
422.000000	 61.333274 
421.000000	 61.042857 
420.000000	 60.887074 
419.000000	 60.891628 
418.000000	 61.050796 
417.000000	 61.333751 
416.000000	 61.693096 
415.000000	 62.071394 
414.000000	 62.417602 
413.000000	 62.697863 
412.000000	 62.902593 
411.000000	 63.051915 
410.000000	 63.180565 
409.000000	 63.320064 
408.000000	 63.482594 
407.000000	 63.664102 
406.000000	 63.828182 
405.000000	 63.924193 
404.000000	 63.885807 
403.000000	 63.655209 
402.000000	 63.193011 
401.000000	 62.490892 
400.000000	 61.584401 
399.000000	 60.547041 
398.000000	 59.488058 
397.000000	 58.542490 
396.000000	 57.821416 
395.000000	 57.384204 
394.000000	 57.228469 
393.000000	 57.290840 
392.000000	 57.452869 
391.000000	 57.590365 
390.000000	 57.505440 
389.000000	 57.002854 
388.000000	 56.084775 
387.000000	 54.898929 
386.000000	 53.904891 
385.000000	 53.674602 
384.000000	 54.035544 
383.000000	 54.569435 
382.000000	 55.011653 
381.000000	 55.223798 
380.000000	 56.257152 
379.000000	 58.949542 
378.000000	 63.104033 
377.000000	 67.834138 
376.000000	 69.992709 
375.000000	 67.411279 
374.000000	 60.665965 
373.000000	 52.150654 
372.000000	 47.952699 
371.000000	 51.574993 
370.000000	 61.473488 

