PE IR       SPECTRUM    SPECTRUM    ASCII       PEDS        1.60        
  -1
BZ6DA5~1.ASC
17/04/07
21:04:28.00
17/04/07
21:04:28.00
tln
$BZ1503107-1_t0095$<tbV0>[-2.6,7.8,8.0,0.0,27,1,0]
370.000000
64









2002,4.07    
MIRTGS : RIGHTBACK : INTERNAL 2
MIR : ON : INTERNAL 2
OPTKBR

0.200000
8
8.000000
FILLER
RATIO
SPECTRUM
UNLOCKED 256

DOUBLE
64
COMBINED
1
0
0


1.000000
RATIO


1
0
TRUE
51149
0
LEFT NOT FITTED RIGHT NOT FITTED 0
NONE
NONE
15600
12.000000
4.427000
51148
TRUE
1 0 8 72 0 0 0 0 

15798.010000






#HDR
-1
-1
#GR
CM-1
%T
0.00002384185791015625
0.0
5000.000000
-1.000000
4631
8
73.807215
50.320029
#DATA
5000.000000	63.749146 
4999.000000	63.772845 
4998.000000	63.869047 
4997.000000	64.030861 
4996.000000	64.243412 
4995.000000	64.485144 
4994.000000	64.732837 
4993.000000	64.966750 
4992.000000	65.170741 
4991.000000	65.333771 
4990.000000	65.447854 
4989.000000	65.509247 
4988.000000	65.512323 
4987.000000	65.450358 
4986.000000	65.315842 
4985.000000	65.104866 
4984.000000	64.818429 
4983.000000	64.466595 
4982.000000	64.070272 
4981.000000	63.661289 
4980.000000	63.278007 
4979.000000	62.961363 
4978.000000	62.746334 
4977.000000	62.658309 
4976.000000	62.709021 
4975.000000	62.894988 
4974.000000	63.196468 
4973.000000	63.581109 
4972.000000	64.005446 
4971.000000	64.425492 
4970.000000	64.797568 
4969.000000	65.093040 
4968.000000	65.297889 
4967.000000	65.420150 
4966.000000	65.483188 
4965.000000	65.523314 
4964.000000	65.581178 
4963.000000	65.690255 
4962.000000	65.869235 
4961.000000	66.118073 
4960.000000	66.420817 
4959.000000	66.747856 
4958.000000	67.065119 
4957.000000	67.341256 
4956.000000	67.554450 
4955.000000	67.694592 
4954.000000	67.762494 
4953.000000	67.763924 
4952.000000	67.705893 
4951.000000	67.593574 
4950.000000	67.430615 
4949.000000	67.222404 
4948.000000	66.978359 
4947.000000	66.718649 
4946.000000	66.469240 
4945.000000	66.261863 
4944.000000	66.122221 
4943.000000	66.065859 
4942.000000	66.089248 
4941.000000	66.170096 
4940.000000	66.269588 
4939.000000	66.340446 
4938.000000	66.339015 
4937.000000	66.236448 
4936.000000	66.025686 
4935.000000	65.722179 
4934.000000	65.361285 
4933.000000	64.989066 
4932.000000	64.651274 
4931.000000	64.382266 
4930.000000	64.200878 
4929.000000	64.108109 
4928.000000	64.090108 
4927.000000	64.122986 
4926.000000	64.180159 
4925.000000	64.238071 
4924.000000	64.276885 
4923.000000	64.284968 
4922.000000	64.255619 
4921.000000	64.190602 
4920.000000	64.094901 
4919.000000	63.980913 
4918.000000	63.863682 
4917.000000	63.763666 
4916.000000	63.704109 
4915.000000	63.707232 
4914.000000	63.790059 
4913.000000	63.959074 
4912.000000	64.208936 
4911.000000	64.518666 
4910.000000	64.854121 
4909.000000	65.173316 
4908.000000	65.434312 
4907.000000	65.603613 
4906.000000	65.662837 
4905.000000	65.612673 
4904.000000	65.472269 
4903.000000	65.273046 
4902.000000	65.051078 
4901.000000	64.840888 
4900.000000	64.668774 
4899.000000	64.549016 
4898.000000	64.482998 
4897.000000	64.464354 
4896.000000	64.481687 
4895.000000	64.522480 
4894.000000	64.576840 
4893.000000	64.636874 
4892.000000	64.699482 
4891.000000	64.763283 
4890.000000	64.829301 
4889.000000	64.897513 
4888.000000	64.966893 
4887.000000	65.034651 
4886.000000	65.096044 
4885.000000	65.145754 
4884.000000	65.178036 
4883.000000	65.189027 
4882.000000	65.176796 
4881.000000	65.141940 
4880.000000	65.089035 
4879.000000	65.026569 
4878.000000	64.965033 
4877.000000	64.914846 
4876.000000	64.884924 
4875.000000	64.880824 
4874.000000	64.902877 
4873.000000	64.946341 
4872.000000	65.002155 
4871.000000	65.059566 
4870.000000	65.109229 
4869.000000	65.145397 
4868.000000	65.166044 
4867.000000	65.173387 
4866.000000	65.172863 
4865.000000	65.170955 
4864.000000	65.173220 
4863.000000	65.181946 
4862.000000	65.195918 
4861.000000	65.209889 
4860.000000	65.217661 
4859.000000	65.211844 
4858.000000	65.187025 
4857.000000	65.140247 
4856.000000	65.072321 
4855.000000	64.987349 
4854.000000	64.891600 
4853.000000	64.793252 
4852.000000	64.700841 
4851.000000	64.622640 
4850.000000	64.565682 
4849.000000	64.534735 
4848.000000	64.531826 
4847.000000	64.556074 
4846.000000	64.604020 
4845.000000	64.669775 
4844.000000	64.746236 
4843.000000	64.825773 
4842.000000	64.901423 
4841.000000	64.968132 
4840.000000	65.022802 
4839.000000	65.064311 
4838.000000	65.092468 
4837.000000	65.108132 
4836.000000	65.111374 
4835.000000	65.101838 
4834.000000	65.078139 
4833.000000	65.039086 
4832.000000	64.984154 
4831.000000	64.914965 
4830.000000	64.835691 
4829.000000	64.752888 
4828.000000	64.675402 
4827.000000	64.612770 
4826.000000	64.574408 
4825.000000	64.567327 
4824.000000	64.595603 
4823.000000	64.659190 
4822.000000	64.753317 
4821.000000	64.868807 
4820.000000	64.993476 
4819.000000	65.113759 
4818.000000	65.216422 
4817.000000	65.290355 
4816.000000	65.328383 
4815.000000	65.327882 
4814.000000	65.291261 
4813.000000	65.225028 
4812.000000	65.138864 
4811.000000	65.043473 
4810.000000	64.949703 
4809.000000	64.866161 
4808.000000	64.798879 
4807.000000	64.750647 
4806.000000	64.721727 
4805.000000	64.710521 
4804.000000	64.713907 
4803.000000	64.729022 
4802.000000	64.753079 
4801.000000	64.784598 
4800.000000	64.822363 
4799.000000	64.865994 
4798.000000	64.914679 
4797.000000	64.967250 
4796.000000	65.021538 
4795.000000	65.074229 
4794.000000	65.121126 
4793.000000	65.157628 
4792.000000	65.179634 
4791.000000	65.184950 
4790.000000	65.174078 
4789.000000	65.150094 
4788.000000	65.118241 
4787.000000	65.085792 
4786.000000	65.059804 
4785.000000	65.046000 
4784.000000	65.046787 
4783.000000	65.060877 
4782.000000	65.083122 
4781.000000	65.106368 
4780.000000	65.122723 
4779.000000	65.125012 
4778.000000	65.109276 
4777.000000	65.075898 
4776.000000	65.029811 
4775.000000	64.979124 
4774.000000	64.933466 
4773.000000	64.901828 
4772.000000	64.890050 
4771.000000	64.899539 
4770.000000	64.926481 
4769.000000	64.963030 
4768.000000	64.998674 
4767.000000	65.022921 
4766.000000	65.027141 
4765.000000	65.006661 
4764.000000	64.961338 
4763.000000	64.895725 
4762.000000	64.817500 
4761.000000	64.736461 
4760.000000	64.662599 
4759.000000	64.604878 
4758.000000	64.569878 
4757.000000	64.561510 
4756.000000	64.580750 
4755.000000	64.625906 
4754.000000	64.692926 
4753.000000	64.775705 
4752.000000	64.866781 
4751.000000	64.958190 
4750.000000	65.041565 
4749.000000	65.109968 
4748.000000	65.158653 
4747.000000	65.185689 
4746.000000	65.191984 
4745.000000	65.180635 
4744.000000	65.156054 
4743.000000	65.122890 
4742.000000	65.085530 
4741.000000	65.047049 
4740.000000	65.009284 
4739.000000	64.973497 
4738.000000	64.940762 
4737.000000	64.912319 
4736.000000	64.889860 
4735.000000	64.875197 
4734.000000	64.869999 
4733.000000	64.875411 
4732.000000	64.891362 
4731.000000	64.916396 
4730.000000	64.947295 
4729.000000	64.979124 
4728.000000	65.005564 
4727.000000	65.020799 
4726.000000	65.019726 
4725.000000	64.999079 
4724.000000	64.958190 
4723.000000	64.898920 
4722.000000	64.826226 
4721.000000	64.747333 
4720.000000	64.671039 
4719.000000	64.605712 
4718.000000	64.558815 
4717.000000	64.535498 
4716.000000	64.537763 
4715.000000	64.564275 
4714.000000	64.610695 
4713.000000	64.670634 
4712.000000	64.736628 
4711.000000	64.801263 
4710.000000	64.857530 
4709.000000	64.900302 
4708.000000	64.926576 
4707.000000	64.936494 
4706.000000	64.933037 
4705.000000	64.921689 
4704.000000	64.910197 
4703.000000	64.906048 
4702.000000	64.915108 
4701.000000	64.939403 
4700.000000	64.977502 
4699.000000	65.023851 
4698.000000	65.070581 
4697.000000	65.108919 
4696.000000	65.131521 
4695.000000	65.134286 
4694.000000	65.117073 
4693.000000	65.083861 
4692.000000	65.041327 
4691.000000	64.997220 
4690.000000	64.958238 
4689.000000	64.929080 
4688.000000	64.911651 
4687.000000	64.905428 
4686.000000	64.908361 
4685.000000	64.918088 
4684.000000	64.932870 
4683.000000	64.951825 
4682.000000	64.975380 
4681.000000	65.003943 
4680.000000	65.038275 
4679.000000	65.079092 
4678.000000	65.126752 
4677.000000	65.181183 
4676.000000	65.241026 
4675.000000	65.304255 
4674.000000	65.366935 
4673.000000	65.424394 
4672.000000	65.470886 
4671.000000	65.501141 
4670.000000	65.510845 
4669.000000	65.498232 
4668.000000	65.464258 
4667.000000	65.413355 
4666.000000	65.352058 
4665.000000	65.288519 
4664.000000	65.230154 
4663.000000	65.182757 
4662.000000	65.149044 
4661.000000	65.128636 
4660.000000	65.118455 
4659.000000	65.114021 
4658.000000	65.110826 
4657.000000	65.105676 
4656.000000	65.097165 
4655.000000	65.085911 
4654.000000	65.073633 
4653.000000	65.062761 
4652.000000	65.055584 
4651.000000	65.053725 
4650.000000	65.057444 
4649.000000	65.065789 
4648.000000	65.076947 
4647.000000	65.088582 
4646.000000	65.097880 
4645.000000	65.102458 
4644.000000	65.100598 
4643.000000	65.091776 
4642.000000	65.076112 
4641.000000	65.055179 
4640.000000	65.031790 
4639.000000	65.009427 
4638.000000	64.991712 
4637.000000	64.981579 
4636.000000	64.980816 
4635.000000	64.989376 
4634.000000	65.005445 
4633.000000	65.025687 
4632.000000	65.045809 
4631.000000	65.061998 
4630.000000	65.071725 
4629.000000	65.074110 
4628.000000	65.070199 
4627.000000	65.062594 
4626.000000	65.054392 
4625.000000	65.048289 
4624.000000	65.045475 
4623.000000	65.045785 
4622.000000	65.047216 
4621.000000	65.046954 
4620.000000	65.041923 
4619.000000	65.030121 
4618.000000	65.011000 
4617.000000	64.985632 
4616.000000	64.956426 
4615.000000	64.926147 
4614.000000	64.897274 
4613.000000	64.871287 
4612.000000	64.848446 
4611.000000	64.827919 
4610.000000	64.808440 
4609.000000	64.789152 
4608.000000	64.770102 
4607.000000	64.752340 
4606.000000	64.737749 
4605.000000	64.728546 
4604.000000	64.726400 
4603.000000	64.731907 
4602.000000	64.744544 
4601.000000	64.763069 
4600.000000	64.785790 
4599.000000	64.811444 
4598.000000	64.839410 
4597.000000	64.869737 
4596.000000	64.903092 
4595.000000	64.939951 
4594.000000	64.979863 
4593.000000	65.021109 
4592.000000	65.060830 
4591.000000	65.095233 
4590.000000	65.120315 
4589.000000	65.132808 
4588.000000	65.131282 
4587.000000	65.116214 
4586.000000	65.090489 
4585.000000	65.058183 
4584.000000	65.024042 
4583.000000	64.991664 
4582.000000	64.962959 
4581.000000	64.937615 
4580.000000	64.913845 
4579.000000	64.889192 
4578.000000	64.861893 
4577.000000	64.831733 
4576.000000	64.800643 
4575.000000	64.772510 
4574.000000	64.752268 
4573.000000	64.744663 
4572.000000	64.753031 
4571.000000	64.778041 
4570.000000	64.817786 
4569.000000	64.868021 
4568.000000	64.923429 
4567.000000	64.978909 
4566.000000	65.030193 
4565.000000	65.074992 
4564.000000	65.111780 
4563.000000	65.139961 
4562.000000	65.158939 
4561.000000	65.167784 
4560.000000	65.165495 
4559.000000	65.152120 
4558.000000	65.128564 
4557.000000	65.097594 
4556.000000	65.062427 
4555.000000	65.026497 
4554.000000	64.992260 
4553.000000	64.960765 
4552.000000	64.931559 
4551.000000	64.903211 
4550.000000	64.874458 
4549.000000	64.845371 
4548.000000	64.817976 
4547.000000	64.795899 
4546.000000	64.783596 
4545.000000	64.785122 
4544.000000	64.802527 
4543.000000	64.835286 
4542.000000	64.879560 
4541.000000	64.929151 
4540.000000	64.976978 
4539.000000	65.016555 
4538.000000	65.043759 
4537.000000	65.056824 
4536.000000	65.056490 
4535.000000	65.045166 
4534.000000	65.025830 
4533.000000	65.001082 
4532.000000	64.972257 
4531.000000	64.940023 
4530.000000	64.904880 
4529.000000	64.867877 
4528.000000	64.831328 
4527.000000	64.798402 
4526.000000	64.772963 
4525.000000	64.757776 
4524.000000	64.753890 
4523.000000	64.759445 
4522.000000	64.770197 
4521.000000	64.780807 
4520.000000	64.786410 
4519.000000	64.783549 
4518.000000	64.771151 
4517.000000	64.750647 
4516.000000	64.725995 
4515.000000	64.700961 
4514.000000	64.679861 
4513.000000	64.666128 
4512.000000	64.662790 
4511.000000	64.671611 
4510.000000	64.693975 
4509.000000	64.731025 
4508.000000	64.783048 
4507.000000	64.849448 
4506.000000	64.927577 
4505.000000	65.012121 
4504.000000	65.095949 
4503.000000	65.170860 
4502.000000	65.229463 
4501.000000	65.266561 
4500.000000	65.280437 
4499.000000	65.273737 
4498.000000	65.249705 
4497.000000	65.211081 
4496.000000	65.158414 
4495.000000	65.090203 
4494.000000	65.004062 
4493.000000	64.898014 
4492.000000	64.773964 
4491.000000	64.637207 
4490.000000	64.494633 
4489.000000	64.354228 
4488.000000	64.221763 
4487.000000	64.102268 
4486.000000	63.999819 
4485.000000	63.918399 
4484.000000	63.862824 
4483.000000	63.837480 
4482.000000	63.841700 
4481.000000	63.873744 
4480.000000	63.928627 
4479.000000	64.001870 
4478.000000	64.088320 
4477.000000	64.185166 
4476.000000	64.290261 
4475.000000	64.403319 
4474.000000	64.524841 
4473.000000	64.652729 
4472.000000	64.780688 
4471.000000	64.900779 
4470.000000	65.004944 
4469.000000	65.087103 
4468.000000	65.144729 
4467.000000	65.185284 
4466.000000	65.221667 
4465.000000	65.268611 
4464.000000	65.335869 
4463.000000	65.419125 
4462.000000	65.504312 
4461.000000	65.565919 
4460.000000	65.585041 
4459.000000	65.555286 
4458.000000	65.494871 
4457.000000	65.449285 
4456.000000	65.476775 
4455.000000	65.635156 
4454.000000	65.956830 
4453.000000	66.438269 
4452.000000	67.028450 
4451.000000	67.637991 
4450.000000	68.156790 
4449.000000	68.482160 
4448.000000	68.543291 
4447.000000	68.322348 
4446.000000	67.853999 
4445.000000	67.218351 
4444.000000	66.509890 
4443.000000	65.814447 
4442.000000	65.185999 
4441.000000	64.640307 
4440.000000	64.165854 
4439.000000	63.739204 
4438.000000	63.346910 
4437.000000	62.997126 
4436.000000	62.719392 
4435.000000	62.560319 
4434.000000	62.556719 
4433.000000	62.731981 
4432.000000	63.077640 
4431.000000	63.559103 
4430.000000	64.116597 
4429.000000	64.680576 
4428.000000	65.186023 
4427.000000	65.583419 
4426.000000	65.846180 
4425.000000	65.972399 
4424.000000	65.979242 
4423.000000	65.897274 
4422.000000	65.759706 
4421.000000	65.598773 
4420.000000	65.441894 
4419.000000	65.309119 
4418.000000	65.214920 
4417.000000	65.165162 
4416.000000	65.159916 
4415.000000	65.190577 
4414.000000	65.243768 
4413.000000	65.302848 
4412.000000	65.352296 
4411.000000	65.384149 
4410.000000	65.398526 
4409.000000	65.399932 
4408.000000	65.395998 
4407.000000	65.394091 
4406.000000	65.398788 
4405.000000	65.409922 
4404.000000	65.422987 
4403.000000	65.431785 
4402.000000	65.430021 
4401.000000	65.414571 
4400.000000	65.385389 
4399.000000	65.346050 
4398.000000	65.302109 
4397.000000	65.260505 
4396.000000	65.225219 
4395.000000	65.195059 
4394.000000	65.165352 
4393.000000	65.129780 
4392.000000	65.082406 
4391.000000	65.020251 
4390.000000	64.943647 
4389.000000	64.856600 
4388.000000	64.765977 
4387.000000	64.680075 
4386.000000	64.605879 
4385.000000	64.547944 
4384.000000	64.507961 
4383.000000	64.484739 
4382.000000	64.474773 
4381.000000	64.473748 
4380.000000	64.477038 
4379.000000	64.481687 
4378.000000	64.486289 
4377.000000	64.491748 
4376.000000	64.499473 
4375.000000	64.511823 
4374.000000	64.530348 
4373.000000	64.555907 
4372.000000	64.587855 
4371.000000	64.624691 
4370.000000	64.664268 
4369.000000	64.704680 
4368.000000	64.744353 
4367.000000	64.782977 
4366.000000	64.821195 
4365.000000	64.860606 
4364.000000	64.903092 
4363.000000	64.950037 
4362.000000	65.001702 
4361.000000	65.057182 
4360.000000	65.114521 
4359.000000	65.170979 
4358.000000	65.223431 
4357.000000	65.269923 
4356.000000	65.309190 
4355.000000	65.340948 
4354.000000	65.365314 
4353.000000	65.382814 
4352.000000	65.393733 
4351.000000	65.397691 
4350.000000	65.393662 
4349.000000	65.380811 
4348.000000	65.358662 
4347.000000	65.328192 
4346.000000	65.291357 
4345.000000	65.251684 
4344.000000	65.212607 
4343.000000	65.177369 
4342.000000	65.147542 
4341.000000	65.122699 
4340.000000	65.100669 
4339.000000	65.078377 
4338.000000	65.052938 
4337.000000	65.022635 
4336.000000	64.988255 
4335.000000	64.953279 
4334.000000	64.922809 
4333.000000	64.902234 
4332.000000	64.895963 
4331.000000	64.906048 
4330.000000	64.931106 
4329.000000	64.966630 
4328.000000	65.006208 
4327.000000	65.042972 
4326.000000	65.071225 
4325.000000	65.087509 
4324.000000	65.091371 
4323.000000	65.084862 
4322.000000	65.071582 
4321.000000	65.055441 
4320.000000	65.039420 
4319.000000	65.024995 
4318.000000	65.012645 
4317.000000	65.001726 
4316.000000	64.991712 
4315.000000	64.982485 
4314.000000	64.975118 
4313.000000	64.970827 
4312.000000	64.970445 
4311.000000	64.973545 
4310.000000	64.978313 
4309.000000	64.981460 
4308.000000	64.979004 
4307.000000	64.967656 
4306.000000	64.945769 
4305.000000	64.914059 
4304.000000	64.875578 
4303.000000	64.835166 
4302.000000	64.798378 
4301.000000	64.770174 
4300.000000	64.753794 
4299.000000	64.749932 
4298.000000	64.757013 
4297.000000	64.771914 
4296.000000	64.790964 
4295.000000	64.810657 
4294.000000	64.828824 
4293.000000	64.844512 
4292.000000	64.858365 
4291.000000	64.871478 
4290.000000	64.885282 
4289.000000	64.900374 
4288.000000	64.916706 
4287.000000	64.933514 
4286.000000	64.949178 
4285.000000	64.961647 
4284.000000	64.969182 
4283.000000	64.970993 
4282.000000	64.967322 
4281.000000	64.959383 
4280.000000	64.949369 
4279.000000	64.939761 
4278.000000	64.932250 
4277.000000	64.927101 
4276.000000	64.923048 
4275.000000	64.917325 
4274.000000	64.906263 
4273.000000	64.886331 
4272.000000	64.855313 
4271.000000	64.813232 
4270.000000	64.762854 
4269.000000	64.709544 
4268.000000	64.659953 
4267.000000	64.620995 
4266.000000	64.598321 
4265.000000	64.595389 
4264.000000	64.612174 
4263.000000	64.646267 
4262.000000	64.693236 
4261.000000	64.748096 
4260.000000	64.806175 
4259.000000	64.864349 
4258.000000	64.921045 
4257.000000	64.976096 
4256.000000	65.029764 
4255.000000	65.082287 
4254.000000	65.133213 
4253.000000	65.181422 
4252.000000	65.224933 
4251.000000	65.261793 
4250.000000	65.290141 
4249.000000	65.309333 
4248.000000	65.319204 
4247.000000	65.320229 
4246.000000	65.312552 
4245.000000	65.296244 
4244.000000	65.270781 
4243.000000	65.235447 
4242.000000	65.190005 
4241.000000	65.135622 
4240.000000	65.075135 
4239.000000	65.013337 
4238.000000	64.956283 
4237.000000	64.910745 
4236.000000	64.882349 
4235.000000	64.874100 
4234.000000	64.885544 
4233.000000	64.912438 
4232.000000	64.947652 
4231.000000	64.982795 
4230.000000	65.009713 
4229.000000	65.021920 
4228.000000	65.016269 
4227.000000	64.993405 
4226.000000	64.957141 
4225.000000	64.913487 
4224.000000	64.869379 
4223.000000	64.831399 
4222.000000	64.804482 
4221.000000	64.791178 
4220.000000	64.791536 
4219.000000	64.803457 
4218.000000	64.823269 
4217.000000	64.847087 
4216.000000	64.871335 
4215.000000	64.894032 
4214.000000	64.914536 
4213.000000	64.933991 
4212.000000	64.954257 
4211.000000	64.977145 
4210.000000	65.004038 
4209.000000	65.033960 
4208.000000	65.063548 
4207.000000	65.087223 
4206.000000	65.098905 
4205.000000	65.092825 
4204.000000	65.065360 
4203.000000	65.016603 
4202.000000	64.950823 
4201.000000	64.875912 
4200.000000	64.801812 
4199.000000	64.738440 
4198.000000	64.693737 
4197.000000	64.672279 
4196.000000	64.674448 
4195.000000	64.696598 
4194.000000	64.732098 
4193.000000	64.772844 
4192.000000	64.811396 
4191.000000	64.841508 
4190.000000	64.860272 
4189.000000	64.867329 
4188.000000	64.865756 
4187.000000	64.859724 
4186.000000	64.854311 
4185.000000	64.854073 
4184.000000	64.862370 
4183.000000	64.880847 
4182.000000	64.909410 
4181.000000	64.946722 
4180.000000	64.990401 
4179.000000	65.037584 
4178.000000	65.085148 
4177.000000	65.130209 
4176.000000	65.169954 
4175.000000	65.201854 
4174.000000	65.223717 
4173.000000	65.233564 
4172.000000	65.230274 
4171.000000	65.213632 
4170.000000	65.184235 
4169.000000	65.143227 
4168.000000	65.092968 
4167.000000	65.036296 
4166.000000	64.975929 
4165.000000	64.914608 
4164.000000	64.854741 
4163.000000	64.798927 
4162.000000	64.749765 
4161.000000	64.710021 
4160.000000	64.682126 
4159.000000	64.667916 
4158.000000	64.668321 
4157.000000	64.682555 
4156.000000	64.707589 
4155.000000	64.738655 
4154.000000	64.769506 
4153.000000	64.793872 
4152.000000	64.806342 
4151.000000	64.804220 
4150.000000	64.787912 
4149.000000	64.761161 
4148.000000	64.730167 
4147.000000	64.702248 
4146.000000	64.684009 
4145.000000	64.680027 
4144.000000	64.692115 
4143.000000	64.719367 
4142.000000	64.758586 
4141.000000	64.805698 
4140.000000	64.856290 
4139.000000	64.906406 
4138.000000	64.952516 
4137.000000	64.991784 
4136.000000	65.021824 
4135.000000	65.040683 
4134.000000	65.047001 
4133.000000	65.040659 
4132.000000	65.022492 
4131.000000	64.994740 
4130.000000	64.960527 
4129.000000	64.924192 
4128.000000	64.890027 
4127.000000	64.861965 
4126.000000	64.842557 
4125.000000	64.833068 
4124.000000	64.833378 
4123.000000	64.842534 
4122.000000	64.859175 
4121.000000	64.881992 
4120.000000	64.909982 
4119.000000	64.942598 
4118.000000	64.979195 
4117.000000	65.018653 
4116.000000	65.059041 
4115.000000	65.097546 
4114.000000	65.130901 
4113.000000	65.155553 
4112.000000	65.168404 
4111.000000	65.167450 
4110.000000	65.152430 
4109.000000	65.125155 
4108.000000	65.089249 
4107.000000	65.049529 
4106.000000	65.011215 
4105.000000	64.978647 
4104.000000	64.954781 
4103.000000	64.940476 
4102.000000	64.934587 
4101.000000	64.934873 
4100.000000	64.938569 
4099.000000	64.943671 
4098.000000	64.949059 
4097.000000	64.954924 
4096.000000	64.962315 
4095.000000	64.972376 
4094.000000	64.985704 
4093.000000	65.001773 
4092.000000	65.018916 
4091.000000	65.034794 
4090.000000	65.047144 
4089.000000	65.054917 
4088.000000	65.058636 
4087.000000	65.060853 
4086.000000	65.065240 
4085.000000	65.075945 
4084.000000	65.096092 
4083.000000	65.126800 
4082.000000	65.166378 
4081.000000	65.211033 
4080.000000	65.254926 
4079.000000	65.292167 
4078.000000	65.317201 
4077.000000	65.326166 
4076.000000	65.317392 
4075.000000	65.291905 
4074.000000	65.252757 
4073.000000	65.204310 
4072.000000	65.151643 
4071.000000	65.099883 
4070.000000	65.053319 
4069.000000	65.015196 
4068.000000	64.987468 
4067.000000	64.970779 
4066.000000	64.964985 
4065.000000	64.969301 
4064.000000	64.982438 
4063.000000	65.002727 
4062.000000	65.027999 
4061.000000	65.055537 
4060.000000	65.082144 
4059.000000	65.104579 
4058.000000	65.119791 
4057.000000	65.125632 
4056.000000	65.121006 
4055.000000	65.106439 
4054.000000	65.084314 
4053.000000	65.058803 
4052.000000	65.034699 
4051.000000	65.016961 
4050.000000	65.009689 
4049.000000	65.015125 
4048.000000	65.033268 
4047.000000	65.061616 
4046.000000	65.096068 
4045.000000	65.131258 
4044.000000	65.161824 
4043.000000	65.183329 
4042.000000	65.192842 
4041.000000	65.189933 
4040.000000	65.176558 
4039.000000	65.157079 
4038.000000	65.137219 
4037.000000	65.123367 
4036.000000	65.120911 
4035.000000	65.133070 
4034.000000	65.159773 
4033.000000	65.197682 
4032.000000	65.240359 
4031.000000	65.279746 
4030.000000	65.307831 
4029.000000	65.318107 
4028.000000	65.307211 
4027.000000	65.275669 
4026.000000	65.227985 
4025.000000	65.171074 
4024.000000	65.113306 
4023.000000	65.062260 
4022.000000	65.023756 
4021.000000	65.000987 
4020.000000	64.994215 
4019.000000	65.001535 
4018.000000	65.019321 
4017.000000	65.043497 
4016.000000	65.069890 
4015.000000	65.094614 
4014.000000	65.114068 
4013.000000	65.125060 
4012.000000	65.125346 
4011.000000	65.113854 
4010.000000	65.091109 
4009.000000	65.059232 
4008.000000	65.021824 
4007.000000	64.983248 
4006.000000	64.947986 
4005.000000	64.919638 
4004.000000	64.899730 
4003.000000	64.887857 
4002.000000	64.881682 
4001.000000	64.878058 
4000.000000	64.874339 
3999.000000	64.869379 
3998.000000	64.863896 
3997.000000	64.860486 
3996.000000	64.862418 
3995.000000	64.872837 
3994.000000	64.893198 
3993.000000	64.922714 
3992.000000	64.958143 
3991.000000	64.994406 
3990.000000	65.026235 
3989.000000	65.048956 
3988.000000	65.059804 
3987.000000	65.058326 
3986.000000	65.046286 
3985.000000	65.027236 
3984.000000	65.005540 
3983.000000	64.985156 
3982.000000	64.968895 
3981.000000	64.958453 
3980.000000	64.954137 
3979.000000	64.955210 
3978.000000	64.960122 
3977.000000	64.966869 
3976.000000	64.973473 
3975.000000	64.978075 
3974.000000	64.979648 
3973.000000	64.977622 
3972.000000	64.972662 
3971.000000	64.966678 
3970.000000	64.962267 
3969.000000	64.962172 
3968.000000	64.968299 
3967.000000	64.981698 
3966.000000	65.001535 
3965.000000	65.025281 
3964.000000	65.049052 
3963.000000	65.068650 
3962.000000	65.080237 
3961.000000	65.081453 
3960.000000	65.071511 
3959.000000	65.051507 
3958.000000	65.023708 
3957.000000	64.990806 
3956.000000	64.954757 
3955.000000	64.916443 
3954.000000	64.875698 
3953.000000	64.832162 
3952.000000	64.785647 
3951.000000	64.737558 
3950.000000	64.691066 
3949.000000	64.651775 
3948.000000	64.625954 
3947.000000	64.620327 
3946.000000	64.640045 
3945.000000	64.687943 
3944.000000	64.762616 
3943.000000	64.859366 
3942.000000	64.970088 
3941.000000	65.085148 
3940.000000	65.194439 
3939.000000	65.289545 
3938.000000	65.364789 
3937.000000	65.417432 
3936.000000	65.448045 
3935.000000	65.458774 
3934.000000	65.452623 
3933.000000	65.432357 
3932.000000	65.400171 
3931.000000	65.357255 
3930.000000	65.304422 
3929.000000	65.242767 
3928.000000	65.174508 
3927.000000	65.102839 
3926.000000	65.031933 
3925.000000	64.966154 
3924.000000	64.909482 
3923.000000	64.864301 
3922.000000	64.831519 
3921.000000	64.809775 
3920.000000	64.796829 
3919.000000	64.789605 
3918.000000	64.785599 
3917.000000	64.782953 
3916.000000	64.781188 
3915.000000	64.780306 
3914.000000	64.781093 
3913.000000	64.783811 
3912.000000	64.788603 
3911.000000	64.795207 
3910.000000	64.803314 
3909.000000	64.812350 
3908.000000	64.822387 
3907.000000	64.834094 
3906.000000	64.848446 
3905.000000	64.866232 
3904.000000	64.887928 
3903.000000	64.913010 
3902.000000	64.940047 
3901.000000	64.966440 
3900.000000	64.988708 
3899.000000	65.002989 
3898.000000	65.006065 
3897.000000	64.995956 
3896.000000	64.971995 
3895.000000	64.935326 
3894.000000	64.889192 
3893.000000	64.838480 
3892.000000	64.788770 
3891.000000	64.745974 
3890.000000	64.715623 
3889.000000	64.702033 
3888.000000	64.707493 
3887.000000	64.732313 
3886.000000	64.774274 
3885.000000	64.829468 
3884.000000	64.892387 
3883.000000	64.957118 
3882.000000	65.017747 
3881.000000	65.069365 
3880.000000	65.108561 
3879.000000	65.133666 
3878.000000	65.144515 
3877.000000	65.142631 
3876.000000	65.130591 
3875.000000	65.111589 
3874.000000	65.089178 
3873.000000	65.066909 
3872.000000	65.047931 
3871.000000	65.034890 
3870.000000	65.029501 
3869.000000	65.032768 
3868.000000	65.044546 
3867.000000	65.063738 
3866.000000	65.088415 
3865.000000	65.115976 
3864.000000	65.143752 
3863.000000	65.169191 
3862.000000	65.190601 
3861.000000	65.207266 
3860.000000	65.219449 
3859.000000	65.228128 
3858.000000	65.234446 
3857.000000	65.239357 
3856.000000	65.243101 
3855.000000	65.245270 
3854.000000	65.244770 
3853.000000	65.240430 
3852.000000	65.231323 
3851.000000	65.217232 
3850.000000	65.198779 
3849.000000	65.177464 
3848.000000	65.155124 
3847.000000	65.133571 
3846.000000	65.114355 
3845.000000	65.098667 
3844.000000	65.087246 
3843.000000	65.080404 
3842.000000	65.078330 
3841.000000	65.080714 
3840.000000	65.087151 
3839.000000	65.096330 
3838.000000	65.105986 
3837.000000	65.112948 
3836.000000	65.113019 
3835.000000	65.102195 
3834.000000	65.077519 
3833.000000	65.038132 
3832.000000	64.985847 
3831.000000	64.925527 
3830.000000	64.864420 
3829.000000	64.810943 
3828.000000	64.772939 
3827.000000	64.755940 
3826.000000	64.762139 
3825.000000	64.789509 
3824.000000	64.832425 
3823.000000	64.882826 
3822.000000	64.932203 
3821.000000	64.973115 
3820.000000	65.000724 
3819.000000	65.013527 
3818.000000	65.013384 
3817.000000	65.004301 
3816.000000	64.991569 
3815.000000	64.980077 
3814.000000	64.972949 
3813.000000	64.971780 
3812.000000	64.975833 
3811.000000	64.983391 
3810.000000	64.991879 
3809.000000	64.999222 
3808.000000	65.004229 
3807.000000	65.006709 
3806.000000	65.007472 
3805.000000	65.007686 
3804.000000	65.008687 
3803.000000	65.011286 
3802.000000	65.015506 
3801.000000	65.020775 
3800.000000	65.025496 
3799.000000	65.027642 
3798.000000	65.025138 
3797.000000	65.016555 
3796.000000	65.001106 
3795.000000	64.979171 
3794.000000	64.952397 
3793.000000	64.923381 
3792.000000	64.895558 
3791.000000	64.872264 
3790.000000	64.856290 
3789.000000	64.849185 
3788.000000	64.850974 
3787.000000	64.860177 
3786.000000	64.874124 
3785.000000	64.889693 
3784.000000	64.903903 
3783.000000	64.914679 
3782.000000	64.921188 
3781.000000	64.923930 
3780.000000	64.924073 
3779.000000	64.923262 
3778.000000	64.922547 
3777.000000	64.922523 
3776.000000	64.923262 
3775.000000	64.924263 
3774.000000	64.924979 
3773.000000	64.925098 
3772.000000	64.924788 
3771.000000	64.924788 
3770.000000	64.926147 
3769.000000	64.930057 
3768.000000	64.937496 
3767.000000	64.948868 
3766.000000	64.964008 
3765.000000	64.982199 
3764.000000	65.002441 
3763.000000	65.023565 
3762.000000	65.044641 
3761.000000	65.064930 
3760.000000	65.083861 
3759.000000	65.101122 
3758.000000	65.116381 
3757.000000	65.129494 
3756.000000	65.139746 
3755.000000	65.146708 
3754.000000	65.149593 
3753.000000	65.147733 
3752.000000	65.140533 
3751.000000	65.127801 
3750.000000	65.109896 
3749.000000	65.088105 
3748.000000	65.064358 
3747.000000	65.041327 
3746.000000	65.021896 
3745.000000	65.008497 
3744.000000	65.002727 
3743.000000	65.004992 
3742.000000	65.014195 
3741.000000	65.028047 
3740.000000	65.043401 
3739.000000	65.056872 
3738.000000	65.065765 
3737.000000	65.068626 
3736.000000	65.065336 
3735.000000	65.057396 
3734.000000	65.047144 
3733.000000	65.037608 
3732.000000	65.031409 
3731.000000	65.030360 
3730.000000	65.035223 
3729.000000	65.045571 
3728.000000	65.060043 
3727.000000	65.076684 
3726.000000	65.093421 
3725.000000	65.108489 
3724.000000	65.120601 
3723.000000	65.129494 
3722.000000	65.135669 
3721.000000	65.140485 
3720.000000	65.145659 
3719.000000	65.152668 
3718.000000	65.162396 
3717.000000	65.174674 
3716.000000	65.188503 
3715.000000	65.201783 
3714.000000	65.211939 
3713.000000	65.216588 
3712.000000	65.214037 
3711.000000	65.203928 
3710.000000	65.187406 
3709.000000	65.166950 
3708.000000	65.145969 
3707.000000	65.128087 
3706.000000	65.116381 
3705.000000	65.112805 
3704.000000	65.117692 
3703.000000	65.130138 
3702.000000	65.147757 
3701.000000	65.167760 
3700.000000	65.186882 
3699.000000	65.202188 
3698.000000	65.211319 
3697.000000	65.212774 
3696.000000	65.206027 
3695.000000	65.191698 
3694.000000	65.171408 
3693.000000	65.147566 
3692.000000	65.122985 
3691.000000	65.100550 
3690.000000	65.082669 
3689.000000	65.070939 
3688.000000	65.065789 
3687.000000	65.066504 
3686.000000	65.071272 
3685.000000	65.077662 
3684.000000	65.083050 
3683.000000	65.085482 
3682.000000	65.083718 
3681.000000	65.077733 
3680.000000	65.068316 
3679.000000	65.057039 
3678.000000	65.045738 
3677.000000	65.035963 
3676.000000	65.028929 
3675.000000	65.024971 
3674.000000	65.024042 
3673.000000	65.025544 
3672.000000	65.028357 
3671.000000	65.031409 
3670.000000	65.033626 
3669.000000	65.034270 
3668.000000	65.032935 
3667.000000	65.029621 
3666.000000	65.024614 
3665.000000	65.018296 
3664.000000	65.010905 
3663.000000	65.002465 
3662.000000	64.992737 
3661.000000	64.981269 
3660.000000	64.967465 
3659.000000	64.950776 
3658.000000	64.931273 
3657.000000	64.909744 
3656.000000	64.887928 
3655.000000	64.868259 
3654.000000	64.853525 
3653.000000	64.846229 
3652.000000	64.848208 
3651.000000	64.859867 
3650.000000	64.880442 
3649.000000	64.907979 
3648.000000	64.939808 
3647.000000	64.973187 
3646.000000	65.005683 
3645.000000	65.035319 
3644.000000	65.061163 
3643.000000	65.082907 
3642.000000	65.101170 
3641.000000	65.117001 
3640.000000	65.131521 
3639.000000	65.145945 
3638.000000	65.160703 
3637.000000	65.175676 
3636.000000	65.189790 
3635.000000	65.201449 
3634.000000	65.208601 
3633.000000	65.209245 
3632.000000	65.202212 
3631.000000	65.187358 
3630.000000	65.165996 
3629.000000	65.140771 
3628.000000	65.115332 
3627.000000	65.093302 
3626.000000	65.077447 
3625.000000	65.069246 
3624.000000	65.068459 
3623.000000	65.073466 
3622.000000	65.081691 
3621.000000	65.090489 
3620.000000	65.098071 
3619.000000	65.103387 
3618.000000	65.106534 
3617.000000	65.108084 
3616.000000	65.108633 
3615.000000	65.108370 
3614.000000	65.106987 
3613.000000	65.103697 
3612.000000	65.097618 
3611.000000	65.088176 
3610.000000	65.075850 
3609.000000	65.061664 
3608.000000	65.047287 
3607.000000	65.034365 
3606.000000	65.024232 
3605.000000	65.017318 
3604.000000	65.013074 
3603.000000	65.010595 
3602.000000	65.009021 
3601.000000	65.008234 
3600.000000	65.009021 
3599.000000	65.013003 
3598.000000	65.022015 
3597.000000	65.037369 
3596.000000	65.059256 
3595.000000	65.085887 
3594.000000	65.114212 
3593.000000	65.140032 
3592.000000	65.159606 
3591.000000	65.170669 
3590.000000	65.173316 
3589.000000	65.169858 
3588.000000	65.164256 
3587.000000	65.161180 
3586.000000	65.164089 
3585.000000	65.174245 
3584.000000	65.190196 
3583.000000	65.208101 
3582.000000	65.222859 
3581.000000	65.229463 
3580.000000	65.224599 
3579.000000	65.207695 
3578.000000	65.181064 
3577.000000	65.149402 
3576.000000	65.118741 
3575.000000	65.094876 
3574.000000	65.082120 
3573.000000	65.082478 
3572.000000	65.095520 
3571.000000	65.118670 
3570.000000	65.148210 
3569.000000	65.179848 
3568.000000	65.209507 
3567.000000	65.233755 
3566.000000	65.249943 
3565.000000	65.256404 
3564.000000	65.252351 
3563.000000	65.237784 
3562.000000	65.213775 
3561.000000	65.181875 
3560.000000	65.144562 
3559.000000	65.104627 
3558.000000	65.065169 
3557.000000	65.029215 
3556.000000	64.999365 
3555.000000	64.977455 
3554.000000	64.964294 
3553.000000	64.959454 
3552.000000	64.961504 
3551.000000	64.968061 
3550.000000	64.976358 
3549.000000	64.983868 
3548.000000	64.988827 
3547.000000	64.990282 
3546.000000	64.988684 
3545.000000	64.985179 
3544.000000	64.981865 
3543.000000	64.980888 
3542.000000	64.984107 
3541.000000	64.992332 
3540.000000	65.005373 
3539.000000	65.021872 
3538.000000	65.039896 
3537.000000	65.057420 
3536.000000	65.072727 
3535.000000	65.084791 
3534.000000	65.093255 
3533.000000	65.098500 
3532.000000	65.101194 
3531.000000	65.101981 
3530.000000	65.101146 
3529.000000	65.098643 
3528.000000	65.094280 
3527.000000	65.087890 
3526.000000	65.079426 
3525.000000	65.069127 
3524.000000	65.057587 
3523.000000	65.045881 
3522.000000	65.034985 
3521.000000	65.025877 
3520.000000	65.019226 
3519.000000	65.015602 
3518.000000	65.015339 
3517.000000	65.018677 
3516.000000	65.025615 
3515.000000	65.036010 
3514.000000	65.049481 
3513.000000	65.065217 
3512.000000	65.081882 
3511.000000	65.097761 
3510.000000	65.110754 
3509.000000	65.118765 
3508.000000	65.120196 
3507.000000	65.114092 
3506.000000	65.100550 
3505.000000	65.080666 
3504.000000	65.056347 
3503.000000	65.030074 
3502.000000	65.004491 
3501.000000	64.982056 
3500.000000	64.964723 
3499.000000	64.953827 
3498.000000	64.950227 
3497.000000	64.954066 
3496.000000	64.965105 
3495.000000	64.982628 
3494.000000	65.005493 
3493.000000	65.031981 
3492.000000	65.059876 
3491.000000	65.086460 
3490.000000	65.109062 
3489.000000	65.125179 
3488.000000	65.133404 
3487.000000	65.133523 
3486.000000	65.126824 
3485.000000	65.116071 
3484.000000	65.104818 
3483.000000	65.096855 
3482.000000	65.094923 
3481.000000	65.100455 
3480.000000	65.112805 
3479.000000	65.129971 
3478.000000	65.148568 
3477.000000	65.164923 
3476.000000	65.175867 
3475.000000	65.179586 
3474.000000	65.175890 
3473.000000	65.166020 
3472.000000	65.152215 
3471.000000	65.136957 
3470.000000	65.122270 
3469.000000	65.109419 
3468.000000	65.098667 
3467.000000	65.089488 
3466.000000	65.081048 
3465.000000	65.072655 
3464.000000	65.064287 
3463.000000	65.056753 
3462.000000	65.051221 
3461.000000	65.049219 
3460.000000	65.052199 
3459.000000	65.061092 
3458.000000	65.075850 
3457.000000	65.095162 
3456.000000	65.116739 
3455.000000	65.137338 
3454.000000	65.153551 
3453.000000	65.162038 
3452.000000	65.160584 
3451.000000	65.148091 
3450.000000	65.125083 
3449.000000	65.093755 
3448.000000	65.057349 
3447.000000	65.019965 
3446.000000	64.985847 
3445.000000	64.958739 
3444.000000	64.941453 
3443.000000	64.935469 
3442.000000	64.940619 
3441.000000	64.955115 
3440.000000	64.975857 
3439.000000	64.998722 
3438.000000	65.019536 
3437.000000	65.034389 
3436.000000	65.040707 
3435.000000	65.037250 
3434.000000	65.024900 
3433.000000	65.006136 
3432.000000	64.985108 
3431.000000	64.966201 
3430.000000	64.953494 
3429.000000	64.949870 
3428.000000	64.956450 
3427.000000	64.972329 
3426.000000	64.994835 
3425.000000	65.020298 
3424.000000	65.044808 
3423.000000	65.065217 
3422.000000	65.079665 
3421.000000	65.087962 
3420.000000	65.091490 
3419.000000	65.092539 
3418.000000	65.093827 
3417.000000	65.097689 
3416.000000	65.105700 
3415.000000	65.118145 
3414.000000	65.134215 
3413.000000	65.151929 
3412.000000	65.168738 
3411.000000	65.181827 
3410.000000	65.188765 
3409.000000	65.187501 
3408.000000	65.176868 
3407.000000	65.156292 
3406.000000	65.126323 
3405.000000	65.088415 
3404.000000	65.044879 
3403.000000	64.998722 
3402.000000	64.953470 
3401.000000	64.912724 
3400.000000	64.879918 
3399.000000	64.857411 
3398.000000	64.846420 
3397.000000	64.846444 
3396.000000	64.855527 
3395.000000	64.870524 
3394.000000	64.887738 
3393.000000	64.903712 
3392.000000	64.915680 
3391.000000	64.922261 
3390.000000	64.923453 
3389.000000	64.920735 
3388.000000	64.916110 
3387.000000	64.911675 
3386.000000	64.908862 
3385.000000	64.908266 
3384.000000	64.909505 
3383.000000	64.911651 
3382.000000	64.913368 
3381.000000	64.913749 
3380.000000	64.912486 
3379.000000	64.909958 
3378.000000	64.906978 
3377.000000	64.904737 
3376.000000	64.903998 
3375.000000	64.905142 
3374.000000	64.907717 
3373.000000	64.910984 
3372.000000	64.913797 
3371.000000	64.914870 
3370.000000	64.913082 
3369.000000	64.907979 
3368.000000	64.899730 
3367.000000	64.888906 
3366.000000	64.876627 
3365.000000	64.864301 
3364.000000	64.853572 
3363.000000	64.846038 
3362.000000	64.843082 
3361.000000	64.845752 
3360.000000	64.854478 
3359.000000	64.868974 
3358.000000	64.887952 
3357.000000	64.909267 
3356.000000	64.930129 
3355.000000	64.947533 
3354.000000	64.958643 
3353.000000	64.961695 
3352.000000	64.956140 
3351.000000	64.943146 
3350.000000	64.925265 
3349.000000	64.906167 
3348.000000	64.889907 
3347.000000	64.880180 
3346.000000	64.879512 
3345.000000	64.888978 
3344.000000	64.907789 
3343.000000	64.933753 
3342.000000	64.963698 
3341.000000	64.994239 
3340.000000	65.022540 
3339.000000	65.046548 
3338.000000	65.065026 
3337.000000	65.077447 
3336.000000	65.083503 
3335.000000	65.082955 
3334.000000	65.075445 
3333.000000	65.060710 
3332.000000	65.038824 
3331.000000	65.010762 
3330.000000	64.978623 
3329.000000	64.945578 
3328.000000	64.915394 
3327.000000	64.891886 
3326.000000	64.878177 
3325.000000	64.875984 
3324.000000	64.885354 
3323.000000	64.904475 
3322.000000	64.930224 
3321.000000	64.959120 
3320.000000	64.987516 
3319.000000	65.012550 
3318.000000	65.032148 
3317.000000	65.044951 
3316.000000	65.050315 
3315.000000	65.048027 
3314.000000	65.038251 
3313.000000	65.021634 
3312.000000	64.999389 
3311.000000	64.973449 
3310.000000	64.946389 
3309.000000	64.921188 
3308.000000	64.900803 
3307.000000	64.887714 
3306.000000	64.883351 
3305.000000	64.888262 
3304.000000	64.901685 
3303.000000	64.922118 
3302.000000	64.947533 
3301.000000	64.975881 
3300.000000	65.005493 
3299.000000	65.034747 
3298.000000	65.062332 
3297.000000	65.086603 
3296.000000	65.106058 
3295.000000	65.118861 
3294.000000	65.123510 
3293.000000	65.118813 
3292.000000	65.104722 
3291.000000	65.082120 
3290.000000	65.053224 
3289.000000	65.020871 
3288.000000	64.988422 
3287.000000	64.959096 
3286.000000	64.935541 
3285.000000	64.919471 
3284.000000	64.911484 
3283.000000	64.911198 
3282.000000	64.917302 
3281.000000	64.927840 
3280.000000	64.940595 
3279.000000	64.953351 
3278.000000	64.963984 
3277.000000	64.970874 
3276.000000	64.972829 
3275.000000	64.969491 
3274.000000	64.961147 
3273.000000	64.948821 
3272.000000	64.933800 
3271.000000	64.917683 
3270.000000	64.901947 
3269.000000	64.887309 
3268.000000	64.874315 
3267.000000	64.862966 
3266.000000	64.853405 
3265.000000	64.845561 
3264.000000	64.840078 
3263.000000	64.838123 
3262.000000	64.841198 
3261.000000	64.850664 
3260.000000	64.867591 
3259.000000	64.892172 
3258.000000	64.923334 
3257.000000	64.958858 
3256.000000	64.995384 
3255.000000	65.029239 
3254.000000	65.056943 
3253.000000	65.076088 
3252.000000	65.085625 
3251.000000	65.085935 
3250.000000	65.078806 
3249.000000	65.066885 
3248.000000	65.053105 
3247.000000	65.039825 
3246.000000	65.028858 
3245.000000	65.020632 
3244.000000	65.015101 
3243.000000	65.011405 
3242.000000	65.008831 
3241.000000	65.006661 
3240.000000	65.004587 
3239.000000	65.002441 
3238.000000	65.000081 
3237.000000	64.997148 
3236.000000	64.992737 
3235.000000	64.985513 
3234.000000	64.974117 
3233.000000	64.957427 
3232.000000	64.935350 
3231.000000	64.908814 
3230.000000	64.879727 
3229.000000	64.850926 
3228.000000	64.825463 
3227.000000	64.805769 
3226.000000	64.793157 
3225.000000	64.787697 
3224.000000	64.788126 
3223.000000	64.792275 
3222.000000	64.797663 
3221.000000	64.801955 
3220.000000	64.803576 
3219.000000	64.801669 
3218.000000	64.796710 
3217.000000	64.789700 
3216.000000	64.782428 
3215.000000	64.776515 
3214.000000	64.773416 
3213.000000	64.774084 
3212.000000	64.778661 
3211.000000	64.786791 
3210.000000	64.797401 
3209.000000	64.809036 
3208.000000	64.819908 
3207.000000	64.828324 
3206.000000	64.832925 
3205.000000	64.832782 
3204.000000	64.827728 
3203.000000	64.818453 
3202.000000	64.806532 
3201.000000	64.794158 
3200.000000	64.784121 
3199.000000	64.779162 
3198.000000	64.781737 
3197.000000	64.793491 
3196.000000	64.814949 
3195.000000	64.845156 
3194.000000	64.881539 
3193.000000	64.920496 
3192.000000	64.957499 
3191.000000	64.988160 
3190.000000	65.009069 
3189.000000	65.018486 
3188.000000	65.016484 
3187.000000	65.004944 
3186.000000	64.987158 
3185.000000	64.967131 
3184.000000	64.948582 
3183.000000	64.934730 
3182.000000	64.927697 
3181.000000	64.928460 
3180.000000	64.936947 
3179.000000	64.952206 
3178.000000	64.972686 
3177.000000	64.996409 
3176.000000	65.021204 
3175.000000	65.044713 
3174.000000	65.064501 
3173.000000	65.078330 
3172.000000	65.084242 
3171.000000	65.080857 
3170.000000	65.067505 
3169.000000	65.044689 
3168.000000	65.013957 
3167.000000	64.977836 
3166.000000	64.939451 
3165.000000	64.902067 
3164.000000	64.868712 
3163.000000	64.841890 
3162.000000	64.823126 
3161.000000	64.812588 
3160.000000	64.809322 
3159.000000	64.811563 
3158.000000	64.817070 
3157.000000	64.823150 
3156.000000	64.827680 
3155.000000	64.829206 
3154.000000	64.827466 
3153.000000	64.822959 
3152.000000	64.817142 
3151.000000	64.811730 
3150.000000	64.808630 
3149.000000	64.809226 
3148.000000	64.814424 
3147.000000	64.824247 
3146.000000	64.838147 
3145.000000	64.855051 
3144.000000	64.873433 
3143.000000	64.891576 
3142.000000	64.907789 
3141.000000	64.920520 
3140.000000	64.928269 
3139.000000	64.929866 
3138.000000	64.924716 
3137.000000	64.912724 
3136.000000	64.894485 
3135.000000	64.870953 
3134.000000	64.844155 
3133.000000	64.816212 
3132.000000	64.789199 
3131.000000	64.764761 
3130.000000	64.743876 
3129.000000	64.726901 
3128.000000	64.713525 
3127.000000	64.703154 
3126.000000	64.694976 
3125.000000	64.688658 
3124.000000	64.684271 
3123.000000	64.682507 
3122.000000	64.684343 
3121.000000	64.690899 
3120.000000	64.702820 
3119.000000	64.720153 
3118.000000	64.742088 
3117.000000	64.767169 
3116.000000	64.793395 
3115.000000	64.818668 
3114.000000	64.841055 
3113.000000	64.859580 
3112.000000	64.874076 
3111.000000	64.885115 
3110.000000	64.893651 
3109.000000	64.900875 
3108.000000	64.907622 
3107.000000	64.914202 
3106.000000	64.920115 
3105.000000	64.924287 
3104.000000	64.925169 
3103.000000	64.921760 
3102.000000	64.913654 
3101.000000	64.901447 
3100.000000	64.886856 
3099.000000	64.872574 
3098.000000	64.861631 
3097.000000	64.856648 
3096.000000	64.859342 
3095.000000	64.870047 
3094.000000	64.887380 
3093.000000	64.908790 
3092.000000	64.930963 
3091.000000	64.950394 
3090.000000	64.963984 
3089.000000	64.969587 
3088.000000	64.966225 
3087.000000	64.954185 
3086.000000	64.934659 
3085.000000	64.909553 
3084.000000	64.880895 
3083.000000	64.850664 
3082.000000	64.820909 
3081.000000	64.793467 
3080.000000	64.769911 
3079.000000	64.751768 
3078.000000	64.740347 
3077.000000	64.736819 
3076.000000	64.741635 
3075.000000	64.754939 
3074.000000	64.776039 
3073.000000	64.803671 
3072.000000	64.835762 
3071.000000	64.870095 
3070.000000	64.904189 
3069.000000	64.935946 
3068.000000	64.963722 
3067.000000	64.986753 
3066.000000	65.005087 
3065.000000	65.019679 
3064.000000	65.031766 
3063.000000	65.042734 
3062.000000	65.053415 
3061.000000	65.064144 
3060.000000	65.074157 
3059.000000	65.082240 
3058.000000	65.086746 
3057.000000	65.086221 
3056.000000	65.079712 
3055.000000	65.067124 
3054.000000	65.049600 
3053.000000	65.028882 
3052.000000	65.007519 
3051.000000	64.987850 
3050.000000	64.971780 
3049.000000	64.960479 
3048.000000	64.954137 
3047.000000	64.952158 
3046.000000	64.953374 
3045.000000	64.956331 
3044.000000	64.960002 
3043.000000	64.963746 
3042.000000	64.967489 
3041.000000	64.971446 
3040.000000	64.976310 
3039.000000	64.982748 
3038.000000	64.991140 
3037.000000	65.001320 
3036.000000	65.012812 
3035.000000	65.024614 
3034.000000	65.035557 
3033.000000	65.044260 
3032.000000	65.049600 
3031.000000	65.050554 
3030.000000	65.046620 
3029.000000	65.037727 
3028.000000	65.024232 
3027.000000	65.006995 
3026.000000	64.987087 
3025.000000	64.966106 
3024.000000	64.945816 
3023.000000	64.928007 
3022.000000	64.914298 
3021.000000	64.905619 
3020.000000	64.902424 
3019.000000	64.904260 
3018.000000	64.910006 
3017.000000	64.918041 
3016.000000	64.926576 
3015.000000	64.934134 
3014.000000	64.939475 
3013.000000	64.941883 
3012.000000	64.941000 
3011.000000	64.936852 
3010.000000	64.929533 
3009.000000	64.919352 
3008.000000	64.906883 
3007.000000	64.892888 
3006.000000	64.878535 
3005.000000	64.865446 
3004.000000	64.855241 
3003.000000	64.849567 
3002.000000	64.849209 
3001.000000	64.854121 
3000.000000	64.862775 
2999.000000	64.872431 
2998.000000	64.879894 
2997.000000	64.881944 
2996.000000	64.876341 
2995.000000	64.862155 
2994.000000	64.840149 
2993.000000	64.812445 
2992.000000	64.781999 
2991.000000	64.752006 
2990.000000	64.725351 
2989.000000	64.704060 
2988.000000	64.689373 
2987.000000	64.681529 
2986.000000	64.680171 
2985.000000	64.684605 
2984.000000	64.693880 
2983.000000	64.706993 
2982.000000	64.722776 
2981.000000	64.739918 
2980.000000	64.756870 
2979.000000	64.772081 
2978.000000	64.784169 
2977.000000	64.791822 
2976.000000	64.794564 
2975.000000	64.792394 
2974.000000	64.785671 
2973.000000	64.774775 
2972.000000	64.760446 
2971.000000	64.743185 
2970.000000	64.723515 
2969.000000	64.701843 
2968.000000	64.678788 
2967.000000	64.655017 
2966.000000	64.631342 
2965.000000	64.608430 
2964.000000	64.586853 
2963.000000	64.566969 
2962.000000	64.549016 
2961.000000	64.533019 
2960.000000	64.519119 
2959.000000	64.507555 
2958.000000	64.498686 
2957.000000	64.493179 
2956.000000	64.491868 
2955.000000	64.495706 
2954.000000	64.505577 
2953.000000	64.521789 
2952.000000	64.544415 
2951.000000	64.573073 
2950.000000	64.607143 
2949.000000	64.645576 
2948.000000	64.686655 
2947.000000	64.728569 
2946.000000	64.768886 
2945.000000	64.805030 
2944.000000	64.834356 
2943.000000	64.854669 
2942.000000	64.864182 
2941.000000	64.862537 
2940.000000	64.850068 
2939.000000	64.828228 
2938.000000	64.799404 
2937.000000	64.766716 
2936.000000	64.733552 
2935.000000	64.703202 
2934.000000	64.678549 
2933.000000	64.661908 
2932.000000	64.654707 
2931.000000	64.657092 
2930.000000	64.667987 
2929.000000	64.685153 
2928.000000	64.705300 
2927.000000	64.724588 
2926.000000	64.739179 
2925.000000	64.745950 
2924.000000	64.743280 
2923.000000	64.731311 
2922.000000	64.711880 
2921.000000	64.687943 
2920.000000	64.663147 
2919.000000	64.640760 
2918.000000	64.622855 
2917.000000	64.610171 
2916.000000	64.602351 
2915.000000	64.598345 
2914.000000	64.596843 
2913.000000	64.597177 
2912.000000	64.599561 
2911.000000	64.605069 
2910.000000	64.615130 
2909.000000	64.631104 
2908.000000	64.653158 
2907.000000	64.680576 
2906.000000	64.711380 
2905.000000	64.742636 
2904.000000	64.771199 
2903.000000	64.794445 
2902.000000	64.810824 
2901.000000	64.819955 
2900.000000	64.822554 
2899.000000	64.820003 
2898.000000	64.813685 
2897.000000	64.804840 
2896.000000	64.794087 
2895.000000	64.781475 
2894.000000	64.766740 
2893.000000	64.749789 
2892.000000	64.730811 
2891.000000	64.710688 
2890.000000	64.690780 
2889.000000	64.672613 
2888.000000	64.657926 
2887.000000	64.647984 
2886.000000	64.643740 
2885.000000	64.645504 
2884.000000	64.653182 
2883.000000	64.666199 
2882.000000	64.683580 
2881.000000	64.703965 
2880.000000	64.725804 
2879.000000	64.747142 
2878.000000	64.765906 
2877.000000	64.780044 
2876.000000	64.787936 
2875.000000	64.788627 
2874.000000	64.782190 
2873.000000	64.769482 
2872.000000	64.752292 
2871.000000	64.732766 
2870.000000	64.713072 
2869.000000	64.695119 
2868.000000	64.680099 
2867.000000	64.668583 
2866.000000	64.660477 
2865.000000	64.655256 
2864.000000	64.652371 
2863.000000	64.651107 
2862.000000	64.650583 
2861.000000	64.649915 
2860.000000	64.647912 
2859.000000	64.643573 
2858.000000	64.635801 
2857.000000	64.624309 
2856.000000	64.609646 
2855.000000	64.593529 
2854.000000	64.578652 
2853.000000	64.568209 
2852.000000	64.565491 
2851.000000	64.572858 
2850.000000	64.591193 
2849.000000	64.619445 
2848.000000	64.654660 
2847.000000	64.692711 
2846.000000	64.729261 
2845.000000	64.760398 
2844.000000	64.783573 
2843.000000	64.797902 
2842.000000	64.804053 
2841.000000	64.803886 
2840.000000	64.799761 
2839.000000	64.793944 
2838.000000	64.788103 
2837.000000	64.783310 
2836.000000	64.779901 
2835.000000	64.777755 
2834.000000	64.776492 
2833.000000	64.776182 
2832.000000	64.776992 
2831.000000	64.779424 
2830.000000	64.783859 
2829.000000	64.790534 
2828.000000	64.799141 
2827.000000	64.808821 
2826.000000	64.818143 
2825.000000	64.825463 
2824.000000	64.829039 
2823.000000	64.827728 
2822.000000	64.820957 
2821.000000	64.808917 
2820.000000	64.792799 
2819.000000	64.774465 
2818.000000	64.756059 
2817.000000	64.739632 
2816.000000	64.726781 
2815.000000	64.718413 
2814.000000	64.714455 
2813.000000	64.714217 
2812.000000	64.716625 
2811.000000	64.720869 
2810.000000	64.726042 
2809.000000	64.732003 
2808.000000	64.738917 
2807.000000	64.747428 
2806.000000	64.758038 
2805.000000	64.771008 
2804.000000	64.786100 
2803.000000	64.802575 
2802.000000	64.819169 
2801.000000	64.834308 
2800.000000	64.846467 
2799.000000	64.854407 
2798.000000	64.857411 
2797.000000	64.855384 
2796.000000	64.848828 
2795.000000	64.838838 
2794.000000	64.826750 
2793.000000	64.814138 
2792.000000	64.802432 
2791.000000	64.792871 
2790.000000	64.786338 
2789.000000	64.783382 
2788.000000	64.784049 
2787.000000	64.788055 
2786.000000	64.794635 
2785.000000	64.802765 
2784.000000	64.811420 
2783.000000	64.819335 
2782.000000	64.825582 
2781.000000	64.829492 
2780.000000	64.830732 
2779.000000	64.829325 
2778.000000	64.825677 
2777.000000	64.820313 
2776.000000	64.813804 
2775.000000	64.806675 
2774.000000	64.799284 
2773.000000	64.791917 
2772.000000	64.784932 
2771.000000	64.778661 
2770.000000	64.773583 
2769.000000	64.770317 
2768.000000	64.769411 
2767.000000	64.771127 
2766.000000	64.775228 
2765.000000	64.780926 
2764.000000	64.786887 
2763.000000	64.791440 
2762.000000	64.792799 
2761.000000	64.789462 
2760.000000	64.780735 
2759.000000	64.766812 
2758.000000	64.748835 
2757.000000	64.728736 
2756.000000	64.708876 
2755.000000	64.691781 
2754.000000	64.679574 
2753.000000	64.673614 
2752.000000	64.674377 
2751.000000	64.681267 
2750.000000	64.692878 
2749.000000	64.707207 
2748.000000	64.722084 
2747.000000	64.735317 
2746.000000	64.745092 
2745.000000	64.750456 
2744.000000	64.751172 
2743.000000	64.747834 
2742.000000	64.741778 
2741.000000	64.734840 
2740.000000	64.728999 
2739.000000	64.726233 
2738.000000	64.728045 
2737.000000	64.735436 
2736.000000	64.748740 
2735.000000	64.767789 
2734.000000	64.791774 
2733.000000	64.819669 
2732.000000	64.849948 
2731.000000	64.880943 
2730.000000	64.910507 
2729.000000	64.936375 
2728.000000	64.956164 
2727.000000	64.967489 
2726.000000	64.968633 
2725.000000	64.958643 
2724.000000	64.937996 
2723.000000	64.908623 
2722.000000	64.873671 
2721.000000	64.837455 
2720.000000	64.804387 
2719.000000	64.778423 
2718.000000	64.762163 
2717.000000	64.756441 
2716.000000	64.760184 
2715.000000	64.770722 
2714.000000	64.784502 
2713.000000	64.797830 
2712.000000	64.807558 
2711.000000	64.811801 
2710.000000	64.810013 
2709.000000	64.803075 
2708.000000	64.792490 
2707.000000	64.780187 
2706.000000	64.767932 
2705.000000	64.757061 
2704.000000	64.748311 
2703.000000	64.741921 
2702.000000	64.737820 
2701.000000	64.735603 
2700.000000	64.735007 
2699.000000	64.735579 
2698.000000	64.736771 
2697.000000	64.737749 
2696.000000	64.737939 
2695.000000	64.736652 
2694.000000	64.733266 
2693.000000	64.727544 
2692.000000	64.719581 
2691.000000	64.710068 
2690.000000	64.700031 
2689.000000	64.690852 
2688.000000	64.683890 
2687.000000	64.680480 
2686.000000	64.681673 
2685.000000	64.688086 
2684.000000	64.699816 
2683.000000	64.716362 
2682.000000	64.736604 
2681.000000	64.759016 
2680.000000	64.781618 
2679.000000	64.802432 
2678.000000	64.819526 
2677.000000	64.831733 
2676.000000	64.838314 
2675.000000	64.839577 
2674.000000	64.836120 
2673.000000	64.828968 
2672.000000	64.818739 
2671.000000	64.806079 
2670.000000	64.790916 
2669.000000	64.772939 
2668.000000	64.751815 
2667.000000	64.727616 
2666.000000	64.701128 
2665.000000	64.673662 
2664.000000	64.647197 
2663.000000	64.623951 
2662.000000	64.605879 
2661.000000	64.594244 
2660.000000	64.589262 
2659.000000	64.590263 
2658.000000	64.595866 
2657.000000	64.604449 
2656.000000	64.614415 
2655.000000	64.624500 
2654.000000	64.634037 
2653.000000	64.642953 
2652.000000	64.651179 
2651.000000	64.658880 
2650.000000	64.665937 
2649.000000	64.672327 
2648.000000	64.677786 
2647.000000	64.682006 
2646.000000	64.684963 
2645.000000	64.686679 
2644.000000	64.687418 
2643.000000	64.687490 
2642.000000	64.687252 
2641.000000	64.686918 
2640.000000	64.686727 
2639.000000	64.686679 
2638.000000	64.686822 
2637.000000	64.687108 
2636.000000	64.687681 
2635.000000	64.688563 
2634.000000	64.689683 
2633.000000	64.690899 
2632.000000	64.691853 
2631.000000	64.692020 
2630.000000	64.690923 
2629.000000	64.688134 
2628.000000	64.683675 
2627.000000	64.677834 
2626.000000	64.671230 
2625.000000	64.664626 
2624.000000	64.658904 
2623.000000	64.654874 
2622.000000	64.653253 
2621.000000	64.654231 
2620.000000	64.657616 
2619.000000	64.663100 
2618.000000	64.669942 
2617.000000	64.677286 
2616.000000	64.684295 
2615.000000	64.690446 
2614.000000	64.695215 
2613.000000	64.698457 
2612.000000	64.700031 
2611.000000	64.699864 
2610.000000	64.698052 
2609.000000	64.694619 
2608.000000	64.689683 
2607.000000	64.683580 
2606.000000	64.676928 
2605.000000	64.670658 
2604.000000	64.665985 
2603.000000	64.664101 
2602.000000	64.666008 
2601.000000	64.672183 
2600.000000	64.682459 
2599.000000	64.695668 
2598.000000	64.709997 
2597.000000	64.722943 
2596.000000	64.732074 
2595.000000	64.735150 
2594.000000	64.730763 
2593.000000	64.718556 
2592.000000	64.699363 
2591.000000	64.675211 
2590.000000	64.648580 
2589.000000	64.622235 
2588.000000	64.598464 
2587.000000	64.578962 
2586.000000	64.564251 
2585.000000	64.554142 
2584.000000	64.547801 
2583.000000	64.544224 
2582.000000	64.542412 
2581.000000	64.542007 
2580.000000	64.543175 
2579.000000	64.546585 
2578.000000	64.553022 
2577.000000	64.563274 
2576.000000	64.577746 
2575.000000	64.596223 
2574.000000	64.617824 
2573.000000	64.640998 
2572.000000	64.663767 
2571.000000	64.684128 
2570.000000	64.700317 
2569.000000	64.710879 
2568.000000	64.715075 
2567.000000	64.713001 
2566.000000	64.705371 
2565.000000	64.693522 
2564.000000	64.679121 
2563.000000	64.664244 
2562.000000	64.650821 
2561.000000	64.640474 
2560.000000	64.634275 
2559.000000	64.632844 
2558.000000	64.635634 
2557.000000	64.641451 
2556.000000	64.648413 
2555.000000	64.654326 
2554.000000	64.657139 
2553.000000	64.655280 
2552.000000	64.648056 
2551.000000	64.635872 
2550.000000	64.620232 
2549.000000	64.603185 
2548.000000	64.586973 
2547.000000	64.573621 
2546.000000	64.564251 
2545.000000	64.559292 
2544.000000	64.557933 
2543.000000	64.559006 
2542.000000	64.561247 
2541.000000	64.563918 
2540.000000	64.566779 
2539.000000	64.570474 
2538.000000	64.576196 
2537.000000	64.585304 
2536.000000	64.598560 
2535.000000	64.615845 
2534.000000	64.635968 
2533.000000	64.656662 
2532.000000	64.675140 
2531.000000	64.688658 
2530.000000	64.695334 
2529.000000	64.694333 
2528.000000	64.686489 
2527.000000	64.673614 
2526.000000	64.658331 
2525.000000	64.643287 
2524.000000	64.630603 
2523.000000	64.621758 
2522.000000	64.617133 
2521.000000	64.616465 
2520.000000	64.618825 
2519.000000	64.623093 
2518.000000	64.627957 
2517.000000	64.632272 
2516.000000	64.635086 
2515.000000	64.635419 
2514.000000	64.632654 
2513.000000	64.626264 
2512.000000	64.616203 
2511.000000	64.602708 
2510.000000	64.586663 
2509.000000	64.569544 
2508.000000	64.553284 
2507.000000	64.539980 
2506.000000	64.531517 
2505.000000	64.529323 
2504.000000	64.534187 
2503.000000	64.545845 
2502.000000	64.563179 
2501.000000	64.584374 
2500.000000	64.607286 
2499.000000	64.629745 
2498.000000	64.649987 
2497.000000	64.666867 
2496.000000	64.679861 
2495.000000	64.689111 
2494.000000	64.695143 
2493.000000	64.698505 
2492.000000	64.699602 
2491.000000	64.698266 
2490.000000	64.694237 
2489.000000	64.686918 
2488.000000	64.676070 
2487.000000	64.661884 
2486.000000	64.645361 
2485.000000	64.628291 
2484.000000	64.612865 
2483.000000	64.601445 
2482.000000	64.595961 
2481.000000	64.597511 
2480.000000	64.606070 
2479.000000	64.620471 
2478.000000	64.638710 
2477.000000	64.658260 
2476.000000	64.676880 
2475.000000	64.692926 
2474.000000	64.705467 
2473.000000	64.714527 
2472.000000	64.720773 
2471.000000	64.725089 
2470.000000	64.728093 
2469.000000	64.730215 
2468.000000	64.731287 
2467.000000	64.730811 
2466.000000	64.728236 
2465.000000	64.723277 
2464.000000	64.716100 
2463.000000	64.707541 
2462.000000	64.698886 
2461.000000	64.691615 
2460.000000	64.687037 
2459.000000	64.686155 
2458.000000	64.689087 
2457.000000	64.695239 
2456.000000	64.703106 
2455.000000	64.710950 
2454.000000	64.716696 
2453.000000	64.718580 
2452.000000	64.715266 
2451.000000	64.706134 
2450.000000	64.691257 
2449.000000	64.671349 
2448.000000	64.647674 
2447.000000	64.621663 
2446.000000	64.594936 
2445.000000	64.569139 
2444.000000	64.545607 
2443.000000	64.525341 
2442.000000	64.508962 
2441.000000	64.497065 
2440.000000	64.489555 
2439.000000	64.486289 
2438.000000	64.486789 
2437.000000	64.490675 
2436.000000	64.497351 
2435.000000	64.506506 
2434.000000	64.517760 
2433.000000	64.531135 
2432.000000	64.546608 
2431.000000	64.564180 
2430.000000	64.583587 
2429.000000	64.604282 
2428.000000	64.625525 
2427.000000	64.646124 
2426.000000	64.664769 
2425.000000	64.680004 
2424.000000	64.690613 
2423.000000	64.695620 
2422.000000	64.694571 
2421.000000	64.687252 
2420.000000	64.674091 
2419.000000	64.655566 
2418.000000	64.632415 
2417.000000	64.605522 
2416.000000	64.576053 
2415.000000	64.545273 
2414.000000	64.514541 
2413.000000	64.485597 
2412.000000	64.460134 
2411.000000	64.439654 
2410.000000	64.425444 
2409.000000	64.418077 
2408.000000	64.417481 
2407.000000	64.422821 
2406.000000	64.432883 
2405.000000	64.445924 
2404.000000	64.460539 
2403.000000	64.475703 
2402.000000	64.490914 
2401.000000	64.505982 
2400.000000	64.520978 
2399.000000	64.535808 
2398.000000	64.550089 
2397.000000	64.562892 
2396.000000	64.573001 
2395.000000	64.579296 
2394.000000	64.581131 
2393.000000	64.578557 
2392.000000	64.572453 
2391.000000	64.564466 
2390.000000	64.556598 
2389.000000	64.550781 
2388.000000	64.548492 
2387.000000	64.550232 
2386.000000	64.555764 
2385.000000	64.564275 
2384.000000	64.574480 
2383.000000	64.584946 
2382.000000	64.594721 
2381.000000	64.603018 
2380.000000	64.609265 
2379.000000	64.613151 
2378.000000	64.614319 
2377.000000	64.612627 
2376.000000	64.608168 
2375.000000	64.601182 
2374.000000	64.592432 
2373.000000	64.582777 
2372.000000	64.573192 
2371.000000	64.564418 
2370.000000	64.556813 
2369.000000	64.550137 
2368.000000	64.543795 
2367.000000	64.537024 
2366.000000	64.529180 
2365.000000	64.520311 
2364.000000	64.510989 
2363.000000	64.502334 
2362.000000	64.495706 
2361.000000	64.492130 
2360.000000	64.491891 
2359.000000	64.494299 
2358.000000	64.497780 
2357.000000	64.500164 
2356.000000	64.499402 
2355.000000	64.494252 
2354.000000	64.484524 
2353.000000	64.471316 
2352.000000	64.456868 
2351.000000	64.443635 
2350.000000	64.434266 
2349.000000	64.430618 
2348.000000	64.433717 
2347.000000	64.443325 
2346.000000	64.458346 
2345.000000	64.477157 
2344.000000	64.497733 
2343.000000	64.518332 
2342.000000	64.537572 
2341.000000	64.554595 
2340.000000	64.568972 
2339.000000	64.580464 
2338.000000	64.588999 
2337.000000	64.594507 
2336.000000	64.596986 
2335.000000	64.596533 
2334.000000	64.593386 
2333.000000	64.587974 
2332.000000	64.581203 
2331.000000	64.574146 
2330.000000	64.567852 
2329.000000	64.563202 
2328.000000	64.560723 
2327.000000	64.560461 
2326.000000	64.561843 
2325.000000	64.563703 
2324.000000	64.564800 
2323.000000	64.563870 
2322.000000	64.560008 
2321.000000	64.552998 
2320.000000	64.543175 
2319.000000	64.531421 
2318.000000	64.519000 
2317.000000	64.507174 
2316.000000	64.496946 
2315.000000	64.488911 
2314.000000	64.483308 
2313.000000	64.479827 
2312.000000	64.477849 
2311.000000	64.476537 
2310.000000	64.475083 
2309.000000	64.472889 
2308.000000	64.469575 
2307.000000	64.465260 
2306.000000	64.460515 
2305.000000	64.456319 
2304.000000	64.453983 
2303.000000	64.454865 
2302.000000	64.460086 
2301.000000	64.470291 
2300.000000	64.485287 
2299.000000	64.504170 
2298.000000	64.525175 
2297.000000	64.546036 
2296.000000	64.564132 
2295.000000	64.577054 
2294.000000	64.582991 
2293.000000	64.581179 
2292.000000	64.571928 
2291.000000	64.556622 
2290.000000	64.537405 
2289.000000	64.516854 
2288.000000	64.497566 
2287.000000	64.481544 
2286.000000	64.470052 
2285.000000	64.463639 
2284.000000	64.462018 
2283.000000	64.464449 
2282.000000	64.469957 
2281.000000	64.477634 
2280.000000	64.486885 
2279.000000	64.497375 
2278.000000	64.508795 
2277.000000	64.520812 
2276.000000	64.532661 
2275.000000	64.543175 
2274.000000	64.550900 
2273.000000	64.554357 
2272.000000	64.552402 
2271.000000	64.544701 
2270.000000	64.531970 
2269.000000	64.515924 
2268.000000	64.498805 
2267.000000	64.483070 
2266.000000	64.470815 
2265.000000	64.463424 
2264.000000	64.461135 
2263.000000	64.463257 
2262.000000	64.468336 
2261.000000	64.474606 
2260.000000	64.480400 
2259.000000	64.484620 
2258.000000	64.486670 
2257.000000	64.486742 
2256.000000	64.485406 
2255.000000	64.483332 
2254.000000	64.481067 
2253.000000	64.478826 
2252.000000	64.476490 
2251.000000	64.473581 
2250.000000	64.469552 
2249.000000	64.463996 
2248.000000	64.457011 
2247.000000	64.448881 
2246.000000	64.440703 
2245.000000	64.433741 
2244.000000	64.429616 
2243.000000	64.429759 
2242.000000	64.435315 
2241.000000	64.446926 
2240.000000	64.464330 
2239.000000	64.486455 
2238.000000	64.511346 
2237.000000	64.536595 
2236.000000	64.559483 
2235.000000	64.577388 
2234.000000	64.588260 
2233.000000	64.590835 
2232.000000	64.584779 
2231.000000	64.570975 
2230.000000	64.551258 
2229.000000	64.528083 
2228.000000	64.504194 
2227.000000	64.482092 
2226.000000	64.463734 
2225.000000	64.450263 
2224.000000	64.441847 
2223.000000	64.437794 
2222.000000	64.437031 
2221.000000	64.438152 
2220.000000	64.439916 
2219.000000	64.441227 
2218.000000	64.441347 
2217.000000	64.439892 
2216.000000	64.436483 
2215.000000	64.431118 
2214.000000	64.423704 
2213.000000	64.414310 
2212.000000	64.403223 
2211.000000	64.390945 
2210.000000	64.378213 
2209.000000	64.365983 
2208.000000	64.355301 
2207.000000	64.347052 
2206.000000	64.341855 
2205.000000	64.339995 
2204.000000	64.341259 
2203.000000	64.345002 
2202.000000	64.350318 
2201.000000	64.356160 
2200.000000	64.361524 
2199.000000	64.365482 
2198.000000	64.367270 
2197.000000	64.366340 
2196.000000	64.362502 
2195.000000	64.355683 
2194.000000	64.346241 
2193.000000	64.334917 
2192.000000	64.322757 
2191.000000	64.311051 
2190.000000	64.301371 
2189.000000	64.295005 
2188.000000	64.293146 
2187.000000	64.296460 
2186.000000	64.305186 
2185.000000	64.318871 
2184.000000	64.336442 
2183.000000	64.356470 
2182.000000	64.377069 
2181.000000	64.396381 
2180.000000	64.412546 
2179.000000	64.424228 
2178.000000	64.430642 
2177.000000	64.431691 
2176.000000	64.427947 
2175.000000	64.420533 
2174.000000	64.411067 
2173.000000	64.401388 
2172.000000	64.393186 
2171.000000	64.387679 
2170.000000	64.385533 
2169.000000	64.386630 
2168.000000	64.390182 
2167.000000	64.394879 
2166.000000	64.399099 
2165.000000	64.401245 
2164.000000	64.399886 
2163.000000	64.394068 
2162.000000	64.383649 
2161.000000	64.369058 
2160.000000	64.351439 
2159.000000	64.332199 
2158.000000	64.313125 
2157.000000	64.295840 
2156.000000	64.281678 
2155.000000	64.271378 
2154.000000	64.265060 
2153.000000	64.262437 
2152.000000	64.262723 
2151.000000	64.265203 
2150.000000	64.269065 
2149.000000	64.273834 
2148.000000	64.279294 
2147.000000	64.285421 
2146.000000	64.292263 
2145.000000	64.299798 
2144.000000	64.307856 
2143.000000	64.315891 
2142.000000	64.323186 
2141.000000	64.329171 
2140.000000	64.333343 
2139.000000	64.335656 
2138.000000	64.336585 
2137.000000	64.336919 
2136.000000	64.337587 
2135.000000	64.339447 
2134.000000	64.342904 
2133.000000	64.347982 
2132.000000	64.354205 
2131.000000	64.360642 
2130.000000	64.366078 
2129.000000	64.369320 
2128.000000	64.369606 
2127.000000	64.366674 
2126.000000	64.361071 
2125.000000	64.353966 
2124.000000	64.346909 
2123.000000	64.341545 
2122.000000	64.339041 
2121.000000	64.339685 
2120.000000	64.342784 
2119.000000	64.346718 
2118.000000	64.349365 
2117.000000	64.348673 
2116.000000	64.343285 
2115.000000	64.332914 
2114.000000	64.318656 
2113.000000	64.302587 
2112.000000	64.287424 
2111.000000	64.275789 
2110.000000	64.269423 
2109.000000	64.268684 
2108.000000	64.272665 
2107.000000	64.279174 
2106.000000	64.285564 
2105.000000	64.289307 
2104.000000	64.288640 
2103.000000	64.282894 
2102.000000	64.272761 
2101.000000	64.259839 
2100.000000	64.246058 
2099.000000	64.233326 
2098.000000	64.222979 
2097.000000	64.215540 
2096.000000	64.210891 
2095.000000	64.208388 
2094.000000	64.207243 
2093.000000	64.206957 
2092.000000	64.207506 
2091.000000	64.209008 
2090.000000	64.211845 
2089.000000	64.216256 
2088.000000	64.222311 
2087.000000	64.229846 
2086.000000	64.238476 
2085.000000	64.247822 
2084.000000	64.257550 
2083.000000	64.267277 
2082.000000	64.276552 
2081.000000	64.284753 
2080.000000	64.291334 
2079.000000	64.295530 
2078.000000	64.296627 
2077.000000	64.294123 
2076.000000	64.287662 
2075.000000	64.277172 
2074.000000	64.262938 
2073.000000	64.245653 
2072.000000	64.226746 
2071.000000	64.208149 
2070.000000	64.192438 
2069.000000	64.182257 
2068.000000	64.180135 
2067.000000	64.187622 
2066.000000	64.205026 
2065.000000	64.231324 
2064.000000	64.263868 
2063.000000	64.298939 
2062.000000	64.332365 
2061.000000	64.360213 
2060.000000	64.379715 
2059.000000	64.389514 
2058.000000	64.389896 
2057.000000	64.382672 
2056.000000	64.370322 
2055.000000	64.355444 
2054.000000	64.340424 
2053.000000	64.326429 
2052.000000	64.313983 
2051.000000	64.302754 
2050.000000	64.292216 
2049.000000	64.281964 
2048.000000	64.272069 
2047.000000	64.263010 
2046.000000	64.255642 
2045.000000	64.250874 
2044.000000	64.249420 
2043.000000	64.251661 
2042.000000	64.257335 
2041.000000	64.265966 
2040.000000	64.276719 
2039.000000	64.288854 
2038.000000	64.301705 
2037.000000	64.314579 
2036.000000	64.326596 
2035.000000	64.336824 
2034.000000	64.344096 
2033.000000	64.347100 
2032.000000	64.344906 
2031.000000	64.337110 
2030.000000	64.324140 
2029.000000	64.307451 
2028.000000	64.289140 
2027.000000	64.271712 
2026.000000	64.257621 
2025.000000	64.248418 
2024.000000	64.244699 
2023.000000	64.246106 
2022.000000	64.251065 
2021.000000	64.257574 
2020.000000	64.263558 
2019.000000	64.267396 
2018.000000	64.268350 
2017.000000	64.266300 
2016.000000	64.261841 
2015.000000	64.255690 
2014.000000	64.248538 
2013.000000	64.240694 
2012.000000	64.232182 
2011.000000	64.222693 
2010.000000	64.212203 
2009.000000	64.201045 
2008.000000	64.190101 
2007.000000	64.180946 
2006.000000	64.175248 
2005.000000	64.174795 
2004.000000	64.180564 
2003.000000	64.192652 
2002.000000	64.210224 
2001.000000	64.231514 
2000.000000	64.254331 
1999.000000	64.276361 
1998.000000	64.295887 
1997.000000	64.311742 
1996.000000	64.323687 
1995.000000	64.331912 
1994.000000	64.336991 
1993.000000	64.339470 
1992.000000	64.339709 
1991.000000	64.337706 
1990.000000	64.333343 
1989.000000	64.326477 
1988.000000	64.317274 
1987.000000	64.306068 
1986.000000	64.293503 
1985.000000	64.280366 
1984.000000	64.267373 
1983.000000	64.255261 
1982.000000	64.244484 
1981.000000	64.235258 
1980.000000	64.227676 
1979.000000	64.221763 
1978.000000	64.217400 
1977.000000	64.214539 
1976.000000	64.213013 
1975.000000	64.212679 
1974.000000	64.213204 
1973.000000	64.214158 
1972.000000	64.215183 
1971.000000	64.215826 
1970.000000	64.215874 
1969.000000	64.215326 
1968.000000	64.214277 
1967.000000	64.213132 
1966.000000	64.212298 
1965.000000	64.212179 
1964.000000	64.212989 
1963.000000	64.215064 
1962.000000	64.218354 
1961.000000	64.222669 
1960.000000	64.227509 
1959.000000	64.232110 
1958.000000	64.235377 
1957.000000	64.236044 
1956.000000	64.232969 
1955.000000	64.225196 
1954.000000	64.212298 
1953.000000	64.194440 
1952.000000	64.172387 
1951.000000	64.147496 
1950.000000	64.121532 
1949.000000	64.096736 
1948.000000	64.075231 
1947.000000	64.058947 
1946.000000	64.049339 
1945.000000	64.047265 
1944.000000	64.052629 
1943.000000	64.064455 
1942.000000	64.080953 
1941.000000	64.099907 
1940.000000	64.118671 
1939.000000	64.134883 
1938.000000	64.146542 
1937.000000	64.152479 
1936.000000	64.152312 
1935.000000	64.146447 
1934.000000	64.135956 
1933.000000	64.122056 
1932.000000	64.105820 
1931.000000	64.088082 
1930.000000	64.069366 
1929.000000	64.050078 
1928.000000	64.030694 
1927.000000	64.011955 
1926.000000	63.994908 
1925.000000	63.980793 
1924.000000	63.971018 
1923.000000	63.966441 
1922.000000	63.967585 
1921.000000	63.974404 
1920.000000	63.986134 
1919.000000	64.001631 
1918.000000	64.019608 
1917.000000	64.038515 
1916.000000	64.057040 
1915.000000	64.073991 
1914.000000	64.088511 
1913.000000	64.100050 
1912.000000	64.108538 
1911.000000	64.114093 
1910.000000	64.117264 
1909.000000	64.118933 
1908.000000	64.120054 
1907.000000	64.121556 
1906.000000	64.124035 
1905.000000	64.127707 
1904.000000	64.132070 
1903.000000	64.136219 
1902.000000	64.138722 
1901.000000	64.138293 
1900.000000	64.134097 
1899.000000	64.126038 
1898.000000	64.115095 
1897.000000	64.103007 
1896.000000	64.092159 
1895.000000	64.084839 
1894.000000	64.082837 
1893.000000	64.086747 
1892.000000	64.095854 
1891.000000	64.108180 
1890.000000	64.120602 
1889.000000	64.129924 
1888.000000	64.133214 
1887.000000	64.128780 
1886.000000	64.116358 
1885.000000	64.097428 
1884.000000	64.074563 
1883.000000	64.051318 
1882.000000	64.031267 
1881.000000	64.017343 
1880.000000	64.011240 
1879.000000	64.013123 
1878.000000	64.021944 
1877.000000	64.035487 
1876.000000	64.050889 
1875.000000	64.065194 
1874.000000	64.075946 
1873.000000	64.081335 
1872.000000	64.080595 
1871.000000	64.073848 
1870.000000	64.062047 
1869.000000	64.046907 
1868.000000	64.030504 
1867.000000	64.015078 
1866.000000	64.002799 
1865.000000	63.995528 
1864.000000	63.994598 
1863.000000	64.000654 
1862.000000	64.013361 
1861.000000	64.031648 
1860.000000	64.053726 
1859.000000	64.077425 
1858.000000	64.100146 
1857.000000	64.119553 
1856.000000	64.133620 
1855.000000	64.140820 
1854.000000	64.140510 
1853.000000	64.132785 
1852.000000	64.118671 
1851.000000	64.099740 
1850.000000	64.078211 
1849.000000	64.056682 
1848.000000	64.037704 
1847.000000	64.023447 
1846.000000	64.015483 
1845.000000	64.014482 
1844.000000	64.020228 
1843.000000	64.031648 
1842.000000	64.046931 
1841.000000	64.063882 
1840.000000	64.080286 
1839.000000	64.094305 
1838.000000	64.104533 
1837.000000	64.110255 
1836.000000	64.111161 
1835.000000	64.107608 
1834.000000	64.100193 
1833.000000	64.089870 
1832.000000	64.077782 
1831.000000	64.065194 
1830.000000	64.053463 
1829.000000	64.043855 
1828.000000	64.037489 
1827.000000	64.035224 
1826.000000	64.037275 
1825.000000	64.043569 
1824.000000	64.053726 
1823.000000	64.067029 
1822.000000	64.082479 
1821.000000	64.098978 
1820.000000	64.115333 
1819.000000	64.130353 
1818.000000	64.142847 
1817.000000	64.151811 
1816.000000	64.156413 
1815.000000	64.156270 
1814.000000	64.151501 
1813.000000	64.142632 
1812.000000	64.130663 
1811.000000	64.117002 
1810.000000	64.103078 
1809.000000	64.090132 
1808.000000	64.079141 
1807.000000	64.070534 
1806.000000	64.064431 
1805.000000	64.060544 
1804.000000	64.058327 
1803.000000	64.057230 
1802.000000	64.056611 
1801.000000	64.055776 
1800.000000	64.053964 
1799.000000	64.050459 
1798.000000	64.044666 
1797.000000	64.036130 
1796.000000	64.024829 
1795.000000	64.011073 
1794.000000	63.995647 
1793.000000	63.979625 
1792.000000	63.964271 
1791.000000	63.950824 
1790.000000	63.940238 
1789.000000	63.933086 
1788.000000	63.929438 
1787.000000	63.928842 
1786.000000	63.930630 
1785.000000	63.933873 
1784.000000	63.937640 
1783.000000	63.941097 
1782.000000	63.943552 
1781.000000	63.944721 
1780.000000	63.944411 
1779.000000	63.942694 
1778.000000	63.939952 
1777.000000	63.936662 
1776.000000	63.933396 
1775.000000	63.930749 
1774.000000	63.929319 
1773.000000	63.929390 
1772.000000	63.930940 
1771.000000	63.933467 
1770.000000	63.936209 
1769.000000	63.938236 
1768.000000	63.938617 
1767.000000	63.936781 
1766.000000	63.932633 
1765.000000	63.926672 
1764.000000	63.919639 
1763.000000	63.912463 
1762.000000	63.905739 
1761.000000	63.899683 
1760.000000	63.893842 
1759.000000	63.887310 
1758.000000	63.878798 
1757.000000	63.867521 
1756.000000	63.852930 
1755.000000	63.835334 
1754.000000	63.815283 
1753.000000	63.794088 
1752.000000	63.772845 
1751.000000	63.752365 
1750.000000	63.732838 
1749.000000	63.714027 
1748.000000	63.695120 
1747.000000	63.675236 
1746.000000	63.653898 
1745.000000	63.631105 
1744.000000	63.607263 
1743.000000	63.583159 
1742.000000	63.559556 
1741.000000	63.536930 
1740.000000	63.515520 
1739.000000	63.495135 
1738.000000	63.475441 
1737.000000	63.456439 
1736.000000	63.438558 
1735.000000	63.422966 
1734.000000	63.411355 
1733.000000	63.406014 
1732.000000	63.408803 
1731.000000	63.421058 
1730.000000	63.442897 
1729.000000	63.473439 
1728.000000	63.510513 
1727.000000	63.551282 
1726.000000	63.592767 
1725.000000	63.632297 
1724.000000	63.667678 
1723.000000	63.697528 
1722.000000	63.721489 
1721.000000	63.739848 
1720.000000	63.753318 
1719.000000	63.762784 
1718.000000	63.769292 
1717.000000	63.773393 
1716.000000	63.775372 
1715.000000	63.775110 
1714.000000	63.772535 
1713.000000	63.767552 
1712.000000	63.760399 
1711.000000	63.751745 
1710.000000	63.742589 
1709.000000	63.734221 
1708.000000	63.728141 
1707.000000	63.725447 
1706.000000	63.726854 
1705.000000	63.732600 
1704.000000	63.742280 
1703.000000	63.754987 
1702.000000	63.769626 
1701.000000	63.784980 
1700.000000	63.800072 
1699.000000	63.814139 
1698.000000	63.826608 
1697.000000	63.837099 
1696.000000	63.845252 
1695.000000	63.850712 
1694.000000	63.853383 
1693.000000	63.853359 
1692.000000	63.850998 
1691.000000	63.847017 
1690.000000	63.842344 
1689.000000	63.837742 
1688.000000	63.833665 
1687.000000	63.830065 
1686.000000	63.826251 
1685.000000	63.821077 
1684.000000	63.813281 
1683.000000	63.801884 
1682.000000	63.786506 
1681.000000	63.767552 
1680.000000	63.746380 
1679.000000	63.725018 
1678.000000	63.705682 
1677.000000	63.690614 
1676.000000	63.681221 
1675.000000	63.678455 
1674.000000	63.682508 
1673.000000	63.693141 
1672.000000	63.709545 
1671.000000	63.730764 
1670.000000	63.755774 
1669.000000	63.783335 
1668.000000	63.811993 
1667.000000	63.839960 
1666.000000	63.865447 
1665.000000	63.886404 
1664.000000	63.901019 
1663.000000	63.907957 
1662.000000	63.906598 
1661.000000	63.897252 
1660.000000	63.881134 
1659.000000	63.860392 
1658.000000	63.837742 
1657.000000	63.816142 
1656.000000	63.798332 
1655.000000	63.786435 
1654.000000	63.781476 
1653.000000	63.783764 
1652.000000	63.792276 
1651.000000	63.805150 
1650.000000	63.819861 
1649.000000	63.833904 
1648.000000	63.845062 
1647.000000	63.851666 
1646.000000	63.852930 
1645.000000	63.848948 
1644.000000	63.840413 
1643.000000	63.828635 
1642.000000	63.814926 
1641.000000	63.800454 
1640.000000	63.785982 
1639.000000	63.772177 
1638.000000	63.759255 
1637.000000	63.747286 
1636.000000	63.736343 
1635.000000	63.726496 
1634.000000	63.717913 
1633.000000	63.710784 
1632.000000	63.705182 
1631.000000	63.701105 
1630.000000	63.698601 
1629.000000	63.697862 
1628.000000	63.699316 
1627.000000	63.704013 
1626.000000	63.713240 
1625.000000	63.728332 
1624.000000	63.750314 
1623.000000	63.779091 
1622.000000	63.813591 
1621.000000	63.851046 
1620.000000	63.887739 
1619.000000	63.919258 
1618.000000	63.941216 
1617.000000	63.950228 
1616.000000	63.944792 
1615.000000	63.925433 
1614.000000	63.894629 
1613.000000	63.856720 
1612.000000	63.817048 
1611.000000	63.781046 
1610.000000	63.753294 
1609.000000	63.737082 
1608.000000	63.733792 
1607.000000	63.742995 
1606.000000	63.762736 
1605.000000	63.789796 
1604.000000	63.820481 
1603.000000	63.850951 
1602.000000	63.877892 
1601.000000	63.898825 
1600.000000	63.912367 
1599.000000	63.918066 
1598.000000	63.916468 
1597.000000	63.908982 
1596.000000	63.897275 
1595.000000	63.883352 
1594.000000	63.868522 
1593.000000	63.853931 
1592.000000	63.839769 
1591.000000	63.825750 
1590.000000	63.810896 
1589.000000	63.794231 
1588.000000	63.774704 
1587.000000	63.751840 
1586.000000	63.725829 
1585.000000	63.697481 
1584.000000	63.668298 
1583.000000	63.640213 
1582.000000	63.615322 
1581.000000	63.595652 
1580.000000	63.582944 
1579.000000	63.578295 
1578.000000	63.581871 
1577.000000	63.592910 
1576.000000	63.609719 
1575.000000	63.629817 
1574.000000	63.650345 
1573.000000	63.668489 
1572.000000	63.681697 
1571.000000	63.688254 
1570.000000	63.687324 
1569.000000	63.679265 
1568.000000	63.665318 
1567.000000	63.647460 
1566.000000	63.628292 
1565.000000	63.610339 
1564.000000	63.596153 
1563.000000	63.587450 
1562.000000	63.585257 
1561.000000	63.589429 
1560.000000	63.599205 
1559.000000	63.612961 
1558.000000	63.628602 
1557.000000	63.644051 
1556.000000	63.657474 
1555.000000	63.667654 
1554.000000	63.674044 
1553.000000	63.676810 
1552.000000	63.676714 
1551.000000	63.674879 
1550.000000	63.672399 
1549.000000	63.670206 
1548.000000	63.668847 
1547.000000	63.668537 
1546.000000	63.669228 
1545.000000	63.670611 
1544.000000	63.672351 
1543.000000	63.674068 
1542.000000	63.675355 
1541.000000	63.675928 
1540.000000	63.675570 
1539.000000	63.674259 
1538.000000	63.672232 
1537.000000	63.669991 
1536.000000	63.668322 
1535.000000	63.668227 
1534.000000	63.670587 
1533.000000	63.676309 
1532.000000	63.685584 
1531.000000	63.698005 
1530.000000	63.712382 
1529.000000	63.726949 
1528.000000	63.739395 
1527.000000	63.747262 
1526.000000	63.748455 
1525.000000	63.741707 
1524.000000	63.726735 
1523.000000	63.704586 
1522.000000	63.677382 
1521.000000	63.648033 
1520.000000	63.619828 
1519.000000	63.595867 
1518.000000	63.578605 
1517.000000	63.569498 
1516.000000	63.568878 
1515.000000	63.575959 
1514.000000	63.589024 
1513.000000	63.605666 
1512.000000	63.623595 
1511.000000	63.640570 
1510.000000	63.654661 
1509.000000	63.664674 
1508.000000	63.670015 
1507.000000	63.670945 
1506.000000	63.668131 
1505.000000	63.663101 
1504.000000	63.657736 
1503.000000	63.654041 
1502.000000	63.653874 
1501.000000	63.658213 
1500.000000	63.666987 
1499.000000	63.678860 
1498.000000	63.691616 
1497.000000	63.702678 
1496.000000	63.709807 
1495.000000	63.711833 
1494.000000	63.708639 
1493.000000	63.701534 
1492.000000	63.692688 
1491.000000	63.684463 
1490.000000	63.678669 
1489.000000	63.676023 
1488.000000	63.675856 
1487.000000	63.676524 
1486.000000	63.675808 
1485.000000	63.671565 
1484.000000	63.662314 
1483.000000	63.647770 
1482.000000	63.628983 
1481.000000	63.607907 
1480.000000	63.587236 
1479.000000	63.569283 
1478.000000	63.556098 
1477.000000	63.548874 
1476.000000	63.547873 
1475.000000	63.552546 
1474.000000	63.561367 
1473.000000	63.572239 
1472.000000	63.582587 
1471.000000	63.589906 
1470.000000	63.591790 
1469.000000	63.586568 
1468.000000	63.573384 
1467.000000	63.552665 
1466.000000	63.526058 
1465.000000	63.496112 
1464.000000	63.466095 
1463.000000	63.438940 
1462.000000	63.417053 
1461.000000	63.401603 
1460.000000	63.392615 
1459.000000	63.388943 
1458.000000	63.388824 
1457.000000	63.390350 
1456.000000	63.392019 
1455.000000	63.393139 
1454.000000	63.393878 
1453.000000	63.395166 
1452.000000	63.397932 
1451.000000	63.403105 
1450.000000	63.411021 
1449.000000	63.421630 
1448.000000	63.434457 
1447.000000	63.448882 
1446.000000	63.464474 
1445.000000	63.480997 
1444.000000	63.498497 
1443.000000	63.517045 
1442.000000	63.536190 
1441.000000	63.555002 
1440.000000	63.571929 
1439.000000	63.585209 
1438.000000	63.592982 
1437.000000	63.594293 
1436.000000	63.589000 
1435.000000	63.577914 
1434.000000	63.562607 
1433.000000	63.545036 
1432.000000	63.527154 
1431.000000	63.510370 
1430.000000	63.495421 
1429.000000	63.482379 
1428.000000	63.470959 
1427.000000	63.460922 
1426.000000	63.452243 
1425.000000	63.445210 
1424.000000	63.440299 
1423.000000	63.437819 
1422.000000	63.437843 
1421.000000	63.439679 
1420.000000	63.442182 
1419.000000	63.443970 
1418.000000	63.443946 
1417.000000	63.441610 
1416.000000	63.437342 
1415.000000	63.432526 
1414.000000	63.429188 
1413.000000	63.429450 
1412.000000	63.435053 
1411.000000	63.446855 
1410.000000	63.464379 
1409.000000	63.485908 
1408.000000	63.508820 
1407.000000	63.529825 
1406.000000	63.545918 
1405.000000	63.554263 
1404.000000	63.553166 
1403.000000	63.541865 
1402.000000	63.520789 
1401.000000	63.491511 
1400.000000	63.456320 
1399.000000	63.418221 
1398.000000	63.380646 
1397.000000	63.347101 
1396.000000	63.320684 
1395.000000	63.303828 
1394.000000	63.297939 
1393.000000	63.303184 
1392.000000	63.318610 
1391.000000	63.342142 
1390.000000	63.370919 
1389.000000	63.401722 
1388.000000	63.431429 
1387.000000	63.457369 
1386.000000	63.477611 
1385.000000	63.491177 
1384.000000	63.497829 
1383.000000	63.498044 
1382.000000	63.492584 
1381.000000	63.482618 
1380.000000	63.469219 
1379.000000	63.453578 
1378.000000	63.436865 
1377.000000	63.420295 
1376.000000	63.405060 
1375.000000	63.392305 
1374.000000	63.383054 
1373.000000	63.378119 
1372.000000	63.377785 
1371.000000	63.381791 
1370.000000	63.389301 
1369.000000	63.399004 
1368.000000	63.409471 
1367.000000	63.419246 
1366.000000	63.427233 
1365.000000	63.432788 
1364.000000	63.435816 
1363.000000	63.436865 
1362.000000	63.436555 
1361.000000	63.435482 
1360.000000	63.434004 
1359.000000	63.432097 
1358.000000	63.429546 
1357.000000	63.425946 
1356.000000	63.420987 
1355.000000	63.414573 
1354.000000	63.406991 
1353.000000	63.398742 
1352.000000	63.390660 
1351.000000	63.383436 
1350.000000	63.377475 
1349.000000	63.372898 
1348.000000	63.369536 
1347.000000	63.366842 
1346.000000	63.364219 
1345.000000	63.361048 
1344.000000	63.357043 
1343.000000	63.352227 
1342.000000	63.346934 
1341.000000	63.341951 
1340.000000	63.338065 
1339.000000	63.336300 
1338.000000	63.337802 
1337.000000	63.343453 
1336.000000	63.353681 
1335.000000	63.368582 
1334.000000	63.387656 
1333.000000	63.409709 
1332.000000	63.433074 
1331.000000	63.456010 
1330.000000	63.476872 
1329.000000	63.494586 
1328.000000	63.508629 
1327.000000	63.519215 
1326.000000	63.526988 
1325.000000	63.532948 
1324.000000	63.537907 
1323.000000	63.542175 
1322.000000	63.545441 
1321.000000	63.547039 
1320.000000	63.545942 
1319.000000	63.541460 
1318.000000	63.533234 
1317.000000	63.521766 
1316.000000	63.507986 
1315.000000	63.493275 
1314.000000	63.478970 
1313.000000	63.465976 
1312.000000	63.454461 
1311.000000	63.444042 
1310.000000	63.433980 
1309.000000	63.423466 
1308.000000	63.412070 
1307.000000	63.400053 
1306.000000	63.388347 
1305.000000	63.378214 
1304.000000	63.371086 
1303.000000	63.368153 
1302.000000	63.369774 
1301.000000	63.375282 
1300.000000	63.383579 
1299.000000	63.392782 
1298.000000	63.400983 
1297.000000	63.406181 
1296.000000	63.407063 
1295.000000	63.402652 
1294.000000	63.392472 
1293.000000	63.376355 
1292.000000	63.354444 
1291.000000	63.327240 
1290.000000	63.295531 
1289.000000	63.260436 
1288.000000	63.223552 
1287.000000	63.186955 
1286.000000	63.153004 
1285.000000	63.123941 
1284.000000	63.101458 
1283.000000	63.086628 
1282.000000	63.079619 
1281.000000	63.079690 
1280.000000	63.085246 
1279.000000	63.094377 
1278.000000	63.105154 
1277.000000	63.115644 
1276.000000	63.124275 
1275.000000	63.129830 
1274.000000	63.131546 
1273.000000	63.129043 
1272.000000	63.122272 
1271.000000	63.111662 
1270.000000	63.098001 
1269.000000	63.082289 
1268.000000	63.065862 
1267.000000	63.050055 
1266.000000	63.036274 
1265.000000	63.025569 
1264.000000	63.018822 
1263.000000	63.016486 
1262.000000	63.018703 
1261.000000	63.025093 
1260.000000	63.035225 
1259.000000	63.048601 
1258.000000	63.064861 
1257.000000	63.083600 
1256.000000	63.104629 
1255.000000	63.127803 
1254.000000	63.152766 
1253.000000	63.178634 
1252.000000	63.204312 
1251.000000	63.228487 
1250.000000	63.249802 
1249.000000	63.266921 
1248.000000	63.279199 
1247.000000	63.286185 
1246.000000	63.288140 
1245.000000	63.285613 
1244.000000	63.279485 
1243.000000	63.270640 
1242.000000	63.260078 
1241.000000	63.248753 
1240.000000	63.237643 
1239.000000	63.227534 
1238.000000	63.219022 
1237.000000	63.212513 
1236.000000	63.208055 
1235.000000	63.205552 
1234.000000	63.204765 
1233.000000	63.205313 
1232.000000	63.206911 
1231.000000	63.209438 
1230.000000	63.212800 
1229.000000	63.217139 
1228.000000	63.222360 
1227.000000	63.228154 
1226.000000	63.234066 
1225.000000	63.239312 
1224.000000	63.242983 
1223.000000	63.244318 
1222.000000	63.242769 
1221.000000	63.238358 
1220.000000	63.231539 
1219.000000	63.223171 
1218.000000	63.214278 
1217.000000	63.205575 
1216.000000	63.197398 
1215.000000	63.189578 
1214.000000	63.181328 
1213.000000	63.171792 
1212.000000	63.160014 
1211.000000	63.145661 
1210.000000	63.129019 
1209.000000	63.111233 
1208.000000	63.093852 
1207.000000	63.078641 
1206.000000	63.067054 
1205.000000	63.059973 
1204.000000	63.057494 
1203.000000	63.059091 
1202.000000	63.063740 
1201.000000	63.070225 
1200.000000	63.077521 
1199.000000	63.085174 
1198.000000	63.093090 
1197.000000	63.101553 
1196.000000	63.111162 
1195.000000	63.122272 
1194.000000	63.135075 
1193.000000	63.149094 
1192.000000	63.163161 
1191.000000	63.175606 
1190.000000	63.184642 
1189.000000	63.188529 
1188.000000	63.186001 
1187.000000	63.176512 
1186.000000	63.160824 
1185.000000	63.140439 
1184.000000	63.117623 
1183.000000	63.094782 
1182.000000	63.074278 
1181.000000	63.057661 
1180.000000	63.045454 
1179.000000	63.036870 
1178.000000	63.030362 
1177.000000	63.023495 
1176.000000	63.013577 
1175.000000	62.998437 
1174.000000	62.976813 
1173.000000	62.948918 
1172.000000	62.916254 
1171.000000	62.881636 
1170.000000	62.848472 
1169.000000	62.820172 
1168.000000	62.799644 
1167.000000	62.788486 
1166.000000	62.787222 
1165.000000	62.795257 
1164.000000	62.811517 
1163.000000	62.834453 
1162.000000	62.862753 
1161.000000	62.895083 
1160.000000	62.930560 
1159.000000	62.967944 
1158.000000	63.005948 
1157.000000	63.042712 
1156.000000	63.076281 
1155.000000	63.104724 
1154.000000	63.126564 
1153.000000	63.141012 
1152.000000	63.148307 
1151.000000	63.149929 
1150.000000	63.147950 
1149.000000	63.144636 
1148.000000	63.141894 
1147.000000	63.141036 
1146.000000	63.142371 
1145.000000	63.145399 
1144.000000	63.149070 
1143.000000	63.152122 
1142.000000	63.153648 
1141.000000	63.153100 
1140.000000	63.150548 
1139.000000	63.146233 
1138.000000	63.140320 
1137.000000	63.132810 
1136.000000	63.123226 
1135.000000	63.111233 
1134.000000	63.096642 
1133.000000	63.080000 
1132.000000	63.062620 
1131.000000	63.046312 
1130.000000	63.033246 
1129.000000	63.025403 
1128.000000	63.023591 
1127.000000	63.027930 
1126.000000	63.037610 
1125.000000	63.051080 
1124.000000	63.066387 
1123.000000	63.081312 
1122.000000	63.093733 
1121.000000	63.101601 
1120.000000	63.103389 
1119.000000	63.098502 
1118.000000	63.087439 
1117.000000	63.071632 
1116.000000	63.053250 
1115.000000	63.034749 
1114.000000	63.018155 
1113.000000	63.004899 
1112.000000	62.995648 
1111.000000	62.990546 
1110.000000	62.989473 
1109.000000	62.992215 
1108.000000	62.998437 
1107.000000	63.007426 
1106.000000	63.018250 
1105.000000	63.029432 
1104.000000	63.039493 
1103.000000	63.046789 
1102.000000	63.050389 
1101.000000	63.050174 
1100.000000	63.047003 
1099.000000	63.042402 
1098.000000	63.038134 
1097.000000	63.035917 
1096.000000	63.036489 
1095.000000	63.039565 
1094.000000	63.043785 
1093.000000	63.046956 
1092.000000	63.046669 
1091.000000	63.040995 
1090.000000	63.028931 
1089.000000	63.010835 
1088.000000	62.988257 
1087.000000	62.963747 
1086.000000	62.939977 
1085.000000	62.919497 
1084.000000	62.903976 
1083.000000	62.894225 
1082.000000	62.890005 
1081.000000	62.890553 
1080.000000	62.894940 
1079.000000	62.902498 
1078.000000	62.912750 
1077.000000	62.925601 
1076.000000	62.941074 
1075.000000	62.959146 
1074.000000	62.979030 
1073.000000	62.999606 
1072.000000	63.019299 
1071.000000	63.036346 
1070.000000	63.049244 
1069.000000	63.057041 
1068.000000	63.059616 
1067.000000	63.057637 
1066.000000	63.052392 
1065.000000	63.045549 
1064.000000	63.038587 
1063.000000	63.032746 
1062.000000	63.028597 
1061.000000	63.025999 
1060.000000	63.024258 
1059.000000	63.022541 
1058.000000	63.020038 
1057.000000	63.016247 
1056.000000	63.010835 
1055.000000	63.004159 
1054.000000	62.996721 
1053.000000	62.988996 
1052.000000	62.981343 
1051.000000	62.973785 
1050.000000	62.966251 
1049.000000	62.958598 
1048.000000	62.950754 
1047.000000	62.942790 
1046.000000	62.935376 
1045.000000	62.929511 
1044.000000	62.926363 
1043.000000	62.926769 
1042.000000	62.930965 
1041.000000	62.938499 
1040.000000	62.948131 
1039.000000	62.957978 
1038.000000	62.966346 
1037.000000	62.972235 
1036.000000	62.975454 
1035.000000	62.976908 
1034.000000	62.978434 
1033.000000	62.982130 
1032.000000	62.989878 
1031.000000	63.002586 
1030.000000	63.019967 
1029.000000	63.040518 
1028.000000	63.061809 
1027.000000	63.081264 
1026.000000	63.096833 
1025.000000	63.107323 
1024.000000	63.112735 
1023.000000	63.113784 
1022.000000	63.111543 
1021.000000	63.106822 
1020.000000	63.100147 
1019.000000	63.091349 
1018.000000	63.079977 
1017.000000	63.065528 
1016.000000	63.048100 
1015.000000	63.028287 
1014.000000	63.007330 
1013.000000	62.986683 
1012.000000	62.967681 
1011.000000	62.951302 
1010.000000	62.938046 
1009.000000	62.927818 
1008.000000	62.920141 
1007.000000	62.914800 
1006.000000	62.911772 
1005.000000	62.911391 
1004.000000	62.914085 
1003.000000	62.919831 
1002.000000	62.928223 
1001.000000	62.937760 
1000.000000	62.946605 
999.000000	 62.952566 
998.000000	 62.954068 
997.000000	 62.950634 
996.000000	 62.943196 
995.000000	 62.934017 
994.000000	 62.926220 
993.000000	 62.922978 
992.000000	 62.926602 
991.000000	 62.937808 
990.000000	 62.955498 
989.000000	 62.977027 
988.000000	 62.998819 
987.000000	 63.017010 
986.000000	 63.028645 
985.000000	 63.032078 
984.000000	 63.027071 
983.000000	 63.014674 
982.000000	 62.996745 
981.000000	 62.975406 
980.000000	 62.952661 
979.000000	 62.930226 
978.000000	 62.909507 
977.000000	 62.891721 
976.000000	 62.877964 
975.000000	 62.869262 
974.000000	 62.866473 
973.000000	 62.870144 
972.000000	 62.880396 
971.000000	 62.896800 
970.000000	 62.918019 
969.000000	 62.942504 
968.000000	 62.968373 
967.000000	 62.993931 
966.000000	 63.017725 
965.000000	 63.039064 
964.000000	 63.057923 
963.000000	 63.074946 
962.000000	 63.090872 
961.000000	 63.106274 
960.000000	 63.121366 
959.000000	 63.135743 
958.000000	 63.148522 
957.000000	 63.158583 
956.000000	 63.164687 
955.000000	 63.165903 
954.000000	 63.161683 
953.000000	 63.152098 
952.000000	 63.137650 
951.000000	 63.119292 
950.000000	 63.098382 
949.000000	 63.076114 
948.000000	 63.053965 
947.000000	 63.033533 
946.000000	 63.016343 
945.000000	 63.003778 
944.000000	 62.996745 
943.000000	 62.995481 
942.000000	 62.999296 
941.000000	 63.006567 
940.000000	 63.014960 
939.000000	 63.021445 
938.000000	 63.023757 
937.000000	 63.020896 
936.000000	 63.013458 
935.000000	 63.003277 
934.000000	 62.993574 
933.000000	 62.987828 
932.000000	 62.988805 
931.000000	 62.997603 
930.000000	 63.013339 
929.000000	 63.033294 
928.000000	 63.053607 
927.000000	 63.070583 
926.000000	 63.081502 
925.000000	 63.085722 
924.000000	 63.084602 
923.000000	 63.081049 
922.000000	 63.078689 
921.000000	 63.080477 
920.000000	 63.087868 
919.000000	 63.100314 
918.000000	 63.115429 
917.000000	 63.129281 
916.000000	 63.138103 
915.000000	 63.138318 
914.000000	 63.127875 
913.000000	 63.105916 
912.000000	 63.073301 
911.000000	 63.031935 
910.000000	 62.984251 
909.000000	 62.933158 
908.000000	 62.881660 
907.000000	 62.832975 
906.000000	 62.790393 
905.000000	 62.757158 
904.000000	 62.736153 
903.000000	 62.729001 
902.000000	 62.735700 
901.000000	 62.754011 
900.000000	 62.779998 
899.000000	 62.808394 
898.000000	 62.833881 
897.000000	 62.852001 
896.000000	 62.860226 
895.000000	 62.858080 
894.000000	 62.847328 
893.000000	 62.831044 
892.000000	 62.812948 
891.000000	 62.796425 
890.000000	 62.783813 
889.000000	 62.776184 
888.000000	 62.773180 
887.000000	 62.773680 
886.000000	 62.776207 
885.000000	 62.779426 
884.000000	 62.782883 
883.000000	 62.786912 
882.000000	 62.792730 
881.000000	 62.801623 
880.000000	 62.814688 
879.000000	 62.832140 
878.000000	 62.853312 
877.000000	 62.876510 
876.000000	 62.899184 
875.000000	 62.918353 
874.000000	 62.931394 
873.000000	 62.936854 
872.000000	 62.934732 
871.000000	 62.926530 
870.000000	 62.915205 
869.000000	 62.904095 
868.000000	 62.896347 
867.000000	 62.893724 
866.000000	 62.896394 
865.000000	 62.902522 
864.000000	 62.909150 
863.000000	 62.912344 
862.000000	 62.908935 
861.000000	 62.896609 
860.000000	 62.874889 
859.000000	 62.845087 
858.000000	 62.809872 
857.000000	 62.772822 
856.000000	 62.737560 
855.000000	 62.707042 
854.000000	 62.683272 
853.000000	 62.667155 
852.000000	 62.658524 
851.000000	 62.656426 
850.000000	 62.659549 
849.000000	 62.666368 
848.000000	 62.675333 
847.000000	 62.684917 
846.000000	 62.693738 
845.000000	 62.700605 
844.000000	 62.704944 
843.000000	 62.706637 
842.000000	 62.706327 
841.000000	 62.705087 
840.000000	 62.704181 
839.000000	 62.705039 
838.000000	 62.708330 
837.000000	 62.714004 
836.000000	 62.721061 
835.000000	 62.727856 
834.000000	 62.732577 
833.000000	 62.733721 
832.000000	 62.730860 
831.000000	 62.724661 
830.000000	 62.717175 
829.000000	 62.711429 
828.000000	 62.710809 
827.000000	 62.717938 
826.000000	 62.734198 
825.000000	 62.759113 
824.000000	 62.790369 
823.000000	 62.824201 
822.000000	 62.856411 
821.000000	 62.883305 
820.000000	 62.902522 
819.000000	 62.913608 
818.000000	 62.917780 
817.000000	 62.917661 
816.000000	 62.916445 
815.000000	 62.917208 
814.000000	 62.922573 
813.000000	 62.933707 
812.000000	 62.950634 
811.000000	 62.971282 
810.000000	 62.992405 
809.000000	 63.009357 
808.000000	 63.017416 
807.000000	 63.012742 
806.000000	 62.993836 
805.000000	 62.961792 
804.000000	 62.920331 
803.000000	 62.874937 
802.000000	 62.831640 
801.000000	 62.795352 
800.000000	 62.769031 
799.000000	 62.753248 
798.000000	 62.746167 
797.000000	 62.744975 
796.000000	 62.746453 
795.000000	 62.748527 
794.000000	 62.750482 
793.000000	 62.752962 
792.000000	 62.757420 
791.000000	 62.765192 
790.000000	 62.776803 
789.000000	 62.791037 
788.000000	 62.805366 
787.000000	 62.816858 
786.000000	 62.822580 
785.000000	 62.820887 
784.000000	 62.811207 
783.000000	 62.794017 
782.000000	 62.770485 
781.000000	 62.741875 
780.000000	 62.709474 
779.000000	 62.674379 
778.000000	 62.637972 
777.000000	 62.602066 
776.000000	 62.569260 
775.000000	 62.542414 
774.000000	 62.524485 
773.000000	 62.517738 
772.000000	 62.523055 
771.000000	 62.539434 
770.000000	 62.564158 
769.000000	 62.593317 
768.000000	 62.622547 
767.000000	 62.647771 
766.000000	 62.666296 
765.000000	 62.676978 
764.000000	 62.679791 
763.000000	 62.675428 
762.000000	 62.664747 
761.000000	 62.648606 
760.000000	 62.627768 
759.000000	 62.603044 
758.000000	 62.575697 
757.000000	 62.547659 
756.000000	 62.521672 
755.000000	 62.500691 
754.000000	 62.487125 
753.000000	 62.482857 
752.000000	 62.488412 
751.000000	 62.503123 
750.000000	 62.524914 
749.000000	 62.551164 
748.000000	 62.578558 
747.000000	 62.604260 
746.000000	 62.626075 
745.000000	 62.642693 
744.000000	 62.653660 
743.000000	 62.659573 
742.000000	 62.661838 
741.000000	 62.662553 
740.000000	 62.664270 
739.000000	 62.669777 
738.000000	 62.681365 
737.000000	 62.700629 
736.000000	 62.727260 
735.000000	 62.759256 
734.000000	 62.792277 
733.000000	 62.820506 
732.000000	 62.837052 
731.000000	 62.835812 
730.000000	 62.812590 
729.000000	 62.766218 
728.000000	 62.699151 
727.000000	 62.617444 
726.000000	 62.529540 
725.000000	 62.444877 
724.000000	 62.372255 
723.000000	 62.318038 
722.000000	 62.285590 
721.000000	 62.274885 
720.000000	 62.283182 
719.000000	 62.305831 
718.000000	 62.337636 
717.000000	 62.373805 
716.000000	 62.410473 
715.000000	 62.444710 
714.000000	 62.474584 
713.000000	 62.498927 
712.000000	 62.516856 
711.000000	 62.527680 
710.000000	 62.531757 
709.000000	 62.530183 
708.000000	 62.525272 
707.000000	 62.519502 
706.000000	 62.515544 
705.000000	 62.514925 
704.000000	 62.517952 
703.000000	 62.523317 
702.000000	 62.528491 
701.000000	 62.530255 
700.000000	 62.526035 
699.000000	 62.514495 
698.000000	 62.496161 
697.000000	 62.473416 
696.000000	 62.449932 
695.000000	 62.429928 
694.000000	 62.416934 
693.000000	 62.413311 
692.000000	 62.419867 
691.000000	 62.435507 
690.000000	 62.457537 
689.000000	 62.482237 
688.000000	 62.505483 
687.000000	 62.523102 
686.000000	 62.531566 
685.000000	 62.527871 
684.000000	 62.510347 
683.000000	 62.479090 
682.000000	 62.436556 
681.000000	 62.387132 
680.000000	 62.336921 
679.000000	 62.293291 
678.000000	 62.262964 
677.000000	 62.251329 
676.000000	 62.260317 
675.000000	 62.288045 
674.000000	 62.328839 
673.000000	 62.374019 
672.000000	 62.413978 
671.000000	 62.439823 
670.000000	 62.445807 
669.000000	 62.430143 
668.000000	 62.395644 
667.000000	 62.348818 
666.000000	 62.298226 
665.000000	 62.252545 
664.000000	 62.218403 
663.000000	 62.199187 
662.000000	 62.194561 
661.000000	 62.201166 
660.000000	 62.213611 
659.000000	 62.226104 
658.000000	 62.233543 
657.000000	 62.232851 
656.000000	 62.222695 
655.000000	 62.204098 
654.000000	 62.179112 
653.000000	 62.151145 
652.000000	 62.124085 
651.000000	 62.102007 
650.000000	 62.088823 
649.000000	 62.087416 
648.000000	 62.099432 
647.000000	 62.124443 
646.000000	 62.159848 
645.000000	 62.201404 
644.000000	 62.243390 
643.000000	 62.280583 
642.000000	 62.308859 
641.000000	 62.326502 
640.000000	 62.334227 
639.000000	 62.335181 
638.000000	 62.334012 
637.000000	 62.334918 
636.000000	 62.340688 
635.000000	 62.351441 
634.000000	 62.364768 
633.000000	 62.376570 
632.000000	 62.382650 
631.000000	 62.380170 
630.000000	 62.368750 
629.000000	 62.350511 
628.000000	 62.329220 
627.000000	 62.309312 
626.000000	 62.294197 
625.000000	 62.285017 
624.000000	 62.280035 
623.000000	 62.274909 
622.000000	 62.264084 
621.000000	 62.242126 
620.000000	 62.206745 
619.000000	 62.158513 
618.000000	 62.103486 
617.000000	 62.051486 
616.000000	 62.015151 
615.000000	 62.006235 
614.000000	 62.033319 
613.000000	 62.099123 
612.000000	 62.198591 
611.000000	 62.319588 
610.000000	 62.443923 
609.000000	 62.551498 
608.000000	 62.623929 
607.000000	 62.649011 
606.000000	 62.623763 
605.000000	 62.555193 
604.000000	 62.459421 
603.000000	 62.357568 
602.000000	 62.270522 
601.000000	 62.213730 
600.000000	 62.194323 
599.000000	 62.209081 
598.000000	 62.247586 
597.000000	 62.293863 
596.000000	 62.332034 
595.000000	 62.349271 
594.000000	 62.338662 
593.000000	 62.300348 
592.000000	 62.239646 
591.000000	 62.166571 
590.000000	 62.091779 
589.000000	 62.025547 
588.000000	 61.974859 
587.000000	 61.943364 
586.000000	 61.931085 
585.000000	 61.935496 
584.000000	 61.952924 
583.000000	 61.979413 
582.000000	 62.011837 
581.000000	 62.048482 
580.000000	 62.088894 
579.000000	 62.134909 
578.000000	 62.189006 
577.000000	 62.253046 
576.000000	 62.325954 
575.000000	 62.403011 
574.000000	 62.475347 
573.000000	 62.530684 
572.000000	 62.556290 
571.000000	 62.542629 
570.000000	 62.486147 
569.000000	 62.392330 
568.000000	 62.274026 
567.000000	 62.149167 
566.000000	 62.036561 
565.000000	 61.952161 
564.000000	 61.905193 
563.000000	 61.896896 
562.000000	 61.920833 
561.000000	 61.964917 
560.000000	 62.016177 
559.000000	 62.064719 
558.000000	 62.105321 
557.000000	 62.137722 
556.000000	 62.164306 
555.000000	 62.187457 
554.000000	 62.207460 
553.000000	 62.221407 
552.000000	 62.223863 
551.000000	 62.208056 
550.000000	 62.170076 
549.000000	 62.109708 
548.000000	 62.028646 
547.000000	 61.931061 
546.000000	 61.822271 
545.000000	 61.709403 
544.000000	 61.600160 
543.000000	 61.503767 
542.000000	 61.431097 
541.000000	 61.392045 
540.000000	 61.395025 
539.000000	 61.441731 
538.000000	 61.526608 
537.000000	 61.634087 
536.000000	 61.741495 
535.000000	 61.821722 
534.000000	 61.847496 
533.000000	 61.800718 
532.000000	 61.677074 
531.000000	 61.489081 
530.000000	 61.263108 
529.000000	 61.037063 
528.000000	 60.852241 
527.000000	 60.745072 
526.000000	 60.739421 
525.000000	 60.844564 
524.000000	 61.054158 
523.000000	 61.349344 
522.000000	 61.702847 
521.000000	 62.083530 
520.000000	 62.461328 
519.000000	 62.810850 
518.000000	 63.113403 
517.000000	 63.356494 
516.000000	 63.533210 
515.000000	 63.643407 
514.000000	 63.688659 
513.000000	 63.675594 
512.000000	 63.607382 
511.000000	 63.492202 
510.000000	 63.331174 
509.000000	 63.123941 
508.000000	 62.865447 
507.000000	 62.553286 
506.000000	 62.188506 
505.000000	 61.780548 
504.000000	 61.348176 
503.000000	 60.919284 
502.000000	 60.525035 
501.000000	 60.194635 
500.000000	 59.949111 
499.000000	 59.797644 
498.000000	 59.738993 
497.000000	 59.763860 
496.000000	 59.859037 
495.000000	 60.011506 
494.000000	 60.210633 
493.000000	 60.448193 
492.000000	 60.714340 
491.000000	 60.996174 
490.000000	 61.274099 
489.000000	 61.525011 
488.000000	 61.721277 
487.000000	 61.841201 
486.000000	 61.875653 
485.000000	 61.831736 
484.000000	 61.734819 
483.000000	 61.621546 
482.000000	 61.532807 
481.000000	 61.501932 
480.000000	 61.546921 
479.000000	 61.666893 
478.000000	 61.844229 
477.000000	 62.049341 
476.000000	 62.251138 
475.000000	 62.420392 
474.000000	 62.536263 
473.000000	 62.589740 
472.000000	 62.584209 
471.000000	 62.531208 
470.000000	 62.446737 
469.000000	 62.349581 
468.000000	 62.257099 
467.000000	 62.182211 
466.000000	 62.132024 
465.000000	 62.109637 
464.000000	 62.114119 
463.000000	 62.143087 
462.000000	 62.192511 
461.000000	 62.256884 
460.000000	 62.329077 
459.000000	 62.403845 
458.000000	 62.473106 
457.000000	 62.526464 
456.000000	 62.550187 
455.000000	 62.529540 
454.000000	 62.451481 
453.000000	 62.307691 
452.000000	 62.100243 
451.000000	 61.842346 
450.000000	 61.561918 
449.000000	 61.297821 
448.000000	 61.091542 
447.000000	 60.978651 
446.000000	 60.979390 
445.000000	 61.093378 
444.000000	 61.303377 
443.000000	 61.579775 
442.000000	 61.884450 
441.000000	 62.179732 
440.000000	 62.439322 
439.000000	 62.649846 
438.000000	 62.808322 
437.000000	 62.917208 
436.000000	 62.980937 
435.000000	 62.998366 
434.000000	 62.964463 
433.000000	 62.868404 
432.000000	 62.694764 
431.000000	 62.436413 
430.000000	 62.101626 
429.000000	 61.721181 
428.000000	 61.344766 
427.000000	 61.037039 
426.000000	 60.865044 
425.000000	 60.881114 
424.000000	 61.108279 
423.000000	 61.531472 
422.000000	 62.100648 
421.000000	 62.728595 
420.000000	 63.306546 
419.000000	 63.727998 
418.000000	 63.910317 
417.000000	 63.801121 
416.000000	 63.387107 
415.000000	 62.695312 
414.000000	 61.786746 
413.000000	 60.740542 
412.000000	 59.648013 
411.000000	 58.588075 
410.000000	 57.636523 
409.000000	 56.878185 
408.000000	 56.395912 
407.000000	 56.254649 
406.000000	 56.492805 
405.000000	 57.108592 
404.000000	 58.054661 
403.000000	 59.229731 
402.000000	 60.503363 
401.000000	 61.713051 
400.000000	 62.727451 
399.000000	 63.469552 
398.000000	 63.934540 
397.000000	 64.168810 
396.000000	 64.285469 
395.000000	 64.432287 
394.000000	 64.754438 
393.000000	 65.355730 
392.000000	 66.280913 
391.000000	 67.498946 
390.000000	 68.929100 
389.000000	 70.442724 
388.000000	 71.878504 
387.000000	 73.045396 
386.000000	 73.749518 
385.000000	 73.807215 
384.000000	 73.050045 
383.000000	 71.377968 
382.000000	 68.801259 
381.000000	 65.477156 
380.000000	 61.672520 
379.000000	 57.786059 
378.000000	 54.289126 
377.000000	 51.677680 
376.000000	 50.320029 
375.000000	 50.485348 
374.000000	 52.277588 
373.000000	 55.647540 
372.000000	 60.391592 
371.000000	 66.166162 
370.000000	 72.519707 

