PE IR       SPECTRUM    SPECTRUM    ASCII       PEDS        1.60        
  -1
BZ6CA0~1.ASC
17/04/07
16:01:17.00
17/04/07
16:01:17.00
tln
$BZ1503107-1_t0034$<tbV0>[13.0,-5.2,8.0,0.0,27,1,0]
370.000000
64









2002,4.07    
MIRTGS : RIGHTBACK : INTERNAL 2
MIR : ON : INTERNAL 2
OPTKBR

0.200000
8
8.000000
FILLER
RATIO
SPECTRUM
UNLOCKED 256

DOUBLE
64
COMBINED
1
0
0


1.000000
RATIO


1
0
TRUE
51149
0
LEFT NOT FITTED RIGHT NOT FITTED 0
NONE
NONE
15600
12.000000
4.427000
51148
TRUE
1 0 8 72 0 0 0 0 

15798.010000






#HDR
-1
-1
#GR
CM-1
%T
0.00002384185791015625
0.0
5000.000000
-1.000000
4631
8
85.139369
46.016383
#DATA
5000.000000	65.550971 
4999.000000	65.454792 
4998.000000	65.355420 
4997.000000	65.262627 
4996.000000	65.182232 
4995.000000	65.116906 
4994.000000	65.065693 
4993.000000	65.026164 
4992.000000	64.995026 
4991.000000	64.969921 
4990.000000	64.949226 
4989.000000	64.931130 
4988.000000	64.914536 
4987.000000	64.898490 
4986.000000	64.881443 
4985.000000	64.860701 
4984.000000	64.833617 
4983.000000	64.798116 
4982.000000	64.753222 
4981.000000	64.699506 
4980.000000	64.639163 
4979.000000	64.575934 
4978.000000	64.514064 
4977.000000	64.458179 
4976.000000	64.412426 
4975.000000	64.380621 
4974.000000	64.364862 
4973.000000	64.366626 
4972.000000	64.386129 
4971.000000	64.423060 
4970.000000	64.476132 
4969.000000	64.543628 
4968.000000	64.622640 
4967.000000	64.709091 
4966.000000	64.798092 
4965.000000	64.883041 
4964.000000	64.956164 
4963.000000	65.009450 
4962.000000	65.036392 
4961.000000	65.032625 
4960.000000	64.997196 
4959.000000	64.933681 
4958.000000	64.850378 
4957.000000	64.758467 
4956.000000	64.670062 
4955.000000	64.596128 
4954.000000	64.544296 
4953.000000	64.516878 
4952.000000	64.511203 
4951.000000	64.520239 
4950.000000	64.535570 
4949.000000	64.549779 
4948.000000	64.559221 
4947.000000	64.564418 
4946.000000	64.569950 
4945.000000	64.582419 
4944.000000	64.607667 
4943.000000	64.647698 
4942.000000	64.699912 
4941.000000	64.756536 
4940.000000	64.807224 
4939.000000	64.841580 
4938.000000	64.853048 
4937.000000	64.840674 
4936.000000	64.810514 
4935.000000	64.774107 
4934.000000	64.745712 
4933.000000	64.738321 
4932.000000	64.759993 
4931.000000	64.811491 
4930.000000	64.886021 
4929.000000	64.971041 
4928.000000	65.051507 
4927.000000	65.113663 
4926.000000	65.148210 
4925.000000	65.151882 
4924.000000	65.127468 
4923.000000	65.082001 
4922.000000	65.023851 
4921.000000	64.960169 
4920.000000	64.895272 
4919.000000	64.830684 
4918.000000	64.765882 
4917.000000	64.700484 
4916.000000	64.636254 
4915.000000	64.578175 
4914.000000	64.533948 
4913.000000	64.512872 
4912.000000	64.522981 
4911.000000	64.568758 
4910.000000	64.648437 
4909.000000	64.754438 
4908.000000	64.873766 
4907.000000	64.991116 
4906.000000	65.091991 
4905.000000	65.165185 
4904.000000	65.204954 
4903.000000	65.210628 
4902.000000	65.185952 
4901.000000	65.137124 
4900.000000	65.071010 
4899.000000	64.994192 
4898.000000	64.912152 
4897.000000	64.829850 
4896.000000	64.751648 
4895.000000	64.681577 
4894.000000	64.623522 
4893.000000	64.580464 
4892.000000	64.555263 
4891.000000	64.549326 
4890.000000	64.563751 
4889.000000	64.597749 
4888.000000	64.650321 
4887.000000	64.719295 
4886.000000	64.802336 
4885.000000	64.896273 
4884.000000	64.997577 
4883.000000	65.102100 
4882.000000	65.205025 
4881.000000	65.300965 
4880.000000	65.384101 
4879.000000	65.449261 
4878.000000	65.491962 
4877.000000	65.509462 
4876.000000	65.501236 
4875.000000	65.469527 
4874.000000	65.419101 
4873.000000	65.357041 
4872.000000	65.292382 
4871.000000	65.234684 
4870.000000	65.193367 
4869.000000	65.175056 
4868.000000	65.182447 
4867.000000	65.212774 
4866.000000	65.258789 
4865.000000	65.309596 
4864.000000	65.352869 
4863.000000	65.377545 
4862.000000	65.376114 
4861.000000	65.346288 
4860.000000	65.291047 
4859.000000	65.217971 
4858.000000	65.136957 
4857.000000	65.058207 
4856.000000	64.990162 
4855.000000	64.937543 
4854.000000	64.901185 
4853.000000	64.878368 
4852.000000	64.864516 
4851.000000	64.854741 
4850.000000	64.845395 
4849.000000	64.835405 
4848.000000	64.826393 
4847.000000	64.821910 
4846.000000	64.826035 
4845.000000	64.842319 
4844.000000	64.872097 
4843.000000	64.914131 
4842.000000	64.964032 
4841.000000	65.015196 
4840.000000	65.059709 
4839.000000	65.090012 
4838.000000	65.100860 
4837.000000	65.090346 
4836.000000	65.060353 
4835.000000	65.016031 
4834.000000	64.964842 
4833.000000	64.914560 
4832.000000	64.872050 
4831.000000	64.841723 
4830.000000	64.825630 
4829.000000	64.823436 
4828.000000	64.833402 
4827.000000	64.853286 
4826.000000	64.881038 
4825.000000	64.914965 
4824.000000	64.954018 
4823.000000	64.997339 
4822.000000	65.044307 
4821.000000	65.093660 
4820.000000	65.144038 
4819.000000	65.193343 
4818.000000	65.239405 
4817.000000	65.279412 
4816.000000	65.310716 
4815.000000	65.330219 
4814.000000	65.334820 
4813.000000	65.321898 
4812.000000	65.289545 
4811.000000	65.237951 
4810.000000	65.169954 
4809.000000	65.091323 
4808.000000	65.010666 
4807.000000	64.937758 
4806.000000	64.882016 
4805.000000	64.850282 
4804.000000	64.845490 
4803.000000	64.865636 
4802.000000	64.903903 
4801.000000	64.950346 
4800.000000	64.994287 
4799.000000	65.026545 
4798.000000	65.041303 
4797.000000	65.037322 
4796.000000	65.017724 
4795.000000	64.988636 
4794.000000	64.957404 
4793.000000	64.930319 
4792.000000	64.910936 
4791.000000	64.900016 
4790.000000	64.895319 
4789.000000	64.892959 
4788.000000	64.888739 
4787.000000	64.879012 
4786.000000	64.862036 
4785.000000	64.838004 
4784.000000	64.809751 
4783.000000	64.781188 
4782.000000	64.757490 
4781.000000	64.743399 
4780.000000	64.742660 
4779.000000	64.757585 
4778.000000	64.788246 
4777.000000	64.832496 
4776.000000	64.886426 
4775.000000	64.944887 
4774.000000	65.002322 
4773.000000	65.053558 
4772.000000	65.094852 
4771.000000	65.124440 
4770.000000	65.142321 
4769.000000	65.150022 
4768.000000	65.149569 
4767.000000	65.142798 
4766.000000	65.130972 
4765.000000	65.115213 
4764.000000	65.096974 
4763.000000	65.079092 
4762.000000	65.066146 
4761.000000	65.063953 
4760.000000	65.078186 
4759.000000	65.112709 
4758.000000	65.168428 
4757.000000	65.241575 
4756.000000	65.324258 
4755.000000	65.404772 
4754.000000	65.470385 
4753.000000	65.508890 
4752.000000	65.511488 
4751.000000	65.474057 
4750.000000	65.398573 
4749.000000	65.292286 
4748.000000	65.166187 
4747.000000	65.033531 
4746.000000	64.907813 
4745.000000	64.800906 
4744.000000	64.721870 
4743.000000	64.676237 
4742.000000	64.665913 
4741.000000	64.688229 
4740.000000	64.736890 
4739.000000	64.802312 
4738.000000	64.873695 
4737.000000	64.940929 
4736.000000	64.996290 
4735.000000	65.035319 
4734.000000	65.057110 
4733.000000	65.063810 
4732.000000	65.059542 
4731.000000	65.048551 
4730.000000	65.034341 
4729.000000	65.019607 
4728.000000	65.005636 
4727.000000	64.993190 
4726.000000	64.982652 
4725.000000	64.975118 
4724.000000	64.972352 
4723.000000	64.975857 
4722.000000	64.988017 
4721.000000	65.010643 
4720.000000	65.045952 
4719.000000	65.094900 
4718.000000	65.159153 
4717.000000	65.240049 
4716.000000	65.338635 
4715.000000	65.454697 
4714.000000	65.584635 
4713.000000	65.720701 
4712.000000	65.851211 
4711.000000	65.961742 
4710.000000	66.038036 
4709.000000	66.068530 
4708.000000	66.048049 
4707.000000	65.978574 
4706.000000	65.869808 
4705.000000	65.736603 
4704.000000	65.596318 
4703.000000	65.464663 
4702.000000	65.353775 
4701.000000	65.269446 
4700.000000	65.211868 
4699.000000	65.176081 
4698.000000	65.154647 
4697.000000	65.139627 
4696.000000	65.124845 
4695.000000	65.106821 
4694.000000	65.084075 
4693.000000	65.057563 
4692.000000	65.028142 
4691.000000	64.997649 
4690.000000	64.967203 
4689.000000	64.938259 
4688.000000	64.912128 
4687.000000	64.890289 
4686.000000	64.874196 
4685.000000	64.864897 
4684.000000	64.862585 
4683.000000	64.866852 
4682.000000	64.876484 
4681.000000	64.889264 
4680.000000	64.902257 
4679.000000	64.912390 
4678.000000	64.917063 
4677.000000	64.913988 
4676.000000	64.902758 
4675.000000	64.884614 
4674.000000	64.862799 
4673.000000	64.842104 
4672.000000	64.828014 
4671.000000	64.825153 
4670.000000	64.837002 
4669.000000	64.864873 
4668.000000	64.907765 
4667.000000	64.962244 
4666.000000	65.023708 
4665.000000	65.086960 
4664.000000	65.147805 
4663.000000	65.203785 
4662.000000	65.254306 
4661.000000	65.300083 
4660.000000	65.342116 
4659.000000	65.380883 
4658.000000	65.415787 
4657.000000	65.444874 
4656.000000	65.465712 
4655.000000	65.475630 
4654.000000	65.473675 
4653.000000	65.460014 
4652.000000	65.436124 
4651.000000	65.403723 
4650.000000	65.364766 
4649.000000	65.320348 
4648.000000	65.270948 
4647.000000	65.216708 
4646.000000	65.158319 
4645.000000	65.097332 
4644.000000	65.036821 
4643.000000	64.980673 
4642.000000	64.933347 
4641.000000	64.898085 
4640.000000	64.876079 
4639.000000	64.865589 
4638.000000	64.861941 
4637.000000	64.858889 
4636.000000	64.850258 
4635.000000	64.831542 
4634.000000	64.801073 
4633.000000	64.761352 
4632.000000	64.718699 
4631.000000	64.681124 
4630.000000	64.656448 
4629.000000	64.650511 
4628.000000	64.665913 
4627.000000	64.700818 
4626.000000	64.749836 
4625.000000	64.805150 
4624.000000	64.858508 
4623.000000	64.902973 
4622.000000	64.934420 
4621.000000	64.951825 
4620.000000	64.957284 
4619.000000	64.954829 
4618.000000	64.949512 
4617.000000	64.945554 
4616.000000	64.945650 
4615.000000	64.951300 
4614.000000	64.961409 
4613.000000	64.973521 
4612.000000	64.983558 
4611.000000	64.987921 
4610.000000	64.982342 
4609.000000	64.963150 
4608.000000	64.927458 
4607.000000	64.874005 
4606.000000	64.803504 
4605.000000	64.718818 
4604.000000	64.625334 
4603.000000	64.530563 
4602.000000	64.443135 
4601.000000	64.371633 
4600.000000	64.323282 
4599.000000	64.302682 
4598.000000	64.310836 
4597.000000	64.344978 
4596.000000	64.398765 
4595.000000	64.463663 
4594.000000	64.529919 
4593.000000	64.589071 
4592.000000	64.633941 
4591.000000	64.661240 
4590.000000	64.671325 
4589.000000	64.668369 
4588.000000	64.658665 
4587.000000	64.649462 
4586.000000	64.647245 
4585.000000	64.656114 
4584.000000	64.677405 
4583.000000	64.708852 
4582.000000	64.745855 
4581.000000	64.782428 
4580.000000	64.813113 
4579.000000	64.834237 
4578.000000	64.844989 
4577.000000	64.847803 
4576.000000	64.847445 
4575.000000	64.849376 
4574.000000	64.858055 
4573.000000	64.876484 
4572.000000	64.904880 
4571.000000	64.940977 
4570.000000	64.980149 
4569.000000	65.017557 
4568.000000	65.048289 
4567.000000	65.068387 
4566.000000	65.075159 
4565.000000	65.067267 
4564.000000	65.045022 
4563.000000	65.010404 
4562.000000	64.966678 
4561.000000	64.917802 
4560.000000	64.867925 
4559.000000	64.821338 
4558.000000	64.781260 
4557.000000	64.749503 
4556.000000	64.726614 
4555.000000	64.712142 
4554.000000	64.704847 
4553.000000	64.703083 
4552.000000	64.706683 
4551.000000	64.717197 
4550.000000	64.737367 
4549.000000	64.770293 
4548.000000	64.818406 
4547.000000	64.882135 
4546.000000	64.959216 
4545.000000	65.044045 
4544.000000	65.128946 
4543.000000	65.204691 
4542.000000	65.263438 
4541.000000	65.298986 
4540.000000	65.307879 
4539.000000	65.289473 
4538.000000	65.246319 
4537.000000	65.183186 
4536.000000	65.107154 
4535.000000	65.025568 
4534.000000	64.946627 
4533.000000	64.876317 
4532.000000	64.818739 
4531.000000	64.774060 
4530.000000	64.739513 
4529.000000	64.708995 
4528.000000	64.674878 
4527.000000	64.629459 
4526.000000	64.567208 
4525.000000	64.486575 
4524.000000	64.390945 
4523.000000	64.288783 
4522.000000	64.192366 
4521.000000	64.116072 
4520.000000	64.073443 
4519.000000	64.074301 
4518.000000	64.122486 
4517.000000	64.214491 
4516.000000	64.339876 
4515.000000	64.482903 
4514.000000	64.625787 
4513.000000	64.751553 
4512.000000	64.847731 
4511.000000	64.907288 
4510.000000	64.930033 
4509.000000	64.921283 
4508.000000	64.890003 
4507.000000	64.846062 
4506.000000	64.797878 
4505.000000	64.751529 
4504.000000	64.709544 
4503.000000	64.672660 
4502.000000	64.639306 
4501.000000	64.607572 
4500.000000	64.575982 
4499.000000	64.544796 
4498.000000	64.515924 
4497.000000	64.492678 
4496.000000	64.478874 
4495.000000	64.477920 
4494.000000	64.491105 
4493.000000	64.517784 
4492.000000	64.555764 
4491.000000	64.602303 
4490.000000	64.654469 
4489.000000	64.709711 
4488.000000	64.767241 
4487.000000	64.826035 
4486.000000	64.884161 
4485.000000	64.937210 
4484.000000	64.978170 
4483.000000	64.998388 
4482.000000	64.990496 
4481.000000	64.949607 
4480.000000	64.875721 
4479.000000	64.774322 
4478.000000	64.656758 
4477.000000	64.537286 
4476.000000	64.431118 
4475.000000	64.349651 
4474.000000	64.298343 
4473.000000	64.276146 
4472.000000	64.276814 
4471.000000	64.291167 
4470.000000	64.310264 
4469.000000	64.330244 
4468.000000	64.353942 
4467.000000	64.388275 
4466.000000	64.442348 
4465.000000	64.525008 
4464.000000	64.641594 
4463.000000	64.790487 
4462.000000	64.961838 
4461.000000	65.143847 
4460.000000	65.319919 
4459.000000	65.468382 
4458.000000	65.568161 
4457.000000	65.604329 
4456.000000	65.571451 
4455.000000	65.475869 
4454.000000	65.334630 
4453.000000	65.172934 
4452.000000	65.017724 
4451.000000	64.892292 
4450.000000	64.812397 
4449.000000	64.782094 
4448.000000	64.800047 
4447.000000	64.863634 
4446.000000	64.968776 
4445.000000	65.109133 
4444.000000	65.289068 
4443.000000	65.521931 
4442.000000	65.816783 
4441.000000	66.174793 
4440.000000	66.581511 
4439.000000	67.014265 
4438.000000	67.444109 
4437.000000	67.852497 
4436.000000	68.243980 
4435.000000	68.645071 
4434.000000	69.109344 
4433.000000	69.685459 
4432.000000	70.395827 
4431.000000	71.217751 
4430.000000	72.075772 
4429.000000	72.861623 
4428.000000	73.465132 
4427.000000	73.799014 
4426.000000	73.843336 
4425.000000	73.623633 
4424.000000	73.220348 
4423.000000	72.711491 
4422.000000	72.161746 
4421.000000	71.571755 
4420.000000	70.883846 
4419.000000	69.992899 
4418.000000	68.790459 
4417.000000	67.211055 
4416.000000	65.276050 
4415.000000	63.112282 
4414.000000	60.943317 
4413.000000	59.050178 
4412.000000	57.712793 
4411.000000	57.134008 
4410.000000	57.395458 
4409.000000	58.432960 
4408.000000	60.054421 
4407.000000	61.973953 
4406.000000	63.884544 
4405.000000	65.519809 
4404.000000	66.710400 
4403.000000	67.391633 
4402.000000	67.612648 
4401.000000	67.490983 
4400.000000	67.181563 
4399.000000	66.823053 
4398.000000	66.512823 
4397.000000	66.299843 
4396.000000	66.180038 
4395.000000	66.131806 
4394.000000	66.115140 
4393.000000	66.103219 
4392.000000	66.079592 
4391.000000	66.047120 
4390.000000	66.013193 
4389.000000	65.982794 
4388.000000	65.957117 
4387.000000	65.930533 
4386.000000	65.891909 
4385.000000	65.827727 
4384.000000	65.734505 
4383.000000	65.617704 
4382.000000	65.485715 
4381.000000	65.349364 
4380.000000	65.219259 
4379.000000	65.104126 
4378.000000	65.006923 
4377.000000	64.928388 
4376.000000	64.866876 
4375.000000	64.821767 
4374.000000	64.799571 
4373.000000	64.806199 
4372.000000	64.839243 
4371.000000	64.893174 
4370.000000	64.959573 
4369.000000	65.028262 
4368.000000	65.089178 
4367.000000	65.134096 
4366.000000	65.157318 
4365.000000	65.157914 
4364.000000	65.139698 
4363.000000	65.108370 
4362.000000	65.069842 
4361.000000	65.028142 
4360.000000	64.984869 
4359.000000	64.939951 
4358.000000	64.893054 
4357.000000	64.845561 
4356.000000	64.801049 
4355.000000	64.764928 
4354.000000	64.743113 
4353.000000	64.739727 
4352.000000	64.756250 
4351.000000	64.789938 
4350.000000	64.835000 
4349.000000	64.883804 
4348.000000	64.928960 
4347.000000	64.964413 
4346.000000	64.987754 
4345.000000	65.000200 
4344.000000	65.006566 
4343.000000	65.013599 
4342.000000	65.027999 
4341.000000	65.054655 
4340.000000	65.094566 
4339.000000	65.144681 
4338.000000	65.198063 
4337.000000	65.245747 
4336.000000	65.278697 
4335.000000	65.289926 
4334.000000	65.275812 
4333.000000	65.236973 
4332.000000	65.177154 
4331.000000	65.102291 
4330.000000	65.019440 
4329.000000	64.935398 
4328.000000	64.855790 
4327.000000	64.784479 
4326.000000	64.724493 
4325.000000	64.677047 
4324.000000	64.642238 
4323.000000	64.619183 
4322.000000	64.605617 
4321.000000	64.599037 
4320.000000	64.596629 
4319.000000	64.596152 
4318.000000	64.595437 
4317.000000	64.593768 
4316.000000	64.591097 
4315.000000	64.588332 
4314.000000	64.586281 
4313.000000	64.586186 
4312.000000	64.588975 
4311.000000	64.595556 
4310.000000	64.606285 
4309.000000	64.621567 
4308.000000	64.641785 
4307.000000	64.667463 
4306.000000	64.699029 
4305.000000	64.736580 
4304.000000	64.779448 
4303.000000	64.825940 
4302.000000	64.873647 
4301.000000	64.919185 
4300.000000	64.958715 
4299.000000	64.989280 
4298.000000	65.008521 
4297.000000	65.014982 
4296.000000	65.008258 
4295.000000	64.989781 
4294.000000	64.962291 
4293.000000	64.929461 
4292.000000	64.895415 
4291.000000	64.864373 
4290.000000	64.839529 
4289.000000	64.822912 
4288.000000	64.814496 
4287.000000	64.812445 
4286.000000	64.813899 
4285.000000	64.815926 
4284.000000	64.816427 
4283.000000	64.814710 
4282.000000	64.812159 
4281.000000	64.811658 
4280.000000	64.816856 
4279.000000	64.830827 
4278.000000	64.855170 
4277.000000	64.889597 
4276.000000	64.931368 
4275.000000	64.976406 
4274.000000	65.020513 
4273.000000	65.060639 
4272.000000	65.095710 
4271.000000	65.126657 
4270.000000	65.156149 
4269.000000	65.186524 
4268.000000	65.219473 
4267.000000	65.253543 
4266.000000	65.285086 
4265.000000	65.307712 
4264.000000	65.314722 
4263.000000	65.300440 
4262.000000	65.262103 
4261.000000	65.201115 
4260.000000	65.123558 
4259.000000	65.038752 
4258.000000	64.957332 
4257.000000	64.889001 
4256.000000	64.840626 
4255.000000	64.814519 
4254.000000	64.808297 
4253.000000	64.815998 
4252.000000	64.829850 
4251.000000	64.842343 
4250.000000	64.848589 
4249.000000	64.846539 
4248.000000	64.837694 
4247.000000	64.825940 
4246.000000	64.816451 
4245.000000	64.813280 
4244.000000	64.818811 
4243.000000	64.833211 
4242.000000	64.854598 
4241.000000	64.879846 
4240.000000	64.905452 
4239.000000	64.928770 
4238.000000	64.948630 
4237.000000	64.964962 
4236.000000	64.979100 
4235.000000	64.992642 
4234.000000	65.007495 
4233.000000	65.024995 
4232.000000	65.046167 
4231.000000	65.071630 
4230.000000	65.101861 
4229.000000	65.137147 
4228.000000	65.176963 
4227.000000	65.219879 
4226.000000	65.263414 
4225.000000	65.304112 
4224.000000	65.337777 
4223.000000	65.360069 
4222.000000	65.367674 
4221.000000	65.359091 
4220.000000	65.334725 
4219.000000	65.297079 
4218.000000	65.250515 
4217.000000	65.200161 
4216.000000	65.151238 
4215.000000	65.108108 
4214.000000	65.073943 
4213.000000	65.050554 
4212.000000	65.038084 
4211.000000	65.035605 
4210.000000	65.041446 
4209.000000	65.053606 
4208.000000	65.070176 
4207.000000	65.089416 
4206.000000	65.109133 
4205.000000	65.127396 
4204.000000	65.142250 
4203.000000	65.152049 
4202.000000	65.155482 
4201.000000	65.152215 
4200.000000	65.143299 
4199.000000	65.130734 
4198.000000	65.117335 
4197.000000	65.106225 
4196.000000	65.100288 
4195.000000	65.101265 
4194.000000	65.109896 
4193.000000	65.125608 
4192.000000	65.147280 
4191.000000	65.173339 
4190.000000	65.202188 
4189.000000	65.232872 
4188.000000	65.264725 
4187.000000	65.297532 
4186.000000	65.330576 
4185.000000	65.362620 
4184.000000	65.391445 
4183.000000	65.414357 
4182.000000	65.428328 
4181.000000	65.431022 
4180.000000	65.421128 
4179.000000	65.399122 
4178.000000	65.366649 
4177.000000	65.326285 
4176.000000	65.281295 
4175.000000	65.235233 
4174.000000	65.191483 
4173.000000	65.152788 
4172.000000	65.121459 
4171.000000	65.099167 
4170.000000	65.086746 
4169.000000	65.084004 
4168.000000	65.089511 
4167.000000	65.100884 
4166.000000	65.114903 
4165.000000	65.128469 
4164.000000	65.138769 
4163.000000	65.144252 
4162.000000	65.144944 
4161.000000	65.142035 
4160.000000	65.137481 
4159.000000	65.132617 
4158.000000	65.127682 
4157.000000	65.121459 
4156.000000	65.111112 
4155.000000	65.094375 
4154.000000	65.070676 
4153.000000	65.042591 
4152.000000	65.015602 
4151.000000	64.997816 
4150.000000	64.997720 
4149.000000	65.021896 
4148.000000	65.072870 
4147.000000	65.147972 
4146.000000	65.239596 
4145.000000	65.336608 
4144.000000	65.426945 
4143.000000	65.499567 
4142.000000	65.546965 
4141.000000	65.566635 
4140.000000	65.560984 
4139.000000	65.535998 
4138.000000	65.499210 
4137.000000	65.458369 
4136.000000	65.419363 
4135.000000	65.386176 
4134.000000	65.359830 
4133.000000	65.340089 
4132.000000	65.325307 
4131.000000	65.314078 
4130.000000	65.305376 
4129.000000	65.298438 
4128.000000	65.293288 
4127.000000	65.290069 
4126.000000	65.288949 
4125.000000	65.289473 
4124.000000	65.291094 
4123.000000	65.292930 
4122.000000	65.294003 
4121.000000	65.293502 
4120.000000	65.291380 
4119.000000	65.288424 
4118.000000	65.286469 
4117.000000	65.288090 
4116.000000	65.296268 
4115.000000	65.313792 
4114.000000	65.342450 
4113.000000	65.382027 
4112.000000	65.430283 
4111.000000	65.482521 
4110.000000	65.532112 
4109.000000	65.571212 
4108.000000	65.592718 
4107.000000	65.591073 
4106.000000	65.564298 
4105.000000	65.513873 
4104.000000	65.444946 
4103.000000	65.364933 
4102.000000	65.282773 
4101.000000	65.206527 
4100.000000	65.142202 
4099.000000	65.092658 
4098.000000	65.057706 
4097.000000	65.034627 
4096.000000	65.019249 
4095.000000	65.007543 
4094.000000	64.996552 
4093.000000	64.985370 
4092.000000	64.974832 
4091.000000	64.967060 
4090.000000	64.964294 
4089.000000	64.967799 
4088.000000	64.977478 
4087.000000	64.991569 
4086.000000	65.007448 
4085.000000	65.022587 
4084.000000	65.035319 
4083.000000	65.045475 
4082.000000	65.054297 
4081.000000	65.063905 
4080.000000	65.076446 
4079.000000	65.092849 
4078.000000	65.112733 
4077.000000	65.134334 
4076.000000	65.155172 
4075.000000	65.172839 
4074.000000	65.185713 
4073.000000	65.193581 
4072.000000	65.197396 
4071.000000	65.199398 
4070.000000	65.201473 
4069.000000	65.204501 
4068.000000	65.208435 
4067.000000	65.212249 
4066.000000	65.214729 
4065.000000	65.215086 
4064.000000	65.213871 
4063.000000	65.212869 
4062.000000	65.214729 
4061.000000	65.221929 
4060.000000	65.235590 
4059.000000	65.254950 
4058.000000	65.277266 
4057.000000	65.298271 
4056.000000	65.313649 
4055.000000	65.319919 
4054.000000	65.315580 
4053.000000	65.301275 
4052.000000	65.279793 
4051.000000	65.255117 
4050.000000	65.231299 
4049.000000	65.211963 
4048.000000	65.198802 
4047.000000	65.192437 
4046.000000	65.192484 
4045.000000	65.198230 
4044.000000	65.209174 
4043.000000	65.224933 
4042.000000	65.245556 
4041.000000	65.270400 
4040.000000	65.297889 
4039.000000	65.325093 
4038.000000	65.348124 
4037.000000	65.362524 
4036.000000	65.364408 
4035.000000	65.351366 
4034.000000	65.323328 
4033.000000	65.282917 
4032.000000	65.235185 
4031.000000	65.186786 
4030.000000	65.144777 
4029.000000	65.115571 
4028.000000	65.103268 
4027.000000	65.109252 
4026.000000	65.131783 
4025.000000	65.166497 
4024.000000	65.207362 
4023.000000	65.247869 
4022.000000	65.282201 
4021.000000	65.305876 
4020.000000	65.316605 
4019.000000	65.314173 
4018.000000	65.300393 
4017.000000	65.278410 
4016.000000	65.252065 
4015.000000	65.225195 
4014.000000	65.200901 
4013.000000	65.181374 
4012.000000	65.167522 
4011.000000	65.159225 
4010.000000	65.155243 
4009.000000	65.153694 
4008.000000	65.152382 
4007.000000	65.149641 
4006.000000	65.144252 
4005.000000	65.136361 
4004.000000	65.127348 
4003.000000	65.119791 
4002.000000	65.116763 
4001.000000	65.121078 
4000.000000	65.134239 
3999.000000	65.155792 
3998.000000	65.183520 
3997.000000	65.213203 
3996.000000	65.239596 
3995.000000	65.257453 
3994.000000	65.263104 
3993.000000	65.254974 
3992.000000	65.234160 
3991.000000	65.203881 
3990.000000	65.168666 
3989.000000	65.133213 
3988.000000	65.101385 
3987.000000	65.075397 
3986.000000	65.055513 
3985.000000	65.040779 
3984.000000	65.029573 
3983.000000	65.020585 
3982.000000	65.013289 
3981.000000	65.007948 
3980.000000	65.005445 
3979.000000	65.006279 
3978.000000	65.010547 
3977.000000	65.017294 
3976.000000	65.025019 
3975.000000	65.031790 
3974.000000	65.036487 
3973.000000	65.039229 
3972.000000	65.041780 
3971.000000	65.047383 
3970.000000	65.059685 
3969.000000	65.081691 
3968.000000	65.114736 
3967.000000	65.157604 
3966.000000	65.206265 
3965.000000	65.254664 
3964.000000	65.295672 
3963.000000	65.323019 
3962.000000	65.332269 
3961.000000	65.321922 
3960.000000	65.293693 
3959.000000	65.252089 
3958.000000	65.202999 
3957.000000	65.152597 
3956.000000	65.106105 
3955.000000	65.067076 
3954.000000	65.036845 
3953.000000	65.014886 
3952.000000	64.999556 
3951.000000	64.988875 
3950.000000	64.981269 
3949.000000	64.975881 
3948.000000	64.972591 
3947.000000	64.972066 
3946.000000	64.974761 
3945.000000	64.981174 
3944.000000	64.991044 
3943.000000	65.003752 
3942.000000	65.018510 
3941.000000	65.034699 
3940.000000	65.051651 
3939.000000	65.069127 
3938.000000	65.086960 
3937.000000	65.104985 
3936.000000	65.122580 
3935.000000	65.139007 
3934.000000	65.153551 
3933.000000	65.165400 
3932.000000	65.174126 
3931.000000	65.179681 
3930.000000	65.182614 
3929.000000	65.183877 
3928.000000	65.184760 
3927.000000	65.186381 
3926.000000	65.189766 
3925.000000	65.195775 
3924.000000	65.205144 
3923.000000	65.218400 
3922.000000	65.235614 
3921.000000	65.256643 
3920.000000	65.280628 
3919.000000	65.306162 
3918.000000	65.330862 
3917.000000	65.351653 
3916.000000	65.365219 
3915.000000	65.369200 
3914.000000	65.362262 
3913.000000	65.344619 
3912.000000	65.318107 
3911.000000	65.286159 
3910.000000	65.252828 
3909.000000	65.222144 
3908.000000	65.197277 
3907.000000	65.180039 
3906.000000	65.171003 
3905.000000	65.169620 
3904.000000	65.174865 
3903.000000	65.185427 
3902.000000	65.200519 
3901.000000	65.219902 
3900.000000	65.243625 
3899.000000	65.271592 
3898.000000	65.303063 
3897.000000	65.336108 
3896.000000	65.367984 
3895.000000	65.394759 
3894.000000	65.412425 
3893.000000	65.416765 
3892.000000	65.404701 
3891.000000	65.374326 
3890.000000	65.325617 
3889.000000	65.260171 
3888.000000	65.181326 
3887.000000	65.093898 
3886.000000	65.003657 
3885.000000	64.917230 
3884.000000	64.841246 
3883.000000	64.782166 
3882.000000	64.745068 
3881.000000	64.733886 
3880.000000	64.750337 
3879.000000	64.793944 
3878.000000	64.861440 
3877.000000	64.947271 
3876.000000	65.043950 
3875.000000	65.143084 
3874.000000	65.236020 
3873.000000	65.314745 
3872.000000	65.372729 
3871.000000	65.405607 
3870.000000	65.411758 
3869.000000	65.392565 
3868.000000	65.351843 
3867.000000	65.295886 
3866.000000	65.232133 
3865.000000	65.168642 
3864.000000	65.112590 
3863.000000	65.069913 
3862.000000	65.044164 
3861.000000	65.036916 
3860.000000	65.047001 
3859.000000	65.071439 
3858.000000	65.105342 
3857.000000	65.142488 
3856.000000	65.176558 
3855.000000	65.201830 
3854.000000	65.214371 
3853.000000	65.212202 
3852.000000	65.196442 
3851.000000	65.170860 
3850.000000	65.141510 
3849.000000	65.115308 
3848.000000	65.098738 
3847.000000	65.096282 
3846.000000	65.109705 
3845.000000	65.137529 
3844.000000	65.175080 
3843.000000	65.215420 
3842.000000	65.251588 
3841.000000	65.277385 
3840.000000	65.288805 
3839.000000	65.284681 
3838.000000	65.265989 
3837.000000	65.235900 
3836.000000	65.198636 
3835.000000	65.158438 
3834.000000	65.118741 
3833.000000	65.082192 
3832.000000	65.050983 
3831.000000	65.026640 
3830.000000	65.010523 
3829.000000	65.003585 
3828.000000	65.006446 
3827.000000	65.018939 
3826.000000	65.039873 
3825.000000	65.066814 
3824.000000	65.095901 
3823.000000	65.122985 
3822.000000	65.143918 
3821.000000	65.155601 
3820.000000	65.156292 
3819.000000	65.145897 
3818.000000	65.125989 
3817.000000	65.099263 
3816.000000	65.069293 
3815.000000	65.040278 
3814.000000	65.016508 
3813.000000	65.001988 
3812.000000	65.000152 
3811.000000	65.013408 
3810.000000	65.042734 
3809.000000	65.087461 
3808.000000	65.144872 
3807.000000	65.210533 
3806.000000	65.278649 
3805.000000	65.342903 
3804.000000	65.397262 
3803.000000	65.436720 
3802.000000	65.458202 
3801.000000	65.461349 
3800.000000	65.447807 
3799.000000	65.421271 
3798.000000	65.386343 
3797.000000	65.348076 
3796.000000	65.310931 
3795.000000	65.278220 
3794.000000	65.251469 
3793.000000	65.230369 
3792.000000	65.212941 
3791.000000	65.195965 
3790.000000	65.175628 
3789.000000	65.148758 
3788.000000	65.113425 
3787.000000	65.070343 
3786.000000	65.022158 
3785.000000	64.973902 
3784.000000	64.931511 
3783.000000	64.901232 
3782.000000	64.887666 
3781.000000	64.893531 
3780.000000	64.918351 
3779.000000	64.959216 
3778.000000	65.011072 
3777.000000	65.068006 
3776.000000	65.124249 
3775.000000	65.174984 
3774.000000	65.216970 
3773.000000	65.248322 
3772.000000	65.268421 
3771.000000	65.277218 
3770.000000	65.274643 
3769.000000	65.260910 
3768.000000	65.236425 
3767.000000	65.202331 
3766.000000	65.160918 
3765.000000	65.115404 
3764.000000	65.069651 
3763.000000	65.027976 
3762.000000	64.994239 
3761.000000	64.970946 
3760.000000	64.959073 
3759.000000	64.957714 
3758.000000	64.964938 
3757.000000	64.977788 
3756.000000	64.993739 
3755.000000	65.010738 
3754.000000	65.028071 
3753.000000	65.045952 
3752.000000	65.065598 
3751.000000	65.087985 
3750.000000	65.113639 
3749.000000	65.141844 
3748.000000	65.170717 
3747.000000	65.197300 
3746.000000	65.218400 
3745.000000	65.231466 
3744.000000	65.235042 
3743.000000	65.229272 
3742.000000	65.215992 
3741.000000	65.198326 
3740.000000	65.180134 
3739.000000	65.165185 
3738.000000	65.156483 
3737.000000	65.155696 
3736.000000	65.163159 
3735.000000	65.177941 
3734.000000	65.198040 
3733.000000	65.220785 
3732.000000	65.243363 
3731.000000	65.263056 
3730.000000	65.277433 
3729.000000	65.284609 
3728.000000	65.283179 
3727.000000	65.272545 
3726.000000	65.253400 
3725.000000	65.227413 
3724.000000	65.197324 
3723.000000	65.166401 
3722.000000	65.138173 
3721.000000	65.115690 
3720.000000	65.101170 
3719.000000	65.095710 
3718.000000	65.099143 
3717.000000	65.110373 
3716.000000	65.127658 
3715.000000	65.149235 
3714.000000	65.173745 
3713.000000	65.200257 
3712.000000	65.228271 
3711.000000	65.257644 
3710.000000	65.287971 
3709.000000	65.318536 
3708.000000	65.347719 
3707.000000	65.373039 
3706.000000	65.390944 
3705.000000	65.397858 
3704.000000	65.390419 
3703.000000	65.366411 
3702.000000	65.325164 
3701.000000	65.268254 
3700.000000	65.199565 
3699.000000	65.125036 
3698.000000	65.052032 
3697.000000	64.988374 
3696.000000	64.940977 
3695.000000	64.914727 
3694.000000	64.911556 
3693.000000	64.930105 
3692.000000	64.966011 
3691.000000	65.012621 
3690.000000	65.062260 
3689.000000	65.107226 
3688.000000	65.141344 
3687.000000	65.160703 
3686.000000	65.164089 
3685.000000	65.153026 
3684.000000	65.131402 
3683.000000	65.104627 
3682.000000	65.078687 
3681.000000	65.058851 
3680.000000	65.049028 
3679.000000	65.051054 
3678.000000	65.064597 
3677.000000	65.087413 
3676.000000	65.115904 
3675.000000	65.146183 
3674.000000	65.174841 
3673.000000	65.199995 
3672.000000	65.221166 
3671.000000	65.239596 
3670.000000	65.257477 
3669.000000	65.276956 
3668.000000	65.299224 
3667.000000	65.323686 
3666.000000	65.348267 
3665.000000	65.369367 
3664.000000	65.382885 
3663.000000	65.385413 
3662.000000	65.375471 
3661.000000	65.353631 
3660.000000	65.322756 
3659.000000	65.287160 
3658.000000	65.251564 
3657.000000	65.220212 
3656.000000	65.195989 
3655.000000	65.179634 
3654.000000	65.170311 
3653.000000	65.166020 
3652.000000	65.164685 
3651.000000	65.164756 
3650.000000	65.165901 
3649.000000	65.168952 
3648.000000	65.175628 
3647.000000	65.187430 
3646.000000	65.204954 
3645.000000	65.227365 
3644.000000	65.252280 
3643.000000	65.275716 
3642.000000	65.293693 
3641.000000	65.303063 
3640.000000	65.302371 
3639.000000	65.292453 
3638.000000	65.276241 
3637.000000	65.257906 
3636.000000	65.241837 
3635.000000	65.231657 
3634.000000	65.229129 
3633.000000	65.234017 
3632.000000	65.244245 
3631.000000	65.256595 
3630.000000	65.267586 
3629.000000	65.274405 
3628.000000	65.275549 
3627.000000	65.270781 
3626.000000	65.260934 
3625.000000	65.247488 
3624.000000	65.232181 
3623.000000	65.216445 
3622.000000	65.201210 
3621.000000	65.187001 
3620.000000	65.174221 
3619.000000	65.163087 
3618.000000	65.153646 
3617.000000	65.145993 
3616.000000	65.140104 
3615.000000	65.136337 
3614.000000	65.135240 
3613.000000	65.137791 
3612.000000	65.144872 
3611.000000	65.157461 
3610.000000	65.176010 
3609.000000	65.200138 
3608.000000	65.228247 
3607.000000	65.257596 
3606.000000	65.284776 
3605.000000	65.306162 
3604.000000	65.318560 
3603.000000	65.319943 
3602.000000	65.309929 
3601.000000	65.289950 
3600.000000	65.263271 
3599.000000	65.234136 
3598.000000	65.207242 
3597.000000	65.186953 
3596.000000	65.176582 
3595.000000	65.177965 
3594.000000	65.191149 
3593.000000	65.214776 
3592.000000	65.245866 
3591.000000	65.280199 
3590.000000	65.313100 
3589.000000	65.339684 
3588.000000	65.356040 
3587.000000	65.359830 
3586.000000	65.350556 
3585.000000	65.329957 
3584.000000	65.301203 
3583.000000	65.268564 
3582.000000	65.236258 
3581.000000	65.207815 
3580.000000	65.185379 
3579.000000	65.169739 
3578.000000	65.160274 
3577.000000	65.155553 
3576.000000	65.153741 
3575.000000	65.153455 
3574.000000	65.153646 
3573.000000	65.153956 
3572.000000	65.154457 
3571.000000	65.155482 
3570.000000	65.157103 
3569.000000	65.159320 
3568.000000	65.161824 
3567.000000	65.164327 
3566.000000	65.166711 
3565.000000	65.168929 
3564.000000	65.171217 
3563.000000	65.173745 
3562.000000	65.176630 
3561.000000	65.179681 
3560.000000	65.182447 
3559.000000	65.184140 
3558.000000	65.183782 
3557.000000	65.180516 
3556.000000	65.173888 
3555.000000	65.163969 
3554.000000	65.151524 
3553.000000	65.137863 
3552.000000	65.124702 
3551.000000	65.113973 
3550.000000	65.107607 
3549.000000	65.106916 
3548.000000	65.112400 
3547.000000	65.123701 
3546.000000	65.139508 
3545.000000	65.157437 
3544.000000	65.174579 
3543.000000	65.187931 
3542.000000	65.194916 
3541.000000	65.193939 
3540.000000	65.184831 
3539.000000	65.168809 
3538.000000	65.148401 
3537.000000	65.126872 
3536.000000	65.107250 
3535.000000	65.092134 
3534.000000	65.082669 
3533.000000	65.078520 
3532.000000	65.078258 
3531.000000	65.079784 
3530.000000	65.081095 
3529.000000	65.080857 
3528.000000	65.079116 
3527.000000	65.076923 
3526.000000	65.076208 
3525.000000	65.079045 
3524.000000	65.086793 
3523.000000	65.099692 
3522.000000	65.116739 
3521.000000	65.135788 
3520.000000	65.154242 
3519.000000	65.169525 
3518.000000	65.179848 
3517.000000	65.184450 
3516.000000	65.183639 
3515.000000	65.178537 
3514.000000	65.170669 
3513.000000	65.161633 
3512.000000	65.152502 
3511.000000	65.143990 
3510.000000	65.136528 
3509.000000	65.130496 
3508.000000	65.126562 
3507.000000	65.125298 
3506.000000	65.127182 
3505.000000	65.132260 
3504.000000	65.140366 
3503.000000	65.150761 
3502.000000	65.162062 
3501.000000	65.172863 
3500.000000	65.181899 
3499.000000	65.188097 
3498.000000	65.190815 
3497.000000	65.189790 
3496.000000	65.185165 
3495.000000	65.177345 
3494.000000	65.166878 
3493.000000	65.154409 
3492.000000	65.140485 
3491.000000	65.125441 
3490.000000	65.109539 
3489.000000	65.092873 
3488.000000	65.075516 
3487.000000	65.057492 
3486.000000	65.039372 
3485.000000	65.021681 
3484.000000	65.005898 
3483.000000	64.993762 
3482.000000	64.987587 
3481.000000	64.989495 
3480.000000	65.001177 
3479.000000	65.023016 
3478.000000	65.054082 
3477.000000	65.091586 
3476.000000	65.131950 
3475.000000	65.171051 
3474.000000	65.205144 
3473.000000	65.231323 
3472.000000	65.248012 
3471.000000	65.254783 
3470.000000	65.252280 
3469.000000	65.241980 
3468.000000	65.225815 
3467.000000	65.205931 
3466.000000	65.184712 
3465.000000	65.164327 
3464.000000	65.147137 
3463.000000	65.135002 
3462.000000	65.129518 
3461.000000	65.131545 
3460.000000	65.141057 
3459.000000	65.157055 
3458.000000	65.177774 
3457.000000	65.200924 
3456.000000	65.224123 
3455.000000	65.245103 
3454.000000	65.262126 
3453.000000	65.273857 
3452.000000	65.279245 
3451.000000	65.277600 
3450.000000	65.268516 
3449.000000	65.252375 
3448.000000	65.230417 
3447.000000	65.204954 
3446.000000	65.179109 
3445.000000	65.156102 
3444.000000	65.138816 
3443.000000	65.128755 
3442.000000	65.125846 
3441.000000	65.128374 
3440.000000	65.133595 
3439.000000	65.138268 
3438.000000	65.140032 
3437.000000	65.137696 
3436.000000	65.131855 
3435.000000	65.124583 
3434.000000	65.118861 
3433.000000	65.117430 
3432.000000	65.122032 
3431.000000	65.132689 
3430.000000	65.147781 
3429.000000	65.164589 
3428.000000	65.179634 
3427.000000	65.189933 
3426.000000	65.193128 
3425.000000	65.187931 
3424.000000	65.174031 
3423.000000	65.152049 
3422.000000	65.123534 
3421.000000	65.090703 
3420.000000	65.056562 
3419.000000	65.024518 
3418.000000	64.997935 
3417.000000	64.979791 
3416.000000	64.972186 
3415.000000	64.975786 
3414.000000	64.989805 
3413.000000	65.011978 
3412.000000	65.038871 
3411.000000	65.066647 
3410.000000	65.091705 
3409.000000	65.111494 
3408.000000	65.124702 
3407.000000	65.131378 
3406.000000	65.132689 
3405.000000	65.130615 
3404.000000	65.126967 
3403.000000	65.123653 
3402.000000	65.122199 
3401.000000	65.123748 
3400.000000	65.129137 
3399.000000	65.138530 
3398.000000	65.151572 
3397.000000	65.167117 
3396.000000	65.183544 
3395.000000	65.198922 
3394.000000	65.211725 
3393.000000	65.220952 
3392.000000	65.226435 
3391.000000	65.228629 
3390.000000	65.228509 
3389.000000	65.227365 
3388.000000	65.226101 
3387.000000	65.225219 
3386.000000	65.224456 
3385.000000	65.223264 
3384.000000	65.221095 
3383.000000	65.217709 
3382.000000	65.213346 
3381.000000	65.208864 
3380.000000	65.205383 
3379.000000	65.203833 
3378.000000	65.204644 
3377.000000	65.207219 
3376.000000	65.210556 
3375.000000	65.213322 
3374.000000	65.214467 
3373.000000	65.213608 
3372.000000	65.210819 
3371.000000	65.206646 
3370.000000	65.201473 
3369.000000	65.195369 
3368.000000	65.187883 
3367.000000	65.178227 
3366.000000	65.165615 
3365.000000	65.149712 
3364.000000	65.131068 
3363.000000	65.111422 
3362.000000	65.093278 
3361.000000	65.079522 
3360.000000	65.072536 
3359.000000	65.073680 
3358.000000	65.082812 
3357.000000	65.098261 
3356.000000	65.117311 
3355.000000	65.136861 
3354.000000	65.154242 
3353.000000	65.167593 
3352.000000	65.176391 
3351.000000	65.181112 
3350.000000	65.182948 
3349.000000	65.183520 
3348.000000	65.184259 
3347.000000	65.186119 
3346.000000	65.189671 
3345.000000	65.194606 
3344.000000	65.200495 
3343.000000	65.206193 
3342.000000	65.210485 
3341.000000	65.212225 
3340.000000	65.210342 
3339.000000	65.204334 
3338.000000	65.194082 
3337.000000	65.180301 
3336.000000	65.164351 
3335.000000	65.148186 
3334.000000	65.134048 
3333.000000	65.123915 
3332.000000	65.119409 
3331.000000	65.121197 
3330.000000	65.129089 
3329.000000	65.142035 
3328.000000	65.158557 
3327.000000	65.176987 
3326.000000	65.195703 
3325.000000	65.213656 
3324.000000	65.229940 
3323.000000	65.243816 
3322.000000	65.254449 
3321.000000	65.260672 
3320.000000	65.261340 
3319.000000	65.255069 
3318.000000	65.241169 
3317.000000	65.219974 
3316.000000	65.193080 
3315.000000	65.163445 
3314.000000	65.134620 
3313.000000	65.110087 
3312.000000	65.092253 
3311.000000	65.082144 
3310.000000	65.078687 
3309.000000	65.079212 
3308.000000	65.080022 
3307.000000	65.077614 
3306.000000	65.069222 
3305.000000	65.053725 
3304.000000	65.031814 
3303.000000	65.005970 
3302.000000	64.979696 
3301.000000	64.956665 
3300.000000	64.939785 
3299.000000	64.930605 
3298.000000	64.928722 
3297.000000	64.932179 
3296.000000	64.937853 
3295.000000	64.942455 
3294.000000	64.942884 
3293.000000	64.937305 
3292.000000	64.925360 
3291.000000	64.908623 
3290.000000	64.890027 
3289.000000	64.873528 
3288.000000	64.862871 
3287.000000	64.861178 
3286.000000	64.870262 
3285.000000	64.890193 
3284.000000	64.919424 
3283.000000	64.955139 
3282.000000	64.993762 
3281.000000	65.031886 
3280.000000	65.066719 
3279.000000	65.096259 
3278.000000	65.119528 
3277.000000	65.136289 
3276.000000	65.147066 
3275.000000	65.152645 
3274.000000	65.154123 
3273.000000	65.152835 
3272.000000	65.150237 
3271.000000	65.148305 
3270.000000	65.148854 
3269.000000	65.154027 
3268.000000	65.164852 
3267.000000	65.181517 
3266.000000	65.202188 
3265.000000	65.223670 
3264.000000	65.241312 
3263.000000	65.250134 
3262.000000	65.245795 
3261.000000	65.225839 
3260.000000	65.190434 
3259.000000	65.142393 
3258.000000	65.087246 
3257.000000	65.032100 
3256.000000	64.984321 
3255.000000	64.950180 
3254.000000	64.933681 
3253.000000	64.935922 
3252.000000	64.954900 
3251.000000	64.986419 
3250.000000	65.024495 
3249.000000	65.062832 
3248.000000	65.096044 
3247.000000	65.120458 
3246.000000	65.134000 
3245.000000	65.136599 
3244.000000	65.129351 
3243.000000	65.114307 
3242.000000	65.093636 
3241.000000	65.069508 
3240.000000	65.043854 
3239.000000	65.018653 
3238.000000	64.995908 
3237.000000	64.977788 
3236.000000	64.966487 
3235.000000	64.963936 
3234.000000	64.971375 
3233.000000	64.989066 
3232.000000	65.015697 
3231.000000	65.048766 
3230.000000	65.084576 
3229.000000	65.119004 
3228.000000	65.148115 
3227.000000	65.168929 
3226.000000	65.180063 
3225.000000	65.181589 
3224.000000	65.174865 
3223.000000	65.162324 
3222.000000	65.146541 
3221.000000	65.129590 
3220.000000	65.112543 
3219.000000	65.095448 
3218.000000	65.077662 
3217.000000	65.058374 
3216.000000	65.037202 
3215.000000	65.014410 
3214.000000	64.991402 
3213.000000	64.970278 
3212.000000	64.953637 
3211.000000	64.943766 
3210.000000	64.942264 
3209.000000	64.949464 
3208.000000	64.964532 
3207.000000	64.985537 
3206.000000	65.009903 
3205.000000	65.034747 
3204.000000	65.057468 
3203.000000	65.076088 
3202.000000	65.089440 
3201.000000	65.097188 
3200.000000	65.099787 
3199.000000	65.098094 
3198.000000	65.093374 
3197.000000	65.087151 
3196.000000	65.080904 
3195.000000	65.075969 
3194.000000	65.073418 
3193.000000	65.073800 
3192.000000	65.077233 
3191.000000	65.083241 
3190.000000	65.090870 
3189.000000	65.098810 
3188.000000	65.105700 
3187.000000	65.110397 
3186.000000	65.112257 
3185.000000	65.111398 
3184.000000	65.108656 
3183.000000	65.105438 
3182.000000	65.103459 
3181.000000	65.104174 
3180.000000	65.108489 
3179.000000	65.116310 
3178.000000	65.126419 
3177.000000	65.136504 
3176.000000	65.143799 
3175.000000	65.145802 
3174.000000	65.140938 
3173.000000	65.129137 
3172.000000	65.111923 
3171.000000	65.092420 
3170.000000	65.074729 
3169.000000	65.063095 
3168.000000	65.060544 
3167.000000	65.068435 
3166.000000	65.085935 
3165.000000	65.110087 
3164.000000	65.136432 
3163.000000	65.159845 
3162.000000	65.175628 
3161.000000	65.180730 
3160.000000	65.174245 
3159.000000	65.157341 
3158.000000	65.133070 
3157.000000	65.105485 
3156.000000	65.078759 
3155.000000	65.056252 
3154.000000	65.039896 
3153.000000	65.029978 
3152.000000	65.025258 
3151.000000	65.023517 
3150.000000	65.022110 
3149.000000	65.018916 
3148.000000	65.012526 
3147.000000	65.002512 
3146.000000	64.989399 
3145.000000	64.974284 
3144.000000	64.958453 
3143.000000	64.943003 
3142.000000	64.928746 
3141.000000	64.916443 
3140.000000	64.906597 
3139.000000	64.900064 
3138.000000	64.898061 
3137.000000	64.902281 
3136.000000	64.914298 
3135.000000	64.935398 
3134.000000	64.965701 
3133.000000	65.004014 
3132.000000	65.047597 
3131.000000	65.092468 
3130.000000	65.133857 
3129.000000	65.167069 
3128.000000	65.188622 
3127.000000	65.196728 
3126.000000	65.191602 
3125.000000	65.175390 
3124.000000	65.151476 
3123.000000	65.123796 
3122.000000	65.096139 
3121.000000	65.071487 
3120.000000	65.051889 
3119.000000	65.038371 
3118.000000	65.031170 
3117.000000	65.030241 
3116.000000	65.035557 
3115.000000	65.047073 
3114.000000	65.064835 
3113.000000	65.088343 
3112.000000	65.116810 
3111.000000	65.148568 
3110.000000	65.181565 
3109.000000	65.213274 
3108.000000	65.241503 
3107.000000	65.264487 
3106.000000	65.281486 
3105.000000	65.292644 
3104.000000	65.298652 
3103.000000	65.300798 
3102.000000	65.299963 
3101.000000	65.296936 
3100.000000	65.291547 
3099.000000	65.283107 
3098.000000	65.270256 
3097.000000	65.251708 
3096.000000	65.226411 
3095.000000	65.194010 
3094.000000	65.155100 
3093.000000	65.111255 
3092.000000	65.065097 
3091.000000	65.020108 
3090.000000	64.979887 
3089.000000	64.947938 
3088.000000	64.927101 
3087.000000	64.919066 
3086.000000	64.924073 
3085.000000	64.940762 
3084.000000	64.966225 
3083.000000	64.996576 
3082.000000	65.027737 
3081.000000	65.056180 
3080.000000	65.079045 
3079.000000	65.094733 
3078.000000	65.103030 
3077.000000	65.104579 
3076.000000	65.100574 
3075.000000	65.092206 
3074.000000	65.080499 
3073.000000	65.065956 
3072.000000	65.048885 
3071.000000	65.029668 
3070.000000	65.008854 
3069.000000	64.987730 
3068.000000	64.968156 
3067.000000	64.952588 
3066.000000	64.943766 
3065.000000	64.944076 
3064.000000	64.954924 
3063.000000	64.976406 
3062.000000	65.007162 
3061.000000	65.044450 
3060.000000	65.084552 
3059.000000	65.123128 
3058.000000	65.155911 
3057.000000	65.179395 
3056.000000	65.191364 
3055.000000	65.191006 
3054.000000	65.179228 
3053.000000	65.158033 
3052.000000	65.130710 
3051.000000	65.101122 
3050.000000	65.073108 
3049.000000	65.050101 
3048.000000	65.034317 
3047.000000	65.026903 
3046.000000	65.027379 
3045.000000	65.034174 
3044.000000	65.044355 
3043.000000	65.054249 
3042.000000	65.060281 
3041.000000	65.059471 
3040.000000	65.050292 
3039.000000	65.032720 
3038.000000	65.008759 
3037.000000	64.981889 
3036.000000	64.956521 
3035.000000	64.937019 
3034.000000	64.927029 
3033.000000	64.928364 
3032.000000	64.940857 
3031.000000	64.962124 
3030.000000	64.988303 
3029.000000	65.014410 
3028.000000	65.035867 
3027.000000	65.048933 
3026.000000	65.051531 
3025.000000	65.043568 
3024.000000	65.026807 
3023.000000	65.004706 
3022.000000	64.981317 
3021.000000	64.960813 
3020.000000	64.946413 
3019.000000	64.940261 
3018.000000	64.943218 
3017.000000	64.954781 
3016.000000	64.973330 
3015.000000	64.996361 
3014.000000	65.021443 
3013.000000	65.045905 
3012.000000	65.067577 
3011.000000	65.084600 
3010.000000	65.095782 
3009.000000	65.100741 
3008.000000	65.099954 
3007.000000	65.094685 
3006.000000	65.086650 
3005.000000	65.078043 
3004.000000	65.070772 
3003.000000	65.066432 
3002.000000	65.065741 
3001.000000	65.068602 
3000.000000	65.074419 
2999.000000	65.081715 
2998.000000	65.089201 
2997.000000	65.096139 
2996.000000	65.102481 
2995.000000	65.108919 
2994.000000	65.116548 
2993.000000	65.126585 
2992.000000	65.139794 
2991.000000	65.156221 
2990.000000	65.174674 
2989.000000	65.193057 
2988.000000	65.208530 
2987.000000	65.218400 
2986.000000	65.220308 
2985.000000	65.212988 
2984.000000	65.196394 
2983.000000	65.171837 
2982.000000	65.141749 
2981.000000	65.109133 
2980.000000	65.077233 
2979.000000	65.048646 
2978.000000	65.025162 
2977.000000	65.007042 
2976.000000	64.993476 
2975.000000	64.982414 
2974.000000	64.971208 
2973.000000	64.957213 
2972.000000	64.938187 
2971.000000	64.913582 
2970.000000	64.884090 
2969.000000	64.852499 
2968.000000	64.822268 
2967.000000	64.797925 
2966.000000	64.783549 
2965.000000	64.781999 
2964.000000	64.794087 
2963.000000	64.818549 
2962.000000	64.852094 
2961.000000	64.890193 
2960.000000	64.927864 
2959.000000	64.960908 
2958.000000	64.986634 
2957.000000	65.004324 
2956.000000	65.014863 
2955.000000	65.020465 
2954.000000	65.023589 
2953.000000	65.026426 
2952.000000	65.030241 
2951.000000	65.035104 
2950.000000	65.040206 
2949.000000	65.044760 
2948.000000	65.048027 
2947.000000	65.049886 
2946.000000	65.050768 
2945.000000	65.051627 
2944.000000	65.053176 
2943.000000	65.055537 
2942.000000	65.057802 
2941.000000	65.058159 
2940.000000	65.054440 
2939.000000	65.044713 
2938.000000	65.028071 
2937.000000	65.005040 
2936.000000	64.977598 
2935.000000	64.948773 
2934.000000	64.921855 
2933.000000	64.899778 
2932.000000	64.884424 
2931.000000	64.876389 
2930.000000	64.875030 
2929.000000	64.878678 
2928.000000	64.885520 
2927.000000	64.894151 
2926.000000	64.903569 
2925.000000	64.913392 
2924.000000	64.923858 
2923.000000	64.935564 
2922.000000	64.948987 
2921.000000	64.964199 
2920.000000	64.980745 
2919.000000	64.997577 
2918.000000	65.013599 
2917.000000	65.027356 
2916.000000	65.037488 
2915.000000	65.042638 
2914.000000	65.041995 
2913.000000	65.035295 
2912.000000	65.022850 
2911.000000	65.005683 
2910.000000	64.985704 
2909.000000	64.965271 
2908.000000	64.947009 
2907.000000	64.933323 
2906.000000	64.926147 
2905.000000	64.926314 
2904.000000	64.933538 
2903.000000	64.946269 
2902.000000	64.962029 
2901.000000	64.977669 
2900.000000	64.989972 
2899.000000	64.996099 
2898.000000	64.994454 
2897.000000	64.984941 
2896.000000	64.969086 
2895.000000	64.949679 
2894.000000	64.930438 
2893.000000	64.915156 
2892.000000	64.907217 
2891.000000	64.908623 
2890.000000	64.919996 
2889.000000	64.940404 
2888.000000	64.967632 
2887.000000	64.998555 
2886.000000	65.029811 
2885.000000	65.058350 
2884.000000	65.081858 
2883.000000	65.098690 
2882.000000	65.108299 
2881.000000	65.110778 
2880.000000	65.106916 
2879.000000	65.097951 
2878.000000	65.085387 
2877.000000	65.070819 
2876.000000	65.055918 
2875.000000	65.042352 
2874.000000	65.031409 
2873.000000	65.024018 
2872.000000	65.020489 
2871.000000	65.020513 
2870.000000	65.023374 
2869.000000	65.027976 
2868.000000	65.033102 
2867.000000	65.037584 
2866.000000	65.040326 
2865.000000	65.040659 
2864.000000	65.038275 
2863.000000	65.032982 
2862.000000	65.024852 
2861.000000	65.014147 
2860.000000	65.001463 
2859.000000	64.987444 
2858.000000	64.972996 
2857.000000	64.959049 
2856.000000	64.946746 
2855.000000	64.936995 
2854.000000	64.930701 
2853.000000	64.928269 
2852.000000	64.929604 
2851.000000	64.934158 
2850.000000	64.940929 
2849.000000	64.948534 
2848.000000	64.955496 
2847.000000	64.960432 
2846.000000	64.962244 
2845.000000	64.960408 
2844.000000	64.955067 
2843.000000	64.946842 
2842.000000	64.936900 
2841.000000	64.926648 
2840.000000	64.917588 
2839.000000	64.910864 
2838.000000	64.907050 
2837.000000	64.906263 
2836.000000	64.908075 
2835.000000	64.911866 
2834.000000	64.916920 
2833.000000	64.922738 
2832.000000	64.929056 
2831.000000	64.935731 
2830.000000	64.942622 
2829.000000	64.949750 
2828.000000	64.956593 
2827.000000	64.962220 
2826.000000	64.965462 
2825.000000	64.965391 
2824.000000	64.961314 
2823.000000	64.953231 
2822.000000	64.942097 
2821.000000	64.929556 
2820.000000	64.917898 
2819.000000	64.909505 
2818.000000	64.906144 
2817.000000	64.908790 
2816.000000	64.917421 
2815.000000	64.931011 
2814.000000	64.947700 
2813.000000	64.965176 
2812.000000	64.981365 
2811.000000	64.994764 
2810.000000	65.004467 
2809.000000	65.010619 
2808.000000	65.013909 
2807.000000	65.015697 
2806.000000	65.017580 
2805.000000	65.021562 
2804.000000	65.029287 
2803.000000	65.042281 
2802.000000	65.061521 
2801.000000	65.087223 
2800.000000	65.118646 
2799.000000	65.153980 
2798.000000	65.190458 
2797.000000	65.224599 
2796.000000	65.252876 
2795.000000	65.272092 
2794.000000	65.280079 
2793.000000	65.275955 
2792.000000	65.260219 
2791.000000	65.234565 
2790.000000	65.201401 
2789.000000	65.163373 
2788.000000	65.123033 
2787.000000	65.082383 
2786.000000	65.043234 
2785.000000	65.007352 
2784.000000	64.976596 
2783.000000	64.952969 
2782.000000	64.938735 
2781.000000	64.935755 
2780.000000	64.945220 
2779.000000	64.966750 
2778.000000	64.998531 
2777.000000	65.037202 
2776.000000	65.078473 
2775.000000	65.117502 
2774.000000	65.150094 
2773.000000	65.173268 
2772.000000	65.185856 
2771.000000	65.188312 
2770.000000	65.182495 
2769.000000	65.171241 
2768.000000	65.157437 
2767.000000	65.143489 
2766.000000	65.131187 
2765.000000	65.121603 
2764.000000	65.114927 
2763.000000	65.110898 
2762.000000	65.109038 
2761.000000	65.108633 
2760.000000	65.109086 
2759.000000	65.109872 
2758.000000	65.110468 
2757.000000	65.110588 
2756.000000	65.110349 
2755.000000	65.109896 
2754.000000	65.109372 
2753.000000	65.108680 
2752.000000	65.107846 
2751.000000	65.106534 
2750.000000	65.104246 
2749.000000	65.100407 
2748.000000	65.094542 
2747.000000	65.086531 
2746.000000	65.076732 
2745.000000	65.065932 
2744.000000	65.055084 
2743.000000	65.045213 
2742.000000	65.037131 
2741.000000	65.030908 
2740.000000	65.025973 
2739.000000	65.021061 
2738.000000	65.014815 
2737.000000	65.005970 
2736.000000	64.993906 
2735.000000	64.978432 
2734.000000	64.960384 
2733.000000	64.941143 
2732.000000	64.922761 
2731.000000	64.907073 
2730.000000	64.895796 
2729.000000	64.890027 
2728.000000	64.890313 
2727.000000	64.896535 
2726.000000	64.907956 
2725.000000	64.923334 
2724.000000	64.941263 
2723.000000	64.960193 
2722.000000	64.978528 
2721.000000	64.994692 
2720.000000	65.007376 
2719.000000	65.015602 
2718.000000	65.018892 
2717.000000	65.017318 
2716.000000	65.011334 
2715.000000	65.001893 
2714.000000	64.990353 
2713.000000	64.978456 
2712.000000	64.968180 
2711.000000	64.961624 
2710.000000	64.960694 
2709.000000	64.966869 
2708.000000	64.980983 
2707.000000	65.002870 
2706.000000	65.031433 
2705.000000	65.064644 
2704.000000	65.099978 
2703.000000	65.134763 
2702.000000	65.166640 
2701.000000	65.193605 
2700.000000	65.214371 
2699.000000	65.228104 
2698.000000	65.234637 
2697.000000	65.233874 
2696.000000	65.225863 
2695.000000	65.210843 
2694.000000	65.189361 
2693.000000	65.162396 
2692.000000	65.131759 
2691.000000	65.099763 
2690.000000	65.069198 
2689.000000	65.042471 
2688.000000	65.021300 
2687.000000	65.006184 
2686.000000	64.996361 
2685.000000	64.990091 
2684.000000	64.985203 
2683.000000	64.979767 
2682.000000	64.972591 
2681.000000	64.963650 
2680.000000	64.953851 
2679.000000	64.944696 
2678.000000	64.937829 
2677.000000	64.934372 
2676.000000	64.934921 
2675.000000	64.939069 
2674.000000	64.945816 
2673.000000	64.954161 
2672.000000	64.963126 
2671.000000	64.972209 
2670.000000	64.981317 
2669.000000	64.990758 
2668.000000	65.000891 
2667.000000	65.011572 
2666.000000	65.022587 
2665.000000	65.033292 
2664.000000	65.043139 
2663.000000	65.051794 
2662.000000	65.059137 
2661.000000	65.065383 
2660.000000	65.070939 
2659.000000	65.076255 
2658.000000	65.081453 
2657.000000	65.086340 
2656.000000	65.090441 
2655.000000	65.093088 
2654.000000	65.093588 
2653.000000	65.091753 
2652.000000	65.087962 
2651.000000	65.083003 
2650.000000	65.078330 
2649.000000	65.075325 
2648.000000	65.075230 
2647.000000	65.078639 
2646.000000	65.085530 
2645.000000	65.095043 
2644.000000	65.105748 
2643.000000	65.115833 
2642.000000	65.123510 
2641.000000	65.127372 
2640.000000	65.126466 
2639.000000	65.120649 
2638.000000	65.110445 
2637.000000	65.097069 
2636.000000	65.082049 
2635.000000	65.066838 
2634.000000	65.052747 
2633.000000	65.040636 
2632.000000	65.030860 
2631.000000	65.023374 
2630.000000	65.017652 
2629.000000	65.013122 
2628.000000	65.009331 
2627.000000	65.005970 
2626.000000	65.002965 
2625.000000	65.000414 
2624.000000	64.998435 
2623.000000	64.996838 
2622.000000	64.995169 
2621.000000	64.992666 
2620.000000	64.988327 
2619.000000	64.981079 
2618.000000	64.970278 
2617.000000	64.955782 
2616.000000	64.938306 
2615.000000	64.919400 
2614.000000	64.900994 
2613.000000	64.885282 
2612.000000	64.873886 
2611.000000	64.867734 
2610.000000	64.866709 
2609.000000	64.869713 
2608.000000	64.875173 
2607.000000	64.881467 
2606.000000	64.887595 
2605.000000	64.893221 
2604.000000	64.898633 
2603.000000	64.904570 
2602.000000	64.911651 
2601.000000	64.920210 
2600.000000	64.929914 
2599.000000	64.939904 
2598.000000	64.949083 
2597.000000	64.956498 
2596.000000	64.961647 
2595.000000	64.964747 
2594.000000	64.966845 
2593.000000	64.969539 
2592.000000	64.974355 
2591.000000	64.982414 
2590.000000	64.994001 
2589.000000	65.008378 
2588.000000	65.023946 
2587.000000	65.038490 
2586.000000	65.049600 
2585.000000	65.055274 
2584.000000	65.054202 
2583.000000	65.046072 
2582.000000	65.031623 
2581.000000	65.012454 
2580.000000	64.990973 
2579.000000	64.969849 
2578.000000	64.951586 
2577.000000	64.938211 
2576.000000	64.930915 
2575.000000	64.929986 
2574.000000	64.934945 
2573.000000	64.944648 
2572.000000	64.957785 
2571.000000	64.973044 
2570.000000	64.989447 
2569.000000	65.006351 
2568.000000	65.023231 
2567.000000	65.039658 
2566.000000	65.054917 
2565.000000	65.068030 
2564.000000	65.077352 
2563.000000	65.081334 
2562.000000	65.078353 
2561.000000	65.067481 
2560.000000	65.048503 
2559.000000	65.022444 
2558.000000	64.991259 
2557.000000	64.957809 
2556.000000	64.924979 
2555.000000	64.895486 
2554.000000	64.871406 
2553.000000	64.853906 
2552.000000	64.843201 
2551.000000	64.838743 
2550.000000	64.839649 
2549.000000	64.845204 
2548.000000	64.854788 
2547.000000	64.868211 
2546.000000	64.885258 
2545.000000	64.905834 
2544.000000	64.929175 
2543.000000	64.954447 
2542.000000	64.980292 
2541.000000	65.005421 
2540.000000	65.028500 
2539.000000	65.048789 
2538.000000	65.066075 
2537.000000	65.080690 
2536.000000	65.093350 
2535.000000	65.104699 
2534.000000	65.115284 
2533.000000	65.124869 
2532.000000	65.132951 
2531.000000	65.138435 
2530.000000	65.139985 
2529.000000	65.136504 
2528.000000	65.127444 
2527.000000	65.112972 
2526.000000	65.094017 
2525.000000	65.072298 
2524.000000	65.050101 
2523.000000	65.029883 
2522.000000	65.013766 
2521.000000	65.003323 
2520.000000	64.999365 
2519.000000	65.001487 
2518.000000	65.008616 
2517.000000	65.018677 
2516.000000	65.029120 
2515.000000	65.037655 
2514.000000	65.042400 
2513.000000	65.041995 
2512.000000	65.036106 
2511.000000	65.025496 
2510.000000	65.011787 
2509.000000	64.996862 
2508.000000	64.982891 
2507.000000	64.971923 
2506.000000	64.965462 
2505.000000	64.964389 
2504.000000	64.968919 
2503.000000	64.978694 
2502.000000	64.992928 
2501.000000	65.010356 
2500.000000	65.029478 
2499.000000	65.048575 
2498.000000	65.065789 
2497.000000	65.079331 
2496.000000	65.087795 
2495.000000	65.090394 
2494.000000	65.087032 
2493.000000	65.078330 
2492.000000	65.065312 
2491.000000	65.049195 
2490.000000	65.031147 
2489.000000	65.012097 
2488.000000	64.992547 
2487.000000	64.972496 
2486.000000	64.951872 
2485.000000	64.930605 
2484.000000	64.908766 
2483.000000	64.887070 
2482.000000	64.866495 
2481.000000	64.848589 
2480.000000	64.834904 
2479.000000	64.827060 
2478.000000	64.826011 
2477.000000	64.832115 
2476.000000	64.844846 
2475.000000	64.862632 
2474.000000	64.883160 
2473.000000	64.903616 
2472.000000	64.921140 
2471.000000	64.933228 
2470.000000	64.938378 
2469.000000	64.936399 
2468.000000	64.928531 
2467.000000	64.917302 
2466.000000	64.905738 
2465.000000	64.896988 
2464.000000	64.893436 
2463.000000	64.896178 
2462.000000	64.904761 
2461.000000	64.917612 
2460.000000	64.932203 
2459.000000	64.946055 
2458.000000	64.957261 
2457.000000	64.964818 
2456.000000	64.968681 
2455.000000	64.969849 
2454.000000	64.969706 
2453.000000	64.969372 
2452.000000	64.969420 
2451.000000	64.969658 
2450.000000	64.969468 
2449.000000	64.968085 
2448.000000	64.964914 
2447.000000	64.960145 
2446.000000	64.954733 
2445.000000	64.950060 
2444.000000	64.947628 
2443.000000	64.948511 
2442.000000	64.953017 
2441.000000	64.960622 
2440.000000	64.969944 
2439.000000	64.979076 
2438.000000	64.986038 
2437.000000	64.989352 
2436.000000	64.988374 
2435.000000	64.983534 
2434.000000	64.976167 
2433.000000	64.968156 
2432.000000	64.961528 
2431.000000	64.957904 
2430.000000	64.958119 
2429.000000	64.962053 
2428.000000	64.968609 
2427.000000	64.976048 
2426.000000	64.982318 
2425.000000	64.985823 
2424.000000	64.985537 
2423.000000	64.981508 
2422.000000	64.974737 
2421.000000	64.967131 
2420.000000	64.960837 
2419.000000	64.957690 
2418.000000	64.958739 
2417.000000	64.964079 
2416.000000	64.972591 
2415.000000	64.982390 
2414.000000	64.991545 
2413.000000	64.998340 
2412.000000	65.001797 
2411.000000	65.001821 
2410.000000	64.999151 
2409.000000	64.995002 
2408.000000	64.990615 
2407.000000	64.986944 
2406.000000	64.984536 
2405.000000	64.983248 
2404.000000	64.982771 
2403.000000	64.982628 
2402.000000	64.982700 
2401.000000	64.983272 
2400.000000	64.984941 
2399.000000	64.988470 
2398.000000	64.994311 
2397.000000	65.002512 
2396.000000	65.012550 
2395.000000	65.023279 
2394.000000	65.033221 
2393.000000	65.040993 
2392.000000	65.045309 
2391.000000	65.045571 
2390.000000	65.041589 
2389.000000	65.033769 
2388.000000	65.022754 
2387.000000	65.009212 
2386.000000	64.993786 
2385.000000	64.976763 
2384.000000	64.958262 
2383.000000	64.938306 
2382.000000	64.917159 
2381.000000	64.895224 
2380.000000	64.873361 
2379.000000	64.852952 
2378.000000	64.835548 
2377.000000	64.822745 
2376.000000	64.815807 
2375.000000	64.815759 
2374.000000	64.822721 
2373.000000	64.835977 
2372.000000	64.854025 
2371.000000	64.874744 
2370.000000	64.895606 
2369.000000	64.914345 
2368.000000	64.929103 
2367.000000	64.938902 
2366.000000	64.943575 
2365.000000	64.944005 
2364.000000	64.941596 
2363.000000	64.938068 
2362.000000	64.934897 
2361.000000	64.933228 
2360.000000	64.933514 
2359.000000	64.935660 
2358.000000	64.939069 
2357.000000	64.943027 
2356.000000	64.946746 
2355.000000	64.949917 
2354.000000	64.952468 
2353.000000	64.954662 
2352.000000	64.956855 
2351.000000	64.959263 
2350.000000	64.962053 
2349.000000	64.965057 
2348.000000	64.967918 
2347.000000	64.970302 
2346.000000	64.971947 
2345.000000	64.972710 
2344.000000	64.972829 
2343.000000	64.972782 
2342.000000	64.972925 
2341.000000	64.973640 
2340.000000	64.975023 
2339.000000	64.976787 
2338.000000	64.978504 
2337.000000	64.979672 
2336.000000	64.980030 
2335.000000	64.979457 
2334.000000	64.978241 
2333.000000	64.977049 
2332.000000	64.976477 
2331.000000	64.977002 
2330.000000	64.978837 
2329.000000	64.981770 
2328.000000	64.985251 
2327.000000	64.988493 
2326.000000	64.990854 
2325.000000	64.991784 
2324.000000	64.991331 
2323.000000	64.989733 
2322.000000	64.987826 
2321.000000	64.986419 
2320.000000	64.986228 
2319.000000	64.987540 
2318.000000	64.990162 
2317.000000	64.993476 
2316.000000	64.996504 
2315.000000	64.998364 
2314.000000	64.998412 
2313.000000	64.996385 
2312.000000	64.992547 
2311.000000	64.987468 
2310.000000	64.981675 
2309.000000	64.975500 
2308.000000	64.968991 
2307.000000	64.961600 
2306.000000	64.952516 
2305.000000	64.941024 
2304.000000	64.926552 
2303.000000	64.909219 
2302.000000	64.890027 
2301.000000	64.870381 
2300.000000	64.852190 
2299.000000	64.837169 
2298.000000	64.826822 
2297.000000	64.821720 
2296.000000	64.821648 
2295.000000	64.826035 
2294.000000	64.833807 
2293.000000	64.843916 
2292.000000	64.855456 
2291.000000	64.867711 
2290.000000	64.880251 
2289.000000	64.892601 
2288.000000	64.904451 
2287.000000	64.915299 
2286.000000	64.924740 
2285.000000	64.932274 
2284.000000	64.937710 
2283.000000	64.941191 
2282.000000	64.943170 
2281.000000	64.944219 
2280.000000	64.945030 
2279.000000	64.946031 
2278.000000	64.947414 
2277.000000	64.948964 
2276.000000	64.950227 
2275.000000	64.950513 
2274.000000	64.949297 
2273.000000	64.946198 
2272.000000	64.941263 
2271.000000	64.934778 
2270.000000	64.927506 
2269.000000	64.920234 
2268.000000	64.913821 
2267.000000	64.909100 
2266.000000	64.906764 
2265.000000	64.907097 
2264.000000	64.909982 
2263.000000	64.914751 
2262.000000	64.920306 
2261.000000	64.925265 
2260.000000	64.928197 
2259.000000	64.927911 
2258.000000	64.923548 
2257.000000	64.915037 
2256.000000	64.903020 
2255.000000	64.888882 
2254.000000	64.874291 
2253.000000	64.860844 
2252.000000	64.849758 
2251.000000	64.841556 
2250.000000	64.835858 
2249.000000	64.831638 
2248.000000	64.827394 
2247.000000	64.821553 
2246.000000	64.813137 
2245.000000	64.801645 
2244.000000	64.787769 
2243.000000	64.772748 
2242.000000	64.758586 
2241.000000	64.747381 
2240.000000	64.740967 
2239.000000	64.740490 
2238.000000	64.746332 
2237.000000	64.757776 
2236.000000	64.773201 
2235.000000	64.790511 
2234.000000	64.807343 
2233.000000	64.821529 
2232.000000	64.831471 
2231.000000	64.836382 
2230.000000	64.836406 
2229.000000	64.832520 
2228.000000	64.826345 
2227.000000	64.819622 
2226.000000	64.813923 
2225.000000	64.810180 
2224.000000	64.808726 
2223.000000	64.809107 
2222.000000	64.810323 
2221.000000	64.811086 
2220.000000	64.810395 
2219.000000	64.807796 
2218.000000	64.803457 
2217.000000	64.798450 
2216.000000	64.794087 
2215.000000	64.791965 
2214.000000	64.793181 
2213.000000	64.798402 
2212.000000	64.807510 
2211.000000	64.819860 
2210.000000	64.834380 
2209.000000	64.849829 
2208.000000	64.865279 
2207.000000	64.880156 
2206.000000	64.894294 
2205.000000	64.907526 
2204.000000	64.919638 
2203.000000	64.930224 
2202.000000	64.938426 
2201.000000	64.943361 
2200.000000	64.944124 
2199.000000	64.940309 
2198.000000	64.932203 
2197.000000	64.920854 
2196.000000	64.908099 
2195.000000	64.895844 
2194.000000	64.885854 
2193.000000	64.879202 
2192.000000	64.876127 
2191.000000	64.875984 
2190.000000	64.877653 
2189.000000	64.879751 
2188.000000	64.881229 
2187.000000	64.881658 
2186.000000	64.881277 
2185.000000	64.880728 
2184.000000	64.880967 
2183.000000	64.882612 
2182.000000	64.885926 
2181.000000	64.890432 
2180.000000	64.895296 
2179.000000	64.899468 
2178.000000	64.902091 
2177.000000	64.902639 
2176.000000	64.901161 
2175.000000	64.898371 
2174.000000	64.895200 
2173.000000	64.892506 
2172.000000	64.891028 
2171.000000	64.891028 
2170.000000	64.892387 
2169.000000	64.894509 
2168.000000	64.896655 
2167.000000	64.898061 
2166.000000	64.898157 
2165.000000	64.896702 
2164.000000	64.893770 
2163.000000	64.889574 
2162.000000	64.884638 
2161.000000	64.879441 
2160.000000	64.874291 
2159.000000	64.869236 
2158.000000	64.864110 
2157.000000	64.858579 
2156.000000	64.852118 
2155.000000	64.844250 
2154.000000	64.834713 
2153.000000	64.823555 
2152.000000	64.811086 
2151.000000	64.797878 
2150.000000	64.784884 
2149.000000	64.772939 
2148.000000	64.762663 
2147.000000	64.754509 
2146.000000	64.748477 
2145.000000	64.744472 
2144.000000	64.742445 
2143.000000	64.742398 
2142.000000	64.744496 
2141.000000	64.749169 
2140.000000	64.756608 
2139.000000	64.766764 
2138.000000	64.779138 
2137.000000	64.792633 
2136.000000	64.805650 
2135.000000	64.816355 
2134.000000	64.823150 
2133.000000	64.825129 
2132.000000	64.822387 
2131.000000	64.816045 
2130.000000	64.808201 
2129.000000	64.801383 
2128.000000	64.798045 
2127.000000	64.800047 
2126.000000	64.808154 
2125.000000	64.822292 
2124.000000	64.841318 
2123.000000	64.863467 
2122.000000	64.886665 
2121.000000	64.908885 
2120.000000	64.928555 
2119.000000	64.944505 
2118.000000	64.956021 
2117.000000	64.962649 
2116.000000	64.964365 
2115.000000	64.961409 
2114.000000	64.954257 
2113.000000	64.943528 
2112.000000	64.930152 
2111.000000	64.915060 
2110.000000	64.899086 
2109.000000	64.882993 
2108.000000	64.867281 
2107.000000	64.852404 
2106.000000	64.838695 
2105.000000	64.826607 
2104.000000	64.816713 
2103.000000	64.809393 
2102.000000	64.804887 
2101.000000	64.802885 
2100.000000	64.802455 
2099.000000	64.802145 
2098.000000	64.800071 
2097.000000	64.794516 
2096.000000	64.784336 
2095.000000	64.769530 
2094.000000	64.751386 
2093.000000	64.732456 
2092.000000	64.715838 
2091.000000	64.704561 
2090.000000	64.700746 
2089.000000	64.705061 
2088.000000	64.716458 
2087.000000	64.732813 
2086.000000	64.751315 
2085.000000	64.769363 
2084.000000	64.784955 
2083.000000	64.797043 
2082.000000	64.805459 
2081.000000	64.810538 
2080.000000	64.813208 
2079.000000	64.814281 
2078.000000	64.814567 
2077.000000	64.814853 
2076.000000	64.815545 
2075.000000	64.816975 
2074.000000	64.819073 
2073.000000	64.821553 
2072.000000	64.823770 
2071.000000	64.824843 
2070.000000	64.823484 
2069.000000	64.818692 
2068.000000	64.809656 
2067.000000	64.796280 
2066.000000	64.779353 
2065.000000	64.760494 
2064.000000	64.741921 
2063.000000	64.726114 
2062.000000	64.715242 
2061.000000	64.710855 
2060.000000	64.713311 
2059.000000	64.721918 
2058.000000	64.735126 
2057.000000	64.750909 
2056.000000	64.767193 
2055.000000	64.782238 
2054.000000	64.794778 
2053.000000	64.804244 
2052.000000	64.810562 
2051.000000	64.813733 
2050.000000	64.813828 
2049.000000	64.810872 
2048.000000	64.804840 
2047.000000	64.795756 
2046.000000	64.784026 
2045.000000	64.770269 
2044.000000	64.755654 
2043.000000	64.741396 
2042.000000	64.728760 
2041.000000	64.718747 
2040.000000	64.711833 
2039.000000	64.708042 
2038.000000	64.706921 
2037.000000	64.707851 
2036.000000	64.710354 
2035.000000	64.714241 
2034.000000	64.719843 
2033.000000	64.727711 
2032.000000	64.738678 
2031.000000	64.753246 
2030.000000	64.771461 
2029.000000	64.792728 
2028.000000	64.815759 
2027.000000	64.838695 
2026.000000	64.859485 
2025.000000	64.876317 
2024.000000	64.887952 
2023.000000	64.893770 
2022.000000	64.893984 
2021.000000	64.889430 
2020.000000	64.881348 
2019.000000	64.871239 
2018.000000	64.860415 
2017.000000	64.849948 
2016.000000	64.840579 
2015.000000	64.832878 
2014.000000	64.827227 
2013.000000	64.823889 
2012.000000	64.823150 
2011.000000	64.825248 
2010.000000	64.830374 
2009.000000	64.838528 
2008.000000	64.849495 
2007.000000	64.862632 
2006.000000	64.876794 
2005.000000	64.890575 
2004.000000	64.902234 
2003.000000	64.910054 
2002.000000	64.912486 
2001.000000	64.908552 
2000.000000	64.898014 
1999.000000	64.881443 
1998.000000	64.860391 
1997.000000	64.837050 
1996.000000	64.813947 
1995.000000	64.793467 
1994.000000	64.777731 
1993.000000	64.768052 
1992.000000	64.764690 
1991.000000	64.766907 
1990.000000	64.773201 
1989.000000	64.781498 
1988.000000	64.789581 
1987.000000	64.795589 
1986.000000	64.798235 
1985.000000	64.797139 
1984.000000	64.792704 
1983.000000	64.786028 
1982.000000	64.778661 
1981.000000	64.772272 
1980.000000	64.768481 
1979.000000	64.768528 
1978.000000	64.773130 
1977.000000	64.782476 
1976.000000	64.795899 
1975.000000	64.812207 
1974.000000	64.829277 
1973.000000	64.844846 
1972.000000	64.856219 
1971.000000	64.861106 
1970.000000	64.857673 
1969.000000	64.845252 
1968.000000	64.824438 
1967.000000	64.797139 
1966.000000	64.766335 
1965.000000	64.735555 
1964.000000	64.708256 
1963.000000	64.687085 
1962.000000	64.673566 
1961.000000	64.667773 
1960.000000	64.669013 
1959.000000	64.675831 
1958.000000	64.686751 
1957.000000	64.700412 
1956.000000	64.715743 
1955.000000	64.731836 
1954.000000	64.747691 
1953.000000	64.762139 
1952.000000	64.774012 
1951.000000	64.782309 
1950.000000	64.786434 
1949.000000	64.786553 
1948.000000	64.783620 
1947.000000	64.779281 
1946.000000	64.775633 
1945.000000	64.774394 
1944.000000	64.776682 
1943.000000	64.782452 
1942.000000	64.790534 
1941.000000	64.798831 
1940.000000	64.804863 
1939.000000	64.806485 
1938.000000	64.802479 
1937.000000	64.792752 
1936.000000	64.778280 
1935.000000	64.761042 
1934.000000	64.743304 
1933.000000	64.727330 
1932.000000	64.714789 
1931.000000	64.706540 
1930.000000	64.702534 
1929.000000	64.701867 
1928.000000	64.702939 
1927.000000	64.703774 
1926.000000	64.702653 
1925.000000	64.698338 
1924.000000	64.690613 
1923.000000	64.679908 
1922.000000	64.667582 
1921.000000	64.655256 
1920.000000	64.644813 
1919.000000	64.637494 
1918.000000	64.634084 
1917.000000	64.634585 
1916.000000	64.638590 
1915.000000	64.645195 
1914.000000	64.653444 
1913.000000	64.662480 
1912.000000	64.671611 
1911.000000	64.680433 
1910.000000	64.688611 
1909.000000	64.695882 
1908.000000	64.702033 
1907.000000	64.706707 
1906.000000	64.709544 
1905.000000	64.710354 
1904.000000	64.709162 
1903.000000	64.706277 
1902.000000	64.702248 
1901.000000	64.697623 
1900.000000	64.692807 
1899.000000	64.688134 
1898.000000	64.683365 
1897.000000	64.678192 
1896.000000	64.672088 
1895.000000	64.665031 
1894.000000	64.657592 
1893.000000	64.650964 
1892.000000	64.646816 
1891.000000	64.646577 
1890.000000	64.651155 
1889.000000	64.660310 
1888.000000	64.672636 
1887.000000	64.685654 
1886.000000	64.696407 
1885.000000	64.702248 
1884.000000	64.701581 
1883.000000	64.694380 
1882.000000	64.682221 
1881.000000	64.667677 
1880.000000	64.653849 
1879.000000	64.643478 
1878.000000	64.638185 
1877.000000	64.638304 
1876.000000	64.642930 
1875.000000	64.650464 
1874.000000	64.659023 
1873.000000	64.667177 
1872.000000	64.674115 
1871.000000	64.679527 
1870.000000	64.683318 
1869.000000	64.685249 
1868.000000	64.684677 
1867.000000	64.680552 
1866.000000	64.671897 
1865.000000	64.658069 
1864.000000	64.639449 
1863.000000	64.617538 
1862.000000	64.594888 
1861.000000	64.574694 
1860.000000	64.560222 
1859.000000	64.553952 
1858.000000	64.556980 
1857.000000	64.568638 
1856.000000	64.586830 
1855.000000	64.608359 
1854.000000	64.629888 
1853.000000	64.648509 
1852.000000	64.662694 
1851.000000	64.672160 
1850.000000	64.677929 
1849.000000	64.681673 
1848.000000	64.685106 
1847.000000	64.689350 
1846.000000	64.694595 
1845.000000	64.700150 
1844.000000	64.704775 
1843.000000	64.707207 
1842.000000	64.706468 
1841.000000	64.702486 
1840.000000	64.696097 
1839.000000	64.688897 
1838.000000	64.682793 
1837.000000	64.679265 
1836.000000	64.679265 
1835.000000	64.682912 
1834.000000	64.689517 
1833.000000	64.697837 
1832.000000	64.706468 
1831.000000	64.714288 
1830.000000	64.720630 
1829.000000	64.725422 
1828.000000	64.729070 
1827.000000	64.732313 
1826.000000	64.735770 
1825.000000	64.739847 
1824.000000	64.744710 
1823.000000	64.750051 
1822.000000	64.755201 
1821.000000	64.759325 
1820.000000	64.761567 
1819.000000	64.760923 
1818.000000	64.756512 
1817.000000	64.747500 
1816.000000	64.733290 
1815.000000	64.713716 
1814.000000	64.689207 
1813.000000	64.660739 
1812.000000	64.630341 
1811.000000	64.600324 
1810.000000	64.573597 
1809.000000	64.552855 
1808.000000	64.540386 
1807.000000	64.537286 
1806.000000	64.543700 
1805.000000	64.558315 
1804.000000	64.578962 
1803.000000	64.602804 
1802.000000	64.626884 
1801.000000	64.648675 
1800.000000	64.666318 
1799.000000	64.678692 
1798.000000	64.685416 
1797.000000	64.686870 
1796.000000	64.683699 
1795.000000	64.676809 
1794.000000	64.667224 
1793.000000	64.656019 
1792.000000	64.644265 
1791.000000	64.633011 
1790.000000	64.623165 
1789.000000	64.615416 
1788.000000	64.609980 
1787.000000	64.606690 
1786.000000	64.605093 
1785.000000	64.604592 
1784.000000	64.604544 
1783.000000	64.604544 
1782.000000	64.604449 
1781.000000	64.604473 
1780.000000	64.605116 
1779.000000	64.606928 
1778.000000	64.610195 
1777.000000	64.614963 
1776.000000	64.620804 
1775.000000	64.626932 
1774.000000	64.632320 
1773.000000	64.635801 
1772.000000	64.636445 
1771.000000	64.633822 
1770.000000	64.628005 
1769.000000	64.619684 
1768.000000	64.609813 
1767.000000	64.599633 
1766.000000	64.590191 
1765.000000	64.582324 
1764.000000	64.576172 
1763.000000	64.571189 
1762.000000	64.566373 
1761.000000	64.560341 
1760.000000	64.551854 
1759.000000	64.539885 
1758.000000	64.524030 
1757.000000	64.504790 
1756.000000	64.483451 
1755.000000	64.461874 
1754.000000	64.442300 
1753.000000	64.426851 
1752.000000	64.417099 
1751.000000	64.413595 
1750.000000	64.415907 
1749.000000	64.422678 
1748.000000	64.431881 
1747.000000	64.441156 
1746.000000	64.448237 
1745.000000	64.451503 
1744.000000	64.449882 
1743.000000	64.442968 
1742.000000	64.430809 
1741.000000	64.413976 
1740.000000	64.393162 
1739.000000	64.369297 
1738.000000	64.343380 
1737.000000	64.316725 
1736.000000	64.290690 
1735.000000	64.266920 
1734.000000	64.246892 
1733.000000	64.232182 
1732.000000	64.223885 
1731.000000	64.222836 
1730.000000	64.228868 
1729.000000	64.241600 
1728.000000	64.259982 
1727.000000	64.282965 
1726.000000	64.309310 
1725.000000	64.337968 
1724.000000	64.367890 
1723.000000	64.398145 
1722.000000	64.427614 
1721.000000	64.455199 
1720.000000	64.479494 
1719.000000	64.499020 
1718.000000	64.512467 
1717.000000	64.519190 
1716.000000	64.519166 
1715.000000	64.513421 
1714.000000	64.503741 
1713.000000	64.492583 
1712.000000	64.482402 
1711.000000	64.475464 
1710.000000	64.473176 
1709.000000	64.475822 
1708.000000	64.482402 
1707.000000	64.491248 
1706.000000	64.500141 
1705.000000	64.506793 
1704.000000	64.509439 
1703.000000	64.507198 
1702.000000	64.500403 
1701.000000	64.490079 
1700.000000	64.478254 
1699.000000	64.466929 
1698.000000	64.458084 
1697.000000	64.453077 
1696.000000	64.452242 
1695.000000	64.454960 
1694.000000	64.459657 
1693.000000	64.464402 
1692.000000	64.467120 
1691.000000	64.465951 
1690.000000	64.460039 
1689.000000	64.449477 
1688.000000	64.435625 
1687.000000	64.420676 
1686.000000	64.407491 
1685.000000	64.399099 
1684.000000	64.398002 
1683.000000	64.405798 
1682.000000	64.422726 
1681.000000	64.447498 
1680.000000	64.477586 
1679.000000	64.509582 
1678.000000	64.539837 
1677.000000	64.565157 
1676.000000	64.583182 
1675.000000	64.592957 
1674.000000	64.594745 
1673.000000	64.590024 
1672.000000	64.580798 
1671.000000	64.569187 
1670.000000	64.557051 
1669.000000	64.545607 
1668.000000	64.535593 
1667.000000	64.526867 
1666.000000	64.519309 
1665.000000	64.512610 
1664.000000	64.506816 
1663.000000	64.502191 
1662.000000	64.499258 
1661.000000	64.498448 
1660.000000	64.500069 
1659.000000	64.504170 
1658.000000	64.510464 
1657.000000	64.518499 
1656.000000	64.527654 
1655.000000	64.537239 
1654.000000	64.546608 
1653.000000	64.555191 
1652.000000	64.562344 
1651.000000	64.567375 
1650.000000	64.569354 
1649.000000	64.567351 
1648.000000	64.560580 
1647.000000	64.548659 
1646.000000	64.531755 
1645.000000	64.510846 
1644.000000	64.487433 
1643.000000	64.463758 
1642.000000	64.442133 
1641.000000	64.424586 
1640.000000	64.412498 
1639.000000	64.406323 
1638.000000	64.405417 
1637.000000	64.408540 
1636.000000	64.413857 
1635.000000	64.419579 
1634.000000	64.424157 
1633.000000	64.426517 
1632.000000	64.426350 
1631.000000	64.423823 
1630.000000	64.419388 
1629.000000	64.413642 
1628.000000	64.407134 
1627.000000	64.400434 
1626.000000	64.393925 
1625.000000	64.388084 
1624.000000	64.383244 
1623.000000	64.379787 
1622.000000	64.378142 
1621.000000	64.378380 
1620.000000	64.380431 
1619.000000	64.383912 
1618.000000	64.388179 
1617.000000	64.392423 
1616.000000	64.395904 
1615.000000	64.398026 
1614.000000	64.398694 
1613.000000	64.398121 
1612.000000	64.396953 
1611.000000	64.395904 
1610.000000	64.395761 
1609.000000	64.397025 
1608.000000	64.399719 
1607.000000	64.403295 
1606.000000	64.406681 
1605.000000	64.408588 
1604.000000	64.407753 
1603.000000	64.403247 
1602.000000	64.394855 
1601.000000	64.383053 
1600.000000	64.369201 
1599.000000	64.355278 
1598.000000	64.343523 
1597.000000	64.335846 
1596.000000	64.333271 
1595.000000	64.335989 
1594.000000	64.343023 
1593.000000	64.352321 
1592.000000	64.361310 
1591.000000	64.367294 
1590.000000	64.368152 
1589.000000	64.362931 
1588.000000	64.351916 
1587.000000	64.336562 
1586.000000	64.318871 
1585.000000	64.300775 
1584.000000	64.283680 
1583.000000	64.267921 
1582.000000	64.253067 
1581.000000	64.238095 
1580.000000	64.222025 
1579.000000	64.204549 
1578.000000	64.186167 
1577.000000	64.168357 
1576.000000	64.153361 
1575.000000	64.143753 
1574.000000	64.142298 
1573.000000	64.151239 
1572.000000	64.171743 
1571.000000	64.203429 
1570.000000	64.244222 
1569.000000	64.290261 
1568.000000	64.336419 
1567.000000	64.377212 
1566.000000	64.407682 
1565.000000	64.424395 
1564.000000	64.426040 
1563.000000	64.413881 
1562.000000	64.391231 
1561.000000	64.362859 
1560.000000	64.333987 
1559.000000	64.309263 
1558.000000	64.291834 
1557.000000	64.283013 
1556.000000	64.282417 
1555.000000	64.288401 
1554.000000	64.298677 
1553.000000	64.311099 
1552.000000	64.324164 
1551.000000	64.337038 
1550.000000	64.349365 
1549.000000	64.361023 
1548.000000	64.371848 
1547.000000	64.381384 
1546.000000	64.388895 
1545.000000	64.393734 
1544.000000	64.395356 
1543.000000	64.393472 
1542.000000	64.388155 
1541.000000	64.379906 
1540.000000	64.369559 
1539.000000	64.358091 
1538.000000	64.346599 
1537.000000	64.335966 
1536.000000	64.326882 
1535.000000	64.320111 
1534.000000	64.316034 
1533.000000	64.314937 
1532.000000	64.316654 
1531.000000	64.320635 
1530.000000	64.326024 
1529.000000	64.331650 
1528.000000	64.336419 
1527.000000	64.339637 
1526.000000	64.341187 
1525.000000	64.341759 
1524.000000	64.342617 
1523.000000	64.345550 
1522.000000	64.352202 
1521.000000	64.363813 
1520.000000	64.381146 
1519.000000	64.404177 
1518.000000	64.431977 
1517.000000	64.462733 
1516.000000	64.494204 
1515.000000	64.523744 
1514.000000	64.548730 
1513.000000	64.567279 
1512.000000	64.578175 
1511.000000	64.581584 
1510.000000	64.578771 
1509.000000	64.571881 
1508.000000	64.563703 
1507.000000	64.556717 
1506.000000	64.552998 
1505.000000	64.553046 
1504.000000	64.556169 
1503.000000	64.560270 
1502.000000	64.562773 
1501.000000	64.560937 
1500.000000	64.553093 
1499.000000	64.538812 
1498.000000	64.519023 
1497.000000	64.495682 
1496.000000	64.471316 
1495.000000	64.447832 
1494.000000	64.426684 
1493.000000	64.408278 
1492.000000	64.392471 
1491.000000	64.378619 
1490.000000	64.366364 
1489.000000	64.355754 
1488.000000	64.347553 
1487.000000	64.342713 
1486.000000	64.342164 
1485.000000	64.346456 
1484.000000	64.355206 
1483.000000	64.367055 
1482.000000	64.379882 
1481.000000	64.391374 
1480.000000	64.399337 
1479.000000	64.402341 
1478.000000	64.400076 
1477.000000	64.393258 
1476.000000	64.383530 
1475.000000	64.372944 
1474.000000	64.363384 
1473.000000	64.356207 
1472.000000	64.352107 
1471.000000	64.351058 
1470.000000	64.352512 
1469.000000	64.355516 
1468.000000	64.359307 
1467.000000	64.363384 
1466.000000	64.367389 
1465.000000	64.371323 
1464.000000	64.375233 
1463.000000	64.379382 
1462.000000	64.383745 
1461.000000	64.388203 
1460.000000	64.392733 
1459.000000	64.397144 
1458.000000	64.401531 
1457.000000	64.405941 
1456.000000	64.410495 
1455.000000	64.415049 
1454.000000	64.419054 
1453.000000	64.421534 
1452.000000	64.421224 
1451.000000	64.417219 
1450.000000	64.408922 
1449.000000	64.396834 
1448.000000	64.382433 
1447.000000	64.368081 
1446.000000	64.356493 
1445.000000	64.350175 
1444.000000	64.350891 
1443.000000	64.359378 
1442.000000	64.374971 
1441.000000	64.395904 
1440.000000	64.419531 
1439.000000	64.442849 
1438.000000	64.463043 
1437.000000	64.477705 
1436.000000	64.485359 
1435.000000	64.485573 
1434.000000	64.478993 
1433.000000	64.466953 
1432.000000	64.451575 
1431.000000	64.435458 
1430.000000	64.421105 
1429.000000	64.410758 
1428.000000	64.406061 
1427.000000	64.407992 
1426.000000	64.416599 
1425.000000	64.430975 
1424.000000	64.449596 
1423.000000	64.470672 
1422.000000	64.492177 
1421.000000	64.512157 
1420.000000	64.528894 
1419.000000	64.541149 
1418.000000	64.547920 
1417.000000	64.548730 
1416.000000	64.543628 
1415.000000	64.533138 
1414.000000	64.518332 
1413.000000	64.500641 
1412.000000	64.481902 
1411.000000	64.463639 
1410.000000	64.447116 
1409.000000	64.432954 
1408.000000	64.421176 
1407.000000	64.411163 
1406.000000	64.401865 
1405.000000	64.392185 
1404.000000	64.381456 
1403.000000	64.369511 
1402.000000	64.356684 
1401.000000	64.343643 
1400.000000	64.331007 
1399.000000	64.319109 
1398.000000	64.307689 
1397.000000	64.296102 
1396.000000	64.283561 
1395.000000	64.269423 
1394.000000	64.253687 
1393.000000	64.237070 
1392.000000	64.220929 
1391.000000	64.206933 
1390.000000	64.196586 
1389.000000	64.190769 
1388.000000	64.189600 
1387.000000	64.192128 
1386.000000	64.196586 
1385.000000	64.201140 
1384.000000	64.204049 
1383.000000	64.204263 
1382.000000	64.201664 
1381.000000	64.196920 
1380.000000	64.191365 
1379.000000	64.186453 
1378.000000	64.183545 
1377.000000	64.183425 
1376.000000	64.186215 
1375.000000	64.191508 
1374.000000	64.198637 
1373.000000	64.206743 
1372.000000	64.214944 
1371.000000	64.222717 
1370.000000	64.229583 
1369.000000	64.235234 
1368.000000	64.239549 
1367.000000	64.242482 
1366.000000	64.244270 
1365.000000	64.245247 
1364.000000	64.246034 
1363.000000	64.247322 
1362.000000	64.249897 
1361.000000	64.254283 
1360.000000	64.260458 
1359.000000	64.267826 
1358.000000	64.275383 
1357.000000	64.281821 
1356.000000	64.285898 
1355.000000	64.286732 
1354.000000	64.284324 
1353.000000	64.279532 
1352.000000	64.273715 
1351.000000	64.268636 
1350.000000	64.266037 
1349.000000	64.267134 
1348.000000	64.272403 
1347.000000	64.281487 
1346.000000	64.293575 
1345.000000	64.307546 
1344.000000	64.322352 
1343.000000	64.337086 
1342.000000	64.351272 
1341.000000	64.364504 
1340.000000	64.376473 
1339.000000	64.386820 
1338.000000	64.394950 
1337.000000	64.400315 
1336.000000	64.402222 
1335.000000	64.400243 
1334.000000	64.394259 
1333.000000	64.384579 
1332.000000	64.371824 
1331.000000	64.356946 
1330.000000	64.340972 
1329.000000	64.324855 
1328.000000	64.309287 
1327.000000	64.294767 
1326.000000	64.281725 
1325.000000	64.270377 
1324.000000	64.260792 
1323.000000	64.253020 
1322.000000	64.246916 
1321.000000	64.242148 
1320.000000	64.238262 
1319.000000	64.234542 
1318.000000	64.230489 
1317.000000	64.225602 
1316.000000	64.219784 
1315.000000	64.213204 
1314.000000	64.206504 
1313.000000	64.200472 
1312.000000	64.195942 
1311.000000	64.193511 
1310.000000	64.193463 
1309.000000	64.195466 
1308.000000	64.198827 
1307.000000	64.202475 
1306.000000	64.205193 
1305.000000	64.205908 
1304.000000	64.203643 
1303.000000	64.197778 
1302.000000	64.188051 
1301.000000	64.174532 
1300.000000	64.157557 
1299.000000	64.137721 
1298.000000	64.116072 
1297.000000	64.093995 
1296.000000	64.073014 
1295.000000	64.054775 
1294.000000	64.040923 
1293.000000	64.032769 
1292.000000	64.030933 
1291.000000	64.035224 
1290.000000	64.044594 
1289.000000	64.057183 
1288.000000	64.070653 
1287.000000	64.082670 
1286.000000	64.091324 
1285.000000	64.095592 
1284.000000	64.095354 
1283.000000	64.091682 
1282.000000	64.086532 
1281.000000	64.082050 
1280.000000	64.080238 
1279.000000	64.082527 
1278.000000	64.089608 
1277.000000	64.101171 
1276.000000	64.116334 
1275.000000	64.133763 
1274.000000	64.152026 
1273.000000	64.169979 
1272.000000	64.186787 
1271.000000	64.201927 
1270.000000	64.215135 
1269.000000	64.226126 
1268.000000	64.234566 
1267.000000	64.239954 
1266.000000	64.241528 
1265.000000	64.238500 
1264.000000	64.230108 
1263.000000	64.216160 
1262.000000	64.196991 
1261.000000	64.173936 
1260.000000	64.149022 
1259.000000	64.124846 
1258.000000	64.104199 
1257.000000	64.089846 
1256.000000	64.083671 
1255.000000	64.086580 
1254.000000	64.098143 
1253.000000	64.116835 
1252.000000	64.140129 
1251.000000	64.165043 
1250.000000	64.188551 
1249.000000	64.208102 
1248.000000	64.222025 
1247.000000	64.229559 
1246.000000	64.231014 
1245.000000	64.227461 
1244.000000	64.220523 
1243.000000	64.211964 
1242.000000	64.203643 
1241.000000	64.196896 
1240.000000	64.192748 
1239.000000	64.191174 
1238.000000	64.191889 
1237.000000	64.193773 
1236.000000	64.195442 
1235.000000	64.195346 
1234.000000	64.191961 
1233.000000	64.184212 
1232.000000	64.171624 
1231.000000	64.154791 
1230.000000	64.135050 
1229.000000	64.114713 
1228.000000	64.096331 
1227.000000	64.082241 
1226.000000	64.074182 
1225.000000	64.072918 
1224.000000	64.078116 
1223.000000	64.088582 
1222.000000	64.102697 
1221.000000	64.118695 
1220.000000	64.134883 
1219.000000	64.150047 
1218.000000	64.163136 
1217.000000	64.173364 
1216.000000	64.180040 
1215.000000	64.182567 
1214.000000	64.180541 
1213.000000	64.173960 
1212.000000	64.163208 
1211.000000	64.149093 
1210.000000	64.132785 
1209.000000	64.115905 
1208.000000	64.099955 
1207.000000	64.086103 
1206.000000	64.074850 
1205.000000	64.066195 
1204.000000	64.059638 
1203.000000	64.054584 
1202.000000	64.050292 
1201.000000	64.046335 
1200.000000	64.042568 
1199.000000	64.039087 
1198.000000	64.036083 
1197.000000	64.033722 
1196.000000	64.032149 
1195.000000	64.031171 
1194.000000	64.030575 
1193.000000	64.030051 
1192.000000	64.028930 
1191.000000	64.026713 
1190.000000	64.022898 
1189.000000	64.017391 
1188.000000	64.010906 
1187.000000	64.004635 
1186.000000	64.000368 
1185.000000	63.999676 
1184.000000	64.004158 
1183.000000	64.014291 
1182.000000	64.029407 
1181.000000	64.047527 
1180.000000	64.065670 
1179.000000	64.080524 
1178.000000	64.089059 
1177.000000	64.089250 
1176.000000	64.080667 
1175.000000	64.064478 
1174.000000	64.043354 
1173.000000	64.020538 
1172.000000	63.999438 
1171.000000	63.982653 
1170.000000	63.971900 
1169.000000	63.967990 
1168.000000	63.970851 
1167.000000	63.980054 
1166.000000	63.994693 
1165.000000	64.013743 
1164.000000	64.035940 
1163.000000	64.059448 
1162.000000	64.081978 
1161.000000	64.100909 
1160.000000	64.113426 
1159.000000	64.117288 
1158.000000	64.110898 
1157.000000	64.094018 
1156.000000	64.067769 
1155.000000	64.034605 
1154.000000	63.997840 
1153.000000	63.961005 
1152.000000	63.927435 
1151.000000	63.899683 
1150.000000	63.879585 
1149.000000	63.867950 
1148.000000	63.865041 
1147.000000	63.870453 
1146.000000	63.882899 
1145.000000	63.900470 
1144.000000	63.920497 
1143.000000	63.939976 
1142.000000	63.955831 
1141.000000	63.965344 
1140.000000	63.966917 
1139.000000	63.960123 
1138.000000	63.945531 
1137.000000	63.924574 
1136.000000	63.899302 
1135.000000	63.871955 
1134.000000	63.844823 
1133.000000	63.819932 
1132.000000	63.799023 
1131.000000	63.783240 
1130.000000	63.773417 
1129.000000	63.769888 
1128.000000	63.772368 
1127.000000	63.780498 
1126.000000	63.793778 
1125.000000	63.811659 
1124.000000	63.833546 
1123.000000	63.858532 
1122.000000	63.885092 
1121.000000	63.911390 
1120.000000	63.935375 
1119.000000	63.955211 
1118.000000	63.969588 
1117.000000	63.978171 
1116.000000	63.981628 
1115.000000	63.981246 
1114.000000	63.978695 
1113.000000	63.975667 
1112.000000	63.973474 
1111.000000	63.973236 
1110.000000	63.975524 
1109.000000	63.980793 
1108.000000	63.988685 
1107.000000	63.998365 
1106.000000	64.008164 
1105.000000	64.016008 
1104.000000	64.019680 
1103.000000	64.017391 
1102.000000	64.008283 
1101.000000	63.992810 
1100.000000	63.972687 
1099.000000	63.950467 
1098.000000	63.929367 
1097.000000	63.912343 
1096.000000	63.901638 
1095.000000	63.898277 
1094.000000	63.901972 
1093.000000	63.911223 
1092.000000	63.923645 
1091.000000	63.936400 
1090.000000	63.946700 
1089.000000	63.952398 
1088.000000	63.952255 
1087.000000	63.946318 
1086.000000	63.935637 
1085.000000	63.922429 
1084.000000	63.909578 
1083.000000	63.900232 
1082.000000	63.897371 
1081.000000	63.902854 
1080.000000	63.917255 
1079.000000	63.939285 
1078.000000	63.966012 
1077.000000	63.993477 
1076.000000	64.017248 
1075.000000	64.033603 
1074.000000	64.040088 
1073.000000	64.036655 
1072.000000	64.025115 
1071.000000	64.009165 
1070.000000	63.993310 
1069.000000	63.981819 
1068.000000	63.977670 
1067.000000	63.982057 
1066.000000	63.994240 
1065.000000	64.011645 
1064.000000	64.030909 
1063.000000	64.048624 
1062.000000	64.062237 
1061.000000	64.070320 
1060.000000	64.072656 
1059.000000	64.069890 
1058.000000	64.063119 
1057.000000	64.053320 
1056.000000	64.041113 
1055.000000	64.026808 
1054.000000	64.010500 
1053.000000	63.992667 
1052.000000	63.974189 
1051.000000	63.956785 
1050.000000	63.942480 
1049.000000	63.933420 
1048.000000	63.931107 
1047.000000	63.935875 
1046.000000	63.946843 
1045.000000	63.962078 
1044.000000	63.978910 
1043.000000	63.994479 
1042.000000	64.006710 
1041.000000	64.014744 
1040.000000	64.018964 
1039.000000	64.020943 
1038.000000	64.022970 
1037.000000	64.027309 
1036.000000	64.035725 
1035.000000	64.048910 
1034.000000	64.066386 
1033.000000	64.086508 
1032.000000	64.107012 
1031.000000	64.125514 
1030.000000	64.140200 
1029.000000	64.149832 
1028.000000	64.154291 
1027.000000	64.154100 
1026.000000	64.150071 
1025.000000	64.142751 
1024.000000	64.132690 
1023.000000	64.120149 
1022.000000	64.105439 
1021.000000	64.088940 
1020.000000	64.071512 
1019.000000	64.054322 
1018.000000	64.038872 
1017.000000	64.026522 
1016.000000	64.018201 
1015.000000	64.014291 
1014.000000	64.014434 
1013.000000	64.017772 
1012.000000	64.023041 
1011.000000	64.029026 
1010.000000	64.034605 
1009.000000	64.038991 
1008.000000	64.041805 
1007.000000	64.042949 
1006.000000	64.042925 
1005.000000	64.042043 
1004.000000	64.041113 
1003.000000	64.041304 
1002.000000	64.043879 
1001.000000	64.050102 
1000.000000	64.060807 
999.000000	 64.076328 
998.000000	 64.095616 
997.000000	 64.116525 
996.000000	 64.135718 
995.000000	 64.149475 
994.000000	 64.154410 
993.000000	 64.148139 
992.000000	 64.130425 
991.000000	 64.103055 
990.000000	 64.070105 
989.000000	 64.037203 
988.000000	 64.010381 
987.000000	 63.994979 
986.000000	 63.994407 
985.000000	 64.009451 
984.000000	 64.037752 
983.000000	 64.074349 
982.000000	 64.112687 
981.000000	 64.146018 
980.000000	 64.168596 
979.000000	 64.176774 
978.000000	 64.169740 
977.000000	 64.149403 
976.000000	 64.120101 
975.000000	 64.086985 
974.000000	 64.055371 
973.000000	 64.029002 
972.000000	 64.009666 
971.000000	 63.997125 
970.000000	 63.989567 
969.000000	 63.984370 
968.000000	 63.979530 
967.000000	 63.974070 
966.000000	 63.968634 
965.000000	 63.964796 
964.000000	 63.964390 
963.000000	 63.968706 
962.000000	 63.977694 
961.000000	 63.990259 
960.000000	 64.004278 
959.000000	 64.017891 
958.000000	 64.029884 
957.000000	 64.040422 
956.000000	 64.050889 
955.000000	 64.063596 
954.000000	 64.080667 
953.000000	 64.103055 
952.000000	 64.129686 
951.000000	 64.157319 
950.000000	 64.180970 
949.000000	 64.195489 
948.000000	 64.196658 
947.000000	 64.182567 
946.000000	 64.154028 
945.000000	 64.114618 
944.000000	 64.070200 
943.000000	 64.027333 
942.000000	 63.992428 
941.000000	 63.970208 
940.000000	 63.962984 
939.000000	 63.970732 
938.000000	 63.990736 
937.000000	 64.018654 
936.000000	 64.049100 
935.000000	 64.076900 
934.000000	 64.098048 
933.000000	 64.110589 
932.000000	 64.114761 
931.000000	 64.112353 
930.000000	 64.106535 
929.000000	 64.100456 
928.000000	 64.096617 
927.000000	 64.095878 
926.000000	 64.097166 
925.000000	 64.097929 
924.000000	 64.094686 
923.000000	 64.084696 
922.000000	 64.066576 
921.000000	 64.041137 
920.000000	 64.011454 
919.000000	 63.982105 
918.000000	 63.958382 
917.000000	 63.944888 
916.000000	 63.944101 
915.000000	 63.956189 
914.000000	 63.979005 
913.000000	 64.008545 
912.000000	 64.040279 
911.000000	 64.069342 
910.000000	 64.091706 
909.000000	 64.104223 
908.000000	 64.105129 
907.000000	 64.093828 
906.000000	 64.070749 
905.000000	 64.037537 
904.000000	 63.996767 
903.000000	 63.952636 
902.000000	 63.910412 
901.000000	 63.876366 
900.000000	 63.856363 
899.000000	 63.854765 
898.000000	 63.873171 
897.000000	 63.909888 
896.000000	 63.959741 
895.000000	 64.014887 
894.000000	 64.066529 
893.000000	 64.106345 
892.000000	 64.128732 
891.000000	 64.131450 
890.000000	 64.116430 
889.000000	 64.088702 
888.000000	 64.055538 
887.000000	 64.024782 
886.000000	 64.002871 
885.000000	 63.994026 
884.000000	 63.998651 
883.000000	 64.014005 
882.000000	 64.034414 
881.000000	 64.053082 
880.000000	 64.063549 
879.000000	 64.061665 
878.000000	 64.045977 
877.000000	 64.018321 
876.000000	 63.983464 
875.000000	 63.948106 
874.000000	 63.919353 
873.000000	 63.903331 
872.000000	 63.903951 
871.000000	 63.922142 
870.000000	 63.956093 
869.000000	 64.001488 
868.000000	 64.052414 
867.000000	 64.102602 
866.000000	 64.146351 
865.000000	 64.179778 
864.000000	 64.201068 
863.000000	 64.210677 
862.000000	 64.210557 
861.000000	 64.203858 
860.000000	 64.194369 
859.000000	 64.184951 
858.000000	 64.177680 
857.000000	 64.172625 
856.000000	 64.168500 
855.000000	 64.162635 
854.000000	 64.152359 
853.000000	 64.135384 
852.000000	 64.110946 
851.000000	 64.079904 
850.000000	 64.044857 
849.000000	 64.009714 
848.000000	 63.978910 
847.000000	 63.956212 
846.000000	 63.944029 
845.000000	 63.942813 
844.000000	 63.951182 
843.000000	 63.966488 
842.000000	 63.985300 
841.000000	 64.004302 
840.000000	 64.020800 
839.000000	 64.032983 
838.000000	 64.039921 
837.000000	 64.041018 
836.000000	 64.036130 
835.000000	 64.024806 
834.000000	 64.007163 
833.000000	 63.983941 
832.000000	 63.956880 
831.000000	 63.928818 
830.000000	 63.902807 
829.000000	 63.882184 
828.000000	 63.868713 
827.000000	 63.862609 
826.000000	 63.861775 
825.000000	 63.862371 
824.000000	 63.859820 
823.000000	 63.850069 
822.000000	 63.830995 
821.000000	 63.803243 
820.000000	 63.770461 
819.000000	 63.738632 
818.000000	 63.714265 
817.000000	 63.702774 
816.000000	 63.707208 
815.000000	 63.727402 
814.000000	 63.760066 
813.000000	 63.799786 
812.000000	 63.840746 
811.000000	 63.877725 
810.000000	 63.907313 
809.000000	 63.928151 
808.000000	 63.940858 
807.000000	 63.947415 
806.000000	 63.950181 
805.000000	 63.950872 
804.000000	 63.950395 
803.000000	 63.948202 
802.000000	 63.943099 
801.000000	 63.933634 
800.000000	 63.918852 
799.000000	 63.899230 
798.000000	 63.877034 
797.000000	 63.855886 
796.000000	 63.840460 
795.000000	 63.834977 
794.000000	 63.842225 
793.000000	 63.862752 
792.000000	 63.894557 
791.000000	 63.933539 
790.000000	 63.974404 
789.000000	 64.011693 
788.000000	 64.041161 
787.000000	 64.060354 
786.000000	 64.069461 
785.000000	 64.070606 
784.000000	 64.067673 
783.000000	 64.065170 
782.000000	 64.066696 
781.000000	 64.074563 
780.000000	 64.087796 
779.000000	 64.103364 
778.000000	 64.115667 
777.000000	 64.118576 
776.000000	 64.106321 
775.000000	 64.075207 
774.000000	 64.024996 
773.000000	 63.959407 
772.000000	 63.885545 
771.000000	 63.812375 
770.000000	 63.749051 
769.000000	 63.702845 
768.000000	 63.677406 
767.000000	 63.672041 
766.000000	 63.681888 
765.000000	 63.699197 
764.000000	 63.716173 
763.000000	 63.726758 
762.000000	 63.727617 
761.000000	 63.718819 
760.000000	 63.702845 
759.000000	 63.683795 
758.000000	 63.664841 
757.000000	 63.648152 
756.000000	 63.633918 
755.000000	 63.621354 
754.000000	 63.609242 
753.000000	 63.597440 
752.000000	 63.587546 
751.000000	 63.583350 
750.000000	 63.589620 
749.000000	 63.611435 
748.000000	 63.652420 
747.000000	 63.713622 
746.000000	 63.792514 
745.000000	 63.883185 
744.000000	 63.977050 
743.000000	 64.063835 
742.000000	 64.133358 
741.000000	 64.175844 
740.000000	 64.183783 
739.000000	 64.152836 
738.000000	 64.083027 
737.000000	 63.978862 
736.000000	 63.849568 
735.000000	 63.708853 
734.000000	 63.572764 
733.000000	 63.457417 
732.000000	 63.375902 
731.000000	 63.336443 
730.000000	 63.340282 
729.000000	 63.381409 
728.000000	 63.447952 
727.000000	 63.524460 
726.000000	 63.595509 
725.000000	 63.647961 
724.000000	 63.674187 
723.000000	 63.672518 
722.000000	 63.647389 
721.000000	 63.606929 
720.000000	 63.560962 
719.000000	 63.517999 
718.000000	 63.483977 
717.000000	 63.461518 
716.000000	 63.449978 
715.000000	 63.446640 
714.000000	 63.448596 
713.000000	 63.454246 
712.000000	 63.463139 
711.000000	 63.476586 
710.000000	 63.496971 
709.000000	 63.527202 
708.000000	 63.568758 
707.000000	 63.621664 
706.000000	 63.683843 
705.000000	 63.752102 
704.000000	 63.822770 
703.000000	 63.892579 
702.000000	 63.958978 
701.000000	 64.020729 
700.000000	 64.078235 
699.000000	 64.132285 
698.000000	 64.183759 
697.000000	 64.232039 
696.000000	 64.275956 
695.000000	 64.312148 
694.000000	 64.336776 
693.000000	 64.344978 
692.000000	 64.332723 
691.000000	 64.297103 
690.000000	 64.237880 
689.000000	 64.157319 
688.000000	 64.060449 
687.000000	 63.953781 
686.000000	 63.844442 
685.000000	 63.739252 
684.000000	 63.643860 
683.000000	 63.562917 
682.000000	 63.499474 
681.000000	 63.454604 
680.000000	 63.427829 
679.000000	 63.416695 
678.000000	 63.418006 
677.000000	 63.426804 
676.000000	 63.439059 
675.000000	 63.451981 
674.000000	 63.464856 
673.000000	 63.478517 
672.000000	 63.494420 
671.000000	 63.513851 
670.000000	 63.536119 
669.000000	 63.558006 
668.000000	 63.574457 
667.000000	 63.579893 
666.000000	 63.570094 
665.000000	 63.543725 
664.000000	 63.502931 
663.000000	 63.452911 
662.000000	 63.401150 
661.000000	 63.355660 
660.000000	 63.322162 
659.000000	 63.302516 
658.000000	 63.295054 
657.000000	 63.294887 
656.000000	 63.294982 
655.000000	 63.288545 
654.000000	 63.271069 
653.000000	 63.241910 
652.000000	 63.203740 
651.000000	 63.162422 
650.000000	 63.124442 
649.000000	 63.095998 
648.000000	 63.081288 
647.000000	 63.081598 
646.000000	 63.094925 
645.000000	 63.116860 
644.000000	 63.141703 
643.000000	 63.164234 
642.000000	 63.180255 
641.000000	 63.188934 
640.000000	 63.192462 
639.000000	 63.196516 
638.000000	 63.208603 
637.000000	 63.237094 
636.000000	 63.289022 
635.000000	 63.369154 
634.000000	 63.478398 
633.000000	 63.613009 
632.000000	 63.764452 
631.000000	 63.921403 
630.000000	 64.070653 
629.000000	 64.198613 
628.000000	 64.292621 
627.000000	 64.343953 
626.000000	 64.347648 
625.000000	 64.303755 
624.000000	 64.216089 
623.000000	 64.092969 
622.000000	 63.944768 
621.000000	 63.784503 
620.000000	 63.624691 
619.000000	 63.477611 
618.000000	 63.352727 
617.000000	 63.256502 
616.000000	 63.191723 
615.000000	 63.157272 
614.000000	 63.150143 
613.000000	 63.165831 
612.000000	 63.200283 
611.000000	 63.249492 
610.000000	 63.311338 
609.000000	 63.384675 
608.000000	 63.469338 
607.000000	 63.564682 
606.000000	 63.670325 
605.000000	 63.784813 
604.000000	 63.905715 
603.000000	 64.028811 
602.000000	 64.148545 
601.000000	 64.257621 
600.000000	 64.347863 
599.000000	 64.410662 
598.000000	 64.439821 
597.000000	 64.431500 
596.000000	 64.386391 
595.000000	 64.308857 
594.000000	 64.207601 
593.000000	 64.093351 
592.000000	 63.979005 
591.000000	 63.875627 
590.000000	 63.791227 
589.000000	 63.729667 
588.000000	 63.691830 
587.000000	 63.674879 
586.000000	 63.673257 
585.000000	 63.681268 
584.000000	 63.694238 
583.000000	 63.709330 
582.000000	 63.725280 
581.000000	 63.742399 
580.000000	 63.761234 
579.000000	 63.782620 
578.000000	 63.806700 
577.000000	 63.831853 
576.000000	 63.854694 
575.000000	 63.871479 
574.000000	 63.878393 
573.000000	 63.871860 
572.000000	 63.849663 
571.000000	 63.811492 
570.000000	 63.760137 
569.000000	 63.699674 
568.000000	 63.637280 
567.000000	 63.581776 
566.000000	 63.543295 
565.000000	 63.531184 
564.000000	 63.552832 
563.000000	 63.611102 
562.000000	 63.704729 
561.000000	 63.827228 
560.000000	 63.969635 
559.000000	 64.121651 
558.000000	 64.273476 
557.000000	 64.417219 
556.000000	 64.545059 
555.000000	 64.649510 
554.000000	 64.722466 
553.000000	 64.755845 
552.000000	 64.743709 
551.000000	 64.683794 
550.000000	 64.579653 
549.000000	 64.440250 
548.000000	 64.279103 
547.000000	 64.111971 
546.000000	 63.953876 
545.000000	 63.817119 
544.000000	 63.710618 
543.000000	 63.638758 
542.000000	 63.602161 
541.000000	 63.597440 
540.000000	 63.618469 
539.000000	 63.656926 
538.000000	 63.702797 
537.000000	 63.746213 
536.000000	 63.777399 
535.000000	 63.789391 
534.000000	 63.778185 
533.000000	 63.744044 
532.000000	 63.690686 
531.000000	 63.625049 
530.000000	 63.555884 
529.000000	 63.491225 
528.000000	 63.436889 
527.000000	 63.394570 
526.000000	 63.361787 
525.000000	 63.333773 
524.000000	 63.304996 
523.000000	 63.270783 
522.000000	 63.228511 
521.000000	 63.177776 
520.000000	 63.120317 
519.000000	 63.058304 
518.000000	 62.994670 
517.000000	 62.931537 
516.000000	 62.871265 
515.000000	 62.816476 
514.000000	 62.770342 
513.000000	 62.734556 
512.000000	 62.711763 
511.000000	 62.703847 
510.000000	 62.713885 
509.000000	 62.744188 
508.000000	 62.797427 
507.000000	 62.874770 
506.000000	 62.975502 
505.000000	 63.095879 
504.000000	 63.228368 
503.000000	 63.361811 
502.000000	 63.483214 
501.000000	 63.579821 
500.000000	 63.641524 
499.000000	 63.662815 
498.000000	 63.644194 
497.000000	 63.591790 
496.000000	 63.516068 
495.000000	 63.429117 
494.000000	 63.342189 
493.000000	 63.263702 
492.000000	 63.198018 
491.000000	 63.146448 
490.000000	 63.107800 
489.000000	 63.081097 
488.000000	 63.067388 
487.000000	 63.070297 
486.000000	 63.094401 
485.000000	 63.143897 
484.000000	 63.220453 
483.000000	 63.320851 
482.000000	 63.435888 
481.000000	 63.551259 
480.000000	 63.649988 
479.000000	 63.716125 
478.000000	 63.738822 
477.000000	 63.714003 
476.000000	 63.646030 
475.000000	 63.544321 
474.000000	 63.421273 
473.000000	 63.287878 
472.000000	 63.151693 
471.000000	 63.016057 
470.000000	 62.881135 
469.000000	 62.745547 
468.000000	 62.609148 
467.000000	 62.475204 
466.000000	 62.352252 
465.000000	 62.250566 
464.000000	 62.183260 
463.000000	 62.163043 
462.000000	 62.200188 
461.000000	 62.298321 
460.000000	 62.453079 
459.000000	 62.650656 
458.000000	 62.869954 
457.000000	 63.084983 
456.000000	 63.269877 
455.000000	 63.402795 
454.000000	 63.471245 
453.000000	 63.473963 
452.000000	 63.421082 
451.000000	 63.330984 
450.000000	 63.226985 
449.000000	 63.133096 
448.000000	 63.067841 
447.000000	 63.040733 
446.000000	 63.052821 
445.000000	 63.097953 
444.000000	 63.161373 
443.000000	 63.223028 
442.000000	 63.263869 
441.000000	 63.268423 
440.000000	 63.224220 
439.000000	 63.124918 
438.000000	 62.969732 
437.000000	 62.765693 
436.000000	 62.527060 
435.000000	 62.274909 
434.000000	 62.032556 
433.000000	 61.824393 
432.000000	 61.673188 
431.000000	 61.595797 
430.000000	 61.599397 
429.000000	 61.681652 
428.000000	 61.826658 
427.000000	 62.014293 
426.000000	 62.225389 
425.000000	 62.443637 
424.000000	 62.650132 
423.000000	 62.840914 
422.000000	 63.026285 
421.000000	 63.227248 
420.000000	 63.466072 
419.000000	 63.769221 
418.000000	 64.157891 
417.000000	 64.639997 
416.000000	 65.204024 
415.000000	 65.817141 
414.000000	 66.425871 
413.000000	 66.975474 
412.000000	 67.411041 
411.000000	 67.681217 
410.000000	 67.744278 
409.000000	 67.586898 
408.000000	 67.219829 
407.000000	 66.660499 
406.000000	 65.952730 
405.000000	 65.163636 
404.000000	 64.392018 
403.000000	 63.736724 
402.000000	 63.320660 
401.000000	 63.258266 
400.000000	 63.662314 
399.000000	 64.616966 
398.000000	 66.159486 
397.000000	 68.248653 
396.000000	 70.780181 
395.000000	 73.591303 
394.000000	 76.479434 
393.000000	 79.226255 
392.000000	 81.622600 
391.000000	 83.489298 
390.000000	 84.690761 
389.000000	 85.139369 
388.000000	 84.793877 
387.000000	 83.648061 
386.000000	 81.769299 
385.000000	 79.257535 
384.000000	 76.255178 
383.000000	 72.898435 
382.000000	 69.334006 
381.000000	 65.682697 
380.000000	 62.032628 
379.000000	 58.468365 
378.000000	 55.058979 
377.000000	 51.935744 
376.000000	 49.228143 
375.000000	 47.166848 
374.000000	 46.016383 
373.000000	 46.066164 
372.000000	 47.543287 
371.000000	 50.514101 
370.000000	 54.771280 

