PE IR       SPECTRUM    SPECTRUM    ASCII       PEDS        1.60        
  -1
BZ6033~1.ASC
17/04/07
15:32:57.00
17/04/07
15:32:57.00
tln
$BZ1503107-1_t0028$<tbV0>[0.0,-7.8,8.0,0.0,27,1,0]
370.000000
64









2002,4.07    
MIRTGS : RIGHTBACK : INTERNAL 2
MIR : ON : INTERNAL 2
OPTKBR

0.200000
8
8.000000
FILLER
RATIO
SPECTRUM
UNLOCKED 256

DOUBLE
64
COMBINED
1
0
0


1.000000
RATIO


1
0
TRUE
51149
0
LEFT NOT FITTED RIGHT NOT FITTED 0
NONE
NONE
15600
12.000000
4.427000
51148
TRUE
1 0 8 72 0 0 0 0 

15798.010000






#HDR
-1
-1
#GR
CM-1
%T
0.00002384185791015625
0.0
5000.000000
-1.000000
4631
8
76.519155
54.583001
#DATA
5000.000000	65.504622 
4999.000000	65.450406 
4998.000000	65.369749 
4997.000000	65.271401 
4996.000000	65.164113 
4995.000000	65.056514 
4994.000000	64.955973 
4993.000000	64.869213 
4992.000000	64.801454 
4991.000000	64.756965 
4990.000000	64.737772 
4989.000000	64.743375 
4988.000000	64.770746 
4987.000000	64.814734 
4986.000000	64.867925 
4985.000000	64.921164 
4984.000000	64.965772 
4983.000000	64.994812 
4982.000000	65.003728 
4981.000000	64.991044 
4980.000000	64.958882 
4979.000000	64.912128 
4978.000000	64.857816 
4977.000000	64.803075 
4976.000000	64.753389 
4975.000000	64.711809 
4974.000000	64.678788 
4973.000000	64.653468 
4972.000000	64.635038 
4971.000000	64.623498 
4970.000000	64.620780 
4969.000000	64.629316 
4968.000000	64.651203 
4967.000000	64.686155 
4966.000000	64.730143 
4965.000000	64.775824 
4964.000000	64.813303 
4963.000000	64.832496 
4962.000000	64.825892 
4961.000000	64.790081 
4960.000000	64.726877 
4959.000000	64.643359 
4958.000000	64.550638 
4957.000000	64.460968 
4956.000000	64.385128 
4955.000000	64.330434 
4954.000000	64.299750 
4953.000000	64.291548 
4952.000000	64.301395 
4951.000000	64.323687 
4950.000000	64.354038 
4949.000000	64.390349 
4948.000000	64.433026 
4947.000000	64.484429 
4946.000000	64.546656 
4945.000000	64.619827 
4944.000000	64.699769 
4943.000000	64.778900 
4942.000000	64.845490 
4941.000000	64.886188 
4940.000000	64.888930 
4939.000000	64.845991 
4938.000000	64.757204 
4937.000000	64.630866 
4936.000000	64.483523 
4935.000000	64.336609 
4934.000000	64.213109 
4933.000000	64.132761 
4932.000000	64.108109 
4931.000000	64.142155 
4930.000000	64.228057 
4929.000000	64.351344 
4928.000000	64.492893 
4927.000000	64.633607 
4926.000000	64.757561 
4925.000000	64.855003 
4924.000000	64.922881 
4923.000000	64.964365 
4922.000000	64.985847 
4921.000000	64.994812 
4920.000000	64.998102 
4919.000000	64.999651 
4918.000000	65.001821 
4917.000000	65.003681 
4916.000000	65.004396 
4915.000000	65.001416 
4914.000000	64.992880 
4913.000000	64.976477 
4912.000000	64.950227 
4911.000000	64.912676 
4910.000000	64.863443 
4909.000000	64.804005 
4908.000000	64.737796 
4907.000000	64.670372 
4906.000000	64.608526 
4905.000000	64.559388 
4904.000000	64.528870 
4903.000000	64.519858 
4902.000000	64.531636 
4901.000000	64.560008 
4900.000000	64.598822 
4899.000000	64.641976 
4898.000000	64.685225 
4897.000000	64.726972 
4896.000000	64.768290 
4895.000000	64.812445 
4894.000000	64.862751 
4893.000000	64.919829 
4892.000000	64.981174 
4891.000000	65.041255 
4890.000000	65.092229 
4889.000000	65.126943 
4888.000000	65.139889 
4887.000000	65.129756 
4886.000000	65.099239 
4885.000000	65.055346 
4884.000000	65.007019 
4883.000000	64.963555 
4882.000000	64.932179 
4881.000000	64.916682 
4880.000000	64.917302 
4879.000000	64.931488 
4878.000000	64.954781 
4877.000000	64.982676 
4876.000000	65.011024 
4875.000000	65.036797 
4874.000000	65.057873 
4873.000000	65.072894 
4872.000000	65.080595 
4871.000000	65.079736 
4870.000000	65.069317 
4869.000000	65.048623 
4868.000000	65.018177 
4867.000000	64.979720 
4866.000000	64.936351 
4865.000000	64.892315 
4864.000000	64.852881 
4863.000000	64.822912 
4862.000000	64.806294 
4861.000000	64.804339 
4860.000000	64.816164 
4859.000000	64.837765 
4858.000000	64.863109 
4857.000000	64.884877 
4856.000000	64.896130 
4855.000000	64.891505 
4854.000000	64.868426 
4853.000000	64.827656 
4852.000000	64.772748 
4851.000000	64.710140 
4850.000000	64.647698 
4849.000000	64.593124 
4848.000000	64.552450 
4847.000000	64.529228 
4846.000000	64.524030 
4845.000000	64.534950 
4844.000000	64.558076 
4843.000000	64.588356 
4842.000000	64.620685 
4841.000000	64.650821 
4840.000000	64.675903 
4839.000000	64.694142 
4838.000000	64.705014 
4837.000000	64.709210 
4836.000000	64.708065 
4835.000000	64.703178 
4834.000000	64.695954 
4833.000000	64.687299 
4832.000000	64.677906 
4831.000000	64.668226 
4830.000000	64.659428 
4829.000000	64.653205 
4828.000000	64.652180 
4827.000000	64.659452 
4826.000000	64.678001 
4825.000000	64.709734 
4824.000000	64.754891 
4823.000000	64.811539 
4822.000000	64.875674 
4821.000000	64.941501 
4820.000000	65.002822 
4819.000000	65.053868 
4818.000000	65.089964 
4817.000000	65.107870 
4816.000000	65.106558 
4815.000000	65.086317 
4814.000000	65.048480 
4813.000000	64.994740 
4812.000000	64.927530 
4811.000000	64.849996 
4810.000000	64.766883 
4809.000000	64.683604 
4808.000000	64.606904 
4807.000000	64.542841 
4806.000000	64.496016 
4805.000000	64.468455 
4804.000000	64.458537 
4803.000000	64.462208 
4802.000000	64.473533 
4801.000000	64.486908 
4800.000000	64.497756 
4799.000000	64.504313 
4798.000000	64.507293 
4797.000000	64.509344 
4796.000000	64.513754 
4795.000000	64.522790 
4794.000000	64.536452 
4793.000000	64.552736 
4792.000000	64.568161 
4791.000000	64.579033 
4790.000000	64.582657 
4789.000000	64.578771 
4788.000000	64.569401 
4787.000000	64.557933 
4786.000000	64.547872 
4785.000000	64.541530 
4784.000000	64.539504 
4783.000000	64.540505 
4782.000000	64.541959 
4781.000000	64.541673 
4780.000000	64.537787 
4779.000000	64.529585 
4778.000000	64.517283 
4777.000000	64.501857 
4776.000000	64.484715 
4775.000000	64.466619 
4774.000000	64.448738 
4773.000000	64.431762 
4772.000000	64.417409 
4771.000000	64.408349 
4770.000000	64.408469 
4769.000000	64.422178 
4768.000000	64.453983 
4767.000000	64.506959 
4766.000000	64.581608 
4765.000000	64.675211 
4764.000000	64.781975 
4763.000000	64.893913 
4762.000000	65.002179 
4761.000000	65.098428 
4760.000000	65.176248 
4759.000000	65.231871 
4758.000000	65.264797 
4757.000000	65.277242 
4756.000000	65.273928 
4755.000000	65.260362 
4754.000000	65.242433 
4753.000000	65.224313 
4752.000000	65.208601 
4751.000000	65.195226 
4750.000000	65.182805 
4749.000000	65.168595 
4748.000000	65.150189 
4747.000000	65.126132 
4746.000000	65.096831 
4745.000000	65.064287 
4744.000000	65.031719 
4743.000000	65.002965 
4742.000000	64.981460 
4741.000000	64.969038 
4740.000000	64.965486 
4739.000000	64.968800 
4738.000000	64.976096 
4737.000000	64.984798 
4736.000000	64.993309 
4735.000000	65.001130 
4734.000000	65.008640 
4733.000000	65.017008 
4732.000000	65.026950 
4731.000000	65.037226 
4730.000000	65.045070 
4729.000000	65.047526 
4728.000000	65.041828 
4727.000000	65.026855 
4726.000000	65.003347 
4725.000000	64.974379 
4724.000000	64.944529 
4723.000000	64.918851 
4722.000000	64.902091 
4721.000000	64.896893 
4720.000000	64.904665 
4719.000000	64.924716 
4718.000000	64.956331 
4717.000000	64.998960 
4716.000000	65.053176 
4715.000000	65.120172 
4714.000000	65.200686 
4713.000000	65.293407 
4712.000000	65.393900 
4711.000000	65.493893 
4710.000000	65.581560 
4709.000000	65.643358 
4708.000000	65.666556 
4707.000000	65.642428 
4706.000000	65.568566 
4705.000000	65.450191 
4704.000000	65.299940 
4703.000000	65.136170 
4702.000000	64.980077 
4701.000000	64.851713 
4700.000000	64.766716 
4699.000000	64.732933 
4698.000000	64.750027 
4697.000000	64.809060 
4696.000000	64.895129 
4695.000000	64.990377 
4694.000000	65.077233 
4693.000000	65.142369 
4692.000000	65.177845 
4691.000000	65.183138 
4690.000000	65.163254 
4689.000000	65.127849 
4688.000000	65.087747 
4687.000000	65.052866 
4686.000000	65.029835 
4685.000000	65.020990 
4684.000000	65.024232 
4683.000000	65.034604 
4682.000000	65.045785 
4681.000000	65.051913 
4680.000000	65.049099 
4679.000000	65.035915 
4678.000000	65.013623 
4677.000000	64.984965 
4676.000000	64.953947 
4675.000000	64.924049 
4674.000000	64.898276 
4673.000000	64.878344 
4672.000000	64.865159 
4671.000000	64.858555 
4670.000000	64.858269 
4669.000000	64.864110 
4668.000000	64.876103 
4667.000000	64.894175 
4666.000000	64.917922 
4665.000000	64.946031 
4664.000000	64.976429 
4663.000000	65.006351 
4662.000000	65.032172 
4661.000000	65.050029 
4660.000000	65.056753 
4659.000000	65.050578 
4658.000000	65.031743 
4657.000000	65.002608 
4656.000000	64.967608 
4655.000000	64.932560 
4654.000000	64.904189 
4653.000000	64.888620 
4652.000000	64.890289 
4651.000000	64.910721 
4650.000000	64.948630 
4649.000000	64.999103 
4648.000000	65.054631 
4647.000000	65.105819 
4646.000000	65.143680 
4645.000000	65.160679 
4644.000000	65.152287 
4643.000000	65.117835 
4642.000000	65.060710 
4641.000000	64.987444 
4640.000000	64.906215 
4639.000000	64.825272 
4638.000000	64.751815 
4637.000000	64.690589 
4636.000000	64.643740 
4635.000000	64.610838 
4634.000000	64.589738 
4633.000000	64.577388 
4632.000000	64.571094 
4631.000000	64.568471 
4630.000000	64.568066 
4629.000000	64.569306 
4628.000000	64.572644 
4627.000000	64.578700 
4626.000000	64.588522 
4625.000000	64.603018 
4624.000000	64.623165 
4623.000000	64.649701 
4622.000000	64.682674 
4621.000000	64.720869 
4620.000000	64.761996 
4619.000000	64.802646 
4618.000000	64.839172 
4617.000000	64.868688 
4616.000000	64.889764 
4615.000000	64.902949 
4614.000000	64.910221 
4613.000000	64.914894 
4612.000000	64.920043 
4611.000000	64.927935 
4610.000000	64.938592 
4609.000000	64.949703 
4608.000000	64.956998 
4607.000000	64.955830 
4606.000000	64.941811 
4605.000000	64.912438 
4604.000000	64.868140 
4603.000000	64.812374 
4602.000000	64.751362 
4601.000000	64.692926 
4600.000000	64.644885 
4599.000000	64.613890 
4598.000000	64.604282 
4597.000000	64.617323 
4596.000000	64.650964 
4595.000000	64.700126 
4594.000000	64.757323 
4593.000000	64.814257 
4592.000000	64.862275 
4591.000000	64.895248 
4590.000000	64.909982 
4589.000000	64.907646 
4588.000000	64.892554 
4587.000000	64.871859 
4586.000000	64.853835 
4585.000000	64.845585 
4584.000000	64.851474 
4583.000000	64.871478 
4582.000000	64.901447 
4581.000000	64.934039 
4580.000000	64.960813 
4579.000000	64.974045 
4578.000000	64.968943 
4577.000000	64.944744 
4576.000000	64.904856 
4575.000000	64.855670 
4574.000000	64.804768 
4573.000000	64.759206 
4572.000000	64.724230 
4571.000000	64.702463 
4570.000000	64.693665 
4569.000000	64.696025 
4568.000000	64.706206 
4567.000000	64.720559 
4566.000000	64.734745 
4565.000000	64.744758 
4564.000000	64.746880 
4563.000000	64.737224 
4562.000000	64.713335 
4561.000000	64.673662 
4560.000000	64.619684 
4559.000000	64.555692 
4558.000000	64.489126 
4557.000000	64.429163 
4556.000000	64.385128 
4555.000000	64.364361 
4554.000000	64.370560 
4553.000000	64.402675 
4552.000000	64.455747 
4551.000000	64.521980 
4550.000000	64.592862 
4549.000000	64.660954 
4548.000000	64.720702 
4547.000000	64.769053 
4546.000000	64.805412 
4545.000000	64.830899 
4544.000000	64.846968 
4543.000000	64.855098 
4542.000000	64.856624 
4541.000000	64.852905 
4540.000000	64.846229 
4539.000000	64.839339 
4538.000000	64.836168 
4537.000000	64.840412 
4536.000000	64.855694 
4535.000000	64.883565 
4534.000000	64.923024 
4533.000000	64.970326 
4532.000000	65.020155 
4531.000000	65.065956 
4530.000000	65.101385 
4529.000000	65.121245 
4528.000000	65.122628 
4527.000000	65.105676 
4526.000000	65.073394 
4525.000000	65.032362 
4524.000000	64.991736 
4523.000000	64.962506 
4522.000000	64.955210 
4521.000000	64.978456 
4520.000000	65.036129 
4519.000000	65.126514 
4518.000000	65.241122 
4517.000000	65.366125 
4516.000000	65.483927 
4515.000000	65.576481 
4514.000000	65.628552 
4513.000000	65.631222 
4512.000000	65.582942 
4511.000000	65.490436 
4510.000000	65.365791 
4509.000000	65.224623 
4508.000000	65.081334 
4507.000000	64.947223 
4506.000000	64.828324 
4505.000000	64.726638 
4504.000000	64.640402 
4503.000000	64.566898 
4502.000000	64.503264 
4501.000000	64.448070 
4500.000000	64.401531 
4499.000000	64.364862 
4498.000000	64.340782 
4497.000000	64.332199 
4496.000000	64.341115 
4495.000000	64.367580 
4494.000000	64.409017 
4493.000000	64.460611 
4492.000000	64.515924 
4491.000000	64.568448 
4490.000000	64.612865 
4489.000000	64.646029 
4488.000000	64.667844 
4487.000000	64.679479 
4486.000000	64.683055 
4485.000000	64.678907 
4484.000000	64.665055 
4483.000000	64.637398 
4482.000000	64.591240 
4481.000000	64.523482 
4480.000000	64.434766 
4479.000000	64.330935 
4478.000000	64.222168 
4477.000000	64.122200 
4476.000000	64.045858 
4475.000000	64.004540 
4474.000000	64.003133 
4473.000000	64.038705 
4472.000000	64.101219 
4471.000000	64.174842 
4470.000000	64.241719 
4469.000000	64.288735 
4468.000000	64.310908 
4467.000000	64.310979 
4466.000000	64.298558 
4465.000000	64.288568 
4464.000000	64.296007 
4463.000000	64.329528 
4462.000000	64.388370 
4461.000000	64.467382 
4460.000000	64.554190 
4459.000000	64.626336 
4458.000000	64.662384 
4457.000000	64.649701 
4456.000000	64.587974 
4455.000000	64.493751 
4454.000000	64.392256 
4453.000000	64.304256 
4452.000000	64.247417 
4451.000000	64.237308 
4450.000000	64.274859 
4449.000000	64.342021 
4448.000000	64.416456 
4447.000000	64.477944 
4446.000000	64.520335 
4445.000000	64.554691 
4444.000000	64.610528 
4443.000000	64.726924 
4442.000000	64.939284 
4441.000000	65.269136 
4440.000000	65.702867 
4439.000000	66.203975 
4438.000000	66.717648 
4437.000000	67.203760 
4436.000000	67.658638 
4435.000000	68.124532 
4434.000000	68.696784 
4433.000000	69.472885 
4432.000000	70.540094 
4431.000000	71.889734 
4430.000000	73.428606 
4429.000000	74.928259 
4428.000000	76.074719 
4427.000000	76.519155 
4426.000000	75.967121 
4425.000000	74.271821 
4424.000000	71.497797 
4423.000000	67.928624 
4422.000000	64.029216 
4421.000000	60.335612 
4420.000000	57.338047 
4419.000000	55.379080 
4418.000000	54.583001 
4417.000000	54.878759 
4416.000000	56.040263 
4415.000000	57.768726 
4414.000000	59.768772 
4413.000000	61.784791 
4412.000000	63.642764 
4411.000000	65.215229 
4410.000000	66.438412 
4409.000000	67.289090 
4408.000000	67.782497 
4407.000000	67.968773 
4406.000000	67.910075 
4405.000000	67.686939 
4404.000000	67.364835 
4403.000000	67.005872 
4402.000000	66.642808 
4401.000000	66.300201 
4400.000000	65.979003 
4399.000000	65.678930 
4398.000000	65.391588 
4397.000000	65.111613 
4396.000000	64.838361 
4395.000000	64.576601 
4394.000000	64.339423 
4393.000000	64.142537 
4392.000000	64.004802 
4391.000000	63.943099 
4390.000000	63.961648 
4389.000000	64.047360 
4388.000000	64.184403 
4387.000000	64.356541 
4386.000000	64.545249 
4385.000000	64.733386 
4384.000000	64.905357 
4383.000000	65.048789 
4382.000000	65.158939 
4381.000000	65.236043 
4380.000000	65.276288 
4379.000000	65.276360 
4378.000000	65.240001 
4377.000000	65.174293 
4376.000000	65.090537 
4375.000000	65.000891 
4374.000000	64.918637 
4373.000000	64.852952 
4372.000000	64.809083 
4371.000000	64.785385 
4370.000000	64.773750 
4369.000000	64.763236 
4368.000000	64.744687 
4367.000000	64.711856 
4366.000000	64.662933 
4365.000000	64.601564 
4364.000000	64.535593 
4363.000000	64.474248 
4362.000000	64.425468 
4361.000000	64.394259 
4360.000000	64.381837 
4359.000000	64.386081 
4358.000000	64.402937 
4357.000000	64.427900 
4356.000000	64.457726 
4355.000000	64.491581 
4354.000000	64.530348 
4353.000000	64.574551 
4352.000000	64.623689 
4351.000000	64.675354 
4350.000000	64.725303 
4349.000000	64.767718 
4348.000000	64.796996 
4347.000000	64.809513 
4346.000000	64.804458 
4345.000000	64.785170 
4344.000000	64.757251 
4343.000000	64.727306 
4342.000000	64.701080 
4341.000000	64.682531 
4340.000000	64.672470 
4339.000000	64.668703 
4338.000000	64.667201 
4337.000000	64.664125 
4336.000000	64.656281 
4335.000000	64.642477 
4334.000000	64.623427 
4333.000000	64.601397 
4332.000000	64.578914 
4331.000000	64.558291 
4330.000000	64.540672 
4329.000000	64.526200 
4328.000000	64.514017 
4327.000000	64.503264 
4326.000000	64.493656 
4325.000000	64.486217 
4324.000000	64.482617 
4323.000000	64.485692 
4322.000000	64.497518 
4321.000000	64.519906 
4320.000000	64.553332 
4319.000000	64.597105 
4318.000000	64.649057 
4317.000000	64.706182 
4316.000000	64.764833 
4315.000000	64.821195 
4314.000000	64.871931 
4313.000000	64.914703 
4312.000000	64.948391 
4311.000000	64.973020 
4310.000000	64.989447 
4309.000000	64.998435 
4308.000000	65.000438 
4307.000000	64.995098 
4306.000000	64.981889 
4305.000000	64.960455 
4304.000000	64.931488 
4303.000000	64.897060 
4302.000000	64.860939 
4301.000000	64.828276 
4300.000000	64.804434 
4299.000000	64.794158 
4298.000000	64.800262 
4297.000000	64.822840 
4296.000000	64.859580 
4295.000000	64.905953 
4294.000000	64.956545 
4293.000000	65.006375 
4292.000000	65.051674 
4291.000000	65.090513 
4290.000000	65.122222 
4289.000000	65.146803 
4288.000000	65.163946 
4287.000000	65.172481 
4286.000000	65.171194 
4285.000000	65.159320 
4284.000000	65.136981 
4283.000000	65.105938 
4282.000000	65.069460 
4281.000000	65.032076 
4280.000000	64.997935 
4279.000000	64.969897 
4278.000000	64.948678 
4277.000000	64.932656 
4276.000000	64.918279 
4275.000000	64.901280 
4274.000000	64.877676 
4273.000000	64.845609 
4272.000000	64.805674 
4271.000000	64.761519 
4270.000000	64.718580 
4269.000000	64.683461 
4268.000000	64.661836 
4267.000000	64.657998 
4266.000000	64.673423 
4265.000000	64.706707 
4264.000000	64.754152 
4263.000000	64.809441 
4262.000000	64.865159 
4261.000000	64.913344 
4260.000000	64.946794 
4259.000000	64.960312 
4258.000000	64.951562 
4257.000000	64.921307 
4256.000000	64.873337 
4255.000000	64.813351 
4254.000000	64.747953 
4253.000000	64.683556 
4252.000000	64.625811 
4251.000000	64.578986 
4250.000000	64.545798 
4249.000000	64.527964 
4248.000000	64.525938 
4247.000000	64.539051 
4246.000000	64.565563 
4245.000000	64.602351 
4244.000000	64.645743 
4243.000000	64.691233 
4242.000000	64.735102 
4241.000000	64.773869 
4240.000000	64.805960 
4239.000000	64.831423 
4238.000000	64.852213 
4237.000000	64.871501 
4236.000000	64.892268 
4235.000000	64.916491 
4234.000000	64.943981 
4233.000000	64.972519 
4232.000000	64.998555 
4231.000000	65.018320 
4230.000000	65.028977 
4229.000000	65.029788 
4228.000000	65.022277 
4227.000000	65.010023 
4226.000000	64.997744 
4225.000000	64.990091 
4224.000000	64.990448 
4223.000000	64.999794 
4222.000000	65.016841 
4221.000000	65.037846 
4220.000000	65.057754 
4219.000000	65.071034 
4218.000000	65.072822 
4217.000000	65.060400 
4216.000000	65.033531 
4215.000000	64.995408 
4214.000000	64.951276 
4213.000000	64.908218 
4212.000000	64.873695 
4211.000000	64.853882 
4210.000000	64.852523 
4209.000000	64.869832 
4208.000000	64.902734 
4207.000000	64.945268 
4206.000000	64.989876 
4205.000000	65.029597 
4204.000000	65.059876 
4203.000000	65.079689 
4202.000000	65.091323 
4201.000000	65.100026 
4200.000000	65.111923 
4199.000000	65.132021 
4198.000000	65.161967 
4197.000000	65.198755 
4196.000000	65.234851 
4195.000000	65.260124 
4194.000000	65.264344 
4193.000000	65.239953 
4192.000000	65.184807 
4191.000000	65.103173 
4190.000000	65.005159 
4189.000000	64.904737 
4188.000000	64.816808 
4187.000000	64.753556 
4186.000000	64.722156 
4185.000000	64.723968 
4184.000000	64.754104 
4183.000000	64.803838 
4182.000000	64.861583 
4181.000000	64.915752 
4180.000000	64.956617 
4179.000000	64.977598 
4178.000000	64.976143 
4177.000000	64.952778 
4176.000000	64.911556 
4175.000000	64.858508 
4174.000000	64.801812 
4173.000000	64.750218 
4172.000000	64.712214 
4171.000000	64.694714 
4170.000000	64.701724 
4169.000000	64.733529 
4168.000000	64.785957 
4167.000000	64.851117 
4166.000000	64.918637 
4165.000000	64.977979 
4164.000000	65.020155 
4163.000000	65.040016 
4162.000000	65.036916 
4161.000000	65.015196 
4160.000000	64.982438 
4159.000000	64.948105 
4158.000000	64.920830 
4157.000000	64.907121 
4156.000000	64.910340 
4155.000000	64.930415 
4154.000000	64.964532 
4153.000000	65.008449 
4152.000000	65.058112 
4151.000000	65.109992 
4150.000000	65.161609 
4149.000000	65.211200 
4148.000000	65.257215 
4147.000000	65.297961 
4146.000000	65.331125 
4145.000000	65.354061 
4144.000000	65.364241 
4143.000000	65.359449 
4142.000000	65.338444 
4141.000000	65.301966 
4140.000000	65.252494 
4139.000000	65.194487 
4138.000000	65.133261 
4137.000000	65.074706 
4136.000000	65.023684 
4135.000000	64.983868 
4134.000000	64.956521 
4133.000000	64.940547 
4132.000000	64.933061 
4131.000000	64.929819 
4130.000000	64.927339 
4129.000000	64.922547 
4128.000000	64.915084 
4127.000000	64.906573 
4126.000000	64.901041 
4125.000000	64.903283 
4124.000000	64.917850 
4123.000000	64.947199 
4122.000000	64.990973 
4121.000000	65.045499 
4120.000000	65.104913 
4119.000000	65.162205 
4118.000000	65.210771 
4117.000000	65.245866 
4116.000000	65.265297 
4115.000000	65.269732 
4114.000000	65.261721 
4113.000000	65.244960 
4112.000000	65.223217 
4111.000000	65.199470 
4110.000000	65.175652 
4109.000000	65.152311 
4108.000000	65.129446 
4107.000000	65.106725 
4106.000000	65.084385 
4105.000000	65.063571 
4104.000000	65.046048 
4103.000000	65.034174 
4102.000000	65.030097 
4101.000000	65.035367 
4100.000000	65.050268 
4099.000000	65.073704 
4098.000000	65.103316 
4097.000000	65.135812 
4096.000000	65.167856 
4095.000000	65.196228 
4094.000000	65.218472 
4093.000000	65.232920 
4092.000000	65.238928 
4091.000000	65.236401 
4090.000000	65.225744 
4089.000000	65.207839 
4088.000000	65.183758 
4087.000000	65.154886 
4086.000000	65.122675 
4085.000000	65.089106 
4084.000000	65.056228 
4083.000000	65.026116 
4082.000000	65.000414 
4081.000000	64.980292 
4080.000000	64.966058 
4079.000000	64.957213 
4078.000000	64.952635 
4077.000000	64.950609 
4076.000000	64.949417 
4075.000000	64.947652 
4074.000000	64.944529 
4073.000000	64.939689 
4072.000000	64.933466 
4071.000000	64.926600 
4070.000000	64.919948 
4069.000000	64.914035 
4068.000000	64.909052 
4067.000000	64.904832 
4066.000000	64.900922 
4065.000000	64.896702 
4064.000000	64.891624 
4063.000000	64.885139 
4062.000000	64.877057 
4061.000000	64.867353 
4060.000000	64.856219 
4059.000000	64.843916 
4058.000000	64.830636 
4057.000000	64.816641 
4056.000000	64.802289 
4055.000000	64.788079 
4054.000000	64.774370 
4053.000000	64.761829 
4052.000000	64.751172 
4051.000000	64.743566 
4050.000000	64.740133 
4049.000000	64.742374 
4048.000000	64.751553 
4047.000000	64.768910 
4046.000000	64.795041 
4045.000000	64.829802 
4044.000000	64.871811 
4043.000000	64.918637 
4042.000000	64.966583 
4041.000000	65.011405 
4040.000000	65.048956 
4039.000000	65.075492 
4038.000000	65.088534 
4037.000000	65.087389 
4036.000000	65.073394 
4035.000000	65.049767 
4034.000000	65.020942 
4033.000000	64.991974 
4032.000000	64.967703 
4031.000000	64.951896 
4030.000000	64.946722 
4029.000000	64.952731 
4028.000000	64.968752 
4027.000000	64.992165 
4026.000000	65.019297 
4025.000000	65.046143 
4024.000000	65.068888 
4023.000000	65.084147 
4022.000000	65.089750 
4021.000000	65.084433 
4020.000000	65.068888 
4019.000000	65.045285 
4018.000000	65.017604 
4017.000000	64.990758 
4016.000000	64.970564 
4015.000000	64.962792 
4014.000000	64.971661 
4013.000000	64.999127 
4012.000000	65.043783 
4011.000000	65.101051 
4010.000000	65.163493 
4009.000000	65.222144 
4008.000000	65.268445 
4007.000000	65.296077 
4006.000000	65.302419 
4005.000000	65.289187 
4004.000000	65.261816 
4003.000000	65.227866 
4002.000000	65.195775 
4001.000000	65.171933 
4000.000000	65.159869 
3999.000000	65.158891 
3998.000000	65.165400 
3997.000000	65.173411 
3996.000000	65.176987 
3995.000000	65.171194 
3994.000000	65.153980 
3993.000000	65.125918 
3992.000000	65.090012 
3991.000000	65.050673 
3990.000000	65.011858 
3989.000000	64.976644 
3988.000000	64.946532 
3987.000000	64.921832 
3986.000000	64.901971 
3985.000000	64.886498 
3984.000000	64.875650 
3983.000000	64.870595 
3982.000000	64.873385 
3981.000000	64.886045 
3980.000000	64.910078 
3979.000000	64.945316 
3978.000000	64.989614 
3977.000000	65.039229 
3976.000000	65.089511 
3975.000000	65.135431 
3974.000000	65.172863 
3973.000000	65.199685 
3972.000000	65.215778 
3971.000000	65.223383 
3970.000000	65.225648 
3969.000000	65.226030 
3968.000000	65.226960 
3967.000000	65.229701 
3966.000000	65.233588 
3965.000000	65.236520 
3964.000000	65.235567 
3963.000000	65.228247 
3962.000000	65.213155 
3961.000000	65.190696 
3960.000000	65.163302 
3959.000000	65.134906 
3958.000000	65.110039 
3957.000000	65.092587 
3956.000000	65.085101 
3955.000000	65.088009 
3954.000000	65.099525 
3953.000000	65.115976 
3952.000000	65.132594 
3951.000000	65.144538 
3950.000000	65.147805 
3949.000000	65.140461 
3948.000000	65.122437 
3947.000000	65.096092 
3946.000000	65.065407 
3945.000000	65.035438 
3944.000000	65.011119 
3943.000000	64.996266 
3942.000000	64.993166 
3941.000000	65.001940 
3940.000000	65.020561 
3939.000000	65.045285 
3938.000000	65.071678 
3937.000000	65.095710 
3936.000000	65.114402 
3935.000000	65.126705 
3934.000000	65.133261 
3933.000000	65.136432 
3932.000000	65.139150 
3931.000000	65.144109 
3930.000000	65.153002 
3929.000000	65.165615 
3928.000000	65.179944 
3927.000000	65.192365 
3926.000000	65.198802 
3925.000000	65.195870 
3924.000000	65.182113 
3923.000000	65.158724 
3922.000000	65.129661 
3921.000000	65.100622 
3920.000000	65.078020 
3919.000000	65.067267 
3918.000000	65.071392 
3917.000000	65.089964 
3916.000000	65.119504 
3915.000000	65.154433 
3914.000000	65.188598 
3913.000000	65.217041 
3912.000000	65.236997 
3911.000000	65.248513 
3910.000000	65.253973 
3909.000000	65.257215 
3908.000000	65.261650 
3907.000000	65.269041 
3906.000000	65.278792 
3905.000000	65.288090 
3904.000000	65.292954 
3903.000000	65.289616 
3902.000000	65.276241 
3901.000000	65.253496 
3900.000000	65.224504 
3899.000000	65.194106 
3898.000000	65.167450 
3897.000000	65.148377 
3896.000000	65.138506 
3895.000000	65.136551 
3894.000000	65.138721 
3893.000000	65.139555 
3892.000000	65.133285 
3891.000000	65.115547 
3890.000000	65.084052 
3889.000000	65.039896 
3888.000000	64.987063 
3887.000000	64.932227 
3886.000000	64.882898 
3885.000000	64.846611 
3884.000000	64.828920 
3883.000000	64.832520 
3882.000000	64.856672 
3881.000000	64.897465 
3880.000000	64.948749 
3879.000000	65.003442 
3878.000000	65.054917 
3877.000000	65.098428 
3876.000000	65.131807 
3875.000000	65.155673 
3874.000000	65.172648 
3873.000000	65.186095 
3872.000000	65.198636 
3871.000000	65.211534 
3870.000000	65.224194 
3869.000000	65.234398 
3868.000000	65.239024 
3867.000000	65.235924 
3866.000000	65.224027 
3865.000000	65.204238 
3864.000000	65.178942 
3863.000000	65.151882 
3862.000000	65.126919 
3861.000000	65.107321 
3860.000000	65.094852 
3859.000000	65.089726 
3858.000000	65.090560 
3857.000000	65.095090 
3856.000000	65.100812 
3855.000000	65.105795 
3854.000000	65.109014 
3853.000000	65.110540 
3852.000000	65.111255 
3851.000000	65.112376 
3850.000000	65.115332 
3849.000000	65.121340 
3848.000000	65.130996 
3847.000000	65.144133 
3846.000000	65.160274 
3845.000000	65.178608 
3844.000000	65.197968 
3843.000000	65.217089 
3842.000000	65.234827 
3841.000000	65.250205 
3840.000000	65.262341 
3839.000000	65.270328 
3838.000000	65.273451 
3837.000000	65.271162 
3836.000000	65.263485 
3835.000000	65.250897 
3834.000000	65.234494 
3833.000000	65.215921 
3832.000000	65.197634 
3831.000000	65.181684 
3830.000000	65.169382 
3829.000000	65.160965 
3828.000000	65.155649 
3827.000000	65.151619 
3826.000000	65.146684 
3825.000000	65.139007 
3824.000000	65.127539 
3823.000000	65.112805 
3822.000000	65.096998 
3821.000000	65.083146 
3820.000000	65.074348 
3819.000000	65.072870 
3818.000000	65.079283 
3817.000000	65.091848 
3816.000000	65.106916 
3815.000000	65.119910 
3814.000000	65.126824 
3813.000000	65.124821 
3812.000000	65.113663 
3811.000000	65.095496 
3810.000000	65.075039 
3809.000000	65.058016 
3808.000000	65.050506 
3807.000000	65.057516 
3806.000000	65.082001 
3805.000000	65.124416 
3804.000000	65.181803 
3803.000000	65.248703 
3802.000000	65.317368 
3801.000000	65.379834 
3800.000000	65.428471 
3799.000000	65.457558 
3798.000000	65.464043 
3797.000000	65.448164 
3796.000000	65.413045 
3795.000000	65.363860 
3794.000000	65.306973 
3793.000000	65.248608 
3792.000000	65.193748 
3791.000000	65.145611 
3790.000000	65.105915 
3789.000000	65.075135 
3788.000000	65.053200 
3787.000000	65.040087 
3786.000000	65.035939 
3785.000000	65.040946 
3784.000000	65.054535 
3783.000000	65.075349 
3782.000000	65.099835 
3781.000000	65.123987 
3780.000000	65.143322 
3779.000000	65.154600 
3778.000000	65.156459 
3777.000000	65.150046 
3776.000000	65.138936 
3775.000000	65.127897 
3774.000000	65.121841 
3773.000000	65.123963 
3772.000000	65.135073 
3771.000000	65.153098 
3770.000000	65.173625 
3769.000000	65.191745 
3768.000000	65.203452 
3767.000000	65.207219 
3766.000000	65.204429 
3765.000000	65.199017 
3764.000000	65.196204 
3763.000000	65.201091 
3762.000000	65.216660 
3761.000000	65.242886 
3760.000000	65.276098 
3759.000000	65.310573 
3758.000000	65.339303 
3757.000000	65.355825 
3756.000000	65.355777 
3755.000000	65.338015 
3754.000000	65.304923 
3753.000000	65.261554 
3752.000000	65.214753 
3751.000000	65.171360 
3750.000000	65.136957 
3749.000000	65.114784 
3748.000000	65.105319 
3747.000000	65.106606 
3746.000000	65.114736 
3745.000000	65.125298 
3744.000000	65.134024 
3743.000000	65.137863 
3742.000000	65.135431 
3741.000000	65.127134 
3740.000000	65.114736 
3739.000000	65.100574 
3738.000000	65.087080 
3737.000000	65.076279 
3736.000000	65.069174 
3735.000000	65.065979 
3734.000000	65.066361 
3733.000000	65.069723 
3732.000000	65.075635 
3731.000000	65.084075 
3730.000000	65.095305 
3729.000000	65.109682 
3728.000000	65.127444 
3727.000000	65.148591 
3726.000000	65.172624 
3725.000000	65.198731 
3724.000000	65.225601 
3723.000000	65.251708 
3722.000000	65.275573 
3721.000000	65.295815 
3720.000000	65.311408 
3719.000000	65.321445 
3718.000000	65.325307 
3717.000000	65.322470 
3716.000000	65.312814 
3715.000000	65.296483 
3714.000000	65.274047 
3713.000000	65.246748 
3712.000000	65.216445 
3711.000000	65.185785 
3710.000000	65.158009 
3709.000000	65.136432 
3708.000000	65.123987 
3707.000000	65.122795 
3706.000000	65.133595 
3705.000000	65.155482 
3704.000000	65.185904 
3703.000000	65.220880 
3702.000000	65.255689 
3701.000000	65.285539 
3700.000000	65.306305 
3699.000000	65.315151 
3698.000000	65.310859 
3697.000000	65.294170 
3696.000000	65.267181 
3695.000000	65.233016 
3694.000000	65.195035 
3693.000000	65.156483 
3692.000000	65.120100 
3691.000000	65.088272 
3690.000000	65.062594 
3689.000000	65.044164 
3688.000000	65.033388 
3687.000000	65.030145 
3686.000000	65.033674 
3685.000000	65.042734 
3684.000000	65.055584 
3683.000000	65.070176 
3682.000000	65.084528 
3681.000000	65.096712 
3680.000000	65.105009 
3679.000000	65.108418 
3678.000000	65.106272 
3677.000000	65.099191 
3676.000000	65.088844 
3675.000000	65.078186 
3674.000000	65.070843 
3673.000000	65.070629 
3672.000000	65.080857 
3671.000000	65.102982 
3670.000000	65.136480 
3669.000000	65.178060 
3668.000000	65.222740 
3667.000000	65.264081 
3666.000000	65.295648 
3665.000000	65.312504 
3664.000000	65.312075 
3663.000000	65.295171 
3662.000000	65.265679 
3661.000000	65.229845 
3660.000000	65.194582 
3659.000000	65.166521 
3658.000000	65.150260 
3657.000000	65.147542 
3656.000000	65.157055 
3655.000000	65.175008 
3654.000000	65.196013 
3653.000000	65.214419 
3652.000000	65.225601 
3651.000000	65.226745 
3650.000000	65.217494 
3649.000000	65.199923 
3648.000000	65.177536 
3647.000000	65.154719 
3646.000000	65.134930 
3645.000000	65.119981 
3644.000000	65.109586 
3643.000000	65.101766 
3642.000000	65.093588 
3641.000000	65.082168 
3640.000000	65.065956 
3639.000000	65.045332 
3638.000000	65.022563 
3637.000000	65.001249 
3636.000000	64.985156 
3635.000000	64.976859 
3634.000000	64.977288 
3633.000000	64.985203 
3632.000000	64.997601 
3631.000000	65.010619 
3630.000000	65.021014 
3629.000000	65.026998 
3628.000000	65.028786 
3627.000000	65.028500 
3626.000000	65.029168 
3625.000000	65.033769 
3624.000000	65.043950 
3623.000000	65.059828 
3622.000000	65.079808 
3621.000000	65.101313 
3620.000000	65.121626 
3619.000000	65.138602 
3618.000000	65.151333 
3617.000000	65.160131 
3616.000000	65.166211 
3615.000000	65.171241 
3614.000000	65.176749 
3613.000000	65.183687 
3612.000000	65.192174 
3611.000000	65.201401 
3610.000000	65.210199 
3609.000000	65.216922 
3608.000000	65.220117 
3607.000000	65.218639 
3606.000000	65.211796 
3605.000000	65.199232 
3604.000000	65.181303 
3603.000000	65.158891 
3602.000000	65.133452 
3601.000000	65.107011 
3600.000000	65.082049 
3599.000000	65.061450 
3598.000000	65.047931 
3597.000000	65.043568 
3596.000000	65.049219 
3595.000000	65.064716 
3594.000000	65.088057 
3593.000000	65.116214 
3592.000000	65.144896 
3591.000000	65.169596 
3590.000000	65.185904 
3589.000000	65.190625 
3588.000000	65.181946 
3587.000000	65.159940 
3586.000000	65.126514 
3585.000000	65.085124 
3584.000000	65.040183 
3583.000000	64.996290 
3582.000000	64.957523 
3581.000000	64.926910 
3580.000000	64.905905 
3579.000000	64.894628 
3578.000000	64.891815 
3577.000000	64.895391 
3576.000000	64.903044 
3575.000000	64.912676 
3574.000000	64.922738 
3573.000000	64.932394 
3572.000000	64.941096 
3571.000000	64.948678 
3570.000000	64.954876 
3569.000000	64.959764 
3568.000000	64.963054 
3567.000000	64.964818 
3566.000000	64.965605 
3565.000000	64.966297 
3564.000000	64.968323 
3563.000000	64.973139 
3562.000000	64.982056 
3561.000000	64.995694 
3560.000000	65.013957 
3559.000000	65.035557 
3558.000000	65.058350 
3557.000000	65.079641 
3556.000000	65.096759 
3555.000000	65.107488 
3554.000000	65.110635 
3553.000000	65.106034 
3552.000000	65.094518 
3551.000000	65.077877 
3550.000000	65.058517 
3549.000000	65.039014 
3548.000000	65.021634 
3547.000000	65.008473 
3546.000000	65.000939 
3545.000000	64.999771 
3544.000000	65.004849 
3543.000000	65.015363 
3542.000000	65.029788 
3541.000000	65.046334 
3540.000000	65.062999 
3539.000000	65.077853 
3538.000000	65.089297 
3537.000000	65.096235 
3536.000000	65.098237 
3535.000000	65.095329 
3534.000000	65.088152 
3533.000000	65.077781 
3532.000000	65.065336 
3531.000000	65.052008 
3530.000000	65.038919 
3529.000000	65.027189 
3528.000000	65.017771 
3527.000000	65.011453 
3526.000000	65.008759 
3525.000000	65.009999 
3524.000000	65.015244 
3523.000000	65.024185 
3522.000000	65.036320 
3521.000000	65.051007 
3520.000000	65.067553 
3519.000000	65.085101 
3518.000000	65.102767 
3517.000000	65.119385 
3516.000000	65.133905 
3515.000000	65.145301 
3514.000000	65.152931 
3513.000000	65.156340 
3512.000000	65.155863 
3511.000000	65.152168 
3510.000000	65.146231 
3509.000000	65.139007 
3508.000000	65.131473 
3507.000000	65.123963 
3506.000000	65.116500 
3505.000000	65.108656 
3504.000000	65.099620 
3503.000000	65.088868 
3502.000000	65.076255 
3501.000000	65.062189 
3500.000000	65.047645 
3499.000000	65.034079 
3498.000000	65.023088 
3497.000000	65.016007 
3496.000000	65.013456 
3495.000000	65.015578 
3494.000000	65.021705 
3493.000000	65.030503 
3492.000000	65.040206 
3491.000000	65.048980 
3490.000000	65.055394 
3489.000000	65.058422 
3488.000000	65.057969 
3487.000000	65.054655 
3486.000000	65.049886 
3485.000000	65.045690 
3484.000000	65.044045 
3483.000000	65.046644 
3482.000000	65.054273 
3481.000000	65.066742 
3480.000000	65.082740 
3479.000000	65.099930 
3478.000000	65.115356 
3477.000000	65.126156 
3476.000000	65.130233 
3475.000000	65.126514 
3474.000000	65.115237 
3473.000000	65.097713 
3472.000000	65.075635 
3471.000000	65.050530 
3470.000000	65.023398 
3469.000000	64.994549 
3468.000000	64.963912 
3467.000000	64.931559 
3466.000000	64.898347 
3465.000000	64.866375 
3464.000000	64.838814 
3463.000000	64.819550 
3462.000000	64.812302 
3461.000000	64.819788 
3460.000000	64.842748 
3459.000000	64.879918 
3458.000000	64.927673 
3457.000000	64.981007 
3456.000000	65.034127 
3455.000000	65.081715 
3454.000000	65.119719 
3453.000000	65.145707 
3452.000000	65.159153 
3451.000000	65.161061 
3450.000000	65.153408 
3449.000000	65.138673 
3448.000000	65.119576 
3447.000000	65.098667 
3446.000000	65.078258 
3445.000000	65.060281 
3444.000000	65.046286 
3443.000000	65.037369 
3442.000000	65.034222 
3441.000000	65.036654 
3440.000000	65.043807 
3439.000000	65.054249 
3438.000000	65.066170 
3437.000000	65.077590 
3436.000000	65.086746 
3435.000000	65.092658 
3434.000000	65.095162 
3433.000000	65.094923 
3432.000000	65.093326 
3431.000000	65.091943 
3430.000000	65.092396 
3429.000000	65.095782 
3428.000000	65.102410 
3427.000000	65.111923 
3426.000000	65.122818 
3425.000000	65.133237 
3424.000000	65.140795 
3423.000000	65.143322 
3422.000000	65.139460 
3421.000000	65.128922 
3420.000000	65.112733 
3419.000000	65.093016 
3418.000000	65.072703 
3417.000000	65.054869 
3416.000000	65.042233 
3415.000000	65.036535 
3414.000000	65.038275 
3413.000000	65.046596 
3412.000000	65.059661 
3411.000000	65.074992 
3410.000000	65.090513 
3409.000000	65.104675 
3408.000000	65.116691 
3407.000000	65.126395 
3406.000000	65.134096 
3405.000000	65.140438 
3404.000000	65.145540 
3403.000000	65.149497 
3402.000000	65.152287 
3401.000000	65.154051 
3400.000000	65.155243 
3399.000000	65.156555 
3398.000000	65.158700 
3397.000000	65.162062 
3396.000000	65.166616 
3395.000000	65.171504 
3394.000000	65.175318 
3393.000000	65.176510 
3392.000000	65.173864 
3391.000000	65.167021 
3390.000000	65.156722 
3389.000000	65.144753 
3388.000000	65.133619 
3387.000000	65.125250 
3386.000000	65.120506 
3385.000000	65.118694 
3384.000000	65.117669 
3383.000000	65.114355 
3382.000000	65.105819 
3381.000000	65.090250 
3380.000000	65.067601 
3379.000000	65.040087 
3378.000000	65.011787 
3377.000000	64.987158 
3376.000000	64.970541 
3375.000000	64.964556 
3374.000000	64.969968 
3373.000000	64.985108 
3372.000000	65.006732 
3371.000000	65.030837 
3370.000000	65.053963 
3369.000000	65.073847 
3368.000000	65.090250 
3367.000000	65.104413 
3366.000000	65.119028 
3365.000000	65.136766 
3364.000000	65.160179 
3363.000000	65.190672 
3362.000000	65.228223 
3361.000000	65.271234 
3360.000000	65.316867 
3359.000000	65.361118 
3358.000000	65.399670 
3357.000000	65.428471 
3356.000000	65.444183 
3355.000000	65.444779 
3354.000000	65.429830 
3353.000000	65.400910 
3352.000000	65.361237 
3351.000000	65.315580 
3350.000000	65.269446 
3349.000000	65.228366 
3348.000000	65.197277 
3347.000000	65.179562 
3346.000000	65.176749 
3345.000000	65.188264 
3344.000000	65.211701 
3343.000000	65.243053 
3342.000000	65.277552 
3341.000000	65.310263 
3340.000000	65.336728 
3339.000000	65.353584 
3338.000000	65.358877 
3337.000000	65.352272 
3336.000000	65.335154 
3335.000000	65.310335 
3334.000000	65.281486 
3333.000000	65.252900 
3332.000000	65.228462 
3331.000000	65.211367 
3330.000000	65.203237 
3329.000000	65.203952 
3328.000000	65.211319 
3327.000000	65.221738 
3326.000000	65.230607 
3325.000000	65.233612 
3324.000000	65.227484 
3323.000000	65.210437 
3322.000000	65.182733 
3321.000000	65.146255 
3320.000000	65.104460 
3319.000000	65.061235 
3318.000000	65.020918 
3317.000000	64.987206 
3316.000000	64.963316 
3315.000000	64.951395 
3314.000000	64.952254 
3313.000000	64.965367 
3312.000000	64.988851 
3311.000000	65.019679 
3310.000000	65.054011 
3309.000000	65.087652 
3308.000000	65.116882 
3307.000000	65.138888 
3306.000000	65.152382 
3305.000000	65.157604 
3304.000000	65.156459 
3303.000000	65.151834 
3302.000000	65.146875 
3301.000000	65.143966 
3300.000000	65.144705 
3299.000000	65.148878 
3298.000000	65.154886 
3297.000000	65.159749 
3296.000000	65.160250 
3295.000000	65.153431 
3294.000000	65.137553 
3293.000000	65.112471 
3292.000000	65.079522 
3291.000000	65.041542 
3290.000000	65.002179 
3289.000000	64.965510 
3288.000000	64.935135 
3287.000000	64.913964 
3286.000000	64.903831 
3285.000000	64.905595 
3284.000000	64.919114 
3283.000000	64.943432 
3282.000000	64.976787 
3281.000000	65.016794 
3280.000000	65.060663 
3279.000000	65.105366 
3278.000000	65.147900 
3277.000000	65.185570 
3276.000000	65.216135 
3275.000000	65.238499 
3274.000000	65.252399 
3273.000000	65.258669 
3272.000000	65.258455 
3271.000000	65.253472 
3270.000000	65.244936 
3269.000000	65.233922 
3268.000000	65.220594 
3267.000000	65.204787 
3266.000000	65.185809 
3265.000000	65.163111 
3264.000000	65.136528 
3263.000000	65.106368 
3262.000000	65.073776 
3261.000000	65.040469 
3260.000000	65.008902 
3259.000000	64.981603 
3258.000000	64.961123 
3257.000000	64.949536 
3256.000000	64.948105 
3255.000000	64.956903 
3254.000000	64.974689 
3253.000000	64.999079 
3252.000000	65.026736 
3251.000000	65.053915 
3250.000000	65.076780 
3249.000000	65.092182 
3248.000000	65.098404 
3247.000000	65.095210 
3246.000000	65.083885 
3245.000000	65.066766 
3244.000000	65.046882 
3243.000000	65.026974 
3242.000000	65.009403 
3241.000000	64.995408 
3240.000000	64.985418 
3239.000000	64.979243 
3238.000000	64.976549 
3237.000000	64.977097 
3236.000000	64.980721 
3235.000000	64.987707 
3234.000000	64.998364 
3233.000000	65.012860 
3232.000000	65.031051 
3231.000000	65.052175 
3230.000000	65.074825 
3229.000000	65.097165 
3228.000000	65.117049 
3227.000000	65.132355 
3226.000000	65.141415 
3225.000000	65.143251 
3224.000000	65.137887 
3223.000000	65.126132 
3222.000000	65.109729 
3221.000000	65.090966 
3220.000000	65.072512 
3219.000000	65.056848 
3218.000000	65.046048 
3217.000000	65.041422 
3216.000000	65.043473 
3215.000000	65.051817 
3214.000000	65.065336 
3213.000000	65.082263 
3212.000000	65.100789 
3211.000000	65.119075 
3210.000000	65.135693 
3209.000000	65.149521 
3208.000000	65.160012 
3207.000000	65.167021 
3206.000000	65.170741 
3205.000000	65.171408 
3204.000000	65.169262 
3203.000000	65.164470 
3202.000000	65.156960 
3201.000000	65.146422 
3200.000000	65.132451 
3199.000000	65.114688 
3198.000000	65.092992 
3197.000000	65.067553 
3196.000000	65.038919 
3195.000000	65.008139 
3194.000000	64.976525 
3193.000000	64.945530 
3192.000000	64.916515 
3191.000000	64.890623 
3190.000000	64.868497 
3189.000000	64.850497 
3188.000000	64.836525 
3187.000000	64.826560 
3186.000000	64.820075 
3185.000000	64.816975 
3184.000000	64.817023 
3183.000000	64.820408 
3182.000000	64.827227 
3181.000000	64.837574 
3180.000000	64.851021 
3179.000000	64.866924 
3178.000000	64.884209 
3177.000000	64.901709 
3176.000000	64.917993 
3175.000000	64.932131 
3174.000000	64.943885 
3173.000000	64.953637 
3172.000000	64.962220 
3171.000000	64.970803 
3170.000000	64.980483 
3169.000000	64.991688 
3168.000000	65.004086 
3167.000000	65.016555 
3166.000000	65.027546 
3165.000000	65.035533 
3164.000000	65.039587 
3163.000000	65.039706 
3162.000000	65.036940 
3161.000000	65.033221 
3160.000000	65.031075 
3159.000000	65.032482 
3158.000000	65.038585 
3157.000000	65.049171 
3156.000000	65.062689 
3155.000000	65.076518 
3154.000000	65.087699 
3153.000000	65.093564 
3152.000000	65.092229 
3151.000000	65.083074 
3150.000000	65.066623 
3149.000000	65.044498 
3148.000000	65.018630 
3147.000000	64.990949 
3146.000000	64.962911 
3145.000000	64.935326 
3144.000000	64.908719 
3143.000000	64.883542 
3142.000000	64.860272 
3141.000000	64.839744 
3140.000000	64.823055 
3139.000000	64.811658 
3138.000000	64.806509 
3137.000000	64.808440 
3136.000000	64.817476 
3135.000000	64.832782 
3134.000000	64.852762 
3133.000000	64.875245 
3132.000000	64.897394 
3131.000000	64.916419 
3130.000000	64.929866 
3129.000000	64.936399 
3128.000000	64.935874 
3127.000000	64.929890 
3126.000000	64.921116 
3125.000000	64.913105 
3124.000000	64.909386 
3123.000000	64.912438 
3122.000000	64.923238 
3121.000000	64.940762 
3120.000000	64.962577 
3119.000000	64.985060 
3118.000000	65.004444 
3117.000000	65.017652 
3116.000000	65.023350 
3115.000000	65.022134 
3114.000000	65.016555 
3113.000000	65.010309 
3112.000000	65.007495 
3111.000000	65.011692 
3110.000000	65.025329 
3109.000000	65.049147 
3108.000000	65.082120 
3107.000000	65.122127 
3106.000000	65.166091 
3105.000000	65.210604 
3104.000000	65.252304 
3103.000000	65.288448 
3102.000000	65.316557 
3101.000000	65.335154 
3100.000000	65.342879 
3099.000000	65.339136 
3098.000000	65.323472 
3097.000000	65.295791 
3096.000000	65.256381 
3095.000000	65.206456 
3094.000000	65.147757 
3093.000000	65.083193 
3092.000000	65.016388 
3091.000000	64.951920 
3090.000000	64.894676 
3089.000000	64.849400 
3088.000000	64.819979 
3087.000000	64.808940 
3086.000000	64.816927 
3085.000000	64.842867 
3084.000000	64.883565 
3083.000000	64.934372 
3082.000000	64.989733 
3081.000000	65.044164 
3080.000000	65.092587 
3079.000000	65.131354 
3078.000000	65.158104 
3077.000000	65.172076 
3076.000000	65.173959 
3075.000000	65.165662 
3074.000000	65.150117 
3073.000000	65.130519 
3072.000000	65.110206 
3071.000000	65.092062 
3070.000000	65.078425 
3069.000000	65.070533 
3068.000000	65.068888 
3067.000000	65.073108 
3066.000000	65.082192 
3065.000000	65.094709 
3064.000000	65.109086 
3063.000000	65.123558 
3062.000000	65.136432 
3061.000000	65.146136 
3060.000000	65.151762 
3059.000000	65.152764 
3058.000000	65.149235 
3057.000000	65.142202 
3056.000000	65.133142 
3055.000000	65.123796 
3054.000000	65.115976 
3053.000000	65.110754 
3052.000000	65.108561 
3051.000000	65.109395 
3050.000000	65.112566 
3049.000000	65.116906 
3048.000000	65.121150 
3047.000000	65.124821 
3046.000000	65.127897 
3045.000000	65.130710 
3044.000000	65.133571 
3043.000000	65.136551 
3042.000000	65.138983 
3041.000000	65.139603 
3040.000000	65.136861 
3039.000000	65.129041 
3038.000000	65.115356 
3037.000000	65.096068 
3036.000000	65.072631 
3035.000000	65.047574 
3034.000000	65.023899 
3033.000000	65.004611 
3032.000000	64.992046 
3031.000000	64.987158 
3030.000000	64.989542 
3029.000000	64.997363 
3028.000000	65.007591 
3027.000000	65.016841 
3026.000000	65.021681 
3025.000000	65.019655 
3024.000000	65.009450 
3023.000000	64.991259 
3022.000000	64.966630 
3021.000000	64.938592 
3020.000000	64.910626 
3019.000000	64.886379 
3018.000000	64.868927 
3017.000000	64.860463 
3016.000000	64.861702 
3015.000000	64.872145 
3014.000000	64.890217 
3013.000000	64.913892 
3012.000000	64.941239 
3011.000000	64.970755 
3010.000000	65.001535 
3009.000000	65.033245 
3008.000000	65.065693 
3007.000000	65.098452 
3006.000000	65.130400 
3005.000000	65.159678 
3004.000000	65.183758 
3003.000000	65.200161 
3002.000000	65.206933 
3001.000000	65.203309 
3000.000000	65.189957 
2999.000000	65.169095 
2998.000000	65.144133 
2997.000000	65.119361 
2996.000000	65.098667 
2995.000000	65.085077 
2994.000000	65.080070 
2993.000000	65.083575 
2992.000000	65.094113 
2991.000000	65.109491 
2990.000000	65.126991 
2989.000000	65.144014 
2988.000000	65.158605 
2987.000000	65.169572 
2986.000000	65.176105 
2985.000000	65.177631 
2984.000000	65.173816 
2983.000000	65.164375 
2982.000000	65.149497 
2981.000000	65.129923 
2980.000000	65.107202 
2979.000000	65.083479 
2978.000000	65.061450 
2977.000000	65.043544 
2976.000000	65.031337 
2975.000000	65.024924 
2974.000000	65.022921 
2973.000000	65.022444 
2972.000000	65.019750 
2971.000000	65.011239 
2970.000000	64.994621 
2969.000000	64.969563 
2968.000000	64.937877 
2967.000000	64.903664 
2966.000000	64.872050 
2965.000000	64.848446 
2964.000000	64.837145 
2963.000000	64.840435 
2962.000000	64.858055 
2961.000000	64.887332 
2960.000000	64.923882 
2959.000000	64.962363 
2958.000000	64.997625 
2957.000000	65.025377 
2956.000000	65.042948 
2955.000000	65.049552 
2954.000000	65.046119 
2953.000000	65.034794 
2952.000000	65.018033 
2951.000000	64.998459 
2950.000000	64.977979 
2949.000000	64.958000 
2948.000000	64.939284 
2947.000000	64.922165 
2946.000000	64.906907 
2945.000000	64.893865 
2944.000000	64.883565 
2943.000000	64.876675 
2942.000000	64.873981 
2941.000000	64.875936 
2940.000000	64.882946 
2939.000000	64.894890 
2938.000000	64.911365 
2937.000000	64.931535 
2936.000000	64.954352 
2935.000000	64.978480 
2934.000000	65.002441 
2933.000000	65.024757 
2932.000000	65.043783 
2931.000000	65.057873 
2930.000000	65.065598 
2929.000000	65.066146 
2928.000000	65.059351 
2927.000000	65.045928 
2926.000000	65.027570 
2925.000000	65.006160 
2924.000000	64.983916 
2923.000000	64.962768 
2922.000000	64.944005 
2921.000000	64.928221 
2920.000000	64.915490 
2919.000000	64.905762 
2918.000000	64.899086 
2917.000000	64.895629 
2916.000000	64.895796 
2915.000000	64.899945 
2914.000000	64.907979 
2913.000000	64.919328 
2912.000000	64.932680 
2911.000000	64.946413 
2910.000000	64.958667 
2909.000000	64.967942 
2908.000000	64.973449 
2907.000000	64.975643 
2906.000000	64.975857 
2905.000000	64.976263 
2904.000000	64.979219 
2903.000000	64.986729 
2902.000000	64.999556 
2901.000000	65.017104 
2900.000000	65.037488 
2899.000000	65.057611 
2898.000000	65.074133 
2897.000000	65.084028 
2896.000000	65.085339 
2895.000000	65.077710 
2894.000000	65.062260 
2893.000000	65.041232 
2892.000000	65.017557 
2891.000000	64.993977 
2890.000000	64.972615 
2889.000000	64.954662 
2888.000000	64.940118 
2887.000000	64.928269 
2886.000000	64.918327 
2885.000000	64.909791 
2884.000000	64.902853 
2883.000000	64.898395 
2882.000000	64.897632 
2881.000000	64.901685 
2880.000000	64.911055 
2879.000000	64.925193 
2878.000000	64.942669 
2877.000000	64.961433 
2876.000000	64.979362 
2875.000000	64.994621 
2874.000000	65.006113 
2873.000000	65.013599 
2872.000000	65.017557 
2871.000000	65.019011 
2870.000000	65.018916 
2869.000000	65.017938 
2868.000000	65.016245 
2867.000000	65.013408 
2866.000000	65.008664 
2865.000000	65.001106 
2864.000000	64.990186 
2863.000000	64.975786 
2862.000000	64.958500 
2861.000000	64.939665 
2860.000000	64.920926 
2859.000000	64.904189 
2858.000000	64.890789 
2857.000000	64.881467 
2856.000000	64.876389 
2855.000000	64.874768 
2854.000000	64.875435 
2853.000000	64.876937 
2852.000000	64.877891 
2851.000000	64.877653 
2850.000000	64.876413 
2849.000000	64.875125 
2848.000000	64.875149 
2847.000000	64.877939 
2846.000000	64.884471 
2845.000000	64.895129 
2844.000000	64.909338 
2843.000000	64.925956 
2842.000000	64.943313 
2841.000000	64.959812 
2840.000000	64.973974 
2839.000000	64.984726 
2838.000000	64.991497 
2837.000000	64.994168 
2836.000000	64.993095 
2835.000000	64.989066 
2834.000000	64.983224 
2833.000000	64.977192 
2832.000000	64.972758 
2831.000000	64.971733 
2830.000000	64.975476 
2829.000000	64.984607 
2828.000000	64.998388 
2827.000000	65.014839 
2826.000000	65.030741 
2825.000000	65.042471 
2824.000000	65.046787 
2823.000000	65.041613 
2822.000000	65.026903 
2821.000000	65.004682 
2820.000000	64.978837 
2819.000000	64.954185 
2818.000000	64.935326 
2817.000000	64.925503 
2816.000000	64.926242 
2815.000000	64.936685 
2814.000000	64.954209 
2813.000000	64.974880 
2812.000000	64.994788 
2811.000000	65.010714 
2810.000000	65.020799 
2809.000000	65.024900 
2808.000000	65.023922 
2807.000000	65.019845 
2806.000000	65.014600 
2805.000000	65.009903 
2804.000000	65.006828 
2803.000000	65.005707 
2802.000000	65.006589 
2801.000000	65.009188 
2800.000000	65.013170 
2799.000000	65.018248 
2798.000000	65.024328 
2797.000000	65.031385 
2796.000000	65.039300 
2795.000000	65.047740 
2794.000000	65.056037 
2793.000000	65.063190 
2792.000000	65.067934 
2791.000000	65.068793 
2790.000000	65.064716 
2789.000000	65.055036 
2788.000000	65.040040 
2787.000000	65.020918 
2786.000000	64.999794 
2785.000000	64.979434 
2784.000000	64.962768 
2783.000000	64.952492 
2782.000000	64.950394 
2781.000000	64.957308 
2780.000000	64.972949 
2779.000000	64.995718 
2778.000000	65.023446 
2777.000000	65.053439 
2776.000000	65.083241 
2775.000000	65.110802 
2774.000000	65.134668 
2773.000000	65.153980 
2772.000000	65.168380 
2771.000000	65.177774 
2770.000000	65.182113 
2769.000000	65.181350 
2768.000000	65.175437 
2767.000000	65.164566 
2766.000000	65.149402 
2765.000000	65.131187 
2764.000000	65.111756 
2763.000000	65.093088 
2762.000000	65.077304 
2761.000000	65.065765 
2760.000000	65.058994 
2759.000000	65.056610 
2758.000000	65.057158 
2757.000000	65.058827 
2756.000000	65.059971 
2755.000000	65.059375 
2754.000000	65.056705 
2753.000000	65.052437 
2752.000000	65.047693 
2751.000000	65.043902 
2750.000000	65.042042 
2749.000000	65.042495 
2748.000000	65.044760 
2747.000000	65.047574 
2746.000000	65.049433 
2745.000000	65.048909 
2744.000000	65.045022 
2743.000000	65.037512 
2742.000000	65.027070 
2741.000000	65.014863 
2740.000000	65.002465 
2739.000000	64.990925 
2738.000000	64.980983 
2737.000000	64.972734 
2736.000000	64.965772 
2735.000000	64.959406 
2734.000000	64.953041 
2733.000000	64.946532 
2732.000000	64.940500 
2731.000000	64.935874 
2730.000000	64.934182 
2729.000000	64.936709 
2728.000000	64.944648 
2727.000000	64.958238 
2726.000000	64.976906 
2725.000000	64.999222 
2724.000000	65.022993 
2723.000000	65.045738 
2722.000000	65.064859 
2721.000000	65.078353 
2720.000000	65.084576 
2719.000000	65.082859 
2718.000000	65.073275 
2717.000000	65.056777 
2716.000000	65.034914 
2715.000000	65.009999 
2714.000000	64.984536 
2713.000000	64.961266 
2712.000000	64.942908 
2711.000000	64.931821 
2710.000000	64.929723 
2709.000000	64.937376 
2708.000000	64.954447 
2707.000000	64.979434 
2706.000000	65.009737 
2705.000000	65.042304 
2704.000000	65.074014 
2703.000000	65.102076 
2702.000000	65.124487 
2701.000000	65.140032 
2700.000000	65.148568 
2699.000000	65.150570 
2698.000000	65.147018 
2697.000000	65.139007 
2696.000000	65.127658 
2695.000000	65.113973 
2694.000000	65.099000 
2693.000000	65.083742 
2692.000000	65.069293 
2691.000000	65.056633 
2690.000000	65.046715 
2689.000000	65.040016 
2688.000000	65.036582 
2687.000000	65.035820 
2686.000000	65.036773 
2685.000000	65.038299 
2684.000000	65.039253 
2683.000000	65.039086 
2682.000000	65.037512 
2681.000000	65.034604 
2680.000000	65.030407 
2679.000000	65.025043 
2678.000000	65.018296 
2677.000000	65.009737 
2676.000000	64.999032 
2675.000000	64.985871 
2674.000000	64.970660 
2673.000000	64.954185 
2672.000000	64.937853 
2671.000000	64.923334 
2670.000000	64.912247 
2669.000000	64.905738 
2668.000000	64.904475 
2667.000000	64.908337 
2666.000000	64.916586 
2665.000000	64.928078 
2664.000000	64.941549 
2663.000000	64.955759 
2662.000000	64.969491 
2661.000000	64.981794 
2660.000000	64.991688 
2659.000000	64.998412 
2658.000000	65.001416 
2657.000000	65.000295 
2656.000000	64.995193 
2655.000000	64.986729 
2654.000000	64.975929 
2653.000000	64.964056 
2652.000000	64.952516 
2651.000000	64.942669 
2650.000000	64.935445 
2649.000000	64.931464 
2648.000000	64.930963 
2647.000000	64.934039 
2646.000000	64.940571 
2645.000000	64.950466 
2644.000000	64.963579 
2643.000000	64.979410 
2642.000000	64.997029 
2641.000000	65.014910 
2640.000000	65.031027 
2639.000000	65.043210 
2638.000000	65.049386 
2637.000000	65.048146 
2636.000000	65.039134 
2635.000000	65.023088 
2634.000000	65.001749 
2633.000000	64.977478 
2632.000000	64.952850 
2631.000000	64.930343 
2630.000000	64.911961 
2629.000000	64.899039 
2628.000000	64.892172 
2627.000000	64.891290 
2626.000000	64.895772 
2625.000000	64.904499 
2624.000000	64.916110 
2623.000000	64.928841 
2622.000000	64.940977 
2621.000000	64.950680 
2620.000000	64.956307 
2619.000000	64.956569 
2618.000000	64.950871 
2617.000000	64.939332 
2616.000000	64.922928 
2615.000000	64.903235 
2614.000000	64.882254 
2613.000000	64.862060 
2612.000000	64.844369 
2611.000000	64.830446 
2610.000000	64.820981 
2609.000000	64.815950 
2608.000000	64.814972 
2607.000000	64.817547 
2606.000000	64.823317 
2605.000000	64.831900 
2604.000000	64.842963 
2603.000000	64.855957 
2602.000000	64.870095 
2601.000000	64.884328 
2600.000000	64.897012 
2599.000000	64.906501 
2598.000000	64.911317 
2597.000000	64.910650 
2596.000000	64.904475 
2595.000000	64.893770 
2594.000000	64.880442 
2593.000000	64.867162 
2592.000000	64.856767 
2591.000000	64.851665 
2590.000000	64.853429 
2589.000000	64.862442 
2588.000000	64.877772 
2587.000000	64.897179 
2586.000000	64.917755 
2585.000000	64.936399 
2584.000000	64.950370 
2583.000000	64.957904 
2582.000000	64.958548 
2581.000000	64.953112 
2580.000000	64.943432 
2579.000000	64.932012 
2578.000000	64.921450 
2577.000000	64.913940 
2576.000000	64.910864 
2575.000000	64.912748 
2574.000000	64.919185 
2573.000000	64.929270 
2572.000000	64.941811 
2571.000000	64.955663 
2570.000000	64.969968 
2569.000000	64.984035 
2568.000000	64.997553 
2567.000000	65.010190 
2566.000000	65.021443 
2565.000000	65.030574 
2564.000000	65.036702 
2563.000000	65.039086 
2562.000000	65.037226 
2561.000000	65.031099 
2560.000000	65.021491 
2559.000000	65.009856 
2558.000000	64.998102 
2557.000000	64.988112 
2556.000000	64.981341 
2555.000000	64.978289 
2554.000000	64.978504 
2553.000000	64.980530 
2552.000000	64.982295 
2551.000000	64.981675 
2550.000000	64.977073 
2549.000000	64.967989 
2548.000000	64.955115 
2547.000000	64.940214 
2546.000000	64.925646 
2545.000000	64.913892 
2544.000000	64.906787 
2543.000000	64.905214 
2542.000000	64.908838 
2541.000000	64.916467 
2540.000000	64.926290 
2539.000000	64.936566 
2538.000000	64.946103 
2537.000000	64.954376 
2536.000000	64.961576 
2535.000000	64.968323 
2534.000000	64.975309 
2533.000000	64.982938 
2532.000000	64.990878 
2531.000000	64.998340 
2530.000000	65.004062 
2529.000000	65.006971 
2528.000000	65.006375 
2527.000000	65.002179 
2526.000000	64.995002 
2525.000000	64.985966 
2524.000000	64.976406 
2523.000000	64.967346 
2522.000000	64.959526 
2521.000000	64.952945 
2520.000000	64.947247 
2519.000000	64.942073 
2518.000000	64.937281 
2517.000000	64.933156 
2516.000000	64.930534 
2515.000000	64.930438 
2514.000000	64.933848 
2513.000000	64.941287 
2512.000000	64.952635 
2511.000000	64.967036 
2510.000000	64.982986 
2509.000000	64.998674 
2508.000000	65.012311 
2507.000000	65.022444 
2506.000000	65.028285 
2505.000000	65.029740 
2504.000000	65.027523 
2503.000000	65.022969 
2502.000000	65.017557 
2501.000000	65.012741 
2500.000000	65.009570 
2499.000000	65.008616 
2498.000000	65.009641 
2497.000000	65.011906 
2496.000000	65.014243 
2495.000000	65.015506 
2494.000000	65.014910 
2493.000000	65.012216 
2492.000000	65.007734 
2491.000000	65.002298 
2490.000000	64.996886 
2489.000000	64.992475 
2488.000000	64.989447 
2487.000000	64.987468 
2486.000000	64.985656 
2485.000000	64.982795 
2484.000000	64.977931 
2483.000000	64.970660 
2482.000000	64.961552 
2481.000000	64.951968 
2480.000000	64.943861 
2479.000000	64.939045 
2478.000000	64.938664 
2477.000000	64.942550 
2476.000000	64.949178 
2475.000000	64.955759 
2474.000000	64.959025 
2473.000000	64.955949 
2472.000000	64.944767 
2471.000000	64.925384 
2470.000000	64.899706 
2469.000000	64.871072 
2468.000000	64.843583 
2467.000000	64.821147 
2466.000000	64.806699 
2465.000000	64.801621 
2464.000000	64.805579 
2463.000000	64.816856 
2462.000000	64.832687 
2461.000000	64.850068 
2460.000000	64.866352 
2459.000000	64.879488 
2458.000000	64.888501 
2457.000000	64.893221 
2456.000000	64.894223 
2455.000000	64.892196 
2454.000000	64.887881 
2453.000000	64.882016 
2452.000000	64.875006 
2451.000000	64.867186 
2450.000000	64.858937 
2449.000000	64.850854 
2448.000000	64.843869 
2447.000000	64.839315 
2446.000000	64.838600 
2445.000000	64.842844 
2444.000000	64.852571 
2443.000000	64.867687 
2442.000000	64.887022 
2441.000000	64.908742 
2440.000000	64.930438 
2439.000000	64.949846 
2438.000000	64.965295 
2437.000000	64.976239 
2436.000000	64.983463 
2435.000000	64.988636 
2434.000000	64.994025 
2433.000000	65.001368 
2432.000000	65.011811 
2431.000000	65.024948 
2430.000000	65.038943 
2429.000000	65.050673 
2428.000000	65.056800 
2427.000000	65.054416 
2426.000000	65.041875 
2425.000000	65.019583 
2424.000000	64.990067 
2423.000000	64.957571 
2422.000000	64.927220 
2421.000000	64.903974 
2420.000000	64.891648 
2419.000000	64.891886 
2418.000000	64.903879 
2417.000000	64.924526 
2416.000000	64.949154 
2415.000000	64.972424 
2414.000000	64.989495 
2413.000000	64.996767 
2412.000000	64.992880 
2411.000000	64.978647 
2410.000000	64.957141 
2409.000000	64.932489 
2408.000000	64.909529 
2407.000000	64.892554 
2406.000000	64.884734 
2405.000000	64.887571 
2404.000000	64.900732 
2403.000000	64.922404 
2402.000000	64.949750 
2401.000000	64.979290 
2400.000000	65.007781 
2399.000000	65.032482 
2398.000000	65.051651 
2397.000000	65.064477 
2396.000000	65.071344 
2395.000000	65.073251 
2394.000000	65.071892 
2393.000000	65.068840 
2392.000000	65.065336 
2391.000000	65.061831 
2390.000000	65.058088 
2389.000000	65.053248 
2388.000000	65.046143 
2387.000000	65.035724 
2386.000000	65.021443 
2385.000000	65.003728 
2384.000000	64.983987 
2383.000000	64.964699 
2382.000000	64.948391 
2381.000000	64.937472 
2380.000000	64.933562 
2379.000000	64.937162 
2378.000000	64.947366 
2377.000000	64.962172 
2376.000000	64.978861 
2375.000000	64.994549 
2374.000000	65.006780 
2373.000000	65.013957 
2372.000000	65.015149 
2371.000000	65.010452 
2370.000000	65.000367 
2369.000000	64.986133 
2368.000000	64.969348 
2367.000000	64.951777 
2366.000000	64.935183 
2365.000000	64.921188 
2364.000000	64.911103 
2363.000000	64.905834 
2362.000000	64.905571 
2361.000000	64.909672 
2360.000000	64.916682 
2359.000000	64.924550 
2358.000000	64.930844 
2357.000000	64.933323 
2356.000000	64.930295 
2355.000000	64.920973 
2354.000000	64.905738 
2353.000000	64.885950 
2352.000000	64.863824 
2351.000000	64.842128 
2350.000000	64.823603 
2349.000000	64.810776 
2348.000000	64.805269 
2347.000000	64.807844 
2346.000000	64.818072 
2345.000000	64.834308 
2344.000000	64.853882 
2343.000000	64.873409 
2342.000000	64.889717 
2341.000000	64.900207 
2340.000000	64.903521 
2339.000000	64.899730 
2338.000000	64.890432 
2337.000000	64.878106 
2336.000000	64.865851 
2335.000000	64.856505 
2334.000000	64.851832 
2333.000000	64.852166 
2332.000000	64.856600 
2331.000000	64.863181 
2330.000000	64.869713 
2329.000000	64.874291 
2328.000000	64.875793 
2327.000000	64.874315 
2326.000000	64.870929 
2325.000000	64.867305 
2324.000000	64.865136 
2323.000000	64.865684 
2322.000000	64.869570 
2321.000000	64.876532 
2320.000000	64.885926 
2319.000000	64.896702 
2318.000000	64.907646 
2317.000000	64.917874 
2316.000000	64.926743 
2315.000000	64.933896 
2314.000000	64.939188 
2313.000000	64.942693 
2312.000000	64.944481 
2311.000000	64.944839 
2310.000000	64.944219 
2309.000000	64.943242 
2308.000000	64.942693 
2307.000000	64.943075 
2306.000000	64.944624 
2305.000000	64.947152 
2304.000000	64.949893 
2303.000000	64.951705 
2302.000000	64.951443 
2301.000000	64.948248 
2300.000000	64.941859 
2299.000000	64.932632 
2298.000000	64.921736 
2297.000000	64.910650 
2296.000000	64.900946 
2295.000000	64.893889 
2294.000000	64.890217 
2293.000000	64.889931 
2292.000000	64.892482 
2291.000000	64.896893 
2290.000000	64.902091 
2289.000000	64.907050 
2288.000000	64.911127 
2287.000000	64.914011 
2286.000000	64.915633 
2285.000000	64.916038 
2284.000000	64.915347 
2283.000000	64.913702 
2282.000000	64.911246 
2281.000000	64.908051 
2280.000000	64.904189 
2279.000000	64.899659 
2278.000000	64.894461 
2277.000000	64.888477 
2276.000000	64.881515 
2275.000000	64.873361 
2274.000000	64.863872 
2273.000000	64.853215 
2272.000000	64.841723 
2271.000000	64.830136 
2270.000000	64.819455 
2269.000000	64.810895 
2268.000000	64.805483 
2267.000000	64.803910 
2266.000000	64.806175 
2265.000000	64.811778 
2264.000000	64.819335 
2263.000000	64.827322 
2262.000000	64.834046 
2261.000000	64.838218 
2260.000000	64.839148 
2259.000000	64.837026 
2258.000000	64.832568 
2257.000000	64.827084 
2256.000000	64.821887 
2255.000000	64.818048 
2254.000000	64.816212 
2253.000000	64.816284 
2252.000000	64.817523 
2251.000000	64.819121 
2250.000000	64.820218 
2249.000000	64.820384 
2248.000000	64.819669 
2247.000000	64.818644 
2246.000000	64.818310 
2245.000000	64.819741 
2244.000000	64.823842 
2243.000000	64.831066 
2242.000000	64.841318 
2241.000000	64.854025 
2240.000000	64.868140 
2239.000000	64.882588 
2238.000000	64.896368 
2237.000000	64.908504 
2236.000000	64.918136 
2235.000000	64.924669 
2234.000000	64.927554 
2233.000000	64.926409 
2232.000000	64.921092 
2231.000000	64.911890 
2230.000000	64.899563 
2229.000000	64.885520 
2228.000000	64.871740 
2227.000000	64.860534 
2226.000000	64.854168 
2225.000000	64.854168 
2224.000000	64.861154 
2223.000000	64.874315 
2222.000000	64.891552 
2221.000000	64.909791 
2220.000000	64.925312 
2219.000000	64.934945 
2218.000000	64.936447 
2217.000000	64.929127 
2216.000000	64.914059 
2215.000000	64.893746 
2214.000000	64.871406 
2213.000000	64.850330 
2212.000000	64.833092 
2211.000000	64.821100 
2210.000000	64.814543 
2209.000000	64.812397 
2208.000000	64.812994 
2207.000000	64.814615 
2206.000000	64.816069 
2205.000000	64.817070 
2204.000000	64.818024 
2203.000000	64.820241 
2202.000000	64.825272 
2201.000000	64.834332 
2200.000000	64.847826 
2199.000000	64.865136 
2198.000000	64.884638 
2197.000000	64.903879 
2196.000000	64.920186 
2195.000000	64.931392 
2194.000000	64.936304 
2193.000000	64.935040 
2192.000000	64.928960 
2191.000000	64.920663 
2190.000000	64.913201 
2189.000000	64.909386 
2188.000000	64.911103 
2187.000000	64.918804 
2186.000000	64.931273 
2185.000000	64.946198 
2184.000000	64.960241 
2183.000000	64.970159 
2182.000000	64.973449 
2181.000000	64.968872 
2180.000000	64.956593 
2179.000000	64.937996 
2178.000000	64.915060 
2177.000000	64.890027 
2176.000000	64.864850 
2175.000000	64.840912 
2174.000000	64.818930 
2173.000000	64.799094 
2172.000000	64.781332 
2171.000000	64.765572 
2170.000000	64.751791 
2169.000000	64.740109 
2168.000000	64.730644 
2167.000000	64.723491 
2166.000000	64.718413 
2165.000000	64.715099 
2164.000000	64.713120 
2163.000000	64.712166 
2162.000000	64.711999 
2161.000000	64.712810 
2160.000000	64.714860 
2159.000000	64.718627 
2158.000000	64.724421 
2157.000000	64.731979 
2156.000000	64.740490 
2155.000000	64.748454 
2154.000000	64.754080 
2153.000000	64.755487 
2152.000000	64.751434 
2151.000000	64.741349 
2150.000000	64.725756 
2149.000000	64.705991 
2148.000000	64.683938 
2147.000000	64.661979 
2146.000000	64.642381 
2145.000000	64.627170 
2144.000000	64.617896 
2143.000000	64.615821 
2142.000000	64.621829 
2141.000000	64.636182 
2140.000000	64.658522 
2139.000000	64.687657 
2138.000000	64.721632 
2137.000000	64.757609 
2136.000000	64.792227 
2135.000000	64.822125 
2134.000000	64.844369 
2133.000000	64.857244 
2132.000000	64.860153 
2131.000000	64.854168 
2130.000000	64.841461 
2129.000000	64.824819 
2128.000000	64.807057 
2127.000000	64.790511 
2126.000000	64.776730 
2125.000000	64.766430 
2124.000000	64.759802 
2123.000000	64.756727 
2122.000000	64.757227 
2121.000000	64.761567 
2120.000000	64.770197 
2119.000000	64.783477 
2118.000000	64.801359 
2117.000000	64.823079 
2116.000000	64.847064 
2115.000000	64.871025 
2114.000000	64.892506 
2113.000000	64.909482 
2112.000000	64.920449 
2111.000000	64.924979 
2110.000000	64.923548 
2109.000000	64.917325 
2108.000000	64.907813 
2107.000000	64.896512 
2106.000000	64.884757 
2105.000000	64.873504 
2104.000000	64.863348 
2103.000000	64.854454 
2102.000000	64.846992 
2101.000000	64.841008 
2100.000000	64.836335 
2099.000000	64.832735 
2098.000000	64.829564 
2097.000000	64.826297 
2096.000000	64.822292 
2095.000000	64.817261 
2094.000000	64.811229 
2093.000000	64.804720 
2092.000000	64.798426 
2091.000000	64.792776 
2090.000000	64.787483 
2089.000000	64.781522 
2088.000000	64.773321 
2087.000000	64.761257 
2086.000000	64.744377 
2085.000000	64.722895 
2084.000000	64.698338 
2083.000000	64.673447 
2082.000000	64.651441 
2081.000000	64.635348 
2080.000000	64.626979 
2079.000000	64.626622 
2078.000000	64.632892 
2077.000000	64.643025 
2076.000000	64.653706 
2075.000000	64.661812 
2074.000000	64.665341 
2073.000000	64.663720 
2072.000000	64.657998 
2071.000000	64.650344 
2070.000000	64.643454 
2069.000000	64.639687 
2068.000000	64.640712 
2067.000000	64.647054 
2066.000000	64.658117 
2065.000000	64.672493 
2064.000000	64.688277 
2063.000000	64.703607 
2062.000000	64.717102 
2061.000000	64.728045 
2060.000000	64.736509 
2059.000000	64.743471 
2058.000000	64.750313 
2057.000000	64.758610 
2056.000000	64.769673 
2055.000000	64.784216 
2054.000000	64.802122 
2053.000000	64.822483 
2052.000000	64.843463 
2051.000000	64.862728 
2050.000000	64.877915 
2049.000000	64.887166 
2048.000000	64.889454 
2047.000000	64.884948 
2046.000000	64.874911 
2045.000000	64.861392 
2044.000000	64.846801 
2043.000000	64.833354 
2042.000000	64.822554 
2041.000000	64.814996 
2040.000000	64.810562 
2039.000000	64.808392 
2038.000000	64.807438 
2037.000000	64.806652 
2036.000000	64.805269 
2035.000000	64.802956 
2034.000000	64.799904 
2033.000000	64.796662 
2032.000000	64.793992 
2031.000000	64.792633 
2030.000000	64.793133 
2029.000000	64.795708 
2028.000000	64.800286 
2027.000000	64.806342 
2026.000000	64.813017 
2025.000000	64.819431 
2024.000000	64.824604 
2023.000000	64.827656 
2022.000000	64.827895 
2021.000000	64.825201 
2020.000000	64.819765 
2019.000000	64.812064 
2018.000000	64.802980 
2017.000000	64.793586 
2016.000000	64.784908 
2015.000000	64.777874 
2014.000000	64.773416 
2013.000000	64.772391 
2012.000000	64.775419 
2011.000000	64.783024 
2010.000000	64.795374 
2009.000000	64.812159 
2008.000000	64.832544 
2007.000000	64.855003 
2006.000000	64.877533 
2005.000000	64.897871 
2004.000000	64.913845 
2003.000000	64.923548 
2002.000000	64.925813 
2001.000000	64.920043 
2000.000000	64.906787 
1999.000000	64.887166 
1998.000000	64.863133 
1997.000000	64.836597 
1996.000000	64.809608 
1995.000000	64.783883 
1994.000000	64.760732 
1993.000000	64.741063 
1992.000000	64.725303 
1991.000000	64.713573 
1990.000000	64.705872 
1989.000000	64.702010 
1988.000000	64.701676 
1987.000000	64.704370 
1986.000000	64.709234 
1985.000000	64.715099 
1984.000000	64.720773 
1983.000000	64.724802 
1982.000000	64.726114 
1981.000000	64.724063 
1980.000000	64.719033 
1979.000000	64.712476 
1978.000000	64.706802 
1977.000000	64.704823 
1976.000000	64.709186 
1975.000000	64.721655 
1974.000000	64.742493 
1973.000000	64.770221 
1972.000000	64.801788 
1971.000000	64.833211 
1970.000000	64.860200 
1969.000000	64.879298 
1968.000000	64.888215 
1967.000000	64.886283 
1966.000000	64.874386 
1965.000000	64.854621 
1964.000000	64.829897 
1963.000000	64.803171 
1962.000000	64.777183 
1961.000000	64.754223 
1960.000000	64.736056 
1959.000000	64.724159 
1958.000000	64.719581 
1957.000000	64.723110 
1956.000000	64.734721 
1955.000000	64.753627 
1954.000000	64.777970 
1953.000000	64.805269 
1952.000000	64.832568 
1951.000000	64.857220 
1950.000000	64.877104 
1949.000000	64.891004 
1948.000000	64.898681 
1947.000000	64.900493 
1946.000000	64.897322 
1945.000000	64.890050 
1944.000000	64.879727 
1943.000000	64.866948 
1942.000000	64.852547 
1941.000000	64.836978 
1940.000000	64.820766 
1939.000000	64.804148 
1938.000000	64.787316 
1937.000000	64.770293 
1936.000000	64.753079 
1935.000000	64.735770 
1934.000000	64.718413 
1933.000000	64.701414 
1932.000000	64.685392 
1931.000000	64.671349 
1930.000000	64.660477 
1929.000000	64.653944 
1928.000000	64.652681 
1927.000000	64.656949 
1926.000000	64.666271 
1925.000000	64.679265 
1924.000000	64.693760 
1923.000000	64.707183 
1922.000000	64.716863 
1921.000000	64.720821 
1920.000000	64.718031 
1919.000000	64.708471 
1918.000000	64.693307 
1917.000000	64.674592 
1916.000000	64.654779 
1915.000000	64.636373 
1914.000000	64.621353 
1913.000000	64.611029 
1912.000000	64.605784 
1911.000000	64.605402 
1910.000000	64.608931 
1909.000000	64.615106 
1908.000000	64.622592 
1907.000000	64.630126 
1906.000000	64.636850 
1905.000000	64.642262 
1904.000000	64.646363 
1903.000000	64.649462 
1902.000000	64.652037 
1901.000000	64.654588 
1900.000000	64.657592 
1899.000000	64.661312 
1898.000000	64.666008 
1897.000000	64.671635 
1896.000000	64.678120 
1895.000000	64.685273 
1894.000000	64.693021 
1893.000000	64.701032 
1892.000000	64.709067 
1891.000000	64.716744 
1890.000000	64.723682 
1889.000000	64.729452 
1888.000000	64.733862 
1887.000000	64.736533 
1886.000000	64.737200 
1885.000000	64.735555 
1884.000000	64.731621 
1883.000000	64.725685 
1882.000000	64.718151 
1881.000000	64.709830 
1880.000000	64.701747 
1879.000000	64.695096 
1878.000000	64.690947 
1877.000000	64.690041 
1876.000000	64.692735 
1875.000000	64.698743 
1874.000000	64.707207 
1873.000000	64.716863 
1872.000000	64.726161 
1871.000000	64.733386 
1870.000000	64.737105 
1869.000000	64.736270 
1868.000000	64.730453 
1867.000000	64.719891 
1866.000000	64.705657 
1865.000000	64.689350 
1864.000000	64.673066 
1863.000000	64.659070 
1862.000000	64.649534 
1861.000000	64.646148 
1860.000000	64.649629 
1859.000000	64.659786 
1858.000000	64.675331 
1857.000000	64.694094 
1856.000000	64.713501 
1855.000000	64.730954 
1854.000000	64.744400 
1853.000000	64.752578 
1852.000000	64.755606 
1851.000000	64.754557 
1850.000000	64.751458 
1849.000000	64.748620 
1848.000000	64.748024 
1847.000000	64.750981 
1846.000000	64.757680 
1845.000000	64.767169 
1844.000000	64.777636 
1843.000000	64.786744 
1842.000000	64.792227 
1841.000000	64.792251 
1840.000000	64.785814 
1839.000000	64.772987 
1838.000000	64.754700 
1837.000000	64.732789 
1836.000000	64.709544 
1835.000000	64.687585 
1834.000000	64.669418 
1833.000000	64.657163 
1832.000000	64.652252 
1831.000000	64.655089 
1830.000000	64.665031 
1829.000000	64.680480 
1828.000000	64.698958 
1827.000000	64.717507 
1826.000000	64.733242 
1825.000000	64.743924 
1824.000000	64.748430 
1823.000000	64.746856 
1822.000000	64.740419 
1821.000000	64.731121 
1820.000000	64.721202 
1819.000000	64.712333 
1818.000000	64.705276 
1817.000000	64.699649 
1816.000000	64.694261 
1815.000000	64.687347 
1814.000000	64.677453 
1813.000000	64.664053 
1812.000000	64.647865 
1811.000000	64.630722 
1810.000000	64.615368 
1809.000000	64.604473 
1808.000000	64.600276 
1807.000000	64.603710 
1806.000000	64.614415 
1805.000000	64.630651 
1804.000000	64.649868 
1803.000000	64.669394 
1802.000000	64.686655 
1801.000000	64.699792 
1800.000000	64.707732 
1799.000000	64.710044 
1798.000000	64.706969 
1797.000000	64.699172 
1796.000000	64.687466 
1795.000000	64.672851 
1794.000000	64.656662 
1793.000000	64.640426 
1792.000000	64.625692 
1791.000000	64.613890 
1790.000000	64.606046 
1789.000000	64.602518 
1788.000000	64.602828 
1787.000000	64.605712 
1786.000000	64.609622 
1785.000000	64.613175 
1784.000000	64.615273 
1783.000000	64.615654 
1782.000000	64.614534 
1781.000000	64.612746 
1780.000000	64.611268 
1779.000000	64.610838 
1778.000000	64.611911 
1777.000000	64.614439 
1776.000000	64.618039 
1775.000000	64.622044 
1774.000000	64.625883 
1773.000000	64.628958 
1772.000000	64.631056 
1771.000000	64.632105 
1770.000000	64.632201 
1769.000000	64.631247 
1768.000000	64.629101 
1767.000000	64.625239 
1766.000000	64.618873 
1765.000000	64.609193 
1764.000000	64.595532 
1763.000000	64.577364 
1762.000000	64.554882 
1761.000000	64.528775 
1760.000000	64.500522 
1759.000000	64.472174 
1758.000000	64.445996 
1757.000000	64.424324 
1756.000000	64.408993 
1755.000000	64.400982 
1754.000000	64.400076 
1753.000000	64.405059 
1752.000000	64.413714 
1751.000000	64.423251 
1750.000000	64.431023 
1749.000000	64.435005 
1748.000000	64.434123 
1747.000000	64.428353 
1746.000000	64.418745 
1745.000000	64.406919 
1744.000000	64.394664 
1743.000000	64.383292 
1742.000000	64.373445 
1741.000000	64.364933 
1740.000000	64.356756 
1739.000000	64.347672 
1738.000000	64.336490 
1737.000000	64.322686 
1736.000000	64.306426 
1735.000000	64.288687 
1734.000000	64.270949 
1733.000000	64.255237 
1732.000000	64.243173 
1731.000000	64.236044 
1730.000000	64.234542 
1729.000000	64.238905 
1728.000000	64.248490 
1727.000000	64.262604 
1726.000000	64.280343 
1725.000000	64.300966 
1724.000000	64.323687 
1723.000000	64.347863 
1722.000000	64.372658 
1721.000000	64.397192 
1720.000000	64.420056 
1719.000000	64.439868 
1718.000000	64.455199 
1717.000000	64.465069 
1716.000000	64.469194 
1715.000000	64.468026 
1714.000000	64.463019 
1713.000000	64.456129 
1712.000000	64.449715 
1711.000000	64.445924 
1710.000000	64.446496 
1709.000000	64.452362 
1708.000000	64.463686 
1707.000000	64.479994 
1706.000000	64.500331 
1705.000000	64.523577 
1704.000000	64.548397 
1703.000000	64.573693 
1702.000000	64.598178 
1701.000000	64.620804 
1700.000000	64.640402 
1699.000000	64.656019 
1698.000000	64.666914 
1697.000000	64.672970 
1696.000000	64.674782 
1695.000000	64.673686 
1694.000000	64.671254 
1693.000000	64.669156 
1692.000000	64.668488 
1691.000000	64.669394 
1690.000000	64.670944 
1689.000000	64.671516 
1688.000000	64.669156 
1687.000000	64.661884 
1686.000000	64.648866 
1685.000000	64.630722 
1684.000000	64.609313 
1683.000000	64.587712 
1682.000000	64.569401 
1681.000000	64.557480 
1680.000000	64.553952 
1679.000000	64.559030 
1678.000000	64.571237 
1677.000000	64.587640 
1676.000000	64.604496 
1675.000000	64.618110 
1674.000000	64.625597 
1673.000000	64.625501 
1672.000000	64.617824 
1671.000000	64.604139 
1670.000000	64.587116 
1669.000000	64.569783 
1668.000000	64.554953 
1667.000000	64.544248 
1666.000000	64.538025 
1665.000000	64.534926 
1664.000000	64.532589 
1663.000000	64.527916 
1662.000000	64.518022 
1661.000000	64.500856 
1660.000000	64.475965 
1659.000000	64.444422 
1658.000000	64.409041 
1657.000000	64.373612 
1656.000000	64.342308 
1655.000000	64.318871 
1654.000000	64.306044 
1653.000000	64.304947 
1652.000000	64.315080 
1651.000000	64.334511 
1650.000000	64.360451 
1649.000000	64.389491 
1648.000000	64.418721 
1647.000000	64.445734 
1646.000000	64.469099 
1645.000000	64.488124 
1644.000000	64.502954 
1643.000000	64.514231 
1642.000000	64.522862 
1641.000000	64.529943 
1640.000000	64.536213 
1639.000000	64.542150 
1638.000000	64.547777 
1637.000000	64.553117 
1636.000000	64.557766 
1635.000000	64.561057 
1634.000000	64.562177 
1633.000000	64.560461 
1632.000000	64.555287 
1631.000000	64.546251 
1630.000000	64.533281 
1629.000000	64.516615 
1628.000000	64.496803 
1627.000000	64.474534 
1626.000000	64.450764 
1625.000000	64.426279 
1624.000000	64.401698 
1623.000000	64.377450 
1622.000000	64.353799 
1621.000000	64.331197 
1620.000000	64.310002 
1619.000000	64.291310 
1618.000000	64.276123 
1617.000000	64.265871 
1616.000000	64.262008 
1615.000000	64.265847 
1614.000000	64.277911 
1613.000000	64.298009 
1612.000000	64.325141 
1611.000000	64.357471 
1610.000000	64.392471 
1609.000000	64.427304 
1608.000000	64.459085 
1607.000000	64.485335 
1606.000000	64.504146 
1605.000000	64.514589 
1604.000000	64.516544 
1603.000000	64.510893 
1602.000000	64.499163 
1601.000000	64.483356 
1600.000000	64.465308 
1599.000000	64.447045 
1598.000000	64.429950 
1597.000000	64.415073 
1596.000000	64.402699 
1595.000000	64.392900 
1594.000000	64.385604 
1593.000000	64.380216 
1592.000000	64.376425 
1591.000000	64.373826 
1590.000000	64.372515 
1589.000000	64.372682 
1588.000000	64.374947 
1587.000000	64.379739 
1586.000000	64.387679 
1585.000000	64.398980 
1584.000000	64.413595 
1583.000000	64.430832 
1582.000000	64.449787 
1581.000000	64.469337 
1580.000000	64.488244 
1579.000000	64.505410 
1578.000000	64.519929 
1577.000000	64.531159 
1576.000000	64.538717 
1575.000000	64.542746 
1574.000000	64.543867 
1573.000000	64.543366 
1572.000000	64.542865 
1571.000000	64.544391 
1570.000000	64.549660 
1569.000000	64.559793 
1568.000000	64.575242 
1567.000000	64.595198 
1566.000000	64.618039 
1565.000000	64.641094 
1564.000000	64.661622 
1563.000000	64.676547 
1562.000000	64.683151 
1561.000000	64.679265 
1560.000000	64.663791 
1559.000000	64.636993 
1558.000000	64.600586 
1557.000000	64.557647 
1556.000000	64.512157 
1555.000000	64.468502 
1554.000000	64.430856 
1553.000000	64.402389 
1552.000000	64.384722 
1551.000000	64.377832 
1550.000000	64.380002 
1549.000000	64.388370 
1548.000000	64.399552 
1547.000000	64.410090 
1546.000000	64.417457 
1545.000000	64.420032 
1544.000000	64.417719 
1543.000000	64.411425 
1542.000000	64.403033 
1541.000000	64.394783 
1540.000000	64.388895 
1539.000000	64.387130 
1538.000000	64.390492 
1537.000000	64.399194 
1536.000000	64.412498 
1535.000000	64.429092 
1534.000000	64.446902 
1533.000000	64.463543 
1532.000000	64.476490 
1531.000000	64.483380 
1530.000000	64.482355 
1529.000000	64.472556 
1528.000000	64.454269 
1527.000000	64.429068 
1526.000000	64.399886 
1525.000000	64.370632 
1524.000000	64.345240 
1523.000000	64.327073 
1522.000000	64.318513 
1521.000000	64.320611 
1520.000000	64.332962 
1519.000000	64.353871 
1518.000000	64.380908 
1517.000000	64.411282 
1516.000000	64.442348 
1515.000000	64.471840 
1514.000000	64.497828 
1513.000000	64.518737 
1512.000000	64.533638 
1511.000000	64.541769 
1510.000000	64.543032 
1509.000000	64.537739 
1508.000000	64.526867 
1507.000000	64.511919 
1506.000000	64.494895 
1505.000000	64.477610 
1504.000000	64.461803 
1503.000000	64.448571 
1502.000000	64.438343 
1501.000000	64.431309 
1500.000000	64.427566 
1499.000000	64.427399 
1498.000000	64.431262 
1497.000000	64.439821 
1496.000000	64.453387 
1495.000000	64.471793 
1494.000000	64.493823 
1493.000000	64.517235 
1492.000000	64.538860 
1491.000000	64.555358 
1490.000000	64.563894 
1489.000000	64.562749 
1488.000000	64.551925 
1487.000000	64.533090 
1486.000000	64.509344 
1485.000000	64.484930 
1484.000000	64.463901 
1483.000000	64.449477 
1482.000000	64.443039 
1481.000000	64.444446 
1480.000000	64.451551 
1479.000000	64.461112 
1478.000000	64.469432 
1477.000000	64.473080 
1476.000000	64.469838 
1475.000000	64.459085 
1474.000000	64.441752 
1473.000000	64.420104 
1472.000000	64.397430 
1471.000000	64.377236 
1470.000000	64.362454 
1469.000000	64.354920 
1468.000000	64.355134 
1467.000000	64.362072 
1466.000000	64.373612 
1465.000000	64.386725 
1464.000000	64.398288 
1463.000000	64.405417 
1462.000000	64.406061 
1461.000000	64.399194 
1460.000000	64.384889 
1459.000000	64.364314 
1458.000000	64.339447 
1457.000000	64.312624 
1456.000000	64.286422 
1455.000000	64.262986 
1454.000000	64.243865 
1453.000000	64.229893 
1452.000000	64.221310 
1451.000000	64.218020 
1450.000000	64.219641 
1449.000000	64.226055 
1448.000000	64.237308 
1447.000000	64.253711 
1446.000000	64.275717 
1445.000000	64.303421 
1444.000000	64.336156 
1443.000000	64.372515 
1442.000000	64.410257 
1441.000000	64.446616 
1440.000000	64.478564 
1439.000000	64.503264 
1438.000000	64.518618 
1437.000000	64.523768 
1436.000000	64.519214 
1435.000000	64.506578 
1434.000000	64.488410 
1433.000000	64.467644 
1432.000000	64.446949 
1431.000000	64.428615 
1430.000000	64.413881 
1429.000000	64.403367 
1428.000000	64.396619 
1427.000000	64.392948 
1426.000000	64.391374 
1425.000000	64.391160 
1424.000000	64.391613 
1423.000000	64.392137 
1422.000000	64.392113 
1421.000000	64.390683 
1420.000000	64.387035 
1419.000000	64.380431 
1418.000000	64.370298 
1417.000000	64.356613 
1416.000000	64.340138 
1415.000000	64.322376 
1414.000000	64.305353 
1413.000000	64.291143 
1412.000000	64.281702 
1411.000000	64.278125 
1410.000000	64.280438 
1409.000000	64.287376 
1408.000000	64.296674 
1407.000000	64.305639 
1406.000000	64.311480 
1405.000000	64.312338 
1404.000000	64.307260 
1403.000000	64.296984 
1402.000000	64.283370 
1401.000000	64.269185 
1400.000000	64.257216 
1399.000000	64.249825 
1398.000000	64.248228 
1397.000000	64.252424 
1396.000000	64.261317 
1395.000000	64.272999 
1394.000000	64.285349 
1393.000000	64.296698 
1392.000000	64.306211 
1391.000000	64.313888 
1390.000000	64.320421 
1389.000000	64.326691 
1388.000000	64.333391 
1387.000000	64.340734 
1386.000000	64.348101 
1385.000000	64.354491 
1384.000000	64.358639 
1383.000000	64.359664 
1382.000000	64.357352 
1381.000000	64.352488 
1380.000000	64.346456 
1379.000000	64.341259 
1378.000000	64.338803 
1377.000000	64.340448 
1376.000000	64.346361 
1375.000000	64.355850 
1374.000000	64.367127 
1373.000000	64.377713 
1372.000000	64.384913 
1371.000000	64.386630 
1370.000000	64.381337 
1369.000000	64.368367 
1368.000000	64.348149 
1367.000000	64.322090 
1366.000000	64.292430 
1365.000000	64.261817 
1364.000000	64.233136 
1363.000000	64.208865 
1362.000000	64.190721 
1361.000000	64.179396 
1360.000000	64.174342 
1359.000000	64.173936 
1358.000000	64.175915 
1357.000000	64.178037 
1356.000000	64.178276 
1355.000000	64.175820 
1354.000000	64.170813 
1353.000000	64.164733 
1352.000000	64.159440 
1351.000000	64.157128 
1350.000000	64.159321 
1349.000000	64.166831 
1348.000000	64.179444 
1347.000000	64.196085 
1346.000000	64.215278 
1345.000000	64.235377 
1344.000000	64.255213 
1343.000000	64.273834 
1342.000000	64.290595 
1341.000000	64.304900 
1340.000000	64.316058 
1339.000000	64.323234 
1338.000000	64.325547 
1337.000000	64.322447 
1336.000000	64.313960 
1335.000000	64.300966 
1334.000000	64.285111 
1333.000000	64.268708 
1332.000000	64.254260 
1331.000000	64.243769 
1330.000000	64.238381 
1329.000000	64.238095 
1328.000000	64.241909 
1327.000000	64.248228 
1326.000000	64.255309 
1325.000000	64.261841 
1324.000000	64.267110 
1323.000000	64.271092 
1322.000000	64.274215 
1321.000000	64.276957 
1320.000000	64.279675 
1319.000000	64.282083 
1318.000000	64.283609 
1317.000000	64.283394 
1316.000000	64.280819 
1315.000000	64.275908 
1314.000000	64.269185 
1313.000000	64.261889 
1312.000000	64.255332 
1311.000000	64.250898 
1310.000000	64.249229 
1309.000000	64.250063 
1308.000000	64.252257 
1307.000000	64.254117 
1306.000000	64.253950 
1305.000000	64.250397 
1304.000000	64.242839 
1303.000000	64.231491 
1302.000000	64.217448 
1301.000000	64.202284 
1300.000000	64.187526 
1299.000000	64.174532 
1298.000000	64.164113 
1297.000000	64.156723 
1296.000000	64.152574 
1295.000000	64.151573 
1294.000000	64.153742 
1293.000000	64.158964 
1292.000000	64.167165 
1291.000000	64.177703 
1290.000000	64.189600 
1289.000000	64.201211 
1288.000000	64.210414 
1287.000000	64.215064 
1286.000000	64.213490 
1285.000000	64.204812 
1284.000000	64.189386 
1283.000000	64.168953 
1282.000000	64.146184 
1281.000000	64.124202 
1280.000000	64.106130 
1279.000000	64.094138 
1278.000000	64.089369 
1277.000000	64.091634 
1276.000000	64.099717 
1275.000000	64.111638 
1274.000000	64.125466 
1273.000000	64.139342 
1272.000000	64.152407 
1271.000000	64.164185 
1270.000000	64.175009 
1269.000000	64.185428 
1268.000000	64.196085 
1267.000000	64.207315 
1266.000000	64.219045 
1265.000000	64.230656 
1264.000000	64.241099 
1263.000000	64.249420 
1262.000000	64.254713 
1261.000000	64.256620 
1260.000000	64.255213 
1259.000000	64.251089 
1258.000000	64.245176 
1257.000000	64.238286 
1256.000000	64.231133 
1255.000000	64.224147 
1254.000000	64.217305 
1253.000000	64.210414 
1252.000000	64.203214 
1251.000000	64.195561 
1250.000000	64.187622 
1249.000000	64.179754 
1248.000000	64.172506 
1247.000000	64.166307 
1246.000000	64.161491 
1245.000000	64.157915 
1244.000000	64.154934 
1243.000000	64.151835 
1242.000000	64.147996 
1241.000000	64.143276 
1240.000000	64.137840 
1239.000000	64.132475 
1238.000000	64.128279 
1237.000000	64.126563 
1236.000000	64.128208 
1235.000000	64.133548 
1234.000000	64.142131 
1233.000000	64.152932 
1232.000000	64.164543 
1231.000000	64.175558 
1230.000000	64.185023 
1229.000000	64.192485 
1228.000000	64.198207 
1227.000000	64.203000 
1226.000000	64.208030 
1225.000000	64.214372 
1224.000000	64.222669 
1223.000000	64.233088 
1222.000000	64.245128 
1221.000000	64.257812 
1220.000000	64.269733 
1219.000000	64.279222 
1218.000000	64.284706 
1217.000000	64.284825 
1216.000000	64.278817 
1215.000000	64.266467 
1214.000000	64.248371 
1213.000000	64.226102 
1212.000000	64.201807 
1211.000000	64.178180 
1210.000000	64.157772 
1209.000000	64.142870 
1208.000000	64.134812 
1207.000000	64.133787 
1206.000000	64.138460 
1205.000000	64.146494 
1204.000000	64.154672 
1203.000000	64.159727 
1202.000000	64.158821 
1201.000000	64.150190 
1200.000000	64.133524 
1199.000000	64.109992 
1198.000000	64.081954 
1197.000000	64.052534 
1196.000000	64.024806 
1195.000000	64.001417 
1194.000000	63.984012 
1193.000000	63.973116 
1192.000000	63.968157 
1191.000000	63.967752 
1190.000000	63.970088 
1189.000000	63.973927 
1188.000000	63.978767 
1187.000000	63.985300 
1186.000000	63.994669 
1185.000000	64.008450 
1184.000000	64.027619 
1183.000000	64.052224 
1182.000000	64.080929 
1181.000000	64.111113 
1180.000000	64.139509 
1179.000000	64.162588 
1178.000000	64.177775 
1177.000000	64.183473 
1176.000000	64.179706 
1175.000000	64.167928 
1174.000000	64.150691 
1173.000000	64.131331 
1172.000000	64.113306 
1171.000000	64.099860 
1170.000000	64.093351 
1169.000000	64.095473 
1168.000000	64.106607 
1167.000000	64.126205 
1166.000000	64.152431 
1165.000000	64.182257 
1164.000000	64.211726 
1163.000000	64.236664 
1162.000000	64.253187 
1161.000000	64.258742 
1160.000000	64.252591 
1159.000000	64.236021 
1158.000000	64.211964 
1157.000000	64.184522 
1156.000000	64.157772 
1155.000000	64.135217 
1154.000000	64.118838 
1153.000000	64.109063 
1152.000000	64.104819 
1151.000000	64.104175 
1150.000000	64.105057 
1149.000000	64.105772 
1148.000000	64.105534 
1147.000000	64.104199 
1146.000000	64.102220 
1145.000000	64.100384 
1144.000000	64.099049 
1143.000000	64.098215 
1142.000000	64.097571 
1141.000000	64.096522 
1140.000000	64.094829 
1139.000000	64.092278 
1138.000000	64.088392 
1137.000000	64.082551 
1136.000000	64.073967 
1135.000000	64.061999 
1134.000000	64.046478 
1133.000000	64.028024 
1132.000000	64.008212 
1131.000000	63.989257 
1130.000000	63.973379 
1129.000000	63.962435 
1128.000000	63.957309 
1127.000000	63.958120 
1126.000000	63.964056 
1125.000000	63.973975 
1124.000000	63.986706 
1123.000000	64.001059 
1122.000000	64.015936 
1121.000000	64.030194 
1120.000000	64.042687 
1119.000000	64.052343 
1118.000000	64.058327 
1117.000000	64.060258 
1116.000000	64.058423 
1115.000000	64.054012 
1114.000000	64.048981 
1113.000000	64.045715 
1112.000000	64.046454 
1111.000000	64.052867 
1110.000000	64.065313 
1109.000000	64.082813 
1108.000000	64.103031 
1107.000000	64.122557 
1106.000000	64.138007 
1105.000000	64.146590 
1104.000000	64.147138 
1103.000000	64.140462 
1102.000000	64.129042 
1101.000000	64.116597 
1100.000000	64.106702 
1099.000000	64.102005 
1098.000000	64.103388 
1097.000000	64.109969 
1096.000000	64.119338 
1095.000000	64.128756 
1094.000000	64.135694 
1093.000000	64.138722 
1092.000000	64.137530 
1091.000000	64.132857 
1090.000000	64.125704 
1089.000000	64.116978 
1088.000000	64.107131 
1087.000000	64.096331 
1086.000000	64.084649 
1085.000000	64.072608 
1084.000000	64.061665 
1083.000000	64.053893 
1082.000000	64.052081 
1081.000000	64.058637 
1080.000000	64.074683 
1079.000000	64.099812 
1078.000000	64.131402 
1077.000000	64.165282 
1076.000000	64.196515 
1075.000000	64.220666 
1074.000000	64.234852 
1073.000000	64.238119 
1072.000000	64.231848 
1071.000000	64.218759 
1070.000000	64.202380 
1069.000000	64.185786 
1068.000000	64.170765 
1067.000000	64.157795 
1066.000000	64.146089 
1065.000000	64.134383 
1064.000000	64.121603 
1063.000000	64.107489 
1062.000000	64.092803 
1061.000000	64.079141 
1060.000000	64.068317 
1059.000000	64.061713 
1058.000000	64.059710 
1057.000000	64.061427 
1056.000000	64.065217 
1055.000000	64.068984 
1054.000000	64.070987 
1053.000000	64.070153 
1052.000000	64.066863 
1051.000000	64.062309 
1050.000000	64.058566 
1049.000000	64.057445 
1048.000000	64.060211 
1047.000000	64.066958 
1046.000000	64.076638 
1045.000000	64.087033 
1044.000000	64.095473 
1043.000000	64.099597 
1042.000000	64.097714 
1041.000000	64.089417 
1040.000000	64.075589 
1039.000000	64.058160 
1038.000000	64.039945 
1037.000000	64.023923 
1036.000000	64.012789 
1035.000000	64.008259 
1034.000000	64.010787 
1033.000000	64.019441 
1032.000000	64.032268 
1031.000000	64.046812 
1030.000000	64.060711 
1029.000000	64.072346 
1028.000000	64.081263 
1027.000000	64.088106 
1026.000000	64.094257 
1025.000000	64.101433 
1024.000000	64.111018 
1023.000000	64.123821 
1022.000000	64.139819 
1021.000000	64.158225 
1020.000000	64.177918 
1019.000000	64.197349 
1018.000000	64.215350 
1017.000000	64.230751 
1016.000000	64.242768 
1015.000000	64.250612 
1014.000000	64.253330 
1013.000000	64.249825 
1012.000000	64.239239 
1011.000000	64.221024 
1010.000000	64.195394 
1009.000000	64.163684 
1008.000000	64.128589 
1007.000000	64.093732 
1006.000000	64.063143 
1005.000000	64.040660 
1004.000000	64.028978 
1003.000000	64.029145 
1002.000000	64.040398 
1001.000000	64.060235 
1000.000000	64.085173 
999.000000	 64.111375 
998.000000	 64.135551 
997.000000	 64.155125 
996.000000	 64.168810 
995.000000	 64.176201 
994.000000	 64.177751 
993.000000	 64.174127 
992.000000	 64.166355 
991.000000	 64.155554 
990.000000	 64.143228 
989.000000	 64.131236 
988.000000	 64.121985 
987.000000	 64.118146 
986.000000	 64.122200 
985.000000	 64.135575 
984.000000	 64.158153 
983.000000	 64.188003 
982.000000	 64.221405 
981.000000	 64.253664 
980.000000	 64.280009 
979.000000	 64.296746 
978.000000	 64.302277 
977.000000	 64.297413 
976.000000	 64.285063 
975.000000	 64.269161 
974.000000	 64.254021 
973.000000	 64.242696 
972.000000	 64.236545 
971.000000	 64.234733 
970.000000	 64.234995 
969.000000	 64.234352 
968.000000	 64.230418 
967.000000	 64.221906 
966.000000	 64.209246 
965.000000	 64.194035 
964.000000	 64.178633 
963.000000	 64.165067 
962.000000	 64.154314 
961.000000	 64.146208 
960.000000	 64.139652 
959.000000	 64.133071 
958.000000	 64.125204 
957.000000	 64.115595 
956.000000	 64.104938 
955.000000	 64.094734 
954.000000	 64.086890 
953.000000	 64.082956 
952.000000	 64.083671 
951.000000	 64.088630 
950.000000	 64.096355 
949.000000	 64.104747 
948.000000	 64.111661 
947.000000	 64.115476 
946.000000	 64.115524 
945.000000	 64.112210 
944.000000	 64.106845 
943.000000	 64.101052 
942.000000	 64.096498 
941.000000	 64.094376 
940.000000	 64.095091 
939.000000	 64.098405 
938.000000	 64.103150 
937.000000	 64.107728 
936.000000	 64.110136 
935.000000	 64.108657 
934.000000	 64.102101 
933.000000	 64.090061 
932.000000	 64.073133 
931.000000	 64.053010 
930.000000	 64.032363 
929.000000	 64.014625 
928.000000	 64.003491 
927.000000	 64.002275 
926.000000	 64.013576 
925.000000	 64.038348 
924.000000	 64.076066 
923.000000	 64.124059 
922.000000	 64.177942 
921.000000	 64.232158 
920.000000	 64.280581 
919.000000	 64.317631 
918.000000	 64.338874 
917.000000	 64.341998 
916.000000	 64.327216 
915.000000	 64.297199 
914.000000	 64.256882 
913.000000	 64.212536 
912.000000	 64.170789 
911.000000	 64.137268 
910.000000	 64.115881 
909.000000	 64.107990 
908.000000	 64.112448 
907.000000	 64.125943 
906.000000	 64.144062 
905.000000	 64.162158 
904.000000	 64.176321 
903.000000	 64.184260 
902.000000	 64.185762 
901.000000	 64.182257 
900.000000	 64.176392 
899.000000	 64.171075 
898.000000	 64.169001 
897.000000	 64.171910 
896.000000	 64.180254 
895.000000	 64.193415 
894.000000	 64.209938 
893.000000	 64.228010 
892.000000	 64.245700 
891.000000	 64.261770 
890.000000	 64.275431 
889.000000	 64.286208 
888.000000	 64.294171 
887.000000	 64.299583 
886.000000	 64.302682 
885.000000	 64.303803 
884.000000	 64.302778 
883.000000	 64.299154 
882.000000	 64.291954 
881.000000	 64.280366 
880.000000	 64.263463 
879.000000	 64.240694 
878.000000	 64.212250 
877.000000	 64.179301 
876.000000	 64.144086 
875.000000	 64.109921 
874.000000	 64.080548 
873.000000	 64.059424 
872.000000	 64.049077 
871.000000	 64.050555 
870.000000	 64.062666 
869.000000	 64.082145 
868.000000	 64.103960 
867.000000	 64.122509 
866.000000	 64.132475 
865.000000	 64.130830 
864.000000	 64.116978 
863.000000	 64.093756 
862.000000	 64.066481 
861.000000	 64.042210 
860.000000	 64.027976 
859.000000	 64.029073 
858.000000	 64.047861 
857.000000	 64.082622 
856.000000	 64.128279 
855.000000	 64.176869 
854.000000	 64.219737 
853.000000	 64.248824 
852.000000	 64.258694 
851.000000	 64.247226 
850.000000	 64.215898 
849.000000	 64.169216 
848.000000	 64.113640 
847.000000	 64.056205 
846.000000	 64.003348 
845.000000	 63.960123 
844.000000	 63.929748 
843.000000	 63.913917 
842.000000	 63.912439 
841.000000	 63.923335 
840.000000	 63.943386 
839.000000	 63.968372 
838.000000	 63.993954 
837.000000	 64.015698 
836.000000	 64.030361 
835.000000	 64.035892 
834.000000	 64.032244 
833.000000	 64.020776 
832.000000	 64.004325 
831.000000	 63.986325 
830.000000	 63.970041 
829.000000	 63.957786 
828.000000	 63.950347 
827.000000	 63.947176 
826.000000	 63.946008 
825.000000	 63.943910 
824.000000	 63.937759 
823.000000	 63.925123 
822.000000	 63.904857 
821.000000	 63.877439 
820.000000	 63.844847 
819.000000	 63.810443 
818.000000	 63.778495 
817.000000	 63.753724 
816.000000	 63.740420 
815.000000	 63.741827 
814.000000	 63.758993 
813.000000	 63.790822 
812.000000	 63.834142 
811.000000	 63.884377 
810.000000	 63.936161 
809.000000	 63.984584 
808.000000	 64.025497 
807.000000	 64.056348 
806.000000	 64.076137 
805.000000	 64.085602 
804.000000	 64.086318 
803.000000	 64.081001 
802.000000	 64.072799 
801.000000	 64.065217 
800.000000	 64.061450 
799.000000	 64.063858 
798.000000	 64.073777 
797.000000	 64.090895 
796.000000	 64.113402 
795.000000	 64.137768 
794.000000	 64.159512 
793.000000	 64.174342 
792.000000	 64.179015 
791.000000	 64.172673 
790.000000	 64.156842 
789.000000	 64.135646 
788.000000	 64.114403 
787.000000	 64.098072 
786.000000	 64.089894 
785.000000	 64.090347 
784.000000	 64.097046 
783.000000	 64.105820 
782.000000	 64.111447 
781.000000	 64.109873 
780.000000	 64.098691 
779.000000	 64.078021 
778.000000	 64.049911 
777.000000	 64.017343 
776.000000	 63.983392 
775.000000	 63.950014 
774.000000	 63.917899 
773.000000	 63.886547 
772.000000	 63.855290 
771.000000	 63.824152 
770.000000	 63.794565 
769.000000	 63.769388 
768.000000	 63.752293 
767.000000	 63.746809 
766.000000	 63.754630 
765.000000	 63.774943 
764.000000	 63.804006 
763.000000	 63.836097 
762.000000	 63.864254 
761.000000	 63.882422 
760.000000	 63.886809 
759.000000	 63.877034 
758.000000	 63.856101 
757.000000	 63.829493 
756.000000	 63.803386 
755.000000	 63.783526 
754.000000	 63.773727 
753.000000	 63.775515 
752.000000	 63.788223 
751.000000	 63.809418 
750.000000	 63.836145 
749.000000	 63.865303 
748.000000	 63.894462 
747.000000	 63.921356 
746.000000	 63.944005 
745.000000	 63.960695 
744.000000	 63.969802 
743.000000	 63.970232 
742.000000	 63.961482 
741.000000	 63.943791 
740.000000	 63.918209 
739.000000	 63.886690 
738.000000	 63.851928 
737.000000	 63.816499 
736.000000	 63.782548 
735.000000	 63.751506 
734.000000	 63.724541 
733.000000	 63.702583 
732.000000	 63.686800 
731.000000	 63.678789 
730.000000	 63.680052 
729.000000	 63.691711 
728.000000	 63.713693 
727.000000	 63.744306 
726.000000	 63.780093 
725.000000	 63.816499 
724.000000	 63.847923 
723.000000	 63.868951 
722.000000	 63.875031 
721.000000	 63.863086 
720.000000	 63.832473 
719.000000	 63.784885 
718.000000	 63.725209 
717.000000	 63.660931 
716.000000	 63.601469 
715.000000	 63.556694 
714.000000	 63.535189 
713.000000	 63.542246 
712.000000	 63.578510 
711.000000	 63.639616 
710.000000	 63.716459 
709.000000	 63.797426 
708.000000	 63.870096 
707.000000	 63.924980 
706.000000	 63.957047 
705.000000	 63.967347 
704.000000	 63.962030 
703.000000	 63.950395 
702.000000	 63.942480 
701.000000	 63.944888 
700.000000	 63.959860 
699.000000	 63.983321 
698.000000	 64.006447 
697.000000	 64.018106 
696.000000	 64.008712 
695.000000	 63.973116 
694.000000	 63.912892 
693.000000	 63.836169 
692.000000	 63.755798 
691.000000	 63.686847 
690.000000	 63.642859 
689.000000	 63.632249 
688.000000	 63.656115 
687.000000	 63.708114 
686.000000	 63.776206 
685.000000	 63.846015 
684.000000	 63.904142 
683.000000	 63.941454 
682.000000	 63.954162 
681.000000	 63.943576 
680.000000	 63.914585 
679.000000	 63.873147 
678.000000	 63.824582 
677.000000	 63.770890 
676.000000	 63.712930 
675.000000	 63.651347 
674.000000	 63.588643 
673.000000	 63.530778 
672.000000	 63.485741 
671.000000	 63.462662 
670.000000	 63.467907 
669.000000	 63.503479 
668.000000	 63.563418 
667.000000	 63.633656 
666.000000	 63.695335 
665.000000	 63.729023 
664.000000	 63.720536 
663.000000	 63.664698 
662.000000	 63.568425 
661.000000	 63.449120 
660.000000	 63.330316 
659.000000	 63.235282 
658.000000	 63.181304 
657.000000	 63.174510 
656.000000	 63.208127 
655.000000	 63.264155 
654.000000	 63.318824 
653.000000	 63.348650 
652.000000	 63.336825 
651.000000	 63.277721 
650.000000	 63.176393 
649.000000	 63.049173 
648.000000	 62.916994 
647.000000	 62.803602 
646.000000	 62.727284 
645.000000	 62.701272 
644.000000	 62.731099 
643.000000	 62.815618 
642.000000	 62.948894 
641.000000	 63.120460 
640.000000	 63.317084 
639.000000	 63.523530 
638.000000	 63.723778 
637.000000	 63.902449 
636.000000	 64.045786 
635.000000	 64.144873 
634.000000	 64.196610 
633.000000	 64.205265 
632.000000	 64.181208 
631.000000	 64.140224 
630.000000	 64.099073 
629.000000	 64.072012 
628.000000	 64.066553 
627.000000	 64.083576 
626.000000	 64.115977 
625.000000	 64.151811 
624.000000	 64.176392 
623.000000	 64.177322 
622.000000	 64.146757 
621.000000	 64.083099 
620.000000	 63.991832 
619.000000	 63.882112 
618.000000	 63.767528 
617.000000	 63.661718 
616.000000	 63.578343 
615.000000	 63.527870 
614.000000	 63.517642 
613.000000	 63.550543 
612.000000	 63.625097 
611.000000	 63.735270 
610.000000	 63.871669 
609.000000	 64.022994 
608.000000	 64.176726 
607.000000	 64.320564 
606.000000	 64.445972 
605.000000	 64.549016 
604.000000	 64.630436 
603.000000	 64.693784 
602.000000	 64.743971 
601.000000	 64.784502 
600.000000	 64.816594 
599.000000	 64.838051 
598.000000	 64.845490 
597.000000	 64.834833 
596.000000	 64.804792 
595.000000	 64.756393 
594.000000	 64.694571 
593.000000	 64.626169 
592.000000	 64.558696 
591.000000	 64.498758 
590.000000	 64.450883 
589.000000	 64.416909 
588.000000	 64.396286 
587.000000	 64.386153 
586.000000	 64.382243 
585.000000	 64.379692 
584.000000	 64.374375 
583.000000	 64.362263 
582.000000	 64.340329 
581.000000	 64.306950 
580.000000	 64.262413 
579.000000	 64.210510 
578.000000	 64.157891 
577.000000	 64.113497 
576.000000	 64.085817 
575.000000	 64.081001 
574.000000	 64.100098 
573.000000	 64.137172 
572.000000	 64.180326 
571.000000	 64.214086 
570.000000	 64.223289 
569.000000	 64.196872 
568.000000	 64.131379 
567.000000	 64.032030 
566.000000	 63.912034 
565.000000	 63.789081 
564.000000	 63.682031 
563.000000	 63.605976 
562.000000	 63.569903 
561.000000	 63.574409 
560.000000	 63.613367 
559.000000	 63.676285 
558.000000	 63.751721 
557.000000	 63.830137 
556.000000	 63.905668 
555.000000	 63.976311 
554.000000	 64.042735 
553.000000	 64.106345 
552.000000	 64.168286 
551.000000	 64.227914 
550.000000	 64.282703 
549.000000	 64.328527 
548.000000	 64.361119 
547.000000	 64.376831 
546.000000	 64.374470 
545.000000	 64.355325 
544.000000	 64.322924 
543.000000	 64.282035 
542.000000	 64.238762 
541.000000	 64.198136 
540.000000	 64.163327 
539.000000	 64.134621 
538.000000	 64.110708 
537.000000	 64.088201 
536.000000	 64.062690 
535.000000	 64.030313 
534.000000	 63.989019 
533.000000	 63.939666 
532.000000	 63.886046 
531.000000	 63.834190 
530.000000	 63.790798 
529.000000	 63.761091 
528.000000	 63.747453 
527.000000	 63.747358 
526.000000	 63.753819 
525.000000	 63.757014 
524.000000	 63.747358 
523.000000	 63.717555 
522.000000	 63.665843 
521.000000	 63.595819 
520.000000	 63.517379 
519.000000	 63.443684 
518.000000	 63.389801 
517.000000	 63.368630 
516.000000	 63.389134 
515.000000	 63.454365 
514.000000	 63.560962 
513.000000	 63.699769 
512.000000	 63.857507 
511.000000	 64.020085 
510.000000	 64.173316 
509.000000	 64.305591 
508.000000	 64.407134 
507.000000	 64.471197 
506.000000	 64.493250 
505.000000	 64.471840 
504.000000	 64.407205 
503.000000	 64.301943 
502.000000	 64.162087 
501.000000	 63.998079 
500.000000	 63.824486 
499.000000	 63.659167 
498.000000	 63.522052 
497.000000	 63.431954 
496.000000	 63.403010 
495.000000	 63.441514 
494.000000	 63.543415 
493.000000	 63.695502 
492.000000	 63.876247 
491.000000	 64.062404 
490.000000	 64.232277 
489.000000	 64.371991 
488.000000	 64.477419 
487.000000	 64.553666 
486.000000	 64.612889 
485.000000	 64.666676 
484.000000	 64.723443 
483.000000	 64.780855 
482.000000	 64.828300 
481.000000	 64.845299 
480.000000	 64.809656 
479.000000	 64.701962 
478.000000	 64.514756 
477.000000	 64.253568 
476.000000	 63.938641 
475.000000	 63.600516 
474.000000	 63.274502 
473.000000	 62.991714 
472.000000	 62.773323 
471.000000	 62.627649 
470.000000	 62.550950 
469.000000	 62.530875 
468.000000	 62.552237 
467.000000	 62.601685 
466.000000	 62.671875 
465.000000	 62.760782 
464.000000	 62.870550 
463.000000	 63.002490 
462.000000	 63.154029 
461.000000	 63.314056 
460.000000	 63.464426 
459.000000	 63.583803 
458.000000	 63.651323 
457.000000	 63.652300 
456.000000	 63.581800 
455.000000	 63.449025 
454.000000	 63.272595 
453.000000	 63.079571 
452.000000	 62.894010 
451.000000	 62.731504 
450.000000	 62.596201 
449.000000	 62.482643 
448.000000	 62.377381 
447.000000	 62.265372 
446.000000	 62.136530 
445.000000	 61.990594 
444.000000	 61.836242 
443.000000	 61.689877 
442.000000	 61.570167 
441.000000	 61.493873 
440.000000	 61.470627 
439.000000	 61.500382 
438.000000	 61.577224 
437.000000	 61.686801 
436.000000	 61.808323 
435.000000	 61.916589 
434.000000	 61.986017 
433.000000	 61.995506 
432.000000	 61.930847 
431.000000	 61.791491 
430.000000	 61.583828 
429.000000	 61.332654 
428.000000	 61.075758 
427.000000	 60.862541 
426.000000	 60.742998 
425.000000	 60.760045 
424.000000	 60.940599 
423.000000	 61.284446 
422.000000	 61.762094 
421.000000	 62.316656 
420.000000	 62.874293 
419.000000	 63.356661 
418.000000	 63.698387 
417.000000	 63.853216 
416.000000	 63.806867 
415.000000	 63.584780 
414.000000	 63.250231 
413.000000	 62.896370 
412.000000	 62.623715 
411.000000	 62.528157 
410.000000	 62.665700 
409.000000	 63.042473 
408.000000	 63.599872 
407.000000	 64.228796 
406.000000	 64.789128 
405.000000	 65.147519 
404.000000	 65.205669 
403.000000	 64.922094 
402.000000	 64.324164 
401.000000	 63.503789 
400.000000	 62.587952 
399.000000	 61.716246 
398.000000	 60.989785 
397.000000	 60.436534 
396.000000	 60.039448 
395.000000	 59.757566 
394.000000	 59.545969 
393.000000	 59.377050 
392.000000	 59.275579 
391.000000	 59.314131 
390.000000	 59.583497 
389.000000	 60.160326 
388.000000	 61.051058 
387.000000	 62.181091 
386.000000	 63.425445 
385.000000	 64.626860 
384.000000	 65.625119 
383.000000	 66.286683 
382.000000	 66.569614 
381.000000	 66.487622 
380.000000	 66.091561 
379.000000	 65.442442 
378.000000	 64.569568 
377.000000	 63.503384 
376.000000	 62.256455 
375.000000	 60.910940 
374.000000	 59.578061 
373.000000	 58.510303 
372.000000	 58.064460 
371.000000	 58.658838 
370.000000	 60.646152 

