PE IR       SPECTRUM    SPECTRUM    ASCII       PEDS        1.60        
  -1
BZ1503~3.ASC
17/04/07
13:20:30.00
17/04/07
13:20:30.00
tln
$BZ1503107-1_t0001$<tbV0>[13.0,-13.0,8.0,0.0,27,1,0]
370.000000
64









2002,4.07    
MIRTGS : RIGHTBACK : INTERNAL 2
MIR : ON : INTERNAL 2
OPTKBR

0.200000
8
8.000000
FILLER
RATIO
SPECTRUM
UNLOCKED 256

DOUBLE
64
COMBINED
1
0
0


1.000000
RATIO


1
0
TRUE
51149
0
LEFT NOT FITTED RIGHT NOT FITTED 0
NONE
NONE
15600
12.000000
4.427000
51148
TRUE
1 0 8 72 0 0 0 0 

15798.010000






#HDR
-1
-1
#GR
CM-1
%T
0.00002384185791015625
0.0
5000.000000
-1.000000
4631
8
109.599995
41.867899
#DATA
5000.000000	65.336561  
4999.000000	65.295314  
4998.000000	65.231561  
4997.000000	65.150427  
4996.000000	65.057492  
4995.000000	64.958453  
4994.000000	64.858651  
4993.000000	64.763879  
4992.000000	64.679312  
4991.000000	64.609360  
4990.000000	64.557361  
4989.000000	64.525508  
4988.000000	64.513969  
4987.000000	64.520549  
4986.000000	64.540863  
4985.000000	64.568805  
4984.000000	64.597916  
4983.000000	64.622378  
4982.000000	64.638423  
4981.000000	64.644718  
4980.000000	64.642596  
4979.000000	64.634966  
4978.000000	64.625453  
4977.000000	64.616608  
4976.000000	64.608407  
4975.000000	64.598441  
4974.000000	64.581751  
4973.000000	64.553904  
4972.000000	64.512515  
4971.000000	64.460182  
4970.000000	64.403748  
4969.000000	64.355230  
4968.000000	64.328742  
4967.000000	64.337897  
4966.000000	64.391970  
4965.000000	64.493203  
4964.000000	64.635252  
4963.000000	64.803838  
4962.000000	64.979696  
4961.000000	65.141510  
4960.000000	65.270209  
4959.000000	65.352773  
4958.000000	65.384459  
4957.000000	65.368723  
4956.000000	65.315675  
4955.000000	65.240216  
4954.000000	65.158629  
4953.000000	65.086126  
4952.000000	65.033769  
4951.000000	65.008425  
4950.000000	65.010714  
4949.000000	65.036320  
4948.000000	65.076398  
4947.000000	65.119647  
4946.000000	65.154933  
4945.000000	65.173196  
4944.000000	65.169787  
4943.000000	65.144371  
4942.000000	65.101552  
4941.000000	65.048336  
4940.000000	64.993047  
4939.000000	64.942741  
4938.000000	64.902186  
4937.000000	64.873075  
4936.000000	64.854598  
4935.000000	64.844155  
4934.000000	64.839816  
4933.000000	64.841389  
4932.000000	64.850831  
4931.000000	64.871215  
4930.000000	64.906191  
4929.000000	64.958310  
4928.000000	65.026950  
4927.000000	65.107274  
4926.000000	65.191745  
4925.000000	65.271043  
4924.000000	65.336298  
4923.000000	65.380454  
4922.000000	65.399384  
4921.000000	65.392589  
4920.000000	65.362906  
4919.000000	65.316438  
4918.000000	65.261578  
4917.000000	65.207409  
4916.000000	65.163397  
4915.000000	65.136265  
4914.000000	65.129470  
4913.000000	65.141558  
4912.000000	65.167903  
4911.000000	65.200209  
4910.000000	65.228796  
4909.000000	65.244364  
4908.000000	65.240192  
4907.000000	65.213322  
4906.000000	65.165281  
4905.000000	65.101242  
4904.000000	65.028285  
4903.000000	64.954662  
4902.000000	64.887785  
4901.000000	64.832592  
4900.000000	64.790749  
4899.000000	64.761686  
4898.000000	64.742875  
4897.000000	64.730715  
4896.000000	64.721274  
4895.000000	64.709424  
4894.000000	64.691376  
4893.000000	64.663648  
4892.000000	64.627003  
4891.000000	64.585542  
4890.000000	64.548587  
4889.000000	64.528226  
4888.000000	64.537501  
4887.000000	64.587712  
4886.000000	64.683532  
4885.000000	64.820694  
4884.000000	64.985060  
4883.000000	65.155959  
4882.000000	65.308046  
4881.000000	65.416979  
4880.000000	65.463376  
4879.000000	65.437269  
4878.000000	65.338873  
4877.000000	65.179014  
4876.000000	64.975070  
4875.000000	64.748120  
4874.000000	64.520239  
4873.000000	64.312529  
4872.000000	64.143109  
4871.000000	64.026618  
4870.000000	63.975811  
4869.000000	63.999509  
4868.000000	64.100694  
4867.000000	64.274024  
4866.000000	64.505386  
4865.000000	64.770603  
4864.000000	65.038657  
4863.000000	65.273785  
4862.000000	65.440869  
4861.000000	65.510320  
4860.000000	65.464806  
4859.000000	65.300941  
4858.000000	65.030717  
4857.000000	64.679598  
4856.000000	64.282608  
4855.000000	63.879728  
4854.000000	63.509893  
4853.000000	63.206982  
4852.000000	62.996435  
4851.000000	62.892508  
4850.000000	62.897849  
4849.000000	63.004899  
4848.000000	63.198447  
4847.000000	63.457870  
4846.000000	63.760709  
4845.000000	64.085221  
4844.000000	64.412546  
4843.000000	64.729309  
4842.000000	65.025019  
4841.000000	65.290307  
4840.000000	65.512776  
4839.000000	65.679454  
4838.000000	65.773653  
4837.000000	65.779280  
4836.000000	65.683245  
4835.000000	65.482997  
4834.000000	65.188074  
4833.000000	64.823341  
4832.000000	64.425563  
4831.000000	64.041018  
4830.000000	63.714289  
4829.000000	63.481783  
4828.000000	63.361954  
4827.000000	63.352417  
4826.000000	63.431024  
4825.000000	63.561463  
4824.000000	63.703632  
4823.000000	63.822746  
4822.000000	63.899636  
4821.000000	63.933992  
4820.000000	63.944172  
4819.000000	63.960170  
4818.000000	64.014887  
4817.000000	64.133024  
4816.000000	64.322876  
4815.000000	64.572048  
4814.000000	64.850807  
4813.000000	65.119051  
4812.000000	65.336155  
4811.000000	65.473270  
4810.000000	65.521430  
4809.000000	65.494322  
4808.000000	65.424537  
4807.000000	65.354156  
4806.000000	65.324187  
4805.000000	65.360689  
4804.000000	65.471053  
4803.000000	65.636897  
4802.000000	65.822005  
4801.000000	65.978312  
4800.000000	66.062307  
4799.000000	66.042280  
4798.000000	65.907573  
4797.000000	65.670347  
4796.000000	65.362477  
4795.000000	65.026950  
4794.000000	64.707946  
4793.000000	64.442038  
4792.000000	64.251637  
4791.000000	64.144968  
4790.000000	64.117264  
4789.000000	64.155435  
4788.000000	64.242696  
4787.000000	64.362382  
4786.000000	64.501571  
4785.000000	64.647793  
4784.000000	64.792895  
4783.000000	64.930272  
4782.000000	65.055918  
4781.000000	65.165710  
4780.000000	65.256047  
4779.000000	65.325522  
4778.000000	65.371823  
4777.000000	65.394139  
4776.000000	65.390133  
4775.000000	65.358376  
4774.000000	65.296840  
4773.000000	65.205907  
4772.000000	65.087532  
4771.000000	64.946413  
4770.000000	64.791202  
4769.000000	64.634442  
4768.000000	64.492249  
4767.000000	64.381957  
4766.000000	64.319348  
4765.000000	64.315152  
4764.000000	64.371252  
4763.000000	64.479470  
4762.000000	64.622807  
4761.000000	64.778566  
4760.000000	64.921283  
4759.000000	65.028548  
4758.000000	65.084385  
4757.000000	65.083074  
4756.000000	65.029072  
4755.000000	64.935708  
4754.000000	64.820265  
4753.000000	64.701032  
4752.000000	64.593887  
4751.000000	64.509844  
4750.000000	64.453721  
4749.000000	64.425945  
4748.000000	64.425063  
4747.000000	64.448308  
4746.000000	64.493656  
4745.000000	64.558482  
4744.000000	64.639091  
4743.000000	64.730167  
4742.000000	64.823913  
4741.000000	64.912343  
4740.000000	64.987659  
4739.000000	65.045237  
4738.000000	65.083813  
4737.000000	65.104413  
4736.000000	65.109038  
4735.000000	65.100193  
4734.000000	65.079140  
4733.000000	65.045285  
4732.000000	64.996027  
4731.000000	64.929437  
4730.000000	64.844274  
4729.000000	64.742779  
4728.000000	64.629292  
4727.000000	64.510416  
4726.000000	64.393353  
4725.000000	64.284515  
4724.000000	64.189243  
4723.000000	64.109802  
4722.000000	64.047741  
4721.000000	64.003658  
4720.000000	63.978552  
4719.000000	63.974070  
4718.000000	63.990688  
4717.000000	64.026331  
4716.000000	64.075803  
4715.000000	64.130377  
4714.000000	64.180827  
4713.000000	64.219284  
4712.000000	64.242339  
4711.000000	64.252138  
4710.000000	64.256381  
4709.000000	64.266085  
4708.000000	64.292573  
4707.000000	64.343333  
4706.000000	64.419603  
4705.000000	64.514589  
4704.000000	64.615821  
4703.000000	64.707183  
4702.000000	64.773106  
4701.000000	64.802050  
4700.000000	64.790177  
4699.000000	64.741182  
4698.000000	64.664649  
4697.000000	64.574098  
4696.000000	64.483380  
4695.000000	64.404368  
4694.000000	64.345026  
4693.000000	64.308977  
4692.000000	64.296817  
4691.000000	64.306163  
4690.000000	64.332938  
4689.000000	64.372324  
4688.000000	64.419364  
4687.000000	64.470100  
4686.000000	64.521813  
4685.000000	64.573049  
4684.000000	64.623498  
4683.000000	64.674496  
4682.000000	64.728260  
4681.000000	64.787149  
4680.000000	64.852666  
4679.000000	64.925003  
4678.000000	65.002059  
4677.000000	65.079998  
4676.000000	65.153002  
4675.000000	65.214896  
4674.000000	65.259671  
4673.000000	65.283656  
4672.000000	65.285205  
4671.000000	65.266132  
4670.000000	65.230321  
4669.000000	65.183639  
4668.000000	65.132355  
4667.000000	65.082693  
4666.000000	65.039181  
4665.000000	65.005159  
4664.000000	64.981269  
4663.000000	64.966082  
4662.000000	64.956259  
4661.000000	64.947628  
4660.000000	64.935898  
4659.000000	64.917969  
4658.000000	64.892148  
4657.000000	64.858889  
4656.000000	64.821386  
4655.000000	64.785337  
4654.000000	64.757227  
4653.000000	64.743185  
4652.000000	64.747858  
4651.000000	64.773273  
4650.000000	64.817643  
4649.000000	64.876008  
4648.000000	64.941358  
4647.000000	65.005993  
4646.000000	65.062832  
4645.000000	65.106773  
4644.000000	65.135622  
4643.000000	65.149855  
4642.000000	65.151858  
4641.000000	65.144944  
4640.000000	65.132594  
4639.000000	65.117144  
4638.000000	65.100312  
4637.000000	65.081954  
4636.000000	65.061068  
4635.000000	65.036177  
4634.000000	65.006828  
4633.000000	64.972519  
4632.000000	64.933252  
4631.000000	64.889717  
4630.000000	64.843201  
4629.000000	64.795184  
4628.000000	64.747357  
4627.000000	64.701652  
4626.000000	64.660191  
4625.000000	64.624810  
4624.000000	64.597225  
4623.000000	64.578509  
4622.000000	64.569425  
4621.000000	64.569640  
4620.000000	64.578199  
4619.000000	64.593291  
4618.000000	64.612698  
4617.000000	64.633393  
4616.000000	64.652800  
4615.000000	64.668297  
4614.000000	64.679050  
4613.000000	64.685487  
4612.000000	64.690232  
4611.000000	64.697098  
4610.000000	64.710855  
4609.000000	64.736080  
4608.000000	64.776372  
4607.000000	64.833140  
4606.000000	64.904999  
4605.000000	64.987874  
4604.000000	65.075373  
4603.000000	65.160274  
4602.000000	65.235710  
4601.000000	65.296530  
4600.000000	65.340137  
4599.000000	65.366554  
4598.000000	65.377807  
4597.000000	65.377712  
4596.000000	65.370583  
4595.000000	65.361046  
4594.000000	65.353918  
4593.000000	65.353131  
4592.000000	65.362429  
4591.000000	65.383553  
4590.000000	65.416812  
4589.000000	65.460205  
4588.000000	65.509247  
4587.000000	65.558314  
4586.000000	65.601491  
4585.000000	65.634155  
4584.000000	65.653657  
4583.000000	65.660119  
4582.000000	65.656590  
4581.000000	65.647459  
4580.000000	65.637183  
4579.000000	65.628385  
4578.000000	65.621304  
4577.000000	65.613269  
4576.000000	65.599846  
4575.000000	65.576744  
4574.000000	65.541291  
4573.000000	65.494012  
4572.000000	65.438294  
4571.000000	65.379881  
4570.000000	65.324950  
4569.000000	65.278029  
4568.000000	65.240955  
4567.000000	65.212726  
4566.000000	65.189957  
4565.000000	65.168571  
4564.000000	65.144848  
4563.000000	65.116667  
4562.000000	65.083909  
4561.000000	65.047979  
4560.000000	65.011382  
4559.000000	64.976382  
4558.000000	64.944648  
4557.000000	64.916014  
4556.000000	64.889597  
4555.000000	64.864015  
4554.000000	64.838504  
4553.000000	64.813208  
4552.000000	64.790081  
4551.000000	64.772272  
4550.000000	64.763212  
4549.000000	64.765620  
4548.000000	64.779901  
4547.000000	64.804267  
4546.000000	64.834833  
4545.000000	64.867091  
4544.000000	64.896965  
4543.000000	64.921998  
4542.000000	64.942908  
4541.000000	64.962363  
4540.000000	64.983487  
4539.000000	65.008449  
4538.000000	65.037775  
4537.000000	65.069174  
4536.000000	65.098333  
4535.000000	65.119647  
4534.000000	65.128898  
4533.000000	65.123343  
4532.000000	65.103220  
4531.000000	65.071272  
4530.000000	65.032672  
4529.000000	64.993214  
4528.000000	64.958214  
4527.000000	64.931273  
4526.000000	64.914107  
4525.000000	64.905905  
4524.000000	64.904022  
4523.000000	64.906287  
4522.000000	64.912247  
4521.000000	64.921951  
4520.000000	64.936900  
4519.000000	64.959597  
4518.000000	64.993596  
4517.000000	65.042281  
4516.000000	65.107822  
4515.000000	65.191864  
4514.000000	65.292763  
4513.000000	65.402626  
4512.000000	65.510177  
4511.000000	65.602684  
4510.000000	65.669870  
4509.000000	65.708398  
4508.000000	65.720725  
4507.000000	65.714287  
4506.000000	65.698647  
4505.000000	65.684580  
4504.000000	65.677881  
4503.000000	65.674805  
4502.000000	65.670084  
4501.000000	65.659856  
4500.000000	65.646052  
4499.000000	65.636587  
4498.000000	65.650439  
4497.000000	65.713834  
4496.000000	65.844655  
4495.000000	66.046166  
4494.000000	66.308903  
4493.000000	66.612339  
4492.000000	66.920256  
4491.000000	67.196893  
4490.000000	67.420411  
4489.000000	67.590498  
4488.000000	67.737913  
4487.000000	67.906069  
4486.000000	68.137049  
4485.000000	68.446850  
4484.000000	68.827557  
4483.000000	69.226074  
4482.000000	69.556450  
4481.000000	69.713377  
4480.000000	69.607043  
4479.000000	69.181084  
4478.000000	68.435072  
4477.000000	67.427110  
4476.000000	66.271138  
4475.000000	65.100455  
4474.000000	64.041829  
4473.000000	63.173103  
4472.000000	62.510299  
4471.000000	61.984205  
4470.000000	61.463809  
4469.000000	60.782146  
4468.000000	59.792661  
4467.000000	58.407115  
4466.000000	56.645107  
4465.000000	54.629468  
4464.000000	52.591323  
4463.000000	50.820517  
4462.000000	49.620270  
4461.000000	49.227476  
4460.000000	49.769353  
4459.000000	51.225519  
4458.000000	53.432869  
4457.000000	56.106615  
4456.000000	58.908271  
4455.000000	61.503291  
4454.000000	63.632297  
4453.000000	65.140700  
4452.000000	66.005158  
4451.000000	66.303825  
4450.000000	66.194033  
4449.000000	65.858268  
4448.000000	65.466022  
4447.000000	65.142703  
4446.000000	64.956593  
4445.000000	64.931726  
4444.000000	65.040779  
4443.000000	65.231871  
4442.000000	65.445065  
4441.000000	65.633606  
4440.000000	65.760397  
4439.000000	65.806865  
4438.000000	65.770125  
4437.000000	65.662813  
4436.000000	65.503573  
4435.000000	65.315628  
4434.000000	65.126371  
4433.000000	64.960789  
4432.000000	64.838099  
4431.000000	64.768886  
4430.000000	64.757657  
4429.000000	64.800262  
4428.000000	64.886355  
4427.000000	65.001296  
4426.000000	65.124464  
4425.000000	65.239500  
4424.000000	65.341401  
4423.000000	65.429639  
4422.000000	65.500164  
4421.000000	65.554976  
4420.000000	65.601491  
4419.000000	65.646529  
4418.000000	65.694284  
4417.000000	65.745592  
4416.000000	65.797567  
4415.000000	65.845990  
4414.000000	65.886640  
4413.000000	65.916275  
4412.000000	65.933322  
4411.000000	65.938305  
4410.000000	65.933012  
4409.000000	65.919995  
4408.000000	65.900897  
4407.000000	65.875768  
4406.000000	65.842866  
4405.000000	65.800094  
4404.000000	65.745544  
4403.000000	65.680003  
4402.000000	65.606307  
4401.000000	65.529179  
4400.000000	65.454530  
4399.000000	65.388488  
4398.000000	65.335798  
4397.000000	65.298652  
4396.000000	65.276718  
4395.000000	65.266942  
4394.000000	65.265178  
4393.000000	65.267634  
4392.000000	65.270924  
4391.000000	65.272498  
4390.000000	65.270781  
4389.000000	65.264868  
4388.000000	65.254020  
4387.000000	65.237641  
4386.000000	65.215849  
4385.000000	65.189385  
4384.000000	65.160512  
4383.000000	65.132141  
4382.000000	65.107202  
4381.000000	65.087819  
4380.000000	65.074133  
4379.000000	65.064620  
4378.000000	65.056443  
4377.000000	65.046930  
4376.000000	65.034508  
4375.000000	65.019655  
4374.000000	65.004754  
4373.000000	64.993619  
4372.000000	64.990544  
4371.000000	64.998269  
4370.000000	65.016722  
4369.000000	65.042734  
4368.000000	65.070128  
4367.000000	65.091967  
4366.000000	65.101766  
4365.000000	65.096569  
4364.000000	65.077710  
4363.000000	65.051364  
4362.000000	65.027165  
4361.000000	65.015673  
4360.000000	65.025496  
4359.000000	65.061163  
4358.000000	65.121555  
4357.000000	65.199756  
4356.000000	65.284514  
4355.000000	65.362501  
4354.000000	65.421724  
4353.000000	65.454077  
4352.000000	65.457558  
4351.000000	65.436553  
4350.000000	65.400624  
4349.000000	65.362286  
4348.000000	65.333056  
4347.000000	65.320372  
4346.000000	65.325617  
4345.000000	65.344858  
4344.000000	65.369629  
4343.000000	65.390396  
4342.000000	65.398931  
4341.000000	65.391635  
4340.000000	65.369319  
4339.000000	65.337014  
4338.000000	65.301489  
4337.000000	65.268921  
4336.000000	65.242862  
4335.000000	65.223193  
4334.000000	65.206480  
4333.000000	65.187573  
4332.000000	65.161776  
4331.000000	65.126585  
4330.000000	65.082883  
4329.000000	65.034675  
4328.000000	64.987659  
4327.000000	64.948105  
4326.000000	64.919686  
4325.000000	64.904022  
4324.000000	64.900302  
4323.000000	64.906907  
4322.000000	64.921784  
4321.000000	64.943814  
4320.000000	64.973330  
4319.000000	65.011596  
4318.000000	65.059518  
4317.000000	65.116810  
4316.000000	65.180444  
4315.000000	65.245318  
4314.000000	65.304470  
4313.000000	65.350961  
4312.000000	65.379428  
4311.000000	65.387868  
4310.000000	65.378117  
4309.000000	65.355825  
4308.000000	65.328955  
4307.000000	65.305781  
4306.000000	65.292453  
4305.000000	65.291166  
4304.000000	65.299224  
4303.000000	65.310096  
4302.000000	65.315198  
4301.000000	65.306043  
4300.000000	65.277051  
4299.000000	65.227103  
4298.000000	65.160727  
4297.000000	65.086722  
4296.000000	65.016865  
4295.000000	64.962840  
4294.000000	64.933943  
4293.000000	64.934825  
4292.000000	64.964556  
4291.000000	65.017175  
4290.000000	65.082716  
4289.000000	65.150022  
4288.000000	65.208315  
4287.000000	65.249276  
4286.000000	65.268301  
4285.000000	65.264797  
4284.000000	65.241622  
4283.000000	65.203595  
4282.000000	65.156698  
4281.000000	65.106844  
4280.000000	65.059137  
4279.000000	65.017199  
4278.000000	64.983272  
4277.000000	64.958286  
4276.000000	64.942145  
4275.000000	64.934158  
4274.000000	64.932847  
4273.000000	64.936447  
4272.000000	64.942979  
4271.000000	64.950942  
4270.000000	64.959311  
4269.000000	64.967894  
4268.000000	64.977216  
4267.000000	64.988064  
4266.000000	65.000891  
4265.000000	65.015387  
4264.000000	65.030622  
4263.000000	65.044522  
4262.000000	65.054345  
4261.000000	65.057373  
4260.000000	65.051674  
4259.000000	65.036869  
4258.000000	65.014433  
4257.000000	64.987349  
4256.000000	64.959502  
4255.000000	64.935326  
4254.000000	64.918899  
4253.000000	64.913153  
4252.000000	64.919328  
4251.000000	64.936923  
4250.000000	64.963769  
4249.000000	64.996767  
4248.000000	65.032172  
4247.000000	65.066099  
4246.000000	65.095305  
4245.000000	65.117287  
4244.000000	65.131068  
4243.000000	65.137028  
4242.000000	65.137171  
4241.000000	65.134835  
4240.000000	65.133762  
4239.000000	65.137505  
4238.000000	65.148353  
4237.000000	65.167188  
4236.000000	65.192341  
4235.000000	65.220236  
4234.000000	65.245532  
4233.000000	65.262675  
4232.000000	65.266704  
4231.000000	65.254664  
4230.000000	65.226221  
4229.000000	65.183854  
4228.000000	65.132856  
4227.000000	65.080022  
4226.000000	65.032529  
4225.000000	64.996123  
4224.000000	64.974260  
4223.000000	64.967107  
4222.000000	64.971899  
4221.000000	64.983606  
4220.000000	64.996027  
4219.000000	65.003895  
4218.000000	65.003442  
4217.000000	64.994049  
4216.000000	64.977884  
4215.000000	64.959979  
4214.000000	64.946007  
4213.000000	64.941883  
4212.000000	64.951896  
4211.000000	64.978003  
4210.000000	65.019106  
4209.000000	65.071129  
4208.000000	65.128135  
4207.000000	65.182971  
4206.000000	65.229010  
4205.000000	65.260767  
4204.000000	65.274715  
4203.000000	65.269422  
4202.000000	65.245580  
4201.000000	65.205550  
4200.000000	65.153121  
4199.000000	65.092802  
4198.000000	65.029716  
4197.000000	64.969086  
4196.000000	64.916133  
4195.000000	64.875936  
4194.000000	64.852690  
4193.000000	64.849185  
4192.000000	64.865899  
4191.000000	64.901208  
4190.000000	64.950847  
4189.000000	65.008163  
4188.000000	65.065360  
4187.000000	65.114164  
4186.000000	65.147781  
4185.000000	65.161967  
4184.000000	65.155720  
4183.000000	65.131497  
4182.000000	65.094375  
4181.000000	65.051269  
4180.000000	65.008735  
4179.000000	64.972043  
4178.000000	64.943718  
4177.000000	64.923763  
4176.000000	64.909577  
4175.000000	64.897441  
4174.000000	64.883303  
4173.000000	64.864420  
4172.000000	64.840126  
4171.000000	64.812159  
4170.000000	64.784502  
4169.000000	64.762353  
4168.000000	64.750933  
4167.000000	64.754176  
4166.000000	64.773702  
4165.000000	64.808464  
4164.000000	64.854764  
4163.000000	64.907097  
4162.000000	64.959335  
4161.000000	65.005612  
4160.000000	65.041518  
4159.000000	65.064001  
4158.000000	65.071654  
4157.000000	65.064263  
4156.000000	65.042448  
4155.000000	65.007638  
4154.000000	64.962100  
4153.000000	64.909267  
4152.000000	64.853715  
4151.000000	64.801359  
4150.000000	64.758658  
4149.000000	64.732098  
4148.000000	64.727044  
4147.000000	64.746212  
4146.000000	64.788770  
4145.000000	64.850139  
4144.000000	64.922332  
4143.000000	64.995098  
4142.000000	65.057420  
4141.000000	65.099573  
4140.000000	65.115046  
4139.000000	65.101480  
4138.000000	65.061330  
4137.000000	65.001130  
4136.000000	64.930343  
4135.000000	64.859485  
4134.000000	64.798021  
4133.000000	64.753484  
4132.000000	64.729833  
4131.000000	64.727783  
4130.000000	64.744400  
4129.000000	64.774632  
4128.000000	64.812135  
4127.000000	64.850807  
4126.000000	64.885902  
4125.000000	64.914155  
4124.000000	64.934873  
4123.000000	64.949154  
4122.000000	64.959907  
4121.000000	64.970898  
4120.000000	64.985418  
4119.000000	65.005517  
4118.000000	65.031576  
4117.000000	65.061974  
4116.000000	65.093207  
4115.000000	65.120768  
4114.000000	65.140032  
4113.000000	65.147805  
4112.000000	65.143179  
4111.000000	65.128278  
4110.000000	65.107727  
4109.000000	65.087914  
4108.000000	65.076017  
4107.000000	65.077781  
4106.000000	65.096759  
4105.000000	65.132451  
4104.000000	65.180826  
4103.000000	65.234613  
4102.000000	65.285181  
4101.000000	65.324234  
4100.000000	65.345859  
4099.000000	65.347671  
4098.000000	65.331053  
4097.000000	65.301322  
4096.000000	65.266108  
4095.000000	65.233707  
4094.000000	65.211129  
4093.000000	65.202689  
4092.000000	65.209412  
4091.000000	65.229010  
4090.000000	65.256810  
4089.000000	65.287256  
4088.000000	65.315341  
4087.000000	65.337324  
4086.000000	65.351486  
4085.000000	65.358114  
4084.000000	65.359139  
4083.000000	65.357041  
4082.000000	65.354180  
4081.000000	65.352678  
4080.000000	65.353465  
4079.000000	65.356707  
4078.000000	65.360999  
4077.000000	65.364289  
4076.000000	65.363550  
4075.000000	65.355682  
4074.000000	65.338134  
4073.000000	65.309238  
4072.000000	65.269446  
4071.000000	65.221166  
4070.000000	65.169334  
4069.000000	65.120363  
4068.000000	65.081238  
4067.000000	65.057849  
4066.000000	65.053272  
4065.000000	65.066957  
4064.000000	65.094351  
4063.000000	65.127944  
4062.000000	65.159034  
4061.000000	65.179729  
4060.000000	65.184903  
4059.000000	65.173220  
4058.000000	65.147137  
4057.000000	65.111899  
4056.000000	65.073537  
4055.000000	65.037322  
4054.000000	65.006232  
4053.000000	64.980530  
4052.000000	64.958286  
4051.000000	64.936685  
4050.000000	64.913153  
4049.000000	64.886975  
4048.000000	64.859747  
4047.000000	64.835739  
4046.000000	64.820170  
4045.000000	64.818310  
4044.000000	64.833641  
4043.000000	64.866828  
4042.000000	64.915204  
4041.000000	64.973330  
4040.000000	65.034031  
4039.000000	65.089416  
4038.000000	65.132498  
4037.000000	65.158200  
4036.000000	65.164256  
4035.000000	65.151047  
4034.000000	65.121293  
4033.000000	65.079522  
4032.000000	65.031242  
4031.000000	64.982247  
4030.000000	64.937782  
4029.000000	64.901971  
4028.000000	64.877486  
4027.000000	64.865684  
4026.000000	64.866399  
4025.000000	64.878225  
4024.000000	64.899039  
4023.000000	64.925718  
4022.000000	64.955377  
4021.000000	64.985299  
4020.000000	65.013670  
4019.000000	65.039134  
4018.000000	65.061330  
4017.000000	65.080261  
4016.000000	65.096235  
4015.000000	65.109419  
4014.000000	65.119695  
4013.000000	65.126752  
4012.000000	65.130257  
4011.000000	65.130043  
4010.000000	65.126371  
4009.000000	65.119814  
4008.000000	65.111207  
4007.000000	65.101218  
4006.000000	65.090250  
4005.000000	65.078186  
4004.000000	65.064239  
4003.000000	65.047383  
4002.000000	65.026974  
4001.000000	65.003132  
4000.000000	64.976763  
3999.000000	64.950275  
3998.000000	64.927029  
3997.000000	64.910888  
3996.000000	64.905524  
3995.000000	64.913535  
3994.000000	64.935564  
3993.000000	64.970231  
3992.000000	65.014195  
3991.000000	65.062451  
3990.000000	65.109109  
3989.000000	65.148329  
3988.000000	65.175819  
3987.000000	65.189075  
3986.000000	65.187835  
3985.000000	65.174484  
3984.000000	65.153455  
3983.000000	65.130615  
3982.000000	65.112090  
3981.000000	65.103173  
3980.000000	65.107274  
3979.000000	65.125679  
3978.000000	65.157270  
3977.000000	65.198493  
3976.000000	65.244150  
3975.000000	65.288710  
3974.000000	65.327000  
3973.000000	65.354990  
3972.000000	65.370273  
3971.000000	65.372586  
3970.000000	65.363287  
3969.000000	65.345048  
3968.000000	65.320968  
3967.000000	65.294241  
3966.000000	65.267038  
3965.000000	65.240645  
3964.000000	65.214848  
3963.000000	65.188813  
3962.000000	65.161132  
3961.000000	65.130925  
3960.000000	65.097832  
3959.000000	65.062665  
3958.000000	65.027761  
3957.000000	64.996933  
3956.000000	64.974498  
3955.000000	64.964628  
3954.000000	64.971041  
3953.000000	64.996099  
3952.000000	65.040183  
3951.000000	65.101504  
3950.000000	65.176033  
3949.000000	65.258240  
3948.000000	65.341496  
3947.000000	65.419101  
3946.000000	65.485262  
3945.000000	65.535688  
3944.000000	65.568137  
3943.000000	65.582275  
3942.000000	65.580058  
3941.000000	65.564346  
3940.000000	65.539312  
3939.000000	65.508604  
3938.000000	65.475821  
3937.000000	65.443325  
3936.000000	65.412712  
3935.000000	65.384173  
3934.000000	65.357089  
3933.000000	65.330219  
3932.000000	65.302348  
3931.000000	65.272188  
3930.000000	65.238904  
3929.000000	65.202474  
3928.000000	65.163803  
3927.000000	65.124845  
3926.000000	65.088295  
3925.000000	65.057229  
3924.000000	65.034627  
3923.000000	65.022373  
3922.000000	65.021204  
3921.000000	65.029978  
3920.000000	65.046286  
3919.000000	65.067028  
3918.000000	65.089106  
3917.000000	65.109753  
3916.000000	65.126919  
3915.000000	65.139794  
3914.000000	65.148067  
3913.000000	65.151548  
3912.000000	65.150094  
3911.000000	65.143227  
3910.000000	65.130639  
3909.000000	65.112352  
3908.000000	65.089559  
3907.000000	65.064525  
3906.000000	65.040779  
3905.000000	65.022802  
3904.000000	65.014529  
3903.000000	65.018606  
3902.000000	65.035462  
3901.000000	65.063118  
3900.000000	65.097379  
3899.000000	65.132689  
3898.000000	65.163540  
3897.000000	65.185666  
3896.000000	65.196681  
3895.000000	65.196418  
3894.000000	65.186738  
3893.000000	65.170693  
3892.000000	65.151619  
3891.000000	65.132260  
3890.000000	65.114569  
3889.000000	65.099382  
3888.000000	65.086746  
3887.000000	65.076303  
3886.000000	65.067958  
3885.000000	65.061807  
3884.000000	65.058422  
3883.000000	65.058493  
3882.000000	65.062308  
3881.000000	65.069460  
3880.000000	65.078759  
3879.000000	65.088343  
3878.000000	65.096044  
3877.000000	65.100002  
3876.000000	65.099191  
3875.000000	65.093636  
3874.000000	65.084385  
3873.000000	65.073108  
3872.000000	65.061616  
3871.000000	65.051317  
3870.000000	65.043163  
3869.000000	65.037465  
3868.000000	65.034103  
3867.000000	65.032982  
3866.000000	65.034151  
3865.000000	65.037989  
3864.000000	65.045285  
3863.000000	65.056729  
3862.000000	65.072655  
3861.000000	65.092420  
3860.000000	65.114879  
3859.000000	65.138196  
3858.000000	65.160226  
3857.000000	65.178871  
3856.000000	65.192484  
3855.000000	65.200352  
3854.000000	65.202546  
3853.000000	65.199971  
3852.000000	65.193891  
3851.000000	65.185570  
3850.000000	65.175890  
3849.000000	65.165328  
3848.000000	65.153908  
3847.000000	65.141630  
3846.000000	65.128827  
3845.000000	65.116333  
3844.000000	65.105724  
3843.000000	65.098810  
3842.000000	65.097141  
3841.000000	65.101790  
3840.000000	65.112733  
3839.000000	65.129232  
3838.000000	65.149950  
3837.000000	65.173244  
3836.000000	65.197920  
3835.000000	65.223002  
3834.000000	65.247845  
3833.000000	65.271520  
3832.000000	65.292906  
3831.000000	65.310215  
3830.000000	65.321278  
3829.000000	65.323567  
3828.000000	65.315151  
3827.000000	65.294909  
3826.000000	65.263509  
3825.000000	65.223026  
3824.000000	65.177130  
3823.000000	65.130352  
3822.000000	65.087437  
3821.000000	65.052485  
3820.000000	65.028357  
3819.000000	65.016484  
3818.000000	65.016889  
3817.000000	65.028262  
3816.000000	65.048551  
3815.000000	65.074944  
3814.000000	65.104722  
3813.000000	65.134811  
3812.000000	65.162944  
3811.000000	65.187573  
3810.000000	65.208101  
3809.000000	65.224957  
3808.000000	65.238857  
3807.000000	65.250968  
3806.000000	65.261983  
3805.000000	65.271997  
3804.000000	65.280199  
3803.000000	65.285301  
3802.000000	65.285515  
3801.000000	65.279459  
3800.000000	65.266537  
3799.000000	65.247178  
3798.000000	65.223050  
3797.000000	65.196728  
3796.000000	65.171170  
3795.000000	65.149092  
3794.000000	65.132570  
3793.000000	65.122580  
3792.000000	65.118837  
3791.000000	65.119886  
3790.000000	65.123772  
3789.000000	65.128207  
3788.000000	65.130710  
3787.000000	65.129137  
3786.000000	65.121698  
3785.000000	65.107727  
3784.000000	65.087366  
3783.000000	65.062022  
3782.000000	65.034103  
3781.000000	65.006780  
3780.000000	64.983487  
3779.000000	64.967226  
3778.000000	64.960241  
3777.000000	64.963126  
3776.000000	64.974975  
3775.000000	64.993286  
3774.000000	65.014600  
3773.000000	65.035080  
3772.000000	65.051341  
3771.000000	65.061092  
3770.000000	65.063500  
3769.000000	65.059328  
3768.000000	65.050649  
3767.000000	65.040326  
3766.000000	65.031433  
3765.000000	65.026712  
3764.000000	65.027976  
3763.000000	65.036034  
3762.000000	65.050649  
3761.000000	65.070533  
3760.000000	65.094089  
3759.000000	65.119194  
3758.000000	65.144252  
3757.000000	65.168142  
3756.000000	65.190792  
3755.000000	65.212678  
3754.000000	65.235066  
3753.000000	65.259051  
3752.000000	65.285491  
3751.000000	65.314555  
3750.000000	65.345358  
3749.000000	65.376019  
3748.000000	65.403866  
3747.000000	65.426301  
3746.000000	65.441155  
3745.000000	65.447235  
3744.000000	65.444540  
3743.000000	65.434360  
3742.000000	65.418577  
3741.000000	65.399527  
3740.000000	65.378999  
3739.000000	65.358018  
3738.000000	65.336894  
3737.000000	65.315222  
3736.000000	65.292429  
3735.000000	65.268087  
3734.000000	65.242195  
3733.000000	65.215349  
3732.000000	65.188646  
3731.000000	65.163636  
3730.000000	65.141820  
3729.000000	65.124702  
3728.000000	65.112996  
3727.000000	65.107107  
3726.000000	65.106844  
3725.000000	65.111708  
3724.000000	65.120649  
3723.000000	65.132474  
3722.000000	65.145921  
3721.000000	65.159821  
3720.000000	65.172791  
3719.000000	65.183687  
3718.000000	65.191483  
3717.000000	65.195512  
3716.000000	65.195393  
3715.000000	65.191006  
3714.000000	65.182447  
3713.000000	65.170168  
3712.000000	65.154981  
3711.000000	65.137934  
3710.000000	65.120267  
3709.000000	65.103673  
3708.000000	65.090084  
3707.000000	65.081119  
3706.000000	65.077948  
3705.000000	65.081310  
3704.000000	65.091252  
3703.000000	65.107107  
3702.000000	65.127229  
3701.000000	65.149641  
3700.000000	65.171742  
3699.000000	65.190815  
3698.000000	65.204286  
3697.000000	65.209913  
3696.000000	65.206527  
3695.000000	65.194320  
3694.000000	65.175056  
3693.000000	65.151691  
3692.000000	65.128111  
3691.000000	65.108442  
3690.000000	65.096235  
3689.000000	65.093708  
3688.000000	65.101552  
3687.000000	65.119028  
3686.000000	65.144181  
3685.000000	65.174579  
3684.000000	65.207910  
3683.000000	65.242767  
3682.000000	65.278720  
3681.000000	65.316200  
3680.000000	65.355896  
3679.000000	65.397977  
3678.000000	65.441823  
3677.000000	65.485262  
3676.000000	65.525031  
3675.000000	65.556597  
3674.000000	65.575933  
3673.000000	65.579175  
3672.000000	65.564441  
3671.000000	65.531420  
3670.000000	65.482354  
3669.000000	65.421152  
3668.000000	65.353322  
3667.000000	65.284919  
3666.000000	65.221810  
3665.000000	65.168786  
3664.000000	65.128946  
3663.000000	65.103507  
3662.000000	65.091896  
3661.000000	65.091824  
3660.000000	65.100002  
3659.000000	65.112829  
3658.000000	65.127205  
3657.000000	65.140914  
3656.000000	65.152955  
3655.000000	65.163445  
3654.000000	65.173244  
3653.000000	65.183520  
3652.000000	65.195083  
3651.000000	65.208005  
3650.000000	65.220952  
3649.000000	65.232181  
3648.000000	65.239214  
3647.000000	65.239953  
3646.000000	65.232801  
3645.000000	65.217566  
3644.000000	65.195417  
3643.000000	65.168666  
3642.000000	65.140676  
3641.000000	65.115141  
3640.000000	65.095615  
3639.000000	65.084719  
3638.000000	65.084290  
3637.000000	65.094661  
3636.000000	65.115094  
3635.000000	65.144085  
3634.000000	65.179324  
3633.000000	65.218067  
3632.000000	65.257406  
3631.000000	65.294456  
3630.000000	65.326499  
3629.000000	65.351080  
3628.000000	65.366172  
3627.000000	65.370512  
3626.000000	65.363955  
3625.000000	65.347599  
3624.000000	65.323925  
3623.000000	65.296149  
3622.000000	65.268325  
3621.000000	65.244126  
3620.000000	65.226721  
3619.000000	65.217709  
3618.000000	65.217280  
3617.000000	65.223908  
3616.000000	65.234827  
3615.000000	65.246582  
3614.000000	65.255641  
3613.000000	65.259146  
3612.000000	65.255498  
3611.000000	65.244603  
3610.000000	65.227794  
3609.000000	65.207505  
3608.000000	65.186619  
3607.000000	65.167975  
3606.000000	65.153622  
3605.000000	65.144467  
3604.000000	65.140271  
3603.000000	65.140056  
3602.000000	65.142297  
3601.000000	65.145277  
3600.000000	65.147495  
3599.000000	65.148305  
3598.000000	65.147781  
3597.000000	65.146279  
3596.000000	65.144538  
3595.000000	65.143132  
3594.000000	65.142512  
3593.000000	65.142869  
3592.000000	65.144300  
3591.000000	65.147042  
3590.000000	65.151357  
3589.000000	65.157794  
3588.000000	65.166783  
3587.000000	65.178155  
3586.000000	65.191173  
3585.000000	65.204524  
3584.000000	65.216588  
3583.000000	65.225768  
3582.000000	65.231275  
3581.000000	65.233063  
3580.000000	65.232038  
3579.000000	65.229845  
3578.000000	65.228009  
3577.000000	65.227651  
3576.000000	65.228486  
3575.000000	65.228724  
3574.000000	65.225625  
3573.000000	65.216159  
3572.000000	65.198040  
3571.000000	65.170383  
3570.000000	65.134525  
3569.000000	65.093493  
3568.000000	65.051531  
3567.000000	65.013265  
3566.000000	64.982366  
3565.000000	64.961457  
3564.000000	64.951491  
3563.000000	64.952039  
3562.000000	64.961695  
3561.000000	64.978480  
3560.000000	65.000104  
3559.000000	65.024232  
3558.000000	65.048313  
3557.000000	65.069937  
3556.000000	65.086603  
3555.000000	65.096354  
3554.000000	65.097713  
3553.000000	65.090632  
3552.000000	65.076255  
3551.000000	65.057158  
3550.000000	65.036773  
3549.000000	65.018463  
3548.000000	65.004754  
3547.000000	64.996695  
3546.000000	64.994049  
3545.000000	64.995217  
3544.000000	64.998197  
3543.000000	65.001344  
3542.000000	65.004038  
3541.000000	65.006566  
3540.000000	65.009999  
3539.000000	65.015482  
3538.000000	65.023851  
3537.000000	65.034794  
3536.000000	65.047025  
3535.000000	65.058612  
3534.000000	65.067338  
3533.000000	65.071558  
3532.000000	65.070581  
3531.000000	65.065073  
3530.000000	65.056848  
3529.000000	65.048432  
3528.000000	65.042257  
3527.000000	65.039777  
3526.000000	65.041279  
3525.000000	65.045833  
3524.000000	65.051746  
3523.000000	65.056943  
3522.000000	65.059876  
3521.000000	65.059971  
3520.000000	65.057730  
3519.000000	65.054869  
3518.000000	65.053462  
3517.000000	65.055561  
3516.000000	65.062642  
3515.000000	65.075087  
3514.000000	65.092253  
3513.000000	65.112638  
3512.000000	65.134358  
3511.000000	65.155696  
3510.000000	65.175509  
3509.000000	65.193247  
3508.000000	65.208864  
3507.000000	65.222311  
3506.000000	65.233087  
3505.000000	65.240073  
3504.000000	65.241432  
3503.000000	65.235400  
3502.000000	65.220761  
3501.000000	65.197372  
3500.000000	65.166711  
3499.000000	65.131521  
3498.000000	65.095591  
3497.000000	65.062808  
3496.000000	65.036487  
3495.000000	65.018749  
3494.000000	65.010356  
3493.000000	65.010547  
3492.000000	65.017676  
3491.000000	65.029597  
3490.000000	65.044355  
3489.000000	65.060162  
3488.000000	65.075850  
3487.000000	65.090417  
3486.000000	65.103197  
3485.000000	65.113568  
3484.000000	65.120840  
3483.000000	65.124630  
3482.000000	65.124607  
3481.000000	65.121078  
3480.000000	65.114474  
3479.000000	65.105557  
3478.000000	65.094852  
3477.000000	65.082764  
3476.000000	65.069317  
3475.000000	65.054488  
3474.000000	65.038490  
3473.000000	65.021872  
3472.000000	65.005779  
3471.000000	64.991760  
3470.000000	64.981579  
3469.000000	64.976906  
3468.000000	64.978623  
3467.000000	64.986658  
3466.000000	64.999771  
3465.000000	65.016031  
3464.000000	65.032720  
3463.000000	65.047311  
3462.000000	65.057873  
3461.000000	65.063762  
3460.000000	65.065503  
3459.000000	65.064597  
3458.000000	65.063047  
3457.000000	65.062618  
3456.000000	65.064382  
3455.000000	65.068268  
3454.000000	65.073275  
3453.000000	65.077662  
3452.000000	65.079808  
3451.000000	65.078639  
3450.000000	65.074253  
3449.000000	65.067982  
3448.000000	65.062141  
3447.000000	65.059423  
3446.000000	65.062379  
3445.000000	65.072536  
3444.000000	65.090107  
3443.000000	65.114092  
3442.000000	65.142369  
3441.000000	65.172481  
3440.000000	65.202164  
3439.000000	65.229749  
3438.000000	65.254282  
3437.000000	65.275454  
3436.000000	65.293407  
3435.000000	65.308117  
3434.000000	65.319132  
3433.000000	65.326023  
3432.000000	65.327978  
3431.000000	65.324711  
3430.000000	65.315937  
3429.000000	65.302467  
3428.000000	65.285444  
3427.000000	65.266633  
3426.000000	65.247869  
3425.000000	65.230846  
3424.000000	65.216755  
3423.000000	65.206241  
3422.000000	65.199327  
3421.000000	65.195655  
3420.000000	65.194416  
3419.000000	65.194797  
3418.000000	65.195751  
3417.000000	65.196204  
3416.000000	65.194964  
3415.000000	65.190887  
3414.000000	65.183138  
3413.000000	65.171241  
3412.000000	65.155267  
3411.000000	65.135836  
3410.000000	65.114021  
3409.000000	65.091180  
3408.000000	65.068602  
3407.000000	65.047287  
3406.000000	65.027952  
3405.000000	65.011048  
3404.000000	64.996790  
3403.000000	64.985394  
3402.000000	64.976930  
3401.000000	64.971899  
3400.000000	64.970660  
3399.000000	64.973592  
3398.000000	64.980792  
3397.000000	64.992237  
3396.000000	65.007162  
3395.000000	65.024709  
3394.000000	65.043687  
3393.000000	65.062999  
3392.000000	65.081548  
3391.000000	65.098404  
3390.000000	65.112853  
3389.000000	65.124273  
3388.000000	65.132212  
3387.000000	65.136480  
3386.000000	65.137243  
3385.000000	65.135025  
3384.000000	65.130925  
3383.000000	65.126228  
3382.000000	65.122556  
3381.000000	65.121245  
3380.000000	65.123367  
3379.000000	65.129375  
3378.000000	65.138936  
3377.000000	65.151238  
3376.000000	65.164709  
3375.000000	65.177607  
3374.000000	65.187859  
3373.000000	65.193963  
3372.000000	65.194582  
3371.000000	65.188932  
3370.000000	65.176749  
3369.000000	65.158367  
3368.000000	65.134525  
3367.000000	65.106081  
3366.000000	65.074300  
3365.000000	65.040731  
3364.000000	65.007090  
3363.000000	64.975166  
3362.000000	64.946675  
3361.000000	64.923214  
3360.000000	64.905929  
3359.000000	64.895343  
3358.000000	64.891195  
3357.000000	64.892458  
3356.000000	64.897322  
3355.000000	64.903879  
3354.000000	64.909958  
3353.000000	64.914059  
3352.000000	64.914965  
3351.000000	64.912676  
3350.000000	64.907693  
3349.000000	64.901518  
3348.000000	64.895796  
3347.000000	64.892387  
3346.000000	64.892649  
3345.000000	64.897823  
3344.000000	64.908790  
3343.000000	64.926171  
3342.000000	64.950060  
3341.000000	64.980411  
3340.000000	65.016841  
3339.000000	65.058493  
3338.000000	65.103983  
3337.000000	65.151309  
3336.000000	65.197944  
3335.000000	65.240979  
3334.000000	65.277528  
3333.000000	65.304756  
3332.000000	65.320420  
3331.000000	65.323376  
3330.000000	65.314102  
3329.000000	65.294504  
3328.000000	65.267968  
3327.000000	65.239167  
3326.000000	65.213036  
3325.000000	65.194225  
3324.000000	65.185999  
3323.000000	65.189719  
3322.000000	65.204191  
3321.000000	65.226149  
3320.000000	65.250635  
3319.000000	65.272140  
3318.000000	65.285563  
3317.000000	65.287327  
3316.000000	65.275979  
3315.000000	65.252208  
3314.000000	65.218973  
3313.000000	65.180230  
3312.000000	65.140485  
3311.000000	65.103673  
3310.000000	65.072870  
3309.000000	65.049982  
3308.000000	65.035820  
3307.000000	65.030384  
3306.000000	65.033316  
3305.000000	65.044069  
3304.000000	65.061664  
3303.000000	65.084695  
3302.000000	65.111017  
3301.000000	65.137767  
3300.000000	65.161347  
3299.000000	65.178155  
3298.000000	65.185284  
3297.000000	65.181088  
3296.000000	65.165829  
3295.000000	65.141558  
3294.000000	65.111827  
3293.000000	65.080809  
3292.000000	65.052747  
3291.000000	65.030717  
3290.000000	65.016531  
3289.000000	65.010142  
3288.000000	65.010333  
3287.000000	65.014982  
3286.000000	65.021705  
3285.000000	65.028452  
3284.000000	65.033864  
3283.000000	65.037250  
3282.000000	65.038442  
3281.000000	65.037798  
3280.000000	65.035891  
3279.000000	65.033268  
3278.000000	65.030598  
3277.000000	65.028762  
3276.000000	65.028405  
3275.000000	65.030074  
3274.000000	65.033721  
3273.000000	65.038728  
3272.000000	65.043926  
3271.000000	65.048003  
3270.000000	65.049624  
3269.000000	65.047645  
3268.000000	65.041565  
3267.000000	65.031361  
3266.000000	65.017843  
3265.000000	65.002250  
3264.000000	64.986371  
3263.000000	64.972019  
3262.000000	64.961123  
3261.000000	64.955401  
3260.000000	64.956068  
3259.000000	64.963555  
3258.000000	64.977478  
3257.000000	64.996623  
3256.000000	65.019035  
3255.000000	65.042304  
3254.000000	65.063858  
3253.000000	65.081548  
3252.000000	65.093922  
3251.000000	65.100574  
3250.000000	65.102171  
3249.000000	65.099835  
3248.000000	65.094757  
3247.000000	65.087580  
3246.000000	65.078449  
3245.000000	65.067124  
3244.000000	65.053391  
3243.000000	65.037465  
3242.000000	65.020608  
3241.000000	65.004920  
3240.000000	64.993000  
3239.000000	64.987254  
3238.000000	64.989328  
3237.000000	64.999389  
3236.000000	65.016198  
3235.000000	65.037107  
3234.000000	65.058636  
3233.000000	65.077352  
3232.000000	65.090417  
3231.000000	65.096354  
3230.000000	65.095043  
3229.000000	65.087914  
3228.000000	65.077328  
3227.000000	65.066123  
3226.000000	65.056967  
3225.000000	65.051984  
3224.000000	65.052461  
3223.000000	65.058755  
3222.000000	65.070176  
3221.000000	65.085339  
3220.000000	65.102386  
3219.000000	65.118885  
3218.000000	65.132880  
3217.000000	65.142869  
3216.000000	65.148305  
3215.000000	65.149593  
3214.000000	65.147948  
3213.000000	65.144944  
3212.000000	65.141892  
3211.000000	65.139865  
3210.000000	65.139007  
3209.000000	65.138816  
3208.000000	65.138101  
3207.000000	65.135598  
3206.000000	65.130043  
3205.000000	65.120744  
3204.000000	65.107655  
3203.000000	65.091538  
3202.000000	65.074014  
3201.000000	65.057063  
3200.000000	65.042829  
3199.000000	65.033006  
3198.000000	65.028572  
3197.000000	65.029382  
3196.000000	65.034437  
3195.000000	65.041875  
3194.000000	65.049386  
3193.000000	65.054869  
3192.000000	65.056872  
3191.000000	65.055036  
3190.000000	65.050125  
3189.000000	65.043759  
3188.000000	65.038037  
3187.000000	65.034627  
3186.000000	65.034461  
3185.000000	65.037369  
3184.000000	65.041971  
3183.000000	65.046191  
3182.000000	65.048074  
3181.000000	65.046405  
3180.000000	65.041303  
3179.000000	65.034270  
3178.000000	65.027856  
3177.000000	65.025091  
3176.000000	65.028524  
3175.000000	65.039420  
3174.000000	65.057444  
3173.000000	65.080618  
3172.000000	65.105748  
3171.000000	65.129137  
3170.000000	65.147519  
3169.000000	65.158796  
3168.000000	65.162491  
3167.000000	65.159535  
3166.000000	65.151882  
3165.000000	65.141963  
3164.000000	65.132117  
3163.000000	65.123987  
3162.000000	65.118384  
3161.000000	65.115475  
3160.000000	65.114760  
3159.000000	65.115547  
3158.000000	65.116906  
3157.000000	65.118336  
3156.000000	65.119385  
3155.000000	65.119767  
3154.000000	65.119147  
3153.000000	65.117311  
3152.000000	65.113973  
3151.000000	65.108895  
3150.000000	65.102028  
3149.000000	65.093636  
3148.000000	65.084409  
3147.000000	65.075540  
3146.000000	65.068340  
3145.000000	65.064024  
3144.000000	65.063548  
3143.000000	65.067410  
3142.000000	65.075373  
3141.000000	65.086555  
3140.000000	65.099763  
3139.000000	65.113735  
3138.000000	65.127205  
3137.000000	65.139412  
3136.000000	65.149664  
3135.000000	65.158009  
3134.000000	65.164637  
3133.000000	65.170359  
3132.000000	65.175962  
3131.000000	65.182423  
3130.000000	65.190720  
3129.000000	65.201616  
3128.000000	65.215539  
3127.000000	65.232276  
3126.000000	65.251088  
3125.000000	65.270471  
3124.000000	65.288376  
3123.000000	65.302467  
3122.000000	65.310621  
3121.000000	65.311098  
3120.000000	65.303015  
3119.000000	65.286517  
3118.000000	65.262889  
3117.000000	65.234446  
3116.000000	65.204262  
3115.000000	65.175700  
3114.000000	65.151882  
3113.000000	65.135407  
3112.000000	65.127992  
3111.000000	65.130138  
3110.000000	65.141177  
3109.000000	65.159559  
3108.000000	65.183043  
3107.000000	65.208625  
3106.000000	65.233254  
3105.000000	65.253877  
3104.000000	65.268015  
3103.000000	65.273904  
3102.000000	65.271162  
3101.000000	65.260744  
3100.000000	65.245008  
3099.000000	65.227413  
3098.000000	65.211844  
3097.000000	65.201854  
3096.000000	65.199875  
3095.000000	65.206670  
3094.000000	65.221023  
3093.000000	65.240097  
3092.000000	65.259957  
3091.000000	65.276527  
3090.000000	65.286469  
3089.000000	65.287995  
3088.000000	65.281033  
3087.000000	65.267014  
3086.000000	65.248203  
3085.000000	65.227079  
3084.000000	65.205693  
3083.000000	65.185332  
3082.000000	65.166425  
3081.000000	65.148949  
3080.000000	65.133023  
3079.000000	65.119028  
3078.000000	65.108060  
3077.000000	65.101480  
3076.000000	65.100574  
3075.000000	65.106225  
3074.000000	65.118217  
3073.000000	65.135359  
3072.000000	65.155482  
3071.000000	65.175890  
3070.000000	65.193963  
3069.000000	65.207815  
3068.000000	65.216588  
3067.000000	65.220475  
3066.000000	65.220165  
3065.000000	65.216660  
3064.000000	65.210795  
3063.000000	65.202975  
3062.000000	65.193223  
3061.000000	65.181326  
3060.000000	65.167140  
3059.000000	65.151071  
3058.000000	65.133953  
3057.000000	65.117144  
3056.000000	65.102243  
3055.000000	65.090775  
3054.000000	65.083694  
3053.000000	65.081429  
3052.000000	65.083527  
3051.000000	65.088963  
3050.000000	65.096664  
3049.000000	65.105581  
3048.000000	65.115451  
3047.000000	65.126395  
3046.000000	65.139174  
3045.000000	65.154790  
3044.000000	65.174078  
3043.000000	65.197300  
3042.000000	65.223789  
3041.000000	65.251803  
3040.000000	65.278792  
3039.000000	65.301585  
3038.000000	65.317034  
3037.000000	65.322661  
3036.000000	65.317130  
3035.000000	65.300559  
3034.000000	65.274643  
3033.000000	65.242218  
3032.000000	65.206789  
3031.000000	65.171742  
3030.000000	65.140008  
3029.000000	65.113639  
3028.000000	65.093493  
3027.000000	65.079760  
3026.000000	65.072035  
3025.000000	65.069627  
3024.000000	65.071964  
3023.000000	65.078568  
3022.000000	65.089035  
3021.000000	65.102863  
3020.000000	65.118980  
3019.000000	65.136003  
3018.000000	65.151858  
3017.000000	65.164494  
3016.000000	65.172052  
3015.000000	65.173387  
3014.000000	65.168356  
3013.000000	65.157628  
3012.000000	65.142846  
3011.000000	65.125966  
3010.000000	65.109086  
3009.000000	65.094017  
3008.000000	65.082097  
3007.000000	65.074086  
3006.000000	65.069937  
3005.000000	65.069174  
3004.000000	65.071058  
3003.000000	65.074467  
3002.000000	65.078663  
3001.000000	65.082859  
3000.000000	65.086817  
2999.000000	65.090703  
2998.000000	65.095019  
2997.000000	65.100407  
2996.000000	65.107440  
2995.000000	65.116477  
2994.000000	65.127348  
2993.000000	65.139651  
2992.000000	65.152645  
2991.000000	65.165448  
2990.000000	65.177297  
2989.000000	65.187764  
2988.000000	65.196919  
2987.000000	65.205264  
2986.000000	65.213179  
2985.000000	65.220785  
2984.000000	65.227723  
2983.000000	65.233063  
2982.000000	65.235495  
2981.000000	65.233659  
2980.000000	65.226697  
2979.000000	65.214753  
2978.000000	65.199041  
2977.000000	65.181827  
2976.000000	65.165972  
2975.000000	65.154075  
2974.000000	65.147995  
2973.000000	65.147900  
2972.000000	65.152311  
2971.000000	65.158224  
2970.000000	65.161800  
2969.000000	65.159153  
2968.000000	65.147471  
2967.000000	65.125775  
2966.000000	65.095400  
2965.000000	65.059876  
2964.000000	65.023875  
2963.000000	64.992618  
2962.000000	64.970612  
2961.000000	64.960885  
2960.000000	64.964127  
2959.000000	64.979195  
2958.000000	65.003252  
2957.000000	65.032625  
2956.000000	65.063166  
2955.000000	65.091133  
2954.000000	65.113639  
2953.000000	65.128421  
2952.000000	65.134310  
2951.000000	65.131163  
2950.000000	65.119647  
2949.000000	65.101456  
2948.000000	65.078973  
2947.000000	65.055203  
2946.000000	65.032887  
2945.000000	65.014839  
2944.000000	65.002632  
2943.000000	64.996385  
2942.000000	64.994692  
2941.000000	64.995026  
2940.000000	64.994239  
2939.000000	64.989161  
2938.000000	64.977836  
2937.000000	64.959883  
2936.000000	64.936804  
2935.000000	64.911365  
2934.000000	64.887189  
2933.000000	64.867711  
2932.000000	64.855122  
2931.000000	64.849972  
2930.000000	64.851117  
2929.000000	64.856219  
2928.000000	64.862298  
2927.000000	64.866828  
2926.000000	64.868187  
2925.000000	64.866232  
2924.000000	64.862060  
2923.000000	64.857602  
2922.000000	64.854645  
2921.000000	64.854526  
2920.000000	64.857482  
2919.000000	64.862775  
2918.000000	64.869093  
2917.000000	64.875054  
2916.000000	64.879751  
2915.000000	64.882969  
2914.000000	64.885520  
2913.000000	64.888715  
2912.000000	64.893770  
2911.000000	64.901423  
2910.000000	64.911484  
2909.000000	64.922904  
2908.000000	64.934039  
2907.000000	64.943265  
2906.000000	64.949512  
2905.000000	64.952468  
2904.000000	64.952826  
2903.000000	64.952015  
2902.000000	64.951777  
2901.000000	64.953732  
2900.000000	64.958715  
2899.000000	64.966893  
2898.000000	64.977693  
2897.000000	64.990210  
2896.000000	65.003299  
2895.000000	65.016150  
2894.000000	65.027976  
2893.000000	65.038466  
2892.000000	65.047383  
2891.000000	65.054345  
2890.000000	65.058755  
2889.000000	65.059852  
2888.000000	65.056967  
2887.000000	65.049791  
2886.000000	65.038561  
2885.000000	65.024280  
2884.000000	65.008473  
2883.000000	64.993190  
2882.000000	64.980220  
2881.000000	64.971065  
2880.000000	64.966678  
2879.000000	64.967012  
2878.000000	64.971661  
2877.000000	64.979863  
2876.000000	64.990782  
2875.000000	65.003561  
2874.000000	65.017485  
2873.000000	65.031790  
2872.000000	65.045356  
2871.000000	65.056753  
2870.000000	65.064311  
2869.000000	65.066194  
2868.000000	65.061163  
2867.000000	65.048837  
2866.000000	65.030097  
2865.000000	65.007138  
2864.000000	64.983177  
2863.000000	64.961695  
2862.000000	64.945888  
2861.000000	64.937758  
2860.000000	64.937758  
2859.000000	64.944815  
2858.000000	64.956641  
2857.000000	64.970254  
2856.000000	64.982938  
2855.000000	64.992761  
2854.000000	64.998865  
2853.000000	65.001440  
2852.000000	65.001416  
2851.000000	64.999985  
2850.000000	64.998197  
2849.000000	64.996719  
2848.000000	64.995741  
2847.000000	64.995265  
2846.000000	64.995241  
2845.000000	64.996004  
2844.000000	64.998149  
2843.000000	65.002584  
2842.000000	65.010142  
2841.000000	65.021324  
2840.000000	65.035796  
2839.000000	65.052628  
2838.000000	65.070319  
2837.000000	65.087032  
2836.000000	65.101027  
2835.000000	65.111136  
2834.000000	65.116786  
2833.000000	65.118241  
2832.000000	65.116310  
2831.000000	65.111947  
2830.000000	65.105938  
2829.000000	65.098905  
2828.000000	65.091156  
2827.000000	65.082812  
2826.000000	65.074014  
2825.000000	65.065264  
2824.000000	65.057229  
2823.000000	65.050935  
2822.000000	65.047383  
2821.000000	65.047216  
2820.000000	65.050697  
2819.000000	65.057349  
2818.000000	65.066170  
2817.000000	65.075588  
2816.000000	65.083694  
2815.000000	65.088868  
2814.000000	65.089845  
2813.000000	65.086269  
2812.000000	65.078973  
2811.000000	65.069723  
2810.000000	65.061140  
2809.000000	65.056014  
2808.000000	65.056872  
2807.000000	65.065383  
2806.000000	65.081977  
2805.000000	65.105295  
2804.000000	65.132808  
2803.000000	65.160775  
2802.000000	65.185213  
2801.000000	65.202474  
2800.000000	65.210056  
2799.000000	65.206885  
2798.000000	65.193486  
2797.000000	65.171694  
2796.000000	65.144133  
2795.000000	65.113639  
2794.000000	65.083050  
2793.000000	65.054893  
2792.000000	65.031242  
2791.000000	65.013861  
2790.000000	65.004038  
2789.000000	65.002679  
2788.000000	65.009903  
2787.000000	65.024995  
2786.000000	65.046310  
2785.000000	65.071463  
2784.000000	65.097546  
2783.000000	65.121364  
2782.000000	65.140199  
2781.000000	65.152001  
2780.000000	65.155720  
2779.000000	65.151643  
2778.000000	65.140986  
2777.000000	65.125513  
2776.000000	65.107393  
2775.000000	65.088701  
2774.000000	65.071010  
2773.000000	65.055584  
2772.000000	65.043234  
2771.000000	65.034437  
2770.000000	65.029263  
2769.000000	65.027713  
2768.000000	65.029501  
2767.000000	65.034174  
2766.000000	65.040993  
2765.000000	65.049099  
2764.000000	65.057468  
2763.000000	65.065073  
2762.000000	65.070700  
2761.000000	65.073347  
2760.000000	65.072131  
2759.000000	65.066981  
2758.000000	65.058469  
2757.000000	65.048098  
2756.000000	65.038013  
2755.000000	65.030789  
2754.000000	65.028738  
2753.000000	65.033364  
2752.000000	65.044951  
2751.000000	65.062355  
2750.000000	65.083193  
2749.000000	65.104198  
2748.000000	65.121960  
2747.000000	65.133643  
2746.000000	65.137696  
2745.000000	65.134143  
2744.000000	65.124559  
2743.000000	65.111756  
2742.000000	65.098857  
2741.000000	65.088796  
2740.000000	65.083670  
2739.000000	65.084218  
2738.000000	65.089893  
2737.000000	65.099167  
2736.000000	65.109753  
2735.000000	65.119385  
2734.000000	65.126037  
2733.000000	65.128278  
2732.000000	65.125775  
2731.000000	65.118837  
2730.000000	65.108537  
2729.000000	65.096473  
2728.000000	65.084218  
2727.000000	65.073132  
2726.000000	65.064239  
2725.000000	65.057969  
2724.000000	65.054368  
2723.000000	65.053272  
2722.000000	65.054368  
2721.000000	65.057301  
2720.000000	65.061783  
2719.000000	65.067386  
2718.000000	65.073561  
2717.000000	65.079617  
2716.000000	65.084719  
2715.000000	65.088033  
2714.000000	65.088868  
2713.000000	65.086865  
2712.000000	65.082001  
2711.000000	65.074753  
2710.000000	65.066123  
2709.000000	65.057492  
2708.000000	65.050315  
2707.000000	65.046024  
2706.000000	65.045666  
2705.000000	65.049791  
2704.000000	65.058493  
2703.000000	65.071082  
2702.000000	65.086293  
2701.000000	65.102124  
2700.000000	65.116500  
2699.000000	65.127301  
2698.000000	65.132784  
2697.000000	65.131950  
2696.000000	65.124964  
2695.000000	65.112996  
2694.000000	65.098285  
2693.000000	65.083503  
2692.000000	65.071296  
2691.000000	65.063619  
2690.000000	65.061473  
2689.000000	65.064740  
2688.000000	65.072321  
2687.000000	65.082669  
2686.000000	65.094161  
2685.000000	65.105509  
2684.000000	65.115809  
2683.000000	65.124773  
2682.000000	65.132308  
2681.000000	65.138220  
2680.000000	65.141940  
2679.000000	65.142488  
2678.000000	65.138554  
2677.000000	65.128898  
2676.000000	65.112423  
2675.000000	65.089082  
2674.000000	65.059733  
2673.000000	65.026164  
2672.000000	64.990949  
2671.000000	64.956831  
2670.000000	64.926624  
2669.000000	64.902448  
2668.000000	64.885807  
2667.000000	64.877176  
2666.000000	64.876532  
2665.000000	64.883279  
2664.000000	64.896702  
2663.000000	64.915800  
2662.000000	64.939785  
2661.000000	64.967799  
2660.000000	64.998912  
2659.000000	65.031838  
2658.000000	65.064930  
2657.000000	65.096235  
2656.000000	65.123677  
2655.000000	65.145373  
2654.000000	65.160036  
2653.000000	65.167045  
2652.000000	65.166878  
2651.000000	65.160703  
2650.000000	65.150499  
2649.000000	65.138387  
2648.000000	65.126490  
2647.000000	65.116429  
2646.000000	65.109276  
2645.000000	65.105414  
2644.000000	65.104818  
2643.000000	65.106868  
2642.000000	65.110898  
2641.000000	65.116119  
2640.000000	65.121912  
2639.000000	65.127468  
2638.000000	65.131878  
2637.000000	65.134310  
2636.000000	65.133881  
2635.000000	65.130066  
2634.000000	65.122890  
2633.000000	65.113115  
2632.000000	65.102100  
2631.000000	65.091824  
2630.000000	65.084433  
2629.000000	65.081644  
2628.000000	65.084266  
2627.000000	65.091800  
2626.000000	65.102434  
2625.000000	65.113258  
2624.000000	65.120863  
2623.000000	65.122175  
2622.000000	65.115094  
2621.000000	65.099048  
2620.000000	65.075445  
2619.000000	65.047073  
2618.000000	65.017795  
2617.000000	64.991760  
2616.000000	64.972615  
2615.000000	64.962768  
2614.000000	64.962816  
2613.000000	64.971780  
2612.000000	64.987134  
2611.000000	65.005469  
2610.000000	65.023040  
2609.000000	65.036487  
2608.000000	65.043377  
2607.000000	65.042686  
2606.000000	65.034794  
2605.000000	65.021467  
2604.000000	65.005564  
2603.000000	64.990472  
2602.000000	64.979577  
2601.000000	64.975595  
2600.000000	64.980220  
2599.000000	64.993691  
2598.000000	65.014958  
2597.000000	65.041780  
2596.000000	65.071439  
2595.000000	65.100932  
2594.000000	65.127873  
2593.000000	65.150594  
2592.000000	65.168213  
2591.000000	65.180563  
2590.000000	65.187931  
2589.000000	65.190362  
2588.000000	65.187811  
2587.000000	65.179634  
2586.000000	65.165400  
2585.000000	65.145015  
2584.000000	65.119147  
2583.000000	65.089654  
2582.000000	65.059566  
2581.000000	65.032553  
2580.000000	65.012288  
2579.000000	65.001440  
2578.000000	65.001106  
2577.000000	65.010333  
2576.000000	65.026569  
2575.000000	65.045905  
2574.000000	65.064239  
2573.000000	65.078306  
2572.000000	65.086364  
2571.000000	65.088558  
2570.000000	65.086865  
2569.000000	65.084171  
2568.000000	65.083456  
2567.000000	65.086960  
2566.000000	65.095257  
2565.000000	65.107440  
2564.000000	65.121030  
2563.000000	65.132927  
2562.000000	65.139937  
2561.000000	65.140128  
2560.000000	65.132856  
2559.000000	65.119075  
2558.000000	65.100979  
2557.000000	65.081310  
2556.000000	65.062832  
2555.000000	65.047550  
2554.000000	65.036606  
2553.000000	65.030002  
2552.000000	65.027046  
2551.000000	65.026712  
2550.000000	65.027832  
2549.000000	65.029454  
2548.000000	65.030980  
2547.000000	65.032243  
2546.000000	65.033459  
2545.000000	65.035152  
2544.000000	65.037894  
2543.000000	65.042042  
2542.000000	65.047597  
2541.000000	65.054225  
2540.000000	65.060997  
2539.000000	65.066695  
2538.000000	65.070295  
2537.000000	65.071249  
2536.000000	65.069437  
2535.000000	65.065526  
2534.000000	65.060734  
2533.000000	65.056586  
2532.000000	65.054583  
2531.000000	65.055966  
2530.000000	65.061378  
2529.000000	65.070772  
2528.000000	65.083432  
2527.000000	65.097832  
2526.000000	65.111970  
2525.000000	65.123796  
2524.000000	65.131545  
2523.000000	65.133953  
2522.000000	65.130639  
2521.000000	65.122199  
2520.000000	65.110063  
2519.000000	65.096235  
2518.000000	65.082883  
2517.000000	65.071916  
2516.000000	65.064382  
2515.000000	65.060567  
2514.000000	65.059733  
2513.000000	65.060281  
2512.000000	65.060377  
2511.000000	65.058374  
2510.000000	65.053391  
2509.000000	65.045332  
2508.000000	65.035152  
2507.000000	65.024352  
2506.000000	65.014839  
2505.000000	65.008354  
2504.000000	65.005850  
2503.000000	65.007519  
2502.000000	65.012645  
2501.000000	65.019893  
2500.000000	65.027666  
2499.000000	65.034604  
2498.000000	65.039777  
2497.000000	65.042877  
2496.000000	65.044236  
2495.000000	65.044641  
2494.000000	65.045070  
2493.000000	65.046286  
2492.000000	65.048694  
2491.000000	65.052199  
2490.000000	65.056371  
2489.000000	65.060448  
2488.000000	65.063333  
2487.000000	65.064072  
2486.000000	65.061998  
2485.000000	65.056896  
2484.000000	65.049123  
2483.000000	65.039658  
2482.000000	65.029907  
2481.000000	65.021514  
2480.000000	65.016126  
2479.000000	65.014815  
2478.000000	65.018153  
2477.000000	65.025782  
2476.000000	65.036320  
2475.000000	65.047717  
2474.000000	65.057635  
2473.000000	65.063762  
2472.000000	65.064358  
2471.000000	65.058493  
2470.000000	65.046453  
2469.000000	65.029573  
2468.000000	65.009999  
2467.000000	64.990401  
2466.000000	64.973354  
2465.000000	64.961028  
2464.000000	64.954829  
2463.000000	64.955306  
2462.000000	64.961838  
2461.000000	64.973068  
2460.000000	64.986991  
2459.000000	65.001153  
2458.000000	65.013480  
2457.000000	65.022134  
2456.000000	65.026211  
2455.000000	65.025424  
2454.000000	65.020608  
2453.000000	65.013098  
2452.000000	65.004611  
2451.000000	64.996981  
2450.000000	64.991736  
2449.000000	64.989686  
2448.000000	64.991021  
2447.000000	64.995384  
2446.000000	65.001654  
2445.000000	65.008401  
2444.000000	65.014100  
2443.000000	65.017533  
2442.000000	65.017914  
2441.000000	65.015006  
2440.000000	65.009069  
2439.000000	65.000724  
2438.000000	64.990830  
2437.000000	64.980363  
2436.000000	64.970254  
2435.000000	64.961171  
2434.000000	64.953780  
2433.000000	64.948463  
2432.000000	64.945554  
2431.000000	64.945244  
2430.000000	64.947366  
2429.000000	64.951586  
2428.000000	64.957237  
2427.000000	64.963507  
2426.000000	64.969444  
2425.000000	64.974451  
2424.000000	64.978218  
2423.000000	64.981412  
2422.000000	64.985275  
2421.000000	64.991641  
2420.000000	65.002465  
2419.000000	65.019059  
2418.000000	65.041589  
2417.000000	65.068721  
2416.000000	65.097665  
2415.000000	65.124678  
2414.000000	65.145754  
2413.000000	65.157580  
2412.000000	65.158057  
2411.000000	65.146899  
2410.000000	65.125489  
2409.000000	65.096783  
2408.000000	65.064668  
2407.000000	65.033221  
2406.000000	65.006113  
2405.000000	64.986300  
2404.000000	64.975547  
2403.000000	64.974594  
2402.000000	64.983105  
2401.000000	64.999794  
2400.000000	65.022563  
2399.000000	65.048742  
2398.000000	65.075159  
2397.000000	65.098547  
2396.000000	65.116286  
2395.000000	65.126442  
2394.000000	65.128397  
2393.000000	65.122675  
2392.000000	65.110778  
2391.000000	65.094661  
2390.000000	65.076351  
2389.000000	65.057706  
2388.000000	65.040230  
2387.000000	65.025115  
2386.000000	65.013456  
2385.000000	65.006017  
2384.000000	65.003418  
2383.000000	65.005898  
2382.000000	65.012955  
2381.000000	65.023493  
2380.000000	65.035772  
2379.000000	65.047407  
2378.000000	65.055990  
2377.000000	65.059638  
2376.000000	65.057349  
2375.000000	65.049266  
2374.000000	65.037035  
2373.000000	65.022873  
2372.000000	65.009593  
2371.000000	64.999485  
2370.000000	64.994168  
2369.000000	64.994144  
2368.000000	64.999079  
2367.000000	65.007925  
2366.000000	65.019202  
2365.000000	65.031361  
2364.000000	65.043163  
2363.000000	65.053558  
2362.000000	65.061855  
2361.000000	65.067863  
2360.000000	65.071654  
2359.000000	65.073752  
2358.000000	65.074872  
2357.000000	65.075850  
2356.000000	65.077376  
2355.000000	65.079927  
2354.000000	65.083599  
2353.000000	65.088081  
2352.000000	65.092515  
2351.000000	65.095925  
2350.000000	65.097022  
2349.000000	65.094852  
2348.000000	65.088748  
2347.000000	65.078425  
2346.000000	65.064263  
2345.000000	65.046858  
2344.000000	65.027141  
2343.000000	65.006136  
2342.000000	64.984846  
2341.000000	64.964103  
2340.000000	64.944648  
2339.000000	64.927196  
2338.000000	64.912414  
2337.000000	64.900827  
2336.000000	64.892816  
2335.000000	64.888334  
2334.000000	64.887142  
2333.000000	64.888501  
2332.000000	64.891147  
2331.000000	64.893651  
2330.000000	64.894533  
2329.000000	64.892530  
2328.000000	64.886784  
2327.000000	64.877223  
2326.000000	64.864563  
2325.000000	64.850306  
2324.000000	64.836215  
2323.000000	64.824438  
2322.000000	64.816761  
2321.000000	64.814615  
2320.000000	64.818739  
2319.000000	64.829015  
2318.000000	64.844775  
2317.000000	64.864802  
2316.000000	64.887571  
2315.000000	64.911341  
2314.000000	64.934396  
2313.000000	64.955067  
2312.000000	64.972043  
2311.000000	64.984273  
2310.000000	64.991044  
2309.000000	64.992189  
2308.000000	64.988183  
2307.000000	64.979958  
2306.000000	64.968848  
2305.000000	64.956498  
2304.000000	64.944481  
2303.000000	64.934158  
2302.000000	64.926409  
2301.000000	64.921665  
2300.000000	64.919757  
2299.000000	64.920258  
2298.000000	64.922428  
2297.000000	64.925694  
2296.000000	64.929342  
2295.000000	64.932894  
2294.000000	64.935946  
2293.000000	64.938116  
2292.000000	64.939141  
2291.000000	64.938497  
2290.000000	64.935946  
2289.000000	64.931392  
2288.000000	64.925122  
2287.000000	64.917874  
2286.000000	64.910745  
2285.000000	64.904928  
2284.000000	64.901447  
2283.000000	64.901065  
2282.000000	64.903664  
2281.000000	64.908361  
2280.000000	64.913797  
2279.000000	64.918446  
2278.000000	64.921045  
2277.000000	64.920830  
2276.000000	64.917945  
2275.000000	64.913463  
2274.000000	64.908981  
2273.000000	64.906406  
2272.000000	64.907193  
2271.000000	64.912295  
2270.000000	64.921808  
2269.000000	64.935135  
2268.000000	64.951205  
2267.000000	64.968681  
2266.000000	64.986467  
2265.000000	65.003633  
2264.000000	65.019631  
2263.000000	65.033936  
2262.000000	65.046072  
2261.000000	65.055346  
2260.000000	65.060925  
2259.000000	65.062022  
2258.000000	65.058231  
2257.000000	65.049576  
2256.000000	65.036797  
2255.000000	65.021228  
2254.000000	65.004730  
2253.000000	64.989137  
2252.000000	64.976000  
2251.000000	64.966082  
2250.000000	64.959430  
2249.000000	64.955258  
2248.000000	64.952397  
2247.000000	64.949464  
2246.000000	64.945483  
2245.000000	64.939880  
2244.000000	64.932751  
2243.000000	64.924645  
2242.000000	64.916229  
2241.000000	64.908218  
2240.000000	64.901089  
2239.000000	64.894914  
2238.000000	64.889550  
2237.000000	64.884519  
2236.000000	64.879536  
2235.000000	64.874386  
2234.000000	64.869260  
2233.000000	64.864730  
2232.000000	64.861631  
2231.000000	64.860606  
2230.000000	64.862060  
2229.000000	64.865899  
2228.000000	64.871406  
2227.000000	64.877533  
2226.000000	64.883136  
2225.000000	64.887237  
2224.000000	64.889335  
2223.000000	64.889502  
2222.000000	64.888024  
2221.000000	64.885425  
2220.000000	64.882302  
2219.000000	64.878892  
2218.000000	64.875411  
2217.000000	64.871859  
2216.000000	64.868402  
2215.000000	64.865422  
2214.000000	64.863705  
2213.000000	64.864158  
2212.000000	64.867663  
2211.000000	64.874720  
2210.000000	64.885044  
2209.000000	64.897704  
2208.000000	64.911055  
2207.000000	64.923262  
2206.000000	64.932584  
2205.000000	64.937901  
2204.000000	64.939165  
2203.000000	64.937138  
2202.000000	64.933133  
2201.000000	64.928770  
2200.000000	64.925384  
2199.000000	64.923787  
2198.000000	64.923930  
2197.000000	64.925312  
2196.000000	64.927101  
2195.000000	64.928650  
2194.000000	64.929580  
2193.000000	64.929986  
2192.000000	64.930105  
2191.000000	64.930438  
2190.000000	64.931249  
2189.000000	64.932107  
2188.000000	64.932084  
2187.000000	64.930057  
2186.000000	64.924883  
2185.000000	64.915871  
2184.000000	64.903187  
2183.000000	64.888048  
2182.000000	64.872550  
2181.000000	64.859366  
2180.000000	64.851307  
2179.000000	64.850759  
2178.000000	64.859223  
2177.000000	64.876890  
2176.000000	64.902663  
2175.000000	64.934301  
2174.000000	64.968776  
2173.000000	65.002965  
2172.000000	65.033960  
2171.000000	65.059542  
2170.000000	65.078544  
2169.000000	65.090274  
2168.000000	65.094470  
2167.000000	65.090560  
2166.000000	65.078043  
2165.000000	65.056300  
2164.000000	65.024852  
2163.000000	64.983963  
2162.000000	64.934992  
2161.000000	64.880585  
2160.000000	64.824366  
2159.000000	64.770627  
2158.000000	64.723491  
2157.000000	64.686298  
2156.000000	64.660882  
2155.000000	64.647698  
2154.000000	64.645457  
2153.000000	64.652085  
2152.000000	64.664959  
2151.000000	64.681839  
2150.000000	64.700865  
2149.000000	64.720964  
2148.000000	64.741516  
2147.000000	64.762210  
2146.000000	64.782667  
2145.000000	64.802742  
2144.000000	64.822363  
2143.000000	64.841723  
2142.000000	64.861059  
2141.000000	64.880800  
2140.000000	64.901137  
2139.000000	64.921975  
2138.000000	64.942526  
2137.000000	64.961457  
2136.000000	64.977025  
2135.000000	64.987540  
2134.000000	64.991474  
2133.000000	64.987969  
2132.000000	64.977169  
2131.000000	64.960336  
2130.000000	64.939713  
2129.000000	64.918184  
2128.000000	64.898896  
2127.000000	64.884781  
2126.000000	64.877867  
2125.000000	64.878892  
2124.000000	64.887046  
2123.000000	64.900493  
2122.000000	64.916515  
2121.000000	64.932060  
2120.000000	64.944410  
2119.000000	64.951682  
2118.000000	64.953255  
2117.000000	64.949798  
2116.000000	64.942860  
2115.000000	64.934420  
2114.000000	64.926099  
2113.000000	64.918828  
2112.000000	64.912557  
2111.000000	64.906334  
2110.000000	64.898824  
2109.000000	64.888978  
2108.000000	64.876317  
2107.000000	64.861369  
2106.000000	64.845776  
2105.000000	64.831829  
2104.000000	64.821457  
2103.000000	64.816403  
2102.000000	64.817357  
2101.000000	64.824056  
2100.000000	64.835071  
2099.000000	64.848637  
2098.000000	64.862823  
2097.000000	64.876151  
2096.000000	64.887762  
2095.000000	64.897465  
2094.000000	64.905548  
2093.000000	64.912438  
2092.000000	64.918446  
2091.000000	64.923763  
2090.000000	64.928317  
2089.000000	64.932155  
2088.000000	64.935469  
2087.000000	64.938902  
2086.000000	64.943337  
2085.000000	64.949941  
2084.000000	64.959502  
2083.000000	64.972162  
2082.000000	64.987111  
2081.000000	65.002584  
2080.000000	65.015864  
2079.000000	65.024018  
2078.000000	65.024328  
2077.000000	65.015196  
2076.000000	64.996409  
2075.000000	64.969563  
2074.000000	64.937615  
2073.000000	64.904522  
2072.000000	64.874172  
2071.000000	64.849829  
2070.000000	64.833450  
2069.000000	64.825320  
2068.000000	64.824438  
2067.000000	64.828968  
2066.000000	64.836740  
2065.000000	64.845895  
2064.000000	64.855170  
2063.000000	64.864134  
2062.000000	64.872765  
2061.000000	64.881324  
2060.000000	64.889883  
2059.000000	64.898061  
2058.000000	64.905285  
2057.000000	64.910578  
2056.000000	64.913320  
2055.000000	64.913129  
2054.000000	64.910244  
2053.000000	64.905238  
2052.000000	64.899253  
2051.000000	64.893007  
2050.000000	64.886975  
2049.000000	64.881014  
2048.000000	64.874601  
2047.000000	64.866995  
2046.000000	64.857530  
2045.000000	64.846014  
2044.000000	64.832901  
2043.000000	64.819359  
2042.000000	64.807081  
2041.000000	64.797878  
2040.000000	64.793300  
2039.000000	64.794278  
2038.000000	64.801049  
2037.000000	64.812994  
2036.000000	64.828872  
2035.000000	64.846944  
2034.000000	64.865589  
2033.000000	64.883422  
2032.000000	64.899587  
2031.000000	64.913606  
2030.000000	64.925384  
2029.000000	64.935016  
2028.000000	64.942789  
2027.000000	64.948749  
2026.000000	64.952564  
2025.000000	64.953923  
2024.000000	64.952349  
2023.000000	64.947485  
2022.000000	64.939498  
2021.000000	64.929032  
2020.000000	64.917278  
2019.000000	64.906024  
2018.000000	64.897155  
2017.000000	64.892339  
2016.000000	64.892578  
2015.000000	64.898085  
2014.000000	64.908123  
2013.000000	64.921092  
2012.000000	64.934921  
2011.000000	64.947390  
2010.000000	64.956617  
2009.000000	64.961194  
2008.000000	64.960503  
2007.000000	64.954590  
2006.000000	64.944052  
2005.000000	64.929986  
2004.000000	64.913439  
2003.000000	64.895415  
2002.000000	64.876961  
2001.000000	64.858937  
2000.000000	64.842247  
1999.000000	64.827609  
1998.000000	64.815640  
1997.000000	64.807057  
1996.000000	64.802217  
1995.000000	64.801335  
1994.000000	64.804410  
1993.000000	64.811182  
1992.000000	64.821243  
1991.000000	64.833807  
1990.000000	64.847898  
1989.000000	64.862418  
1988.000000	64.876174  
1987.000000	64.888167  
1986.000000	64.897441  
1985.000000	64.903497  
1984.000000	64.906311  
1983.000000	64.906167  
1982.000000	64.903712  
1981.000000	64.899706  
1980.000000	64.894890  
1979.000000	64.889931  
1978.000000	64.885544  
1977.000000	64.882111  
1976.000000	64.879965  
1975.000000	64.879274  
1974.000000	64.880013  
1973.000000	64.882278  
1972.000000	64.885973  
1971.000000	64.890909  
1970.000000	64.896702  
1969.000000	64.902925  
1968.000000	64.909029  
1967.000000	64.914536  
1966.000000	64.919090  
1965.000000	64.922595  
1964.000000	64.925122  
1963.000000	64.926886  
1962.000000	64.928245  
1961.000000	64.929604  
1960.000000	64.931297  
1959.000000	64.933562  
1958.000000	64.936304  
1957.000000	64.939188  
1956.000000	64.941525  
1955.000000	64.942359  
1954.000000	64.940547  
1953.000000	64.935040  
1952.000000	64.925503  
1951.000000	64.912223  
1950.000000	64.896392  
1949.000000	64.879846  
1948.000000	64.864826  
1947.000000	64.853262  
1946.000000	64.846467  
1945.000000	64.844799  
1944.000000	64.847469  
1943.000000	64.852714  
1942.000000	64.858198  
1941.000000	64.861655  
1940.000000	64.861464  
1939.000000	64.857006  
1938.000000	64.848613  
1937.000000	64.837741  
1936.000000	64.826226  
1935.000000	64.815974  
1934.000000	64.808464  
1933.000000	64.804506  
1932.000000	64.804053  
1931.000000	64.806365  
1930.000000	64.810442  
1929.000000	64.814949  
1928.000000	64.818716  
1927.000000	64.820742  
1926.000000	64.820623  
1925.000000	64.818358  
1924.000000	64.814591  
1923.000000	64.810371  
1922.000000	64.806938  
1921.000000	64.805579  
1920.000000	64.807248  
1919.000000	64.812326  
1918.000000	64.820384  
1917.000000	64.830327  
1916.000000	64.840364  
1915.000000	64.848494  
1914.000000	64.852857  
1913.000000	64.852428  
1912.000000	64.847230  
1911.000000	64.838480  
1910.000000	64.828395  
1909.000000	64.819669  
1908.000000	64.815068  
1907.000000	64.816522  
1906.000000	64.824891  
1905.000000	64.839553  
1904.000000	64.858794  
1903.000000	64.879941  
1902.000000	64.899992  
1901.000000	64.916300  
1900.000000	64.926981  
1899.000000	64.931416  
1898.000000	64.930152  
1897.000000	64.924693  
1896.000000	64.917159  
1895.000000	64.909625  
1894.000000	64.903759  
1893.000000	64.900088  
1892.000000	64.898467  
1891.000000	64.897561  
1890.000000	64.895820  
1889.000000	64.891552  
1888.000000	64.883494  
1887.000000	64.871311  
1886.000000	64.855575  
1885.000000	64.837956  
1884.000000	64.820432  
1883.000000	64.805364  
1882.000000	64.794826  
1881.000000	64.790248  
1880.000000	64.792156  
1879.000000	64.800238  
1878.000000	64.813375  
1877.000000	64.830040  
1876.000000	64.848470  
1875.000000	64.867067  
1874.000000	64.884519  
1873.000000	64.899897  
1872.000000	64.912557  
1871.000000	64.922189  
1870.000000	64.928627  
1869.000000	64.931797  
1868.000000	64.931774  
1867.000000	64.928960  
1866.000000	64.923858  
1865.000000	64.917349  
1864.000000	64.910340  
1863.000000	64.903688  
1862.000000	64.898085  
1861.000000	64.893674  
1860.000000	64.890193  
1859.000000	64.886999  
1858.000000	64.883351  
1857.000000	64.878582  
1856.000000	64.872384  
1855.000000	64.864921  
1854.000000	64.857029  
1853.000000	64.849710  
1852.000000	64.844179  
1851.000000	64.841127  
1850.000000	64.840769  
1849.000000	64.842700  
1848.000000	64.846086  
1847.000000	64.849710  
1846.000000	64.852595  
1845.000000	64.853954  
1844.000000	64.853525  
1843.000000	64.851355  
1842.000000	64.847660  
1841.000000	64.842820  
1840.000000	64.837217  
1839.000000	64.830994  
1838.000000	64.824318  
1837.000000	64.816999  
1836.000000	64.808869  
1835.000000	64.799666  
1834.000000	64.789199  
1833.000000	64.777684  
1832.000000	64.765524  
1831.000000	64.753699  
1830.000000	64.743304  
1829.000000	64.735770  
1828.000000	64.732170  
1827.000000	64.733505  
1826.000000	64.740037  
1825.000000	64.751839  
1824.000000	64.768409  
1823.000000	64.789032  
1822.000000	64.812803  
1821.000000	64.838600  
1820.000000	64.865040  
1819.000000	64.890694  
1818.000000	64.914035  
1817.000000	64.933586  
1816.000000	64.947962  
1815.000000	64.956307  
1814.000000	64.958262  
1813.000000	64.954257  
1812.000000	64.945125  
1811.000000	64.932513  
1810.000000	64.917993  
1809.000000	64.903044  
1808.000000	64.888620  
1807.000000	64.875316  
1806.000000	64.862966  
1805.000000	64.851117  
1804.000000	64.838981  
1803.000000	64.826154  
1802.000000	64.812397  
1801.000000	64.797830  
1800.000000	64.782953  
1799.000000	64.768409  
1798.000000	64.755153  
1797.000000	64.744043  
1796.000000	64.735746  
1795.000000	64.730620  
1794.000000	64.728665  
1793.000000	64.729666  
1792.000000	64.732980  
1791.000000	64.737749  
1790.000000	64.742970  
1789.000000	64.747738  
1788.000000	64.751267  
1787.000000	64.753103  
1786.000000	64.753198  
1785.000000	64.752006  
1784.000000	64.750194  
1783.000000	64.748668  
1782.000000	64.748430  
1781.000000	64.750218  
1780.000000	64.754533  
1779.000000	64.761471  
1778.000000	64.770936  
1777.000000	64.782452  
1776.000000	64.795446  
1775.000000	64.808821  
1774.000000	64.821267  
1773.000000	64.831256  
1772.000000	64.837360  
1771.000000	64.838337  
1770.000000	64.833641  
1769.000000	64.823436  
1768.000000	64.808869  
1767.000000	64.791917  
1766.000000	64.774823  
1765.000000	64.759778  
1764.000000	64.748597  
1763.000000	64.742112  
1762.000000	64.740180  
1761.000000	64.741706  
1760.000000	64.744830  
1759.000000	64.747500  
1758.000000	64.747810  
1757.000000	64.744329  
1756.000000	64.736318  
1755.000000	64.723610  
1754.000000	64.706707  
1753.000000	64.686393  
1752.000000	64.663767  
1751.000000	64.640045  
1750.000000	64.616465  
1749.000000	64.594388  
1748.000000	64.575219  
1747.000000	64.560270  
1746.000000	64.550638  
1745.000000	64.546918  
1744.000000	64.549303  
1743.000000	64.557290  
1742.000000	64.569759  
1741.000000	64.585185  
1740.000000	64.601612  
1739.000000	64.616990  
1738.000000	64.629626  
1737.000000	64.638113  
1736.000000	64.641547  
1735.000000	64.639711  
1734.000000	64.632892  
1733.000000	64.622068  
1732.000000	64.608550  
1731.000000	64.593744  
1730.000000	64.579439  
1729.000000	64.567112  
1728.000000	64.558053  
1727.000000	64.553213  
1726.000000	64.552903  
1725.000000	64.556765  
1724.000000	64.563870  
1723.000000	64.573001  
1722.000000	64.582824  
1721.000000	64.592242  
1720.000000	64.600658  
1719.000000	64.608216  
1718.000000	64.615726  
1717.000000	64.624309  
1716.000000	64.635181  
1715.000000	64.649128  
1714.000000	64.666247  
1713.000000	64.685678  
1712.000000	64.705824  
1711.000000	64.724707  
1710.000000	64.740347  
1709.000000	64.751482  
1708.000000	64.757442  
1707.000000	64.758563  
1706.000000	64.755797  
1705.000000	64.750456  
1704.000000	64.743471  
1703.000000	64.735627  
1702.000000	64.726710  
1701.000000	64.716076  
1700.000000	64.702773  
1699.000000	64.686250  
1698.000000	64.666509  
1697.000000	64.644312  
1696.000000	64.621210  
1695.000000	64.599108  
1694.000000	64.579749  
1693.000000	64.564418  
1692.000000	64.553499  
1691.000000	64.546418  
1690.000000	64.542198  
1689.000000	64.539837  
1688.000000	64.538812  
1687.000000	64.539265  
1686.000000	64.541935  
1685.000000	64.547944  
1684.000000	64.558172  
1683.000000	64.572811  
1682.000000	64.591264  
1681.000000	64.612007  
1680.000000	64.632797  
1679.000000	64.651441  
1678.000000	64.666223  
1677.000000	64.676499  
1676.000000	64.682555  
1675.000000	64.685940  
1674.000000	64.688611  
1673.000000	64.692592  
1672.000000	64.699339  
1671.000000	64.709353  
1670.000000	64.722132  
1669.000000	64.736008  
1668.000000	64.749026  
1667.000000	64.758944  
1666.000000	64.764046  
1665.000000	64.763307  
1664.000000	64.756917  
1663.000000	64.746069  
1662.000000	64.732670  
1661.000000	64.719295  
1660.000000	64.708518  
1659.000000	64.702439  
1658.000000	64.702153  
1657.000000	64.707660  
1656.000000	64.718008  
1655.000000	64.731431  
1654.000000	64.745593  
1653.000000	64.758396  
1652.000000	64.767980  
1651.000000	64.773321  
1650.000000	64.773869  
1649.000000	64.769673  
1648.000000	64.760899  
1647.000000	64.747643  
1646.000000	64.729857  
1645.000000	64.707350  
1644.000000	64.679980  
1643.000000	64.648437  
1642.000000	64.614081  
1641.000000	64.579343  
1640.000000	64.547491  
1639.000000	64.522004  
1638.000000	64.506101  
1637.000000	64.501905  
1636.000000	64.510107  
1635.000000	64.529705  
1634.000000	64.558172  
1633.000000	64.591813  
1632.000000	64.626407  
1631.000000	64.657902  
1630.000000	64.683055  
1629.000000	64.700078  
1628.000000	64.708471  
1627.000000	64.709234  
1626.000000	64.704346  
1625.000000	64.696216  
1624.000000	64.687323  
1623.000000	64.679241  
1622.000000	64.673042  
1621.000000	64.668393  
1620.000000	64.664292  
1619.000000	64.659047  
1618.000000	64.651131  
1617.000000	64.639520  
1616.000000	64.624238  
1615.000000	64.606618  
1614.000000	64.588999  
1613.000000	64.574289  
1612.000000	64.565038  
1611.000000	64.563083  
1610.000000	64.568996  
1609.000000	64.582061  
1608.000000	64.600181  
1607.000000	64.620637  
1606.000000	64.640641  
1605.000000	64.657688  
1604.000000	64.669966  
1603.000000	64.676356  
1602.000000	64.676642  
1601.000000	64.671444  
1600.000000	64.662027  
1599.000000	64.649987  
1598.000000	64.636945  
1597.000000	64.624595  
1596.000000	64.614152  
1595.000000	64.606404  
1594.000000	64.601731  
1593.000000	64.599776  
1592.000000	64.600086  
1591.000000	64.601945  
1590.000000	64.604878  
1589.000000	64.608693  
1588.000000	64.613842  
1587.000000	64.621043  
1586.000000	64.631438  
1585.000000	64.645910  
1584.000000	64.665031  
1583.000000	64.688491  
1582.000000	64.714956  
1581.000000	64.742016  
1580.000000	64.766621  
1579.000000	64.785480  
1578.000000	64.795899  
1577.000000	64.796090  
1576.000000	64.785766  
1575.000000	64.766120  
1574.000000	64.739632  
1573.000000	64.709424  
1572.000000	64.678835  
1571.000000	64.650869  
1570.000000	64.627695  
1569.000000	64.610862  
1568.000000	64.600992  
1567.000000	64.598035  
1566.000000	64.601254  
1565.000000	64.609670  
1564.000000	64.621925  
1563.000000	64.636707  
1562.000000	64.652705  
1561.000000	64.668893  
1560.000000	64.684271  
1559.000000	64.698028  
1558.000000	64.709115  
1557.000000	64.716672  
1556.000000	64.719820  
1555.000000	64.717841  
1554.000000	64.710450  
1553.000000	64.698004  
1552.000000	64.681482  
1551.000000	64.662647  
1550.000000	64.643692  
1549.000000	64.627027  
1548.000000	64.614701  
1547.000000	64.608335  
1546.000000	64.608454  
1545.000000	64.614605  
1544.000000	64.625263  
1543.000000	64.638090  
1542.000000	64.650344  
1541.000000	64.659357  
1540.000000	64.663076  
1539.000000	64.660310  
1538.000000	64.651036  
1537.000000	64.636325  
1536.000000	64.618539  
1535.000000	64.600372  
1534.000000	64.584875  
1533.000000	64.574766  
1532.000000	64.571905  
1531.000000	64.577245  
1530.000000	64.590477  
1529.000000	64.610123  
1528.000000	64.633536  
1527.000000	64.657425  
1526.000000	64.678215  
1525.000000	64.692592  
1524.000000	64.698314  
1523.000000	64.694571  
1522.000000	64.681911  
1521.000000	64.662456  
1520.000000	64.639163  
1519.000000	64.615440  
1518.000000	64.594292  
1517.000000	64.578080  
1516.000000	64.568138  
1515.000000	64.564657  
1514.000000	64.567041  
1513.000000	64.574122  
1512.000000	64.584684  
1511.000000	64.597749  
1510.000000	64.612460  
1509.000000	64.628243  
1508.000000	64.644527  
1507.000000	64.660930  
1506.000000	64.676904  
1505.000000	64.692020  
1504.000000	64.706015  
1503.000000	64.718914  
1502.000000	64.730906  
1501.000000	64.741826  
1500.000000	64.751172  
1499.000000	64.757752  
1498.000000	64.760136  
1497.000000	64.757156  
1496.000000	64.748454  
1495.000000	64.734864  
1494.000000	64.718222  
1493.000000	64.701294  
1492.000000	64.686846  
1491.000000	64.676809  
1490.000000	64.672040  
1489.000000	64.671802  
1488.000000	64.674305  
1487.000000	64.677190  
1486.000000	64.678454  
1485.000000	64.677000  
1484.000000	64.673018  
1483.000000	64.667963  
1482.000000	64.663958  
1481.000000	64.663124  
1480.000000	64.666771  
1479.000000	64.674925  
1478.000000	64.686369  
1477.000000	64.698767  
1476.000000	64.709639  
1475.000000	64.716792  
1474.000000	64.718914  
1473.000000	64.715695  
1472.000000	64.707803  
1471.000000	64.696478  
1470.000000	64.683151  
1469.000000	64.668917  
1468.000000	64.654588  
1467.000000	64.640283  
1466.000000	64.625787  
1465.000000	64.610671  
1464.000000	64.594507  
1463.000000	64.577221  
1462.000000	64.558911  
1461.000000	64.540052  
1460.000000	64.521193  
1459.000000	64.503288  
1458.000000	64.487266  
1457.000000	64.474415  
1456.000000	64.465641  
1455.000000	64.461731  
1454.000000	64.463186  
1453.000000	64.469909  
1452.000000	64.481043  
1451.000000	64.495444  
1450.000000	64.511775  
1449.000000	64.528846  
1448.000000	64.545798  
1447.000000	64.562106  
1446.000000	64.577841  
1445.000000	64.593243  
1444.000000	64.608645  
1443.000000	64.624357  
1442.000000	64.640569  
1441.000000	64.657139  
1440.000000	64.673638  
1439.000000	64.689350  
1438.000000	64.703345  
1437.000000	64.714789  
1436.000000	64.722895  
1435.000000	64.727139  
1434.000000	64.726972  
1433.000000	64.722514  
1432.000000	64.713931  
1431.000000	64.701604  
1430.000000	64.685964  
1429.000000	64.667582  
1428.000000	64.646983  
1427.000000	64.624619  
1426.000000	64.600872  
1425.000000	64.576363  
1424.000000	64.551973  
1423.000000	64.528751  
1422.000000	64.508104  
1421.000000	64.491391  
1420.000000	64.479660  
1419.000000	64.473390  
1418.000000	64.472222  
1417.000000	64.474844  
1416.000000	64.479422  
1415.000000	64.484047  
1414.000000	64.486885  
1413.000000	64.486813  
1412.000000	64.483523  
1411.000000	64.477515  
1410.000000	64.469981  
1409.000000	64.462447  
1408.000000	64.456510  
1407.000000	64.453554  
1406.000000	64.454460  
1405.000000	64.459514  
1404.000000	64.468741  
1403.000000	64.481520  
1402.000000	64.496970  
1401.000000	64.513921  
1400.000000	64.530944  
1399.000000	64.546489  
1398.000000	64.559125  
1397.000000	64.567804  
1396.000000	64.571881  
1395.000000	64.571356  
1394.000000	64.567017  
1393.000000	64.560103  
1392.000000	64.551925  
1391.000000	64.543795  
1390.000000	64.536643  
1389.000000	64.530873  
1388.000000	64.526462  
1387.000000	64.523148  
1386.000000	64.520668  
1385.000000	64.518976  
1384.000000	64.518284  
1383.000000	64.519119  
1382.000000	64.521980  
1381.000000	64.527153  
1380.000000	64.534521  
1379.000000	64.543557  
1378.000000	64.553236  
1377.000000	64.562344  
1376.000000	64.569687  
1375.000000	64.574766  
1374.000000	64.577364  
1373.000000	64.577913  
1372.000000	64.577031  
1371.000000	64.575505  
1370.000000	64.573645  
1369.000000	64.571475  
1368.000000	64.568376  
1367.000000	64.563441  
1366.000000	64.555740  
1365.000000	64.544796  
1364.000000	64.530611  
1363.000000	64.514064  
1362.000000	64.496707  
1361.000000	64.480638  
1360.000000	64.467883  
1359.000000	64.459896  
1358.000000	64.457535  
1357.000000	64.460659  
1356.000000	64.468193  
1355.000000	64.478564  
1354.000000	64.489960  
1353.000000	64.501094  
1352.000000	64.511084  
1351.000000	64.519810  
1350.000000	64.527773  
1349.000000	64.535951  
1348.000000	64.545154  
1347.000000	64.556050  
1346.000000	64.568734  
1345.000000	64.582848  
1344.000000	64.597535  
1343.000000	64.611577  
1342.000000	64.623928  
1341.000000	64.633607  
1340.000000	64.640045  
1339.000000	64.642858  
1338.000000	64.641952  
1337.000000	64.637351  
1336.000000	64.629101  
1335.000000	64.617252  
1334.000000	64.601945  
1333.000000	64.583420  
1332.000000	64.562368  
1331.000000	64.539647  
1330.000000	64.516472  
1329.000000	64.494204  
1328.000000	64.474272  
1327.000000	64.457774  
1326.000000	64.445185  
1325.000000	64.436578  
1324.000000	64.431142  
1323.000000	64.427733  
1322.000000	64.424777  
1321.000000	64.420676  
1320.000000	64.414143  
1319.000000	64.404487  
1318.000000	64.391875  
1317.000000	64.376926  
1316.000000	64.361071  
1315.000000	64.345908  
1314.000000	64.333271  
1313.000000	64.324545  
1312.000000	64.320778  
1311.000000	64.322280  
1310.000000	64.328670  
1309.000000	64.339017  
1308.000000	64.351916  
1307.000000	64.365839  
1306.000000	64.379239  
1305.000000	64.390945  
1304.000000	64.399957  
1303.000000	64.405941  
1302.000000	64.409041  
1301.000000	64.410066  
1300.000000	64.410161  
1299.000000	64.410734  
1298.000000	64.413261  
1297.000000	64.418959  
1296.000000	64.428448  
1295.000000	64.441490  
1294.000000	64.457201  
1293.000000	64.473772  
1292.000000	64.489221  
1291.000000	64.501333  
1290.000000	64.508414  
1289.000000	64.509391  
1288.000000	64.504122  
1287.000000	64.493298  
1286.000000	64.478397  
1285.000000	64.461064  
1284.000000	64.442849  
1283.000000	64.425110  
1282.000000	64.408731  
1281.000000	64.394187  
1280.000000	64.381623  
1279.000000	64.370918  
1278.000000	64.362049  
1277.000000	64.355134  
1276.000000	64.350295  
1275.000000	64.347672  
1274.000000	64.346981  
1273.000000	64.347791  
1272.000000	64.349126  
1271.000000	64.349699  
1270.000000	64.348101  
1269.000000	64.343070  
1268.000000	64.333891  
1267.000000	64.320421  
1266.000000	64.303398  
1265.000000	64.284157  
1264.000000	64.264678  
1263.000000	64.247226  
1262.000000	64.233970  
1261.000000	64.226746  
1260.000000	64.226746  
1259.000000	64.234304  
1258.000000	64.248824  
1257.000000	64.268851  
1256.000000	64.292144  
1255.000000	64.316058  
1254.000000	64.337706  
1253.000000	64.354324  
1252.000000	64.363837  
1251.000000	64.364957  
1250.000000	64.357542  
1249.000000	64.342546  
1248.000000	64.321899  
1247.000000	64.297986  
1246.000000	64.273214  
1245.000000	64.249634  
1244.000000	64.228677  
1243.000000	64.211320  
1242.000000	64.198207  
1241.000000	64.189720  
1240.000000	64.186286  
1239.000000	64.188385  
1238.000000	64.195895  
1237.000000	64.208412  
1236.000000	64.224672  
1235.000000	64.243268  
1234.000000	64.262318  
1233.000000	64.280414  
1232.000000	64.296603  
1231.000000	64.310717  
1230.000000	64.323210  
1229.000000	64.334893  
1228.000000	64.346528  
1227.000000	64.358282  
1226.000000	64.369440  
1225.000000	64.378452  
1224.000000	64.383292  
1223.000000	64.382410  
1222.000000	64.374995  
1221.000000	64.361500  
1220.000000	64.343643  
1219.000000	64.323925  
1218.000000	64.305138  
1217.000000	64.289712  
1216.000000	64.279150  
1215.000000	64.274024  
1214.000000	64.274048  
1213.000000	64.278459  
1212.000000	64.286088  
1211.000000	64.295911  
1210.000000	64.307045  
1209.000000	64.318609  
1208.000000	64.330148  
1207.000000	64.341378  
1206.000000	64.352226  
1205.000000	64.362573  
1204.000000	64.372467  
1203.000000	64.381933  
1202.000000	64.390873  
1201.000000	64.398884  
1200.000000	64.405322  
1199.000000	64.409255  
1198.000000	64.409613  
1197.000000	64.405417  
1196.000000	64.395976  
1195.000000	64.381074  
1194.000000	64.361405  
1193.000000	64.338183  
1192.000000	64.313077  
1191.000000	64.287710  
1190.000000	64.263510  
1189.000000	64.241290  
1188.000000	64.221286  
1187.000000	64.203095  
1186.000000	64.186215  
1185.000000	64.170265  
1184.000000	64.155292  
1183.000000	64.141654  
1182.000000	64.130115  
1181.000000	64.121747  
1180.000000	64.117455  
1179.000000	64.117765  
1178.000000	64.122366  
1177.000000	64.130425  
1176.000000	64.140796  
1175.000000	64.152312  
1174.000000	64.163994  
1173.000000	64.175605  
1172.000000	64.187455  
1171.000000	64.200401  
1170.000000	64.215469  
1169.000000	64.233064  
1168.000000	64.252924  
1167.000000	64.273834  
1166.000000	64.293932  
1165.000000	64.311170  
1164.000000	64.323711  
1163.000000	64.330863  
1162.000000	64.332842  
1161.000000	64.330649  
1160.000000	64.325594  
1159.000000	64.319348  
1158.000000	64.312934  
1157.000000	64.306664  
1156.000000	64.300084  
1155.000000	64.292192  
1154.000000	64.281606  
1153.000000	64.267063  
1152.000000	64.247894  
1151.000000	64.224219  
1150.000000	64.197349  
1149.000000	64.169621  
1148.000000	64.144325  
1147.000000	64.124870  
1146.000000	64.114785  
1145.000000	64.116764  
1144.000000	64.132022  
1143.000000	64.159846  
1142.000000	64.197540  
1141.000000	64.240980  
1140.000000	64.284610  
1139.000000	64.323282  
1138.000000	64.353108  
1137.000000	64.372491  
1136.000000	64.382290  
1135.000000	64.385294  
1134.000000	64.385342  
1133.000000	64.386010  
1132.000000	64.389657  
1131.000000	64.396619  
1130.000000	64.405393  
1129.000000	64.412927  
1128.000000	64.416217  
1127.000000	64.412760  
1126.000000	64.401555  
1125.000000	64.383411  
1124.000000	64.360928  
1123.000000	64.337849  
1122.000000	64.317655  
1121.000000	64.303183  
1120.000000	64.295506  
1119.000000	64.293813  
1118.000000	64.295482  
1117.000000	64.296793  
1116.000000	64.293766  
1115.000000	64.283180  
1114.000000	64.263486  
1113.000000	64.234924  
1112.000000	64.200162  
1111.000000	64.163446  
1110.000000	64.130330  
1109.000000	64.105701  
1108.000000	64.093565  
1107.000000	64.096021  
1106.000000	64.112925  
1105.000000	64.141631  
1104.000000	64.177918  
1103.000000	64.216947  
1102.000000	64.254498  
1101.000000	64.287567  
1100.000000	64.315342  
1099.000000	64.338850  
1098.000000	64.360618  
1097.000000	64.383387  
1096.000000	64.409065  
1095.000000	64.437651  
1094.000000	64.467000  
1093.000000	64.493489  
1092.000000	64.512944  
1091.000000	64.522075  
1090.000000	64.519715  
1089.000000	64.507246  
1088.000000	64.488196  
1087.000000	64.467024  
1086.000000	64.448237  
1085.000000	64.434480  
1084.000000	64.426159  
1083.000000	64.421129  
1082.000000	64.415621  
1081.000000	64.405393  
1080.000000	64.387083  
1079.000000	64.359331  
1078.000000	64.323425  
1077.000000	64.283180  
1076.000000	64.243555  
1075.000000	64.209938  
1074.000000	64.186191  
1073.000000	64.174532  
1072.000000	64.174890  
1071.000000	64.185214  
1070.000000	64.202046  
1069.000000	64.221239  
1068.000000	64.239025  
1067.000000	64.252138  
1066.000000	64.258527  
1065.000000	64.257383  
1064.000000	64.249372  
1063.000000	64.235949  
1062.000000	64.219379  
1061.000000	64.201927  
1060.000000	64.185690  
1059.000000	64.172387  
1058.000000	64.163064  
1057.000000	64.158368  
1056.000000	64.158296  
1055.000000	64.162707  
1054.000000	64.170837  
1053.000000	64.181661  
1052.000000	64.193773  
1051.000000	64.205336  
1050.000000	64.214420  
1049.000000	64.219188  
1048.000000	64.218568  
1047.000000	64.212298  
1046.000000	64.201378  
1045.000000	64.188051  
1044.000000	64.175486  
1043.000000	64.167284  
1042.000000	64.166235  
1041.000000	64.173722  
1040.000000	64.189291  
1039.000000	64.210772  
1038.000000	64.234972  
1037.000000	64.258408  
1036.000000	64.278388  
1035.000000	64.293432  
1034.000000	64.303493  
1033.000000	64.309668  
1032.000000	64.313554  
1031.000000	64.316391  
1030.000000	64.318585  
1029.000000	64.319276  
1028.000000	64.316892  
1027.000000	64.309430  
1026.000000	64.295578  
1025.000000	64.274835  
1024.000000	64.248418  
1023.000000	64.218831  
1022.000000	64.189338  
1021.000000	64.163398  
1020.000000	64.143753  
1019.000000	64.132165  
1018.000000	64.129161  
1017.000000	64.134168  
1016.000000	64.145827  
1015.000000	64.162325  
1014.000000	64.181709  
1013.000000	64.202213  
1012.000000	64.222455  
1011.000000	64.241528  
1010.000000	64.259219  
1009.000000	64.275693  
1008.000000	64.291262  
1007.000000	64.306378  
1006.000000	64.320898  
1005.000000	64.334297  
1004.000000	64.345359  
1003.000000	64.352512  
1002.000000	64.354205  
1001.000000	64.349365  
1000.000000	64.337587  
999.000000	 64.319705  
998.000000	 64.297556  
997.000000	 64.273881  
996.000000	 64.251923  
995.000000	 64.234638  
994.000000	 64.224076  
993.000000	 64.221072  
992.000000	 64.225244  
991.000000	 64.234805  
990.000000	 64.247369  
989.000000	 64.260244  
988.000000	 64.270973  
987.000000	 64.277815  
986.000000	 64.279818  
985.000000	 64.276933  
984.000000	 64.269781  
983.000000	 64.259696  
982.000000	 64.248085  
981.000000	 64.236354  
980.000000	 64.225649  
979.000000	 64.216589  
978.000000	 64.209485  
977.000000	 64.204359  
976.000000	 64.201116  
975.000000	 64.199972  
974.000000	 64.200854  
973.000000	 64.204001  
972.000000	 64.209556  
971.000000	 64.217615  
970.000000	 64.227867  
969.000000	 64.239764  
968.000000	 64.252424  
967.000000	 64.264750  
966.000000	 64.275908  
965.000000	 64.285016  
964.000000	 64.291524  
963.000000	 64.295101  
962.000000	 64.295816  
961.000000	 64.293980  
960.000000	 64.289879  
959.000000	 64.284133  
958.000000	 64.277505  
957.000000	 64.271187  
956.000000	 64.266729  
955.000000	 64.266061  
954.000000	 64.270806  
953.000000	 64.282131  
952.000000	 64.299821  
951.000000	 64.322686  
950.000000	 64.347815  
949.000000	 64.371228  
948.000000	 64.388370  
947.000000	 64.395213  
946.000000	 64.389157  
945.000000	 64.369583  
944.000000	 64.338231  
943.000000	 64.298820  
942.000000	 64.256620  
941.000000	 64.217424  
940.000000	 64.186573  
939.000000	 64.167761  
938.000000	 64.162659  
937.000000	 64.171123  
936.000000	 64.191079  
935.000000	 64.219093  
934.000000	 64.251279  
933.000000	 64.284014  
932.000000	 64.314293  
931.000000	 64.340066  
930.000000	 64.360094  
929.000000	 64.374065  
928.000000	 64.382314  
927.000000	 64.385771  
926.000000	 64.385843  
925.000000	 64.384078  
924.000000	 64.382505  
923.000000	 64.382743  
922.000000	 64.386343  
921.000000	 64.393949  
920.000000	 64.405512  
919.000000	 64.419746  
918.000000	 64.434528  
917.000000	 64.446854  
916.000000	 64.453864  
915.000000	 64.452648  
914.000000	 64.441299  
913.000000	 64.418888  
912.000000	 64.385962  
911.000000	 64.344453  
910.000000	 64.297199  
909.000000	 64.247918  
908.000000	 64.200592  
907.000000	 64.159083  
906.000000	 64.126706  
905.000000	 64.105844  
904.000000	 64.097642  
903.000000	 64.102101  
902.000000	 64.118051  
901.000000	 64.143061  
900.000000	 64.173746  
899.000000	 64.206314  
898.000000	 64.237380  
897.000000	 64.263749  
896.000000	 64.283537  
895.000000	 64.296102  
894.000000	 64.302134  
893.000000	 64.303708  
892.000000	 64.303302  
891.000000	 64.303731  
890.000000	 64.307141  
889.000000	 64.314961  
888.000000	 64.327001  
887.000000	 64.341735  
886.000000	 64.356493  
885.000000	 64.368391  
884.000000	 64.374876  
883.000000	 64.374423  
882.000000	 64.367175  
881.000000	 64.354944  
880.000000	 64.340353  
879.000000	 64.325952  
878.000000	 64.314055  
877.000000	 64.305758  
876.000000	 64.300870  
875.000000	 64.297938  
874.000000	 64.294958  
873.000000	 64.289951  
872.000000	 64.281535  
871.000000	 64.269065  
870.000000	 64.252758  
869.000000	 64.233493  
868.000000	 64.212417  
867.000000	 64.190936  
866.000000	 64.169955  
865.000000	 64.150261  
864.000000	 64.132690  
863.000000	 64.118337  
862.000000	 64.108157  
861.000000	 64.103412  
860.000000	 64.105057  
859.000000	 64.114022  
858.000000	 64.130139  
857.000000	 64.153242  
856.000000	 64.182496  
855.000000	 64.217090  
854.000000	 64.256143  
853.000000	 64.298796  
852.000000	 64.343976  
851.000000	 64.390230  
850.000000	 64.435529  
849.000000	 64.477229  
848.000000	 64.512157  
847.000000	 64.537358  
846.000000	 64.550495  
845.000000	 64.550185  
844.000000	 64.536428  
843.000000	 64.511036  
842.000000	 64.476990  
841.000000	 64.438128  
840.000000	 64.398097  
839.000000	 64.360260  
838.000000	 64.326548  
837.000000	 64.297437  
836.000000	 64.272141  
835.000000	 64.249205  
834.000000	 64.227080  
833.000000	 64.204883  
832.000000	 64.182686  
831.000000	 64.161539  
830.000000	 64.143133  
829.000000	 64.129185  
828.000000	 64.120841  
827.000000	 64.118075  
826.000000	 64.119815  
825.000000	 64.124035  
824.000000	 64.128351  
823.000000	 64.130473  
822.000000	 64.129185  
821.000000	 64.124560  
820.000000	 64.117789  
819.000000	 64.110779  
818.000000	 64.105629  
817.000000	 64.104270  
816.000000	 64.107513  
815.000000	 64.115214  
814.000000	 64.126539  
813.000000	 64.139962  
812.000000	 64.154005  
811.000000	 64.167213  
810.000000	 64.178180  
809.000000	 64.185857  
808.000000	 64.189457  
807.000000	 64.188838  
806.000000	 64.184117  
805.000000	 64.176321  
804.000000	 64.167499  
803.000000	 64.160084  
802.000000	 64.156556  
801.000000	 64.158749  
800.000000	 64.167594  
799.000000	 64.182448  
798.000000	 64.201474  
797.000000	 64.221692  
796.000000	 64.239621  
795.000000	 64.252090  
794.000000	 64.256954  
793.000000	 64.253449  
792.000000	 64.242434  
791.000000	 64.225864  
790.000000	 64.206457  
789.000000	 64.186906  
788.000000	 64.169430  
787.000000	 64.155483  
786.000000	 64.145970  
785.000000	 64.141178  
784.000000	 64.141368  
783.000000	 64.146637  
782.000000	 64.157652  
781.000000	 64.174699  
780.000000	 64.198255  
779.000000	 64.228534  
778.000000	 64.264941  
777.000000	 64.305853  
776.000000	 64.348006  
775.000000	 64.387011  
774.000000	 64.417529  
773.000000	 64.434695  
772.000000	 64.434814  
771.000000	 64.416432  
770.000000	 64.381003  
769.000000	 64.332866  
768.000000	 64.278078  
767.000000	 64.223480  
766.000000	 64.175200  
765.000000	 64.137649  
764.000000	 64.112663  
763.000000	 64.099669  
762.000000	 64.096212  
761.000000	 64.098882  
760.000000	 64.104175  
759.000000	 64.109468  
758.000000	 64.113068  
757.000000	 64.114356  
756.000000	 64.112830  
755.000000	 64.108443  
754.000000	 64.100527  
753.000000	 64.088678  
752.000000	 64.072585  
751.000000	 64.052796  
750.000000	 64.030766  
749.000000	 64.008855  
748.000000	 63.989973  
747.000000	 63.976645  
746.000000	 63.970494  
745.000000	 63.971853  
744.000000	 63.979673  
743.000000	 63.991975  
742.000000	 64.006376  
741.000000	 64.020776  
740.000000	 64.033818  
739.000000	 64.045262  
738.000000	 64.055752  
737.000000	 64.066219  
736.000000	 64.077258  
735.000000	 64.089226  
734.000000	 64.101648  
733.000000	 64.113402  
732.000000	 64.123082  
731.000000	 64.129686  
730.000000	 64.132809  
729.000000	 64.132952  
728.000000	 64.130949  
727.000000	 64.127969  
726.000000	 64.124822  
725.000000	 64.121961  
724.000000	 64.119148  
723.000000	 64.115691  
722.000000	 64.110636  
721.000000	 64.103198  
720.000000	 64.093279  
719.000000	 64.081764  
718.000000	 64.070367  
717.000000	 64.061355  
716.000000	 64.057135  
715.000000	 64.059710  
714.000000	 64.070034  
713.000000	 64.088082  
712.000000	 64.112377  
711.000000	 64.140677  
710.000000	 64.170622  
709.000000	 64.200139  
708.000000	 64.227795  
707.000000	 64.252471  
706.000000	 64.273500  
705.000000	 64.289927  
704.000000	 64.300751  
703.000000	 64.304423  
702.000000	 64.299583  
701.000000	 64.284873  
700.000000	 64.260220  
699.000000	 64.226651  
698.000000	 64.186906  
697.000000	 64.145231  
696.000000	 64.106535  
695.000000	 64.076304  
694.000000	 64.059233  
693.000000	 64.058876  
692.000000	 64.076757  
691.000000	 64.111733  
690.000000	 64.160084  
689.000000	 64.215636  
688.000000	 64.270806  
687.000000	 64.317488  
686.000000	 64.348530  
685.000000	 64.358758  
684.000000	 64.346241  
683.000000	 64.312624  
682.000000	 64.263200  
681.000000	 64.206171  
680.000000	 64.151024  
679.000000	 64.107251  
678.000000	 64.082026  
677.000000	 64.079689  
676.000000	 64.099621  
675.000000	 64.137220  
674.000000	 64.184165  
673.000000	 64.230418  
672.000000	 64.266443  
671.000000	 64.284968  
670.000000	 64.283156  
669.000000	 64.262461  
668.000000	 64.228892  
667.000000	 64.190983  
666.000000	 64.158320  
665.000000	 64.138746  
664.000000	 64.137005  
663.000000	 64.153480  
662.000000	 64.184331  
661.000000	 64.222764  
660.000000	 64.260649  
659.000000	 64.290571  
658.000000	 64.307093  
657.000000	 64.308214  
656.000000	 64.295339  
655.000000	 64.272880  
654.000000	 64.246630  
653.000000	 64.222478  
652.000000	 64.205694  
651.000000	 64.199471  
650.000000	 64.205360  
649.000000	 64.222383  
648.000000	 64.247846  
647.000000	 64.277791  
646.000000	 64.307951  
645.000000	 64.334344  
644.000000	 64.353656  
643.000000	 64.363622  
642.000000	 64.363026  
641.000000	 64.352107  
640.000000	 64.332151  
639.000000	 64.305448  
638.000000	 64.274740  
637.000000	 64.243364  
636.000000	 64.214563  
635.000000	 64.191317  
634.000000	 64.175820  
633.000000	 64.168667  
632.000000	 64.168620  
631.000000	 64.172601  
630.000000	 64.175987  
629.000000	 64.173722  
628.000000	 64.161396  
627.000000	 64.135885  
626.000000	 64.096808  
625.000000	 64.046907  
624.000000	 63.991904  
623.000000	 63.939237  
622.000000	 63.896703  
621.000000	 63.870596  
620.000000	 63.864278  
619.000000	 63.877654  
618.000000	 63.906288  
617.000000	 63.942408  
616.000000	 63.976550  
615.000000	 63.999557  
614.000000	 64.004993  
613.000000	 63.990283  
612.000000	 63.957643  
611.000000	 63.913393  
610.000000	 63.866257  
609.000000	 63.824868  
608.000000	 63.796043  
607.000000	 63.783121  
606.000000	 63.785362  
605.000000	 63.798260  
604.000000	 63.815069  
603.000000	 63.828158  
602.000000	 63.830447  
601.000000	 63.817238  
600.000000	 63.786315  
599.000000	 63.739466  
598.000000	 63.681244  
597.000000	 63.619256  
596.000000	 63.562321  
595.000000	 63.519430  
594.000000	 63.497781  
593.000000	 63.501811  
592.000000	 63.532423  
591.000000	 63.587093  
590.000000	 63.659906  
589.000000	 63.743591  
588.000000	 63.830304  
587.000000	 63.914036  
586.000000	 63.990783  
585.000000	 64.059424  
584.000000	 64.120554  
583.000000	 64.175915  
582.000000	 64.226961  
581.000000	 64.273619  
580.000000	 64.313769  
579.000000	 64.343881  
578.000000	 64.359879  
577.000000	 64.359211  
576.000000	 64.341855  
575.000000	 64.310431  
574.000000	 64.270448  
573.000000	 64.229393  
572.000000	 64.195156  
571.000000	 64.174389  
570.000000	 64.171171  
569.000000	 64.186334  
568.000000	 64.217615  
567.000000	 64.260149  
566.000000	 64.307928  
565.000000	 64.354920  
564.000000	 64.396381  
563.000000	 64.429759  
562.000000	 64.454030  
561.000000	 64.469695  
560.000000	 64.476776  
559.000000	 64.474320  
558.000000	 64.459705  
557.000000	 64.429330  
556.000000	 64.380264  
555.000000	 64.312148  
554.000000	 64.228057  
553.000000	 64.135026  
552.000000	 64.042949  
551.000000	 63.963150  
550.000000	 63.905715  
549.000000	 63.877940  
548.000000	 63.883328  
547.000000	 63.921022  
546.000000	 63.986635  
545.000000	 64.072370  
544.000000	 64.167976  
543.000000	 64.262127  
542.000000	 64.343404  
541.000000	 64.402532  
540.000000	 64.433288  
539.000000	 64.433836  
538.000000	 64.407157  
537.000000	 64.360022  
536.000000	 64.301967  
535.000000	 64.243054  
534.000000	 64.192247  
533.000000	 64.156293  
532.000000	 64.139461  
531.000000	 64.142608  
530.000000	 64.164018  
529.000000	 64.199519  
528.000000	 64.243745  
527.000000	 64.290714  
526.000000	 64.335012  
525.000000	 64.373397  
524.000000	 64.405083  
523.000000	 64.431929  
522.000000	 64.457488  
521.000000	 64.484786  
520.000000	 64.515447  
519.000000	 64.549231  
518.000000	 64.584016  
517.000000	 64.617013  
516.000000	 64.645195  
515.000000	 64.667201  
514.000000	 64.682650  
513.000000	 64.692568  
512.000000	 64.698004  
511.000000	 64.699387  
510.000000	 64.696073  
509.000000	 64.687228  
508.000000	 64.671540  
507.000000	 64.648699  
506.000000	 64.618539  
505.000000	 64.581990  
504.000000	 64.540076  
503.000000	 64.493918  
502.000000	 64.444422  
501.000000	 64.392280  
500.000000	 64.338541  
499.000000	 64.285087  
498.000000	 64.235925  
497.000000	 64.196968  
496.000000	 64.175295  
495.000000	 64.177322  
494.000000	 64.207363  
493.000000	 64.265727  
492.000000	 64.347147  
491.000000	 64.441442  
490.000000	 64.535021  
489.000000	 64.614129  
488.000000	 64.666914  
487.000000	 64.687013  
486.000000	 64.675450  
485.000000	 64.639711  
484.000000	 64.591264  
483.000000	 64.542841  
482.000000	 64.505577  
481.000000	 64.485740  
480.000000	 64.484381  
479.000000	 64.496469  
478.000000	 64.513611  
477.000000	 64.526247  
476.000000	 64.527368  
475.000000	 64.513015  
474.000000	 64.483118  
473.000000	 64.440822  
472.000000	 64.391183  
471.000000	 64.339256  
470.000000	 64.289093  
469.000000	 64.243650  
468.000000	 64.204907  
467.000000	 64.174795  
466.000000	 64.154314  
465.000000	 64.144682  
464.000000	 64.144754  
463.000000	 64.151668  
462.000000	 64.158439  
461.000000	 64.154005  
460.000000	 64.125609  
459.000000	 64.060711  
458.000000	 63.952755  
457.000000	 63.802433  
456.000000	 63.621568  
455.000000	 63.430738  
454.000000	 63.257265  
453.000000	 63.128757  
452.000000	 63.067507  
451.000000	 63.084650  
450.000000	 63.177251  
449.000000	 63.328552  
448.000000	 63.511681  
447.000000	 63.695359  
446.000000	 63.852667  
445.000000	 63.966774  
444.000000	 64.033865  
443.000000	 64.061331  
442.000000	 64.065718  
441.000000	 64.064884  
440.000000	 64.068341  
439.000000	 64.073610  
438.000000	 64.069199  
437.000000	 64.037656  
436.000000	 63.960957  
435.000000	 63.829684  
434.000000	 63.650226  
433.000000	 63.444995  
432.000000	 63.251233  
431.000000	 63.109159  
430.000000	 63.049054  
429.000000	 63.084721  
428.000000	 63.210034  
427.000000	 63.398575  
426.000000	 63.608384  
425.000000	 63.795924  
424.000000	 63.924956  
423.000000	 63.981676  
422.000000	 63.978624  
421.000000	 63.947129  
420.000000	 63.926672  
419.000000	 63.953709  
418.000000	 64.050602  
417.000000	 64.229941  
416.000000	 64.494323  
415.000000	 64.833569  
414.000000	 65.230441  
413.000000	 65.677070  
412.000000	 66.171145  
411.000000	 66.704893  
410.000000	 67.260456  
409.000000	 67.824888  
408.000000	 68.364191  
407.000000	 68.838500  
406.000000	 69.182562  
405.000000	 69.298505  
404.000000	 69.093680  
403.000000	 68.525290  
402.000000	 67.608237  
401.000000	 66.396522  
400.000000	 65.026068  
399.000000	 63.709163  
398.000000	 62.679028  
397.000000	 62.124729  
396.000000	 62.178730  
395.000000	 62.914848  
394.000000	 64.228606  
393.000000	 65.835356  
392.000000	 67.386484  
391.000000	 68.543243  
390.000000	 69.039225  
389.000000	 68.738651  
388.000000	 67.604112  
387.000000	 65.657138  
386.000000	 63.174557  
385.000000	 60.544538  
384.000000	 57.631039  
383.000000	 54.226970  
382.000000	 50.296878  
381.000000	 46.126031  
380.000000	 42.897129  
379.000000	 41.867899  
378.000000	 43.830537  
377.000000	 48.998618  
376.000000	 55.732583  
375.000000	 62.494802  
374.000000	 68.689441  
373.000000	 74.650573  
372.000000	 82.858133  
371.000000	 94.824218  
370.000000	 109.599995 

