PE IR       SPECTRUM    SPECTRUM    ASCII       PEDS        1.60        
  -1
BZ6824~1.ASC
17/04/07
16:29:00.00
17/04/07
16:29:00.00
tln
$BZ1503107-1_t0040$<tbV0>[-2.6,-5.2,8.0,0.0,27,1,0]
370.000000
64









2002,4.07    
MIRTGS : RIGHTBACK : INTERNAL 2
MIR : ON : INTERNAL 2
OPTKBR

0.200000
8
8.000000
FILLER
RATIO
SPECTRUM
UNLOCKED 256

DOUBLE
64
COMBINED
1
0
0


1.000000
RATIO


1
0
TRUE
51149
0
LEFT NOT FITTED RIGHT NOT FITTED 0
NONE
NONE
15600
12.000000
4.427000
51148
TRUE
1 0 8 72 0 0 0 0 

15798.010000






#HDR
-1
-1
#GR
CM-1
%T
0.00002384185791015625
0.0
5000.000000
-1.000000
4631
8
76.008200
46.290779
#DATA
5000.000000	65.435266 
4999.000000	65.432858 
4998.000000	65.406751 
4997.000000	65.359091 
4996.000000	65.294718 
4995.000000	65.222001 
4994.000000	65.150809 
4993.000000	65.091943 
4992.000000	65.053915 
4991.000000	65.041851 
4990.000000	65.055370 
4989.000000	65.088725 
4988.000000	65.132284 
4987.000000	65.174770 
4986.000000	65.205979 
4985.000000	65.218949 
4984.000000	65.211606 
4983.000000	65.186643 
4982.000000	65.150213 
4981.000000	65.109705 
4980.000000	65.071892 
4979.000000	65.040874 
4978.000000	65.017533 
4977.000000	64.999556 
4976.000000	64.982295 
4975.000000	64.960789 
4974.000000	64.930915 
4973.000000	64.891672 
4972.000000	64.845609 
4971.000000	64.798879 
4970.000000	64.759325 
4969.000000	64.735198 
4968.000000	64.733314 
4967.000000	64.756679 
4966.000000	64.803814 
4965.000000	64.867782 
4964.000000	64.937520 
4963.000000	64.999365 
4962.000000	65.040159 
4961.000000	65.049695 
4960.000000	65.022850 
4959.000000	64.960837 
4958.000000	64.870977 
4957.000000	64.764857 
4956.000000	64.655876 
4955.000000	64.556479 
4954.000000	64.476132 
4953.000000	64.420557 
4952.000000	64.391779 
4951.000000	64.388608 
4950.000000	64.407896 
4949.000000	64.445447 
4948.000000	64.496922 
4947.000000	64.557361 
4946.000000	64.621996 
4945.000000	64.685249 
4944.000000	64.741635 
4943.000000	64.785432 
4942.000000	64.811825 
4941.000000	64.817237 
4940.000000	64.800620 
4939.000000	64.764428 
4938.000000	64.713931 
4937.000000	64.656448 
4936.000000	64.599919 
4935.000000	64.551758 
4934.000000	64.517164 
4933.000000	64.498353 
4932.000000	64.494299 
4931.000000	64.501357 
4930.000000	64.514040 
4929.000000	64.526700 
4928.000000	64.534449 
4927.000000	64.534163 
4926.000000	64.524412 
4925.000000	64.505171 
4924.000000	64.477610 
4923.000000	64.442992 
4922.000000	64.401197 
4921.000000	64.351892 
4920.000000	64.294314 
4919.000000	64.229917 
4918.000000	64.162659 
4917.000000	64.100313 
4916.000000	64.053344 
4915.000000	64.033079 
4914.000000	64.048647 
4913.000000	64.104485 
4912.000000	64.197802 
4911.000000	64.318966 
4910.000000	64.452576 
4909.000000	64.580726 
4908.000000	64.686775 
4907.000000	64.758419 
4906.000000	64.790272 
4905.000000	64.784479 
4904.000000	64.749813 
4903.000000	64.699077 
4902.000000	64.645695 
4901.000000	64.601373 
4900.000000	64.573669 
4899.000000	64.565992 
4898.000000	64.577484 
4897.000000	64.604902 
4896.000000	64.643430 
4895.000000	64.687824 
4894.000000	64.733839 
4893.000000	64.777779 
4892.000000	64.818215 
4891.000000	64.854860 
4890.000000	64.889073 
4889.000000	64.923310 
4888.000000	64.959812 
4887.000000	64.999628 
4886.000000	65.042138 
4885.000000	65.084958 
4884.000000	65.124726 
4883.000000	65.158343 
4882.000000	65.183758 
4881.000000	65.200805 
4880.000000	65.210938 
4879.000000	65.217185 
4878.000000	65.221834 
4877.000000	65.225577 
4876.000000	65.226936 
4875.000000	65.222787 
4874.000000	65.208911 
4873.000000	65.181517 
4872.000000	65.139555 
4871.000000	65.085744 
4870.000000	65.027022 
4869.000000	64.973235 
4868.000000	64.934492 
4867.000000	64.919042 
4866.000000	64.930534 
4865.000000	64.967513 
4864.000000	65.023946 
4863.000000	65.090465 
4862.000000	65.156984 
4861.000000	65.214514 
4860.000000	65.257024 
4859.000000	65.281653 
4858.000000	65.288519 
4857.000000	65.279459 
4856.000000	65.256857 
4855.000000	65.222597 
4854.000000	65.177655 
4853.000000	65.122318 
4852.000000	65.057492 
4851.000000	64.984703 
4850.000000	64.907121 
4849.000000	64.829659 
4848.000000	64.758467 
4847.000000	64.699792 
4846.000000	64.658927 
4845.000000	64.639234 
4844.000000	64.641928 
4843.000000	64.665651 
4842.000000	64.706993 
4841.000000	64.760518 
4840.000000	64.820075 
4839.000000	64.879179 
4838.000000	64.932656 
4837.000000	64.976572 
4836.000000	65.009713 
4835.000000	65.032672 
4834.000000	65.048289 
4833.000000	65.060758 
4832.000000	65.073990 
4831.000000	65.091085 
4830.000000	65.112614 
4829.000000	65.137267 
4828.000000	65.160560 
4827.000000	65.176653 
4826.000000	65.178751 
4825.000000	65.161538 
4824.000000	65.122222 
4823.000000	65.061950 
4822.000000	64.985489 
4821.000000	64.900612 
4820.000000	64.817261 
4819.000000	64.745879 
4818.000000	64.695572 
4817.000000	64.672374 
4816.000000	64.678978 
4815.000000	64.714002 
4814.000000	64.771723 
4813.000000	64.843201 
4812.000000	64.917922 
4811.000000	64.985561 
4810.000000	65.037250 
4809.000000	65.067267 
4808.000000	65.073204 
4807.000000	65.056157 
4806.000000	65.019631 
4805.000000	64.968562 
4804.000000	64.908218 
4803.000000	64.843249 
4802.000000	64.777350 
4801.000000	64.713549 
4800.000000	64.654469 
4799.000000	64.603352 
4798.000000	64.564466 
4797.000000	64.542460 
4796.000000	64.541506 
4795.000000	64.564180 
4794.000000	64.610409 
4793.000000	64.676690 
4792.000000	64.756655 
4791.000000	64.842510 
4790.000000	64.926719 
4789.000000	65.003919 
4788.000000	65.071821 
4787.000000	65.130567 
4786.000000	65.182423 
4785.000000	65.230369 
4784.000000	65.276932 
4783.000000	65.323281 
4782.000000	65.368819 
4781.000000	65.412139 
4780.000000	65.450620 
4779.000000	65.482711 
4778.000000	65.506458 
4777.000000	65.521454 
4776.000000	65.526986 
4775.000000	65.522956 
4774.000000	65.508508 
4773.000000	65.482854 
4772.000000	65.445327 
4771.000000	65.396380 
4770.000000	65.338134 
4769.000000	65.274930 
4768.000000	65.212702 
4767.000000	65.158152 
4766.000000	65.117692 
4765.000000	65.096044 
4764.000000	65.095925 
4763.000000	65.117287 
4762.000000	65.157365 
4761.000000	65.211319 
4760.000000	65.273046 
4759.000000	65.336179 
4758.000000	65.394020 
4757.000000	65.440940 
4756.000000	65.473365 
4755.000000	65.489625 
4754.000000	65.490031 
4753.000000	65.476226 
4752.000000	65.451121 
4751.000000	65.417623 
4750.000000	65.378999 
4749.000000	65.337419 
4748.000000	65.294408 
4747.000000	65.250301 
4746.000000	65.205264 
4745.000000	65.159583 
4744.000000	65.114092 
4743.000000	65.070700 
4742.000000	65.032291 
4741.000000	65.002274 
4740.000000	64.983654 
4739.000000	64.978623 
4738.000000	64.987826 
4737.000000	65.009856 
4736.000000	65.041184 
4735.000000	65.076732 
4734.000000	65.110707 
4733.000000	65.137195 
4732.000000	65.151739 
4731.000000	65.151262 
4730.000000	65.135812 
4729.000000	65.108442 
4728.000000	65.075159 
4727.000000	65.043616 
4726.000000	65.022015 
4725.000000	65.017724 
4724.000000	65.035295 
4723.000000	65.075707 
4722.000000	65.135717 
4721.000000	65.208888 
4720.000000	65.286731 
4719.000000	65.360450 
4718.000000	65.423035 
4717.000000	65.470194 
4716.000000	65.501666 
4715.000000	65.520477 
4714.000000	65.532112 
4713.000000	65.542602 
4712.000000	65.556740 
4711.000000	65.576505 
4710.000000	65.600204 
4709.000000	65.622854 
4708.000000	65.637683 
4707.000000	65.638017 
4706.000000	65.619754 
4705.000000	65.582370 
4704.000000	65.529823 
4703.000000	65.469264 
4702.000000	65.409755 
4701.000000	65.359497 
4700.000000	65.323925 
4699.000000	65.303921 
4698.000000	65.296101 
4697.000000	65.293812 
4696.000000	65.289163 
4695.000000	65.275716 
4694.000000	65.250468 
4693.000000	65.214681 
4692.000000	65.173268 
4691.000000	65.133118 
4690.000000	65.100646 
4689.000000	65.079712 
4688.000000	65.070247 
4687.000000	65.068960 
4686.000000	65.070676 
4685.000000	65.070033 
4684.000000	65.063261 
4683.000000	65.049123 
4682.000000	65.029072 
4681.000000	65.006113 
4680.000000	64.984083 
4679.000000	64.966154 
4678.000000	64.954257 
4677.000000	64.948630 
4676.000000	64.948201 
4675.000000	64.951300 
4674.000000	64.956092 
4673.000000	64.961385 
4672.000000	64.966487 
4671.000000	64.970850 
4670.000000	64.974045 
4669.000000	64.975357 
4668.000000	64.974021 
4667.000000	64.969205 
4666.000000	64.960885 
4665.000000	64.949846 
4664.000000	64.938020 
4663.000000	64.927816 
4662.000000	64.921998 
4661.000000	64.923071 
4660.000000	64.932870 
4659.000000	64.952087 
4658.000000	64.980483 
4657.000000	65.016746 
4656.000000	65.057992 
4655.000000	65.100026 
4654.000000	65.137887 
4653.000000	65.166735 
4652.000000	65.182423 
4651.000000	65.182399 
4650.000000	65.166616 
4649.000000	65.137243 
4648.000000	65.098524 
4647.000000	65.055847 
4646.000000	65.014815 
4645.000000	64.980077 
4644.000000	64.955115 
4643.000000	64.941167 
4642.000000	64.937472 
4641.000000	64.941930 
4640.000000	64.951777 
4639.000000	64.964413 
4638.000000	64.977717 
4637.000000	64.990639 
4636.000000	65.002703 
4635.000000	65.014147 
4634.000000	65.025138 
4633.000000	65.036201 
4632.000000	65.047717 
4631.000000	65.060019 
4630.000000	65.073132 
4629.000000	65.086746 
4628.000000	65.100216 
4627.000000	65.112638 
4626.000000	65.122818 
4625.000000	65.129852 
4624.000000	65.132665 
4623.000000	65.130710 
4622.000000	65.123009 
4621.000000	65.108561 
4620.000000	65.085744 
4619.000000	65.052676 
4618.000000	65.008115 
4617.000000	64.951610 
4616.000000	64.884805 
4615.000000	64.811468 
4614.000000	64.737677 
4613.000000	64.670729 
4612.000000	64.617800 
4611.000000	64.584660 
4610.000000	64.573478 
4609.000000	64.582061 
4608.000000	64.604043 
4607.000000	64.630270 
4606.000000	64.650940 
4605.000000	64.657831 
4604.000000	64.646601 
4603.000000	64.617681 
4602.000000	64.576125 
4601.000000	64.530348 
4600.000000	64.489626 
4599.000000	64.462089 
4598.000000	64.452910 
4597.000000	64.463043 
4596.000000	64.489960 
4595.000000	64.527821 
4594.000000	64.569473 
4593.000000	64.607763 
4592.000000	64.636898 
4591.000000	64.653539 
4590.000000	64.656376 
4589.000000	64.646935 
4588.000000	64.628124 
4587.000000	64.604735 
4586.000000	64.582061 
4585.000000	64.566040 
4584.000000	64.562344 
4583.000000	64.575147 
4582.000000	64.606380 
4581.000000	64.655089 
4580.000000	64.717555 
4579.000000	64.787030 
4578.000000	64.855027 
4577.000000	64.912748 
4576.000000	64.953184 
4575.000000	64.972114 
4574.000000	64.969086 
4573.000000	64.947509 
4572.000000	64.913630 
4571.000000	64.875435 
4570.000000	64.840555 
4569.000000	64.814901 
4568.000000	64.801383 
4567.000000	64.800047 
4566.000000	64.808106 
4565.000000	64.821338 
4564.000000	64.835143 
4563.000000	64.845705 
4562.000000	64.850711 
4561.000000	64.849185 
4560.000000	64.842033 
4559.000000	64.831376 
4558.000000	64.820146 
4557.000000	64.810729 
4556.000000	64.805507 
4555.000000	64.806556 
4554.000000	64.815282 
4553.000000	64.832186 
4552.000000	64.857411 
4551.000000	64.890742 
4550.000000	64.931106 
4549.000000	64.976286 
4548.000000	65.022826 
4547.000000	65.066123 
4546.000000	65.100860 
4545.000000	65.121769 
4544.000000	65.124464 
4543.000000	65.106391 
4542.000000	65.067791 
4541.000000	65.011811 
4540.000000	64.944386 
4539.000000	64.873147 
4538.000000	64.806699 
4537.000000	64.752173 
4536.000000	64.714741 
4535.000000	64.695358 
4534.000000	64.691710 
4533.000000	64.697432 
4532.000000	64.704298 
4531.000000	64.702749 
4530.000000	64.684271 
4529.000000	64.642548 
4528.000000	64.574694 
4527.000000	64.482212 
4526.000000	64.370512 
4525.000000	64.249086 
4524.000000	64.129924 
4523.000000	64.026117 
4522.000000	63.949871 
4521.000000	63.910317 
4520.000000	63.912200 
4519.000000	63.954782 
4518.000000	64.032125 
4517.000000	64.133596 
4516.000000	64.246320 
4515.000000	64.356827 
4514.000000	64.453673 
4513.000000	64.528536 
4512.000000	64.577674 
4511.000000	64.601325 
4510.000000	64.602923 
4509.000000	64.587593 
4508.000000	64.560604 
4507.000000	64.526820 
4506.000000	64.489293 
4505.000000	64.450025 
4504.000000	64.409828 
4503.000000	64.370179 
4502.000000	64.332199 
4501.000000	64.296936 
4500.000000	64.265322 
4499.000000	64.238023 
4498.000000	64.215707 
4497.000000	64.199018 
4496.000000	64.189028 
4495.000000	64.187097 
4494.000000	64.194202 
4493.000000	64.210796 
4492.000000	64.237022 
4491.000000	64.272689 
4490.000000	64.317226 
4489.000000	64.368915 
4488.000000	64.426231 
4487.000000	64.485669 
4486.000000	64.541816 
4485.000000	64.587354 
4484.000000	64.612984 
4483.000000	64.611148 
4482.000000	64.578652 
4481.000000	64.518165 
4480.000000	64.438748 
4479.000000	64.353871 
4478.000000	64.278888 
4477.000000	64.227175 
4476.000000	64.206767 
4475.000000	64.219212 
4474.000000	64.259743 
4473.000000	64.318585 
4472.000000	64.384198 
4471.000000	64.444756 
4470.000000	64.490866 
4469.000000	64.519190 
4468.000000	64.533042 
4467.000000	64.540314 
4466.000000	64.551472 
4465.000000	64.578104 
4464.000000	64.628911 
4463.000000	64.707660 
4462.000000	64.809942 
4461.000000	64.928221 
4460.000000	65.048193 
4459.000000	65.147447 
4458.000000	65.203094 
4457.000000	65.198993 
4456.000000	65.129756 
4455.000000	65.004062 
4454.000000	64.841556 
4453.000000	64.672160 
4452.000000	64.522838 
4451.000000	64.412546 
4450.000000	64.344096 
4449.000000	64.298129 
4448.000000	64.254426 
4447.000000	64.201974 
4446.000000	64.145445 
4445.000000	64.106512 
4444.000000	64.119505 
4443.000000	64.220666 
4442.000000	64.434313 
4441.000000	64.763903 
4440.000000	65.182685 
4439.000000	65.643215 
4438.000000	66.089081 
4437.000000	66.477179 
4436.000000	66.790294 
4435.000000	67.049050 
4434.000000	67.305374 
4433.000000	67.630362 
4432.000000	68.094658 
4431.000000	68.740725 
4430.000000	69.574618 
4429.000000	70.542097 
4428.000000	71.553301 
4427.000000	72.469615 
4426.000000	73.153996 
4425.000000	73.464894 
4424.000000	73.297691 
4423.000000	72.591304 
4422.000000	71.346473 
4421.000000	69.635295 
4420.000000	67.594313 
4419.000000	65.422534 
4418.000000	63.352346 
4417.000000	61.629915 
4416.000000	60.473966 
4415.000000	60.038900 
4414.000000	60.382294 
4413.000000	61.443161 
4412.000000	63.051438 
4411.000000	64.943456 
4410.000000	66.822504 
4409.000000	68.412566 
4408.000000	69.519233 
4407.000000	70.054721 
4406.000000	70.050287 
4405.000000	69.629740 
4404.000000	68.969154 
4403.000000	68.244886 
4402.000000	67.590737 
4401.000000	67.084479 
4400.000000	66.730570 
4399.000000	66.496944 
4398.000000	66.317796 
4397.000000	66.139030 
4396.000000	65.923047 
4395.000000	65.664577 
4394.000000	65.385270 
4393.000000	65.120339 
4392.000000	64.906907 
4391.000000	64.766001 
4390.000000	64.702534 
4389.000000	64.701318 
4388.000000	64.743137 
4387.000000	64.810132 
4386.000000	64.885187 
4385.000000	64.956045 
4384.000000	65.015459 
4383.000000	65.061569 
4382.000000	65.093111 
4381.000000	65.111017 
4380.000000	65.114927 
4379.000000	65.105652 
4378.000000	65.090489 
4377.000000	65.077781 
4376.000000	65.071892 
4375.000000	65.074801 
4374.000000	65.088343 
4373.000000	65.111255 
4372.000000	65.142130 
4371.000000	65.176534 
4370.000000	65.205907 
4369.000000	65.222287 
4368.000000	65.221357 
4367.000000	65.201687 
4366.000000	65.165090 
4365.000000	65.116786 
4364.000000	65.064191 
4363.000000	65.014433 
4362.000000	64.972543 
4361.000000	64.941048 
4360.000000	64.919614 
4359.000000	64.905357 
4358.000000	64.894056 
4357.000000	64.881992 
4356.000000	64.866781 
4355.000000	64.847898 
4354.000000	64.826607 
4353.000000	64.804458 
4352.000000	64.783000 
4351.000000	64.762902 
4350.000000	64.743828 
4349.000000	64.724302 
4348.000000	64.702868 
4347.000000	64.678597 
4346.000000	64.652204 
4345.000000	64.626049 
4344.000000	64.603948 
4343.000000	64.590215 
4342.000000	64.588427 
4341.000000	64.600515 
4340.000000	64.625239 
4339.000000	64.658188 
4338.000000	64.692020 
4337.000000	64.718031 
4336.000000	64.727115 
4335.000000	64.711880 
4334.000000	64.668726 
4333.000000	64.598941 
4332.000000	64.508962 
4331.000000	64.409327 
4330.000000	64.313530 
4329.000000	64.235067 
4328.000000	64.184069 
4327.000000	64.165449 
4326.000000	64.177870 
4325.000000	64.214539 
4324.000000	64.264416 
4323.000000	64.315605 
4322.000000	64.357614 
4321.000000	64.384484 
4320.000000	64.394855 
4319.000000	64.392948 
4318.000000	64.385414 
4317.000000	64.380383 
4316.000000	64.384055 
4315.000000	64.399957 
4314.000000	64.427852 
4313.000000	64.464735 
4312.000000	64.506196 
4311.000000	64.547944 
4310.000000	64.587235 
4309.000000	64.622974 
4308.000000	64.655780 
4307.000000	64.686775 
4306.000000	64.717102 
4305.000000	64.747357 
4304.000000	64.777445 
4303.000000	64.807295 
4302.000000	64.836859 
4301.000000	64.866518 
4300.000000	64.896488 
4299.000000	64.927530 
4298.000000	64.959096 
4297.000000	64.988946 
4296.000000	65.013146 
4295.000000	65.026879 
4294.000000	65.025758 
4293.000000	65.007162 
4292.000000	64.971327 
4291.000000	64.922285 
4290.000000	64.866709 
4289.000000	64.812803 
4288.000000	64.768004 
4287.000000	64.737105 
4286.000000	64.721202 
4285.000000	64.717984 
4284.000000	64.722371 
4283.000000	64.728403 
4282.000000	64.730930 
4281.000000	64.727258 
4280.000000	64.717483 
4279.000000	64.704322 
4278.000000	64.692354 
4277.000000	64.686918 
4276.000000	64.692115 
4275.000000	64.709877 
4274.000000	64.739704 
4273.000000	64.778852 
4272.000000	64.823460 
4271.000000	64.869070 
4270.000000	64.912009 
4269.000000	64.949774 
4268.000000	64.981293 
4267.000000	65.006589 
4266.000000	65.026545 
4265.000000	65.041851 
4264.000000	65.053296 
4263.000000	65.060758 
4262.000000	65.063452 
4261.000000	65.060353 
4260.000000	65.050888 
4259.000000	65.035200 
4258.000000	65.014624 
4257.000000	64.991497 
4256.000000	64.969038 
4255.000000	64.950013 
4254.000000	64.936041 
4253.000000	64.927315 
4252.000000	64.922547 
4251.000000	64.919781 
4250.000000	64.916944 
4249.000000	64.912891 
4248.000000	64.907622 
4247.000000	64.902353 
4246.000000	64.899158 
4245.000000	64.899849 
4244.000000	64.905834 
4243.000000	64.917182 
4242.000000	64.933156 
4241.000000	64.951920 
4240.000000	64.971709 
4239.000000	64.991426 
4238.000000	65.010714 
4237.000000	65.030002 
4236.000000	65.049958 
4235.000000	65.070915 
4234.000000	65.092372 
4233.000000	65.112566 
4232.000000	65.129208 
4231.000000	65.139985 
4230.000000	65.143704 
4229.000000	65.140891 
4228.000000	65.133690 
4227.000000	65.125536 
4226.000000	65.120339 
4225.000000	65.121579 
4224.000000	65.130972 
4223.000000	65.147686 
4222.000000	65.169072 
4221.000000	65.190815 
4220.000000	65.207982 
4219.000000	65.216040 
4218.000000	65.211963 
4217.000000	65.195083 
4216.000000	65.167236 
4215.000000	65.132403 
4214.000000	65.095400 
4213.000000	65.060997 
4212.000000	65.033316 
4211.000000	65.014481 
4210.000000	65.004563 
4209.000000	65.001726 
4208.000000	65.003228 
4207.000000	65.006160 
4206.000000	65.008091 
4205.000000	65.008378 
4204.000000	65.008091 
4203.000000	65.010070 
4202.000000	65.017962 
4201.000000	65.035605 
4200.000000	65.065813 
4199.000000	65.109705 
4198.000000	65.166115 
4197.000000	65.231895 
4196.000000	65.302062 
4195.000000	65.370965 
4194.000000	65.432548 
4193.000000	65.481591 
4192.000000	65.513396 
4191.000000	65.525221 
4190.000000	65.515470 
4189.000000	65.484142 
4188.000000	65.432548 
4187.000000	65.363836 
4186.000000	65.282487 
4185.000000	65.194201 
4184.000000	65.105462 
4183.000000	65.023303 
4182.000000	64.954233 
4181.000000	64.903426 
4180.000000	64.874196 
4179.000000	64.867234 
4178.000000	64.880681 
4177.000000	64.910316 
4176.000000	64.950537 
4175.000000	64.994955 
4174.000000	65.037751 
4173.000000	65.074372 
4172.000000	65.101957 
4171.000000	65.119171 
4170.000000	65.126347 
4169.000000	65.125083 
4168.000000	65.117573 
4167.000000	65.106272 
4166.000000	65.093803 
4165.000000	65.082597 
4164.000000	65.075111 
4163.000000	65.073204 
4162.000000	65.078759 
4161.000000	65.092349 
4160.000000	65.113592 
4159.000000	65.140271 
4158.000000	65.168476 
4157.000000	65.193319 
4156.000000	65.209650 
4155.000000	65.213966 
4154.000000	65.205144 
4153.000000	65.185332 
4152.000000	65.159845 
4151.000000	65.135407 
4150.000000	65.118432 
4149.000000	65.113067 
4148.000000	65.120148 
4147.000000	65.136933 
4146.000000	65.157842 
4145.000000	65.176367 
4144.000000	65.187120 
4143.000000	65.187478 
4142.000000	65.178585 
4141.000000	65.164852 
4140.000000	65.152835 
4139.000000	65.149164 
4138.000000	65.158462 
4137.000000	65.182089 
4136.000000	65.217280 
4135.000000	65.258431 
4134.000000	65.298008 
4133.000000	65.328669 
4132.000000	65.344667 
4131.000000	65.343213 
4130.000000	65.324616 
4129.000000	65.291833 
4128.000000	65.249562 
4127.000000	65.203237 
4126.000000	65.158033 
4125.000000	65.118026 
4124.000000	65.085840 
4123.000000	65.062832 
4122.000000	65.049266 
4121.000000	65.045022 
4120.000000	65.049910 
4119.000000	65.064096 
4118.000000	65.088057 
4117.000000	65.122127 
4116.000000	65.166306 
4115.000000	65.219378 
4114.000000	65.279030 
4113.000000	65.341043 
4112.000000	65.400052 
4111.000000	65.449738 
4110.000000	65.483975 
4109.000000	65.497493 
4108.000000	65.487027 
4107.000000	65.451908 
4106.000000	65.394616 
4105.000000	65.320611 
4104.000000	65.237450 
4103.000000	65.154051 
4102.000000	65.079164 
4101.000000	65.020465 
4100.000000	64.983391 
4099.000000	64.970421 
4098.000000	64.980792 
4097.000000	65.011000 
4096.000000	65.055418 
4095.000000	65.107226 
4094.000000	65.159368 
4093.000000	65.205812 
4092.000000	65.242290 
4091.000000	65.266466 
4090.000000	65.278267 
4089.000000	65.279531 
4088.000000	65.273499 
4087.000000	65.264010 
4086.000000	65.254569 
4085.000000	65.248107 
4084.000000	65.246248 
4083.000000	65.249562 
4082.000000	65.257239 
4081.000000	65.267944 
4080.000000	65.280103 
4079.000000	65.292310 
4078.000000	65.303540 
4077.000000	65.313315 
4076.000000	65.321350 
4075.000000	65.327668 
4074.000000	65.331792 
4073.000000	65.332841 
4072.000000	65.329384 
4071.000000	65.319991 
4070.000000	65.303373 
4069.000000	65.278792 
4068.000000	65.246534 
4067.000000	65.208339 
4066.000000	65.167045 
4065.000000	65.126156 
4064.000000	65.088987 
4063.000000	65.057992 
4062.000000	65.034580 
4061.000000	65.018701 
4060.000000	65.008878 
4059.000000	65.002679 
4058.000000	64.997529 
4057.000000	64.991641 
4056.000000	64.984297 
4055.000000	64.976453 
4054.000000	64.970016 
4053.000000	64.967679 
4052.000000	64.971852 
4051.000000	64.983892 
4050.000000	65.003132 
4049.000000	65.027093 
4048.000000	65.051507 
4047.000000	65.071892 
4046.000000	65.084433 
4045.000000	65.087246 
4044.000000	65.080928 
4043.000000	65.068316 
4042.000000	65.053629 
4041.000000	65.041399 
4040.000000	65.035152 
4039.000000	65.036058 
4038.000000	65.042662 
4037.000000	65.051364 
4036.000000	65.057587 
4035.000000	65.056943 
4034.000000	65.046763 
4033.000000	65.027046 
4032.000000	65.000820 
4031.000000	64.973306 
4030.000000	64.950990 
4029.000000	64.939737 
4028.000000	64.943814 
4027.000000	64.964723 
4026.000000	65.000915 
4025.000000	65.048241 
4024.000000	65.100550 
4023.000000	65.151047 
4022.000000	65.193462 
4021.000000	65.223193 
4020.000000	65.238428 
4019.000000	65.240168 
4018.000000	65.232276 
4017.000000	65.220212 
4016.000000	65.210223 
4015.000000	65.207624 
4014.000000	65.215802 
4013.000000	65.235590 
4012.000000	65.265059 
4011.000000	65.300226 
4010.000000	65.335941 
4009.000000	65.367174 
4008.000000	65.389800 
4007.000000	65.401697 
4006.000000	65.402674 
4005.000000	65.394544 
4004.000000	65.380358 
4003.000000	65.363907 
4002.000000	65.348553 
4001.000000	65.336871 
4000.000000	65.330910 
3999.000000	65.331482 
3998.000000	65.338897 
3997.000000	65.352320 
3996.000000	65.370321 
3995.000000	65.390825 
3994.000000	65.411281 
3993.000000	65.429210 
3992.000000	65.442752 
3991.000000	65.450716 
3990.000000	65.452814 
3989.000000	65.449476 
3988.000000	65.441799 
3987.000000	65.430903 
3986.000000	65.417695 
3985.000000	65.402936 
3984.000000	65.387129 
3983.000000	65.370869 
3982.000000	65.354681 
3981.000000	65.339446 
3980.000000	65.325832 
3979.000000	65.314292 
3978.000000	65.304660 
3977.000000	65.295863 
3976.000000	65.285944 
3975.000000	65.272498 
3974.000000	65.253424 
3973.000000	65.227437 
3972.000000	65.195012 
3971.000000	65.158271 
3970.000000	65.121006 
3969.000000	65.087604 
3968.000000	65.062212 
3967.000000	65.047621 
3966.000000	65.044856 
3965.000000	65.053105 
3964.000000	65.069794 
3963.000000	65.091204 
3962.000000	65.112996 
3961.000000	65.131330 
3960.000000	65.142917 
3959.000000	65.145373 
3958.000000	65.137863 
3957.000000	65.121126 
3956.000000	65.097403 
3955.000000	65.070056 
3954.000000	65.043425 
3953.000000	65.022087 
3952.000000	65.010476 
3951.000000	65.012192 
3950.000000	65.029072 
3949.000000	65.060830 
3948.000000	65.104913 
3947.000000	65.156793 
3946.000000	65.210103 
3945.000000	65.258121 
3944.000000	65.294623 
3943.000000	65.314984 
3942.000000	65.316891 
3941.000000	65.300536 
3940.000000	65.268969 
3939.000000	65.226626 
3938.000000	65.178608 
3937.000000	65.128970 
3936.000000	65.081024 
3935.000000	65.035629 
3934.000000	64.991760 
3933.000000	64.947199 
3932.000000	64.899992 
3931.000000	64.849400 
3930.000000	64.796924 
3929.000000	64.746356 
3928.000000	64.703178 
3927.000000	64.673352 
3926.000000	64.661717 
3925.000000	64.670491 
3924.000000	64.698791 
3923.000000	64.742541 
3922.000000	64.795732 
3921.000000	64.851284 
3920.000000	64.903116 
3919.000000	64.947032 
3918.000000	64.981555 
3917.000000	65.007472 
3916.000000	65.027213 
3915.000000	65.043854 
3914.000000	65.060329 
3913.000000	65.078020 
3912.000000	65.097141 
3911.000000	65.117025 
3910.000000	65.136623 
3909.000000	65.155529 
3908.000000	65.173816 
3907.000000	65.192127 
3906.000000	65.211415 
3905.000000	65.232849 
3904.000000	65.256643 
3903.000000	65.281772 
3902.000000	65.306425 
3901.000000	65.327930 
3900.000000	65.343189 
3899.000000	65.349411 
3898.000000	65.344810 
3897.000000	65.329241 
3896.000000	65.304160 
3895.000000	65.272450 
3894.000000	65.238022 
3893.000000	65.204501 
3892.000000	65.174865 
3891.000000	65.150237 
3890.000000	65.129947 
3889.000000	65.111684 
3888.000000	65.092873 
3887.000000	65.071344 
3886.000000	65.046024 
3885.000000	65.018224 
3884.000000	64.991044 
3883.000000	64.969182 
3882.000000	64.957332 
3881.000000	64.959263 
3880.000000	64.976549 
3879.000000	65.008044 
3878.000000	65.049648 
3877.000000	65.095663 
3876.000000	65.140080 
3875.000000	65.177702 
3874.000000	65.205264 
3873.000000	65.221953 
3872.000000	65.229105 
3871.000000	65.229558 
3870.000000	65.226340 
3869.000000	65.221905 
3868.000000	65.217161 
3867.000000	65.211772 
3866.000000	65.204191 
3865.000000	65.192461 
3864.000000	65.175271 
3863.000000	65.152764 
3862.000000	65.127134 
3861.000000	65.102171 
3860.000000	65.082693 
3859.000000	65.073800 
3858.000000	65.079045 
3857.000000	65.099525 
3856.000000	65.132927 
3855.000000	65.174293 
3854.000000	65.216064 
3853.000000	65.249967 
3852.000000	65.268516 
3851.000000	65.266728 
3850.000000	65.243291 
3849.000000	65.201044 
3848.000000	65.146112 
3847.000000	65.086841 
3846.000000	65.032100 
3845.000000	64.989399 
3844.000000	64.963507 
3843.000000	64.955687 
3842.000000	64.964365 
3841.000000	64.985704 
3840.000000	65.014719 
3839.000000	65.046811 
3838.000000	65.078330 
3837.000000	65.107536 
3836.000000	65.134119 
3835.000000	65.159273 
3834.000000	65.184211 
3833.000000	65.210294 
3832.000000	65.238261 
3831.000000	65.267777 
3830.000000	65.297770 
3829.000000	65.326285 
3828.000000	65.351462 
3827.000000	65.371179 
3826.000000	65.383648 
3825.000000	65.387415 
3824.000000	65.381741 
3823.000000	65.366673 
3822.000000	65.343332 
3821.000000	65.313649 
3820.000000	65.280103 
3819.000000	65.245485 
3818.000000	65.212154 
3817.000000	65.181827 
3816.000000	65.155506 
3815.000000	65.133261 
3814.000000	65.114974 
3813.000000	65.100336 
3812.000000	65.089654 
3811.000000	65.083456 
3810.000000	65.083003 
3809.000000	65.089488 
3808.000000	65.104222 
3807.000000	65.127921 
3806.000000	65.160441 
3805.000000	65.200304 
3804.000000	65.244865 
3803.000000	65.290284 
3802.000000	65.332174 
3801.000000	65.366029 
3800.000000	65.387916 
3799.000000	65.395307 
3798.000000	65.387344 
3797.000000	65.365099 
3796.000000	65.331411 
3795.000000	65.290379 
3794.000000	65.246772 
3793.000000	65.205121 
3792.000000	65.168571 
3791.000000	65.138578 
3790.000000	65.114784 
3789.000000	65.095925 
3788.000000	65.080332 
3787.000000	65.067076 
3786.000000	65.056133 
3785.000000	65.048933 
3784.000000	65.047502 
3783.000000	65.054130 
3782.000000	65.069770 
3781.000000	65.094351 
3780.000000	65.126419 
3779.000000	65.163350 
3778.000000	65.201807 
3777.000000	65.238285 
3776.000000	65.269923 
3775.000000	65.294742 
3774.000000	65.311598 
3773.000000	65.320658 
3772.000000	65.322995 
3771.000000	65.320968 
3770.000000	65.317511 
3769.000000	65.316295 
3768.000000	65.320920 
3767.000000	65.334510 
3766.000000	65.359020 
3765.000000	65.394067 
3764.000000	65.436458 
3763.000000	65.480875 
3762.000000	65.520501 
3761.000000	65.548038 
3760.000000	65.557646 
3759.000000	65.546441 
3758.000000	65.514779 
3757.000000	65.466547 
3756.000000	65.407729 
3755.000000	65.345549 
3754.000000	65.286207 
3753.000000	65.234231 
3752.000000	65.191459 
3751.000000	65.157389 
3750.000000	65.129995 
3749.000000	65.106749 
3748.000000	65.085911 
3747.000000	65.067195 
3746.000000	65.052223 
3745.000000	65.043973 
3744.000000	65.045881 
3743.000000	65.060067 
3742.000000	65.087366 
3741.000000	65.126299 
3740.000000	65.173459 
3739.000000	65.223836 
3738.000000	65.272021 
3737.000000	65.313100 
3736.000000	65.343809 
3735.000000	65.362691 
3734.000000	65.370249 
3733.000000	65.368199 
3732.000000	65.359282 
3731.000000	65.346240 
3730.000000	65.331482 
3729.000000	65.316724 
3728.000000	65.303087 
3727.000000	65.291452 
3726.000000	65.282964 
3725.000000	65.278840 
3724.000000	65.280628 
3723.000000	65.289449 
3722.000000	65.305590 
3721.000000	65.327906 
3720.000000	65.353822 
3719.000000	65.379357 
3718.000000	65.399765 
3717.000000	65.410566 
3716.000000	65.408587 
3715.000000	65.392923 
3714.000000	65.365123 
3713.000000	65.329289 
3712.000000	65.291309 
3711.000000	65.257978 
3710.000000	65.235686 
3709.000000	65.229105 
3708.000000	65.240263 
3707.000000	65.268588 
3706.000000	65.310502 
3705.000000	65.360355 
3704.000000	65.410947 
3703.000000	65.455198 
3702.000000	65.486645 
3701.000000	65.500760 
3700.000000	65.495300 
3699.000000	65.470528 
3698.000000	65.429067 
3697.000000	65.375661 
3696.000000	65.316247 
3695.000000	65.257072 
3694.000000	65.203976 
3693.000000	65.161585 
3692.000000	65.133047 
3691.000000	65.119862 
3690.000000	65.121769 
3689.000000	65.136933 
3688.000000	65.162563 
3687.000000	65.195298 
3686.000000	65.231418 
3685.000000	65.267419 
3684.000000	65.300416 
3683.000000	65.328311 
3682.000000	65.349817 
3681.000000	65.364456 
3680.000000	65.372323 
3679.000000	65.373992 
3678.000000	65.370464 
3677.000000	65.363049 
3676.000000	65.353560 
3675.000000	65.343999 
3674.000000	65.336585 
3673.000000	65.333294 
3672.000000	65.335750 
3671.000000	65.344333 
3670.000000	65.358304 
3669.000000	65.375351 
3668.000000	65.392112 
3667.000000	65.404582 
3666.000000	65.409207 
3665.000000	65.403366 
3664.000000	65.386271 
3663.000000	65.359258 
3662.000000	65.325713 
3661.000000	65.290236 
3660.000000	65.257620 
3659.000000	65.231823 
3658.000000	65.215015 
3657.000000	65.207314 
3656.000000	65.206885 
3655.000000	65.210390 
3654.000000	65.213871 
3653.000000	65.213823 
3652.000000	65.208268 
3651.000000	65.196585 
3650.000000	65.180087 
3649.000000	65.161418 
3648.000000	65.144133 
3647.000000	65.131354 
3646.000000	65.125632 
3645.000000	65.127897 
3644.000000	65.137767 
3643.000000	65.153765 
3642.000000	65.173697 
3641.000000	65.195345 
3640.000000	65.216779 
3639.000000	65.236806 
3638.000000	65.254592 
3637.000000	65.269565 
3636.000000	65.281009 
3635.000000	65.287899 
3634.000000	65.288805 
3633.000000	65.282273 
3632.000000	65.267419 
3631.000000	65.244460 
3630.000000	65.214872 
3629.000000	65.181326 
3628.000000	65.147542 
3627.000000	65.117621 
3626.000000	65.094923 
3625.000000	65.081501 
3624.000000	65.077662 
3623.000000	65.082073 
3622.000000	65.092134 
3621.000000	65.104937 
3620.000000	65.117716 
3619.000000	65.128946 
3618.000000	65.138030 
3617.000000	65.145754 
3616.000000	65.153288 
3615.000000	65.161943 
3614.000000	65.172410 
3613.000000	65.184664 
3612.000000	65.197777 
3611.000000	65.210413 
3610.000000	65.221261 
3609.000000	65.229392 
3608.000000	65.234827 
3607.000000	65.238356 
3606.000000	65.241360 
3605.000000	65.245342 
3604.000000	65.251541 
3603.000000	65.260529 
3602.000000	65.271973 
3601.000000	65.285134 
3600.000000	65.298795 
3599.000000	65.311861 
3598.000000	65.323376 
3597.000000	65.333294 
3596.000000	65.341877 
3595.000000	65.349555 
3594.000000	65.356397 
3593.000000	65.362238 
3592.000000	65.366148 
3591.000000	65.366816 
3590.000000	65.362596 
3589.000000	65.352153 
3588.000000	65.334725 
3587.000000	65.310716 
3586.000000	65.281558 
3585.000000	65.249633 
3584.000000	65.218091 
3583.000000	65.190315 
3582.000000	65.169262 
3581.000000	65.156769 
3580.000000	65.153431 
3579.000000	65.158462 
3578.000000	65.169811 
3577.000000	65.184736 
3576.000000	65.200328 
3575.000000	65.214514 
3574.000000	65.226173 
3573.000000	65.235376 
3572.000000	65.243315 
3571.000000	65.251708 
3570.000000	65.262198 
3569.000000	65.275359 
3568.000000	65.290975 
3567.000000	65.307378 
3566.000000	65.322113 
3565.000000	65.332341 
3564.000000	65.335798 
3563.000000	65.331482 
3562.000000	65.319800 
3561.000000	65.302467 
3560.000000	65.282249 
3559.000000	65.261888 
3558.000000	65.243601 
3557.000000	65.228486 
3556.000000	65.216445 
3555.000000	65.206575 
3554.000000	65.197515 
3553.000000	65.188169 
3552.000000	65.178036 
3551.000000	65.167713 
3550.000000	65.158534 
3549.000000	65.152072 
3548.000000	65.149402 
3547.000000	65.150785 
3546.000000	65.155220 
3545.000000	65.160393 
3544.000000	65.163230 
3543.000000	65.160679 
3542.000000	65.150403 
3541.000000	65.131711 
3540.000000	65.105581 
3539.000000	65.074706 
3538.000000	65.042781 
3537.000000	65.013551 
3536.000000	64.989948 
3535.000000	64.973473 
3534.000000	64.963746 
3533.000000	64.958977 
3532.000000	64.956307 
3531.000000	64.952802 
3530.000000	64.946317 
3529.000000	64.936017 
3528.000000	64.922881 
3527.000000	64.909195 
3526.000000	64.898276 
3525.000000	64.893603 
3524.000000	64.898085 
3523.000000	64.913392 
3522.000000	64.939713 
3521.000000	64.975619 
3520.000000	65.018343 
3519.000000	65.064048 
3518.000000	65.108633 
3517.000000	65.148305 
3516.000000	65.179896 
3515.000000	65.201663 
3514.000000	65.213298 
3513.000000	65.215969 
3512.000000	65.212011 
3511.000000	65.204429 
3510.000000	65.196084 
3509.000000	65.189290 
3508.000000	65.185594 
3507.000000	65.185236 
3506.000000	65.187430 
3505.000000	65.190792 
3504.000000	65.193986 
3503.000000	65.195965 
3502.000000	65.196251 
3501.000000	65.194892 
3500.000000	65.192437 
3499.000000	65.189456 
3498.000000	65.186119 
3497.000000	65.182328 
3496.000000	65.177321 
3495.000000	65.170121 
3494.000000	65.159916 
3493.000000	65.146207 
3492.000000	65.128993 
3491.000000	65.109229 
3490.000000	65.088272 
3489.000000	65.067553 
3488.000000	65.048456 
3487.000000	65.032172 
3486.000000	65.019965 
3485.000000	65.012431 
3484.000000	65.010356 
3483.000000	65.014386 
3482.000000	65.025281 
3481.000000	65.043425 
3480.000000	65.068531 
3479.000000	65.099215 
3478.000000	65.133142 
3477.000000	65.167021 
3476.000000	65.197396 
3475.000000	65.221309 
3474.000000	65.237021 
3473.000000	65.244460 
3472.000000	65.245032 
3471.000000	65.241193 
3470.000000	65.235638 
3469.000000	65.230512 
3468.000000	65.226674 
3467.000000	65.223383 
3466.000000	65.218830 
3465.000000	65.210461 
3464.000000	65.196084 
3463.000000	65.174484 
3462.000000	65.146303 
3461.000000	65.113925 
3460.000000	65.080881 
3459.000000	65.051627 
3458.000000	65.030050 
3457.000000	65.018987 
3456.000000	65.019583 
3455.000000	65.030884 
3454.000000	65.050578 
3453.000000	65.074753 
3452.000000	65.099310 
3451.000000	65.120291 
3450.000000	65.134429 
3449.000000	65.139961 
3448.000000	65.136575 
3447.000000	65.125441 
3446.000000	65.108704 
3445.000000	65.089344 
3444.000000	65.070390 
3443.000000	65.054583 
3442.000000	65.043878 
3441.000000	65.039277 
3440.000000	65.040755 
3439.000000	65.047430 
3438.000000	65.058016 
3437.000000	65.070867 
3436.000000	65.084576 
3435.000000	65.098237 
3434.000000	65.111422 
3433.000000	65.123915 
3432.000000	65.135693 
3431.000000	65.146660 
3430.000000	65.156531 
3429.000000	65.164446 
3428.000000	65.169429 
3427.000000	65.170693 
3426.000000	65.167593 
3425.000000	65.160179 
3424.000000	65.149116 
3423.000000	65.135765 
3422.000000	65.122032 
3421.000000	65.110015 
3420.000000	65.101456 
3419.000000	65.097570 
3418.000000	65.098714 
3417.000000	65.104436 
3416.000000	65.113687 
3415.000000	65.125226 
3414.000000	65.137958 
3413.000000	65.151119 
3412.000000	65.164542 
3411.000000	65.178465 
3410.000000	65.193486 
3409.000000	65.210080 
3408.000000	65.228295 
3407.000000	65.247392 
3406.000000	65.266036 
3405.000000	65.282392 
3404.000000	65.294694 
3403.000000	65.301561 
3402.000000	65.302610 
3401.000000	65.298295 
3400.000000	65.289998 
3399.000000	65.279316 
3398.000000	65.267729 
3397.000000	65.255951 
3396.000000	65.243887 
3395.000000	65.230965 
3394.000000	65.216779 
3393.000000	65.201520 
3392.000000	65.186285 
3391.000000	65.173196 
3390.000000	65.164875 
3389.000000	65.163731 
3388.000000	65.171074 
3387.000000	65.186190 
3386.000000	65.206360 
3385.000000	65.227007 
3384.000000	65.243005 
3383.000000	65.249872 
3382.000000	65.245151 
3381.000000	65.228867 
3380.000000	65.204024 
3379.000000	65.175652 
3378.000000	65.149807 
3377.000000	65.131926 
3376.000000	65.125536 
3375.000000	65.131831 
3374.000000	65.149188 
3373.000000	65.173864 
3372.000000	65.200614 
3371.000000	65.224123 
3370.000000	65.239834 
3369.000000	65.244698 
3368.000000	65.237975 
3367.000000	65.220689 
3366.000000	65.195989 
3365.000000	65.168094 
3364.000000	65.142059 
3363.000000	65.122413 
3362.000000	65.113043 
3361.000000	65.116214 
3360.000000	65.132093 
3359.000000	65.158510 
3358.000000	65.191340 
3357.000000	65.225267 
3356.000000	65.254831 
3355.000000	65.275549 
3354.000000	65.284490 
3353.000000	65.281128 
3352.000000	65.266919 
3351.000000	65.245032 
3350.000000	65.219426 
3349.000000	65.193819 
3348.000000	65.171194 
3347.000000	65.153288 
3346.000000	65.140700 
3345.000000	65.132975 
3344.000000	65.129446 
3343.000000	65.129303 
3342.000000	65.132093 
3341.000000	65.137815 
3340.000000	65.146803 
3339.000000	65.159511 
3338.000000	65.175867 
3337.000000	65.195584 
3336.000000	65.217614 
3335.000000	65.240597 
3334.000000	65.262770 
3333.000000	65.282082 
3332.000000	65.296363 
3331.000000	65.303850 
3330.000000	65.303206 
3329.000000	65.293741 
3328.000000	65.275573 
3327.000000	65.250015 
3326.000000	65.219235 
3325.000000	65.186548 
3324.000000	65.155291 
3323.000000	65.128779 
3322.000000	65.108990 
3321.000000	65.096497 
3320.000000	65.090179 
3319.000000	65.087389 
3318.000000	65.084958 
3317.000000	65.080022 
3316.000000	65.071058 
3315.000000	65.058279 
3314.000000	65.043807 
3313.000000	65.030646 
3312.000000	65.022206 
3311.000000	65.020775 
3310.000000	65.027070 
3309.000000	65.039920 
3308.000000	65.056753 
3307.000000	65.074300 
3306.000000	65.089559 
3305.000000	65.100479 
3304.000000	65.106678 
3303.000000	65.109348 
3302.000000	65.110516 
3301.000000	65.112423 
3300.000000	65.116643 
3299.000000	65.123438 
3298.000000	65.131759 
3297.000000	65.139341 
3296.000000	65.144085 
3295.000000	65.143918 
3294.000000	65.138196 
3293.000000	65.127229 
3292.000000	65.112614 
3291.000000	65.096354 
3290.000000	65.080428 
3289.000000	65.066123 
3288.000000	65.053701 
3287.000000	65.042901 
3286.000000	65.033102 
3285.000000	65.024209 
3284.000000	65.016794 
3283.000000	65.012454 
3282.000000	65.013480 
3281.000000	65.022063 
3280.000000	65.039753 
3279.000000	65.066647 
3278.000000	65.101146 
3277.000000	65.140032 
3276.000000	65.179228 
3275.000000	65.215015 
3274.000000	65.244698 
3273.000000	65.267348 
3272.000000	65.283417 
3271.000000	65.294885 
3270.000000	65.303969 
3269.000000	65.312314 
3268.000000	65.320181 
3267.000000	65.326571 
3266.000000	65.328955 
3265.000000	65.324449 
3264.000000	65.310406 
3263.000000	65.285682 
3262.000000	65.250802 
3261.000000	65.208315 
3260.000000	65.162420 
3259.000000	65.118074 
3258.000000	65.080380 
3257.000000	65.053486 
3256.000000	65.040183 
3255.000000	65.041255 
3254.000000	65.055799 
3253.000000	65.081191 
3252.000000	65.113592 
3251.000000	65.148401 
3250.000000	65.180802 
3249.000000	65.206527 
3248.000000	65.222358 
3247.000000	65.226578 
3246.000000	65.219044 
3245.000000	65.200996 
3244.000000	65.175056 
3243.000000	65.144181 
3242.000000	65.111422 
3241.000000	65.079021 
3240.000000	65.048646 
3239.000000	65.021133 
3238.000000	64.996719 
3237.000000	64.975500 
3236.000000	64.957451 
3235.000000	64.943361 
3234.000000	64.934206 
3233.000000	64.931654 
3232.000000	64.937329 
3231.000000	64.952683 
3230.000000	64.978146 
3229.000000	65.013027 
3228.000000	65.055060 
3227.000000	65.100860 
3226.000000	65.146112 
3225.000000	65.186119 
3224.000000	65.216803 
3223.000000	65.234971 
3222.000000	65.239000 
3221.000000	65.229177 
3220.000000	65.207505 
3219.000000	65.177273 
3218.000000	65.142655 
3217.000000	65.108180 
3216.000000	65.078043 
3215.000000	65.055751 
3214.000000	65.043425 
3213.000000	65.041685 
3212.000000	65.049815 
3211.000000	65.066027 
3210.000000	65.087747 
3209.000000	65.111970 
3208.000000	65.135979 
3207.000000	65.157675 
3206.000000	65.175819 
3205.000000	65.189790 
3204.000000	65.199565 
3203.000000	65.205407 
3202.000000	65.207290 
3201.000000	65.204739 
3200.000000	65.196704 
3199.000000	65.181994 
3198.000000	65.159440 
3197.000000	65.128684 
3196.000000	65.090465 
3195.000000	65.046763 
3194.000000	65.001106 
3193.000000	64.957714 
3192.000000	64.920949 
3191.000000	64.894533 
3190.000000	64.880585 
3189.000000	64.879584 
3188.000000	64.890122 
3187.000000	64.909553 
3186.000000	64.934396 
3185.000000	64.961433 
3184.000000	64.988064 
3183.000000	65.013051 
3182.000000	65.036058 
3181.000000	65.057682 
3180.000000	65.078544 
3179.000000	65.099215 
3178.000000	65.119719 
3177.000000	65.139508 
3176.000000	65.157461 
3175.000000	65.172410 
3174.000000	65.183424 
3173.000000	65.190052 
3172.000000	65.192508 
3171.000000	65.191340 
3170.000000	65.187311 
3169.000000	65.181303 
3168.000000	65.174102 
3167.000000	65.166521 
3166.000000	65.159320 
3165.000000	65.153717 
3164.000000	65.150880 
3163.000000	65.151906 
3162.000000	65.157246 
3161.000000	65.166878 
3160.000000	65.179610 
3159.000000	65.193438 
3158.000000	65.205264 
3157.000000	65.211939 
3156.000000	65.210390 
3155.000000	65.198779 
3154.000000	65.176534 
3153.000000	65.144491 
3152.000000	65.104866 
3151.000000	65.060997 
3150.000000	65.016698 
3149.000000	64.975571 
3148.000000	64.940881 
3147.000000	64.915132 
3146.000000	64.899921 
3145.000000	64.895796 
3144.000000	64.902186 
3143.000000	64.917731 
3142.000000	64.940118 
3141.000000	64.966726 
3140.000000	64.994883 
3139.000000	65.022516 
3138.000000	65.048384 
3137.000000	65.072202 
3136.000000	65.094280 
3135.000000	65.114879 
3134.000000	65.134382 
3133.000000	65.151953 
3132.000000	65.165901 
3131.000000	65.173554 
3130.000000	65.172100 
3129.000000	65.159440 
3128.000000	65.134978 
3127.000000	65.100312 
3126.000000	65.059375 
3125.000000	65.017747 
3124.000000	64.981818 
3123.000000	64.957427 
3122.000000	64.948320 
3121.000000	64.955639 
3120.000000	64.977645 
3119.000000	65.010094 
3118.000000	65.047526 
3117.000000	65.084123 
3116.000000	65.115261 
3115.000000	65.138101 
3114.000000	65.152072 
3113.000000	65.158534 
3112.000000	65.160250 
3111.000000	65.160250 
3110.000000	65.161418 
3109.000000	65.165829 
3108.000000	65.174341 
3107.000000	65.186929 
3106.000000	65.202450 
3105.000000	65.219879 
3104.000000	65.237641 
3103.000000	65.254569 
3102.000000	65.269255 
3101.000000	65.280628 
3100.000000	65.287661 
3099.000000	65.289616 
3098.000000	65.285801 
3097.000000	65.276002 
3096.000000	65.260314 
3095.000000	65.239548 
3094.000000	65.214681 
3093.000000	65.186858 
3092.000000	65.157413 
3091.000000	65.127921 
3090.000000	65.099859 
3089.000000	65.074872 
3088.000000	65.054774 
3087.000000	65.041184 
3086.000000	65.035510 
3085.000000	65.038394 
3084.000000	65.049457 
3083.000000	65.066933 
3082.000000	65.087771 
3081.000000	65.108442 
3080.000000	65.124845 
3079.000000	65.133857 
3078.000000	65.133643 
3077.000000	65.124464 
3076.000000	65.108275 
3075.000000	65.088653 
3074.000000	65.069770 
3073.000000	65.055441 
3072.000000	65.048217 
3071.000000	65.048909 
3070.000000	65.056610 
3069.000000	65.068864 
3068.000000	65.082597 
3067.000000	65.094900 
3066.000000	65.103840 
3065.000000	65.108847 
3064.000000	65.110635 
3063.000000	65.111017 
3062.000000	65.112352 
3061.000000	65.116906 
3060.000000	65.126085 
3059.000000	65.140438 
3058.000000	65.159082 
3057.000000	65.180230 
3056.000000	65.201354 
3055.000000	65.219640 
3054.000000	65.232276 
3053.000000	65.237164 
3052.000000	65.233254 
3051.000000	65.220785 
3050.000000	65.201282 
3049.000000	65.177488 
3048.000000	65.152692 
3047.000000	65.130400 
3046.000000	65.113282 
3045.000000	65.102910 
3044.000000	65.098977 
3043.000000	65.099573 
3042.000000	65.101575 
3041.000000	65.101361 
3040.000000	65.095686 
3039.000000	65.082573 
3038.000000	65.061926 
3037.000000	65.035533 
3036.000000	65.006589 
3035.000000	64.978861 
3034.000000	64.955854 
3033.000000	64.939785 
3032.000000	64.931344 
3031.000000	64.929485 
3030.000000	64.932012 
3029.000000	64.936256 
3028.000000	64.939880 
3027.000000	64.941644 
3026.000000	64.941167 
3025.000000	64.939498 
3024.000000	64.938020 
3023.000000	64.938259 
3022.000000	64.941167 
3021.000000	64.946722 
3020.000000	64.953923 
3019.000000	64.961409 
3018.000000	64.967656 
3017.000000	64.971685 
3016.000000	64.973378 
3015.000000	64.973783 
3014.000000	64.974808 
3013.000000	64.978861 
3012.000000	64.988183 
3011.000000	65.004396 
3010.000000	65.028023 
3009.000000	65.058469 
3008.000000	65.093922 
3007.000000	65.131878 
3006.000000	65.169334 
3005.000000	65.203094 
3004.000000	65.230369 
3003.000000	65.249109 
3002.000000	65.258359 
3001.000000	65.258240 
3000.000000	65.249943 
2999.000000	65.235781 
2998.000000	65.218663 
2997.000000	65.201950 
2996.000000	65.188264 
2995.000000	65.179634 
2994.000000	65.176463 
2993.000000	65.178155 
2992.000000	65.182805 
2991.000000	65.187978 
2990.000000	65.191364 
2989.000000	65.191435 
2988.000000	65.187931 
2987.000000	65.181589 
2986.000000	65.173816 
2985.000000	65.166211 
2984.000000	65.159749 
2983.000000	65.154600 
2982.000000	65.150213 
2981.000000	65.145516 
2980.000000	65.139508 
2979.000000	65.131640 
2978.000000	65.122151 
2977.000000	65.111851 
2976.000000	65.101838 
2975.000000	65.092992 
2974.000000	65.085649 
2973.000000	65.079545 
2972.000000	65.073585 
2971.000000	65.066242 
2970.000000	65.056395 
2969.000000	65.043330 
2968.000000	65.027523 
2967.000000	65.010118 
2966.000000	64.992713 
2965.000000	64.977002 
2964.000000	64.964175 
2963.000000	64.954876 
2962.000000	64.949226 
2961.000000	64.947223 
2960.000000	64.948725 
2959.000000	64.953851 
2958.000000	64.962840 
2957.000000	64.975929 
2956.000000	64.993190 
2955.000000	65.013980 
2954.000000	65.036797 
2953.000000	65.059518 
2952.000000	65.079331 
2951.000000	65.093088 
2950.000000	65.098166 
2949.000000	65.092682 
2948.000000	65.076446 
2947.000000	65.050983 
2946.000000	65.019345 
2945.000000	64.985871 
2944.000000	64.955306 
2943.000000	64.931893 
2942.000000	64.918375 
2941.000000	64.915823 
2940.000000	64.923143 
2939.000000	64.937353 
2938.000000	64.954566 
2937.000000	64.970517 
2936.000000	64.982104 
2935.000000	64.987564 
2934.000000	64.987421 
2933.000000	64.983868 
2932.000000	64.980196 
2931.000000	64.979958 
2930.000000	64.985895 
2929.000000	64.999175 
2928.000000	65.019369 
2927.000000	65.044426 
2926.000000	65.071249 
2925.000000	65.096402 
2924.000000	65.116906 
2923.000000	65.130877 
2922.000000	65.137600 
2921.000000	65.137743 
2920.000000	65.132927 
2919.000000	65.125441 
2918.000000	65.117716 
2917.000000	65.111708 
2916.000000	65.108466 
2915.000000	65.108251 
2914.000000	65.110588 
2913.000000	65.114474 
2912.000000	65.118837 
2911.000000	65.122866 
2910.000000	65.126371 
2909.000000	65.129780 
2908.000000	65.134119 
2907.000000	65.140604 
2906.000000	65.150141 
2905.000000	65.162992 
2904.000000	65.178537 
2903.000000	65.195155 
2902.000000	65.210342 
2901.000000	65.221381 
2900.000000	65.225768 
2899.000000	65.221929 
2898.000000	65.209507 
2897.000000	65.189456 
2896.000000	65.164279 
2895.000000	65.137076 
2894.000000	65.111327 
2893.000000	65.090394 
2892.000000	65.076804 
2891.000000	65.071892 
2890.000000	65.075278 
2889.000000	65.085506 
2888.000000	65.099883 
2887.000000	65.115070 
2886.000000	65.127801 
2885.000000	65.135335 
2884.000000	65.136122 
2883.000000	65.129828 
2882.000000	65.117526 
2881.000000	65.101504 
2880.000000	65.084791 
2879.000000	65.070271 
2878.000000	65.060710 
2877.000000	65.057826 
2876.000000	65.062355 
2875.000000	65.073728 
2874.000000	65.090417 
2873.000000	65.110039 
2872.000000	65.129899 
2871.000000	65.147471 
2870.000000	65.160346 
2869.000000	65.166735 
2868.000000	65.165591 
2867.000000	65.156745 
2866.000000	65.140724 
2865.000000	65.118932 
2864.000000	65.093564 
2863.000000	65.067148 
2862.000000	65.042424 
2861.000000	65.021634 
2860.000000	65.006542 
2859.000000	64.997792 
2858.000000	64.994859 
2857.000000	64.995861 
2856.000000	64.998054 
2855.000000	64.998412 
2854.000000	64.994263 
2853.000000	64.983773 
2852.000000	64.966440 
2851.000000	64.943480 
2850.000000	64.917469 
2849.000000	64.892005 
2848.000000	64.870953 
2847.000000	64.857697 
2846.000000	64.854335 
2845.000000	64.861607 
2844.000000	64.878582 
2843.000000	64.902949 
2842.000000	64.931750 
2841.000000	64.961504 
2840.000000	64.989399 
2839.000000	65.013074 
2838.000000	65.031599 
2837.000000	65.044713 
2836.000000	65.053272 
2835.000000	65.058445 
2834.000000	65.061569 
2833.000000	65.064120 
2832.000000	65.067005 
2831.000000	65.070581 
2830.000000	65.074276 
2829.000000	65.077424 
2828.000000	65.078544 
2827.000000	65.076208 
2826.000000	65.068936 
2825.000000	65.055918 
2824.000000	65.037298 
2823.000000	65.014219 
2822.000000	64.988756 
2821.000000	64.963698 
2820.000000	64.942002 
2819.000000	64.926099 
2818.000000	64.917540 
2817.000000	64.916682 
2816.000000	64.922642 
2815.000000	64.933824 
2814.000000	64.948105 
2813.000000	64.963555 
2812.000000	64.978718 
2811.000000	64.993309 
2810.000000	65.007257 
2809.000000	65.021443 
2808.000000	65.036749 
2807.000000	65.054035 
2806.000000	65.073561 
2805.000000	65.094852 
2804.000000	65.116834 
2803.000000	65.137982 
2802.000000	65.156745 
2801.000000	65.171694 
2800.000000	65.181827 
2799.000000	65.186691 
2798.000000	65.186643 
2797.000000	65.182614 
2796.000000	65.175867 
2795.000000	65.167903 
2794.000000	65.160107 
2793.000000	65.153312 
2792.000000	65.147638 
2791.000000	65.142583 
2790.000000	65.137052 
2789.000000	65.129852 
2788.000000	65.119719 
2787.000000	65.106153 
2786.000000	65.089297 
2785.000000	65.070128 
2784.000000	65.050482 
2783.000000	65.032386 
2782.000000	65.018057 
2781.000000	65.009546 
2780.000000	65.008330 
2779.000000	65.014934 
2778.000000	65.029001 
2777.000000	65.049386 
2776.000000	65.074253 
2775.000000	65.101361 
2774.000000	65.128469 
2773.000000	65.153598 
2772.000000	65.175318 
2771.000000	65.192818 
2770.000000	65.205883 
2769.000000	65.214848 
2768.000000	65.220403 
2767.000000	65.223193 
2766.000000	65.223789 
2765.000000	65.222549 
2764.000000	65.219640 
2763.000000	65.215086 
2762.000000	65.209007 
2761.000000	65.201640 
2760.000000	65.193510 
2759.000000	65.185403 
2758.000000	65.178012 
2757.000000	65.171933 
2756.000000	65.167474 
2755.000000	65.164804 
2754.000000	65.163683 
2753.000000	65.163826 
2752.000000	65.164971 
2751.000000	65.167093 
2750.000000	65.170192 
2749.000000	65.174341 
2748.000000	65.179634 
2747.000000	65.185737 
2746.000000	65.192055 
2745.000000	65.197634 
2744.000000	65.201187 
2743.000000	65.201401 
2742.000000	65.197229 
2741.000000	65.188121 
2740.000000	65.174031 
2739.000000	65.155792 
2738.000000	65.134882 
2737.000000	65.113115 
2736.000000	65.092515 
2735.000000	65.074944 
2734.000000	65.062022 
2733.000000	65.054821 
2732.000000	65.053796 
2731.000000	65.058994 
2730.000000	65.069937 
2729.000000	65.085697 
2728.000000	65.105128 
2727.000000	65.126633 
2726.000000	65.148711 
2725.000000	65.169501 
2724.000000	65.187430 
2723.000000	65.201139 
2722.000000	65.209627 
2721.000000	65.212392 
2720.000000	65.209674 
2719.000000	65.202093 
2718.000000	65.190792 
2717.000000	65.177083 
2716.000000	65.162229 
2715.000000	65.147447 
2714.000000	65.133643 
2713.000000	65.121555 
2712.000000	65.111732 
2711.000000	65.104722 
2710.000000	65.100836 
2709.000000	65.100336 
2708.000000	65.103030 
2707.000000	65.108346 
2706.000000	65.115189 
2705.000000	65.122270 
2704.000000	65.128087 
2703.000000	65.131258 
2702.000000	65.131020 
2701.000000	65.127158 
2700.000000	65.120029 
2699.000000	65.110468 
2698.000000	65.099549 
2697.000000	65.088319 
2696.000000	65.077614 
2695.000000	65.068173 
2694.000000	65.060353 
2693.000000	65.054345 
2692.000000	65.050220 
2691.000000	65.047836 
2690.000000	65.047073 
2689.000000	65.047597 
2688.000000	65.048742 
2687.000000	65.049576 
2686.000000	65.049195 
2685.000000	65.046715 
2684.000000	65.041732 
2683.000000	65.034389 
2682.000000	65.025424 
2681.000000	65.016031 
2680.000000	65.007495 
2679.000000	65.001034 
2678.000000	64.997553 
2677.000000	64.997315 
2676.000000	65.000057 
2675.000000	65.004944 
2674.000000	65.010905 
2673.000000	65.016603 
2672.000000	65.020895 
2671.000000	65.022802 
2670.000000	65.021944 
2669.000000	65.018343 
2668.000000	65.013003 
2667.000000	65.007257 
2666.000000	65.002965 
2665.000000	65.002012 
2664.000000	65.005850 
2663.000000	65.015411 
2662.000000	65.030527 
2661.000000	65.049934 
2660.000000	65.071511 
2659.000000	65.092539 
2658.000000	65.110301 
2657.000000	65.122723 
2656.000000	65.128707 
2655.000000	65.128421 
2654.000000	65.122985 
2653.000000	65.114116 
2652.000000	65.103888 
2651.000000	65.094017 
2650.000000	65.085625 
2649.000000	65.079092 
2648.000000	65.074157 
2647.000000	65.070128 
2646.000000	65.066242 
2645.000000	65.061855 
2644.000000	65.056800 
2643.000000	65.051102 
2642.000000	65.045285 
2641.000000	65.039992 
2640.000000	65.035772 
2639.000000	65.033173 
2638.000000	65.032434 
2637.000000	65.033578 
2636.000000	65.036368 
2635.000000	65.040349 
2634.000000	65.044808 
2633.000000	65.049147 
2632.000000	65.052771 
2631.000000	65.055394 
2630.000000	65.057134 
2629.000000	65.058374 
2628.000000	65.059781 
2627.000000	65.062022 
2626.000000	65.065360 
2625.000000	65.069627 
2624.000000	65.073943 
2623.000000	65.076851 
2622.000000	65.076804 
2621.000000	65.072393 
2620.000000	65.062785 
2619.000000	65.047955 
2618.000000	65.028762 
2617.000000	65.006995 
2616.000000	64.984726 
2615.000000	64.964032 
2614.000000	64.946293 
2613.000000	64.932250 
2612.000000	64.921808 
2611.000000	64.914321 
2610.000000	64.908885 
2609.000000	64.904808 
2608.000000	64.901947 
2607.000000	64.900732 
2606.000000	64.901876 
2605.000000	64.905929 
2604.000000	64.913105 
2603.000000	64.922761 
2602.000000	64.933466 
2601.000000	64.943242 
2600.000000	64.949798 
2599.000000	64.951419 
2598.000000	64.947223 
2597.000000	64.937543 
2596.000000	64.923858 
2595.000000	64.908480 
2594.000000	64.893889 
2593.000000	64.882445 
2592.000000	64.875841 
2591.000000	64.874792 
2590.000000	64.879226 
2589.000000	64.888167 
2588.000000	64.900207 
2587.000000	64.913892 
2586.000000	64.927816 
2585.000000	64.940881 
2584.000000	64.952015 
2583.000000	64.960455 
2582.000000	64.965701 
2581.000000	64.967131 
2580.000000	64.964413 
2579.000000	64.957618 
2578.000000	64.947295 
2577.000000	64.934563 
2576.000000	64.920973 
2575.000000	64.908456 
2574.000000	64.898920 
2573.000000	64.893841 
2572.000000	64.894008 
2571.000000	64.899253 
2570.000000	64.908576 
2569.000000	64.920210 
2568.000000	64.932060 
2567.000000	64.942145 
2566.000000	64.948940 
2565.000000	64.951634 
2564.000000	64.950203 
2563.000000	64.945316 
2562.000000	64.938211 
2561.000000	64.930176 
2560.000000	64.922499 
2559.000000	64.916062 
2558.000000	64.911270 
2557.000000	64.908242 
2556.000000	64.906716 
2555.000000	64.906334 
2554.000000	64.906859 
2553.000000	64.908218 
2552.000000	64.910578 
2551.000000	64.914155 
2550.000000	64.919161 
2549.000000	64.925742 
2548.000000	64.933609 
2547.000000	64.942407 
2546.000000	64.951324 
2545.000000	64.959597 
2544.000000	64.966440 
2543.000000	64.971542 
2542.000000	64.975023 
2541.000000	64.977407 
2540.000000	64.979648 
2539.000000	64.982581 
2538.000000	64.986896 
2537.000000	64.992475 
2536.000000	64.998745 
2535.000000	65.004587 
2534.000000	65.008997 
2533.000000	65.011096 
2532.000000	65.010666 
2531.000000	65.008187 
2530.000000	65.004563 
2529.000000	65.001058 
2528.000000	64.998674 
2527.000000	64.997982 
2526.000000	64.998936 
2525.000000	65.000939 
2524.000000	65.002965 
2523.000000	65.003848 
2522.000000	65.002608 
2521.000000	64.998626 
2520.000000	64.991831 
2519.000000	64.982652 
2518.000000	64.971876 
2517.000000	64.960432 
2516.000000	64.949297 
2515.000000	64.939332 
2514.000000	64.931201 
2513.000000	64.925384 
2512.000000	64.922094 
2511.000000	64.921140 
2510.000000	64.922213 
2509.000000	64.924645 
2508.000000	64.927840 
2507.000000	64.931035 
2506.000000	64.933705 
2505.000000	64.935398 
2504.000000	64.935970 
2503.000000	64.935517 
2502.000000	64.934158 
2501.000000	64.932060 
2500.000000	64.929318 
2499.000000	64.926004 
2498.000000	64.922094 
2497.000000	64.917612 
2496.000000	64.912486 
2495.000000	64.906835 
2494.000000	64.900827 
2493.000000	64.894771 
2492.000000	64.888906 
2491.000000	64.883446 
2490.000000	64.878368 
2489.000000	64.873743 
2488.000000	64.869642 
2487.000000	64.866471 
2486.000000	64.864730 
2485.000000	64.864993 
2484.000000	64.867901 
2483.000000	64.873862 
2482.000000	64.882826 
2481.000000	64.894151 
2480.000000	64.906573 
2479.000000	64.918446 
2478.000000	64.927983 
2477.000000	64.933562 
2476.000000	64.934039 
2475.000000	64.929175 
2474.000000	64.919638 
2473.000000	64.907026 
2472.000000	64.893412 
2471.000000	64.881253 
2470.000000	64.872884 
2469.000000	64.869976 
2468.000000	64.873290 
2467.000000	64.882469 
2466.000000	64.895963 
2465.000000	64.911222 
2464.000000	64.925050 
2463.000000	64.934158 
2462.000000	64.935994 
2461.000000	64.928936 
2460.000000	64.913129 
2459.000000	64.890027 
2458.000000	64.862561 
2457.000000	64.834403 
2456.000000	64.809179 
2455.000000	64.789891 
2454.000000	64.778304 
2453.000000	64.774870 
2452.000000	64.778780 
2451.000000	64.788556 
2450.000000	64.802479 
2449.000000	64.819097 
2448.000000	64.837765 
2447.000000	64.858412 
2446.000000	64.881181 
2445.000000	64.906024 
2444.000000	64.932394 
2443.000000	64.958858 
2442.000000	64.983415 
2441.000000	65.003705 
2440.000000	65.017843 
2439.000000	65.024781 
2438.000000	65.024733 
2437.000000	65.018773 
2436.000000	65.008831 
2435.000000	64.996862 
2434.000000	64.984226 
2433.000000	64.971303 
2432.000000	64.957475 
2431.000000	64.941382 
2430.000000	64.921832 
2429.000000	64.898443 
2428.000000	64.872097 
2427.000000	64.845418 
2426.000000	64.822030 
2425.000000	64.806270 
2424.000000	64.801883 
2423.000000	64.811444 
2422.000000	64.835333 
2421.000000	64.871788 
2420.000000	64.916992 
2419.000000	64.965915 
2418.000000	65.013265 
2417.000000	65.054345 
2416.000000	65.085768 
2415.000000	65.106010 
2414.000000	65.115284 
2413.000000	65.115284 
2412.000000	65.108370 
2411.000000	65.097093 
2410.000000	65.083575 
2409.000000	65.069246 
2408.000000	65.054392 
2407.000000	65.038728 
2406.000000	65.021419 
2405.000000	65.001773 
2404.000000	64.979434 
2403.000000	64.954924 
2402.000000	64.929604 
2401.000000	64.905381 
2400.000000	64.884710 
2399.000000	64.869618 
2398.000000	64.861726 
2397.000000	64.861512 
2396.000000	64.868378 
2395.000000	64.880728 
2394.000000	64.896440 
2393.000000	64.913177 
2392.000000	64.928936 
2391.000000	64.942359 
2390.000000	64.952898 
2389.000000	64.960598 
2388.000000	64.966082 
2387.000000	64.970207 
2386.000000	64.973640 
2385.000000	64.976477 
2384.000000	64.978504 
2383.000000	64.979100 
2382.000000	64.977622 
2381.000000	64.973473 
2380.000000	64.966416 
2379.000000	64.956712 
2378.000000	64.945244 
2377.000000	64.933133 
2376.000000	64.921641 
2375.000000	64.911842 
2374.000000	64.904427 
2373.000000	64.899587 
2372.000000	64.896869 
2371.000000	64.895319 
2370.000000	64.893937 
2369.000000	64.891791 
2368.000000	64.888262 
2367.000000	64.883232 
2366.000000	64.877200 
2365.000000	64.871215 
2364.000000	64.866495 
2363.000000	64.864277 
2362.000000	64.865446 
2361.000000	64.870452 
2360.000000	64.879274 
2359.000000	64.891195 
2358.000000	64.904952 
2357.000000	64.918923 
2356.000000	64.931583 
2355.000000	64.941430 
2354.000000	64.947628 
2353.000000	64.949750 
2352.000000	64.948177 
2351.000000	64.943861 
2350.000000	64.938402 
2349.000000	64.933514 
2348.000000	64.930677 
2347.000000	64.931154 
2346.000000	64.935445 
2345.000000	64.943408 
2344.000000	64.954328 
2343.000000	64.966964 
2342.000000	64.979934 
2341.000000	64.992141 
2340.000000	65.002584 
2339.000000	65.010666 
2338.000000	65.015864 
2337.000000	65.017700 
2336.000000	65.015673 
2335.000000	65.009236 
2334.000000	64.997863 
2333.000000	64.981532 
2332.000000	64.960885 
2331.000000	64.937448 
2330.000000	64.913654 
2329.000000	64.892673 
2328.000000	64.877653 
2327.000000	64.871263 
2326.000000	64.875030 
2325.000000	64.888858 
2324.000000	64.910912 
2323.000000	64.937949 
2322.000000	64.965939 
2321.000000	64.990687 
2320.000000	65.008783 
2319.000000	65.017843 
2318.000000	65.016889 
2317.000000	65.006256 
2316.000000	64.987468 
2315.000000	64.962625 
2314.000000	64.934158 
2313.000000	64.904475 
2312.000000	64.875793 
2311.000000	64.850044 
2310.000000	64.828777 
2309.000000	64.813256 
2308.000000	64.804244 
2307.000000	64.801812 
2306.000000	64.805507 
2305.000000	64.814162 
2304.000000	64.826059 
2303.000000	64.839124 
2302.000000	64.851498 
2301.000000	64.861607 
2300.000000	64.868569 
2299.000000	64.872074 
2298.000000	64.872622 
2297.000000	64.871096 
2296.000000	64.868712 
2295.000000	64.866781 
2294.000000	64.866614 
2293.000000	64.869332 
2292.000000	64.875555 
2291.000000	64.885592 
2290.000000	64.899277 
2289.000000	64.915895 
2288.000000	64.934325 
2287.000000	64.952969 
2286.000000	64.970135 
2285.000000	64.984273 
2284.000000	64.994072 
2283.000000	64.998745 
2282.000000	64.998197 
2281.000000	64.993000 
2280.000000	64.984250 
2279.000000	64.973282 
2278.000000	64.961338 
2277.000000	64.949488 
2276.000000	64.938354 
2275.000000	64.928078 
2274.000000	64.918422 
2273.000000	64.908957 
2272.000000	64.899253 
2271.000000	64.889216 
2270.000000	64.878916 
2269.000000	64.868783 
2268.000000	64.859461 
2267.000000	64.851856 
2266.000000	64.846658 
2265.000000	64.844560 
2264.000000	64.845943 
2263.000000	64.850997 
2262.000000	64.859580 
2261.000000	64.871358 
2260.000000	64.885711 
2259.000000	64.901733 
2258.000000	64.918184 
2257.000000	64.933347 
2256.000000	64.945530 
2255.000000	64.952874 
2254.000000	64.953899 
2253.000000	64.947938 
2252.000000	64.935183 
2251.000000	64.916896 
2250.000000	64.895296 
2249.000000	64.873003 
2248.000000	64.852547 
2247.000000	64.836001 
2246.000000	64.824509 
2245.000000	64.818024 
2244.000000	64.815926 
2243.000000	64.816999 
2242.000000	64.820265 
2241.000000	64.825010 
2240.000000	64.831423 
2239.000000	64.840054 
2238.000000	64.851927 
2237.000000	64.867758 
2236.000000	64.887523 
2235.000000	64.910364 
2234.000000	64.934134 
2233.000000	64.955949 
2232.000000	64.972662 
2231.000000	64.981603 
2230.000000	64.981031 
2229.000000	64.970493 
2228.000000	64.951086 
2227.000000	64.925193 
2226.000000	64.895987 
2225.000000	64.867043 
2224.000000	64.841485 
2223.000000	64.821529 
2222.000000	64.808416 
2221.000000	64.801955 
2220.000000	64.801168 
2219.000000	64.804434 
2218.000000	64.810061 
2217.000000	64.816737 
2216.000000	64.823532 
2215.000000	64.830088 
2214.000000	64.836215 
2213.000000	64.842009 
2212.000000	64.847278 
2211.000000	64.851903 
2210.000000	64.855742 
2209.000000	64.858889 
2208.000000	64.861679 
2207.000000	64.864873 
2206.000000	64.869594 
2205.000000	64.876985 
2204.000000	64.887833 
2203.000000	64.902162 
2202.000000	64.919209 
2201.000000	64.937233 
2200.000000	64.953827 
2199.000000	64.966416 
2198.000000	64.972901 
2197.000000	64.972043 
2196.000000	64.963698 
2195.000000	64.948868 
2194.000000	64.929270 
2193.000000	64.907336 
2192.000000	64.885473 
2191.000000	64.866018 
2190.000000	64.850497 
2189.000000	64.840269 
2188.000000	64.835739 
2187.000000	64.836812 
2186.000000	64.842486 
2185.000000	64.851236 
2184.000000	64.861130 
2183.000000	64.869976 
2182.000000	64.875555 
2181.000000	64.876008 
2180.000000	64.870142 
2179.000000	64.857649 
2178.000000	64.839220 
2177.000000	64.816260 
2176.000000	64.790892 
2175.000000	64.765381 
2174.000000	64.741754 
2173.000000	64.721512 
2172.000000	64.705443 
2171.000000	64.693689 
2170.000000	64.685654 
2169.000000	64.680457 
2168.000000	64.677166 
2167.000000	64.675188 
2166.000000	64.674043 
2165.000000	64.673757 
2164.000000	64.674687 
2163.000000	64.677429 
2162.000000	64.682555 
2161.000000	64.690423 
2160.000000	64.700722 
2159.000000	64.712595 
2158.000000	64.724707 
2157.000000	64.735412 
2156.000000	64.742922 
2155.000000	64.745831 
2154.000000	64.743375 
2153.000000	64.735746 
2152.000000	64.724040 
2151.000000	64.710187 
2150.000000	64.696455 
2149.000000	64.685177 
2148.000000	64.678072 
2147.000000	64.676141 
2146.000000	64.679288 
2145.000000	64.686560 
2144.000000	64.696240 
2143.000000	64.706277 
2142.000000	64.714980 
2141.000000	64.721059 
2140.000000	64.723968 
2139.000000	64.723801 
2138.000000	64.721274 
2137.000000	64.717388 
2136.000000	64.713048 
2135.000000	64.709115 
2134.000000	64.706182 
2133.000000	64.704895 
2132.000000	64.705824 
2131.000000	64.709830 
2130.000000	64.717483 
2129.000000	64.729309 
2128.000000	64.745116 
2127.000000	64.764213 
2126.000000	64.784932 
2125.000000	64.805150 
2124.000000	64.822340 
2123.000000	64.834213 
2122.000000	64.839243 
2121.000000	64.837217 
2120.000000	64.829230 
2119.000000	64.817357 
2118.000000	64.804315 
2117.000000	64.792704 
2116.000000	64.784455 
2115.000000	64.780521 
2114.000000	64.780831 
2113.000000	64.784288 
2112.000000	64.789390 
2111.000000	64.794182 
2110.000000	64.797139 
2109.000000	64.796972 
2108.000000	64.792919 
2107.000000	64.785003 
2106.000000	64.773726 
2105.000000	64.760184 
2104.000000	64.745903 
2103.000000	64.732503 
2102.000000	64.721536 
2101.000000	64.713954 
2100.000000	64.710116 
2099.000000	64.709424 
2098.000000	64.710640 
2097.000000	64.711904 
2096.000000	64.711475 
2095.000000	64.708042 
2094.000000	64.701390 
2093.000000	64.692378 
2092.000000	64.682698 
2091.000000	64.674448 
2090.000000	64.669322 
2089.000000	64.668107 
2088.000000	64.670491 
2087.000000	64.674997 
2086.000000	64.679670 
2085.000000	64.682555 
2084.000000	64.682412 
2083.000000	64.678978 
2082.000000	64.673089 
2081.000000	64.666342 
2080.000000	64.660668 
2079.000000	64.657902 
2078.000000	64.659237 
2077.000000	64.664983 
2076.000000	64.674544 
2075.000000	64.686489 
2074.000000	64.699149 
2073.000000	64.711070 
2072.000000	64.721250 
2071.000000	64.729452 
2070.000000	64.735984 
2069.000000	64.741778 
2068.000000	64.747667 
2067.000000	64.754319 
2066.000000	64.761853 
2065.000000	64.769864 
2064.000000	64.777636 
2063.000000	64.784288 
2062.000000	64.789152 
2061.000000	64.791870 
2060.000000	64.792490 
2059.000000	64.791345 
2058.000000	64.789009 
2057.000000	64.786052 
2056.000000	64.783000 
2055.000000	64.780116 
2054.000000	64.777684 
2053.000000	64.775729 
2052.000000	64.774513 
2051.000000	64.774203 
2050.000000	64.775061 
2049.000000	64.777207 
2048.000000	64.780497 
2047.000000	64.784646 
2046.000000	64.789056 
2045.000000	64.792919 
2044.000000	64.795351 
2043.000000	64.795517 
2042.000000	64.792895 
2041.000000	64.787125 
2040.000000	64.778161 
2039.000000	64.766192 
2038.000000	64.751553 
2037.000000	64.734935 
2036.000000	64.717531 
2035.000000	64.700722 
2034.000000	64.686322 
2033.000000	64.676165 
2032.000000	64.672064 
2031.000000	64.675259 
2030.000000	64.686036 
2029.000000	64.703750 
2028.000000	64.726853 
2027.000000	64.752650 
2026.000000	64.778423 
2025.000000	64.801454 
2024.000000	64.819860 
2023.000000	64.832592 
2022.000000	64.839744 
2021.000000	64.842271 
2020.000000	64.841723 
2019.000000	64.839649 
2018.000000	64.837336 
2017.000000	64.835643 
2016.000000	64.834785 
2015.000000	64.834666 
2014.000000	64.834785 
2013.000000	64.834642 
2012.000000	64.833855 
2011.000000	64.832186 
2010.000000	64.829587 
2009.000000	64.826035 
2008.000000	64.821648 
2007.000000	64.816451 
2006.000000	64.810562 
2005.000000	64.803957 
2004.000000	64.796853 
2003.000000	64.789271 
2002.000000	64.781188 
2001.000000	64.772105 
2000.000000	64.761638 
1999.000000	64.749050 
1998.000000	64.733815 
1997.000000	64.715766 
1996.000000	64.695096 
1995.000000	64.672875 
1994.000000	64.650726 
1993.000000	64.630889 
1992.000000	64.615440 
1991.000000	64.606261 
1990.000000	64.604592 
1989.000000	64.610695 
1988.000000	64.623761 
1987.000000	64.641976 
1986.000000	64.662909 
1985.000000	64.683747 
1984.000000	64.701867 
1983.000000	64.715099 
1982.000000	64.722180 
1981.000000	64.722752 
1980.000000	64.717650 
1979.000000	64.708733 
1978.000000	64.698600 
1977.000000	64.690256 
1976.000000	64.686393 
1975.000000	64.689040 
1974.000000	64.698958 
1973.000000	64.715528 
1972.000000	64.737129 
1971.000000	64.761018 
1970.000000	64.784193 
1969.000000	64.803981 
1968.000000	64.818453 
1967.000000	64.826750 
1966.000000	64.828872 
1965.000000	64.825797 
1964.000000	64.818930 
1963.000000	64.809656 
1962.000000	64.799356 
1961.000000	64.789032 
1960.000000	64.779663 
1959.000000	64.772057 
1958.000000	64.767074 
1957.000000	64.765381 
1956.000000	64.767193 
1955.000000	64.771986 
1954.000000	64.778375 
1953.000000	64.784193 
1952.000000	64.787054 
1951.000000	64.784884 
1950.000000	64.776515 
1949.000000	64.762115 
1948.000000	64.743185 
1947.000000	64.722371 
1946.000000	64.702844 
1945.000000	64.687871 
1944.000000	64.679861 
1943.000000	64.679884 
1942.000000	64.687728 
1941.000000	64.701747 
1940.000000	64.719486 
1939.000000	64.738035 
1938.000000	64.754486 
1937.000000	64.766573 
1936.000000	64.772939 
1935.000000	64.773201 
1934.000000	64.767861 
1933.000000	64.758157 
1932.000000	64.746046 
1931.000000	64.733839 
1930.000000	64.723587 
1929.000000	64.716935 
1928.000000	64.714574 
1927.000000	64.716339 
1926.000000	64.721202 
1925.000000	64.727568 
1924.000000	64.733910 
1923.000000	64.738965 
1922.000000	64.742136 
1921.000000	64.743423 
1920.000000	64.743375 
1919.000000	64.742732 
1918.000000	64.742159 
1917.000000	64.742159 
1916.000000	64.742708 
1915.000000	64.743399 
1914.000000	64.743351 
1913.000000	64.741539 
1912.000000	64.736914 
1911.000000	64.728784 
1910.000000	64.716887 
1909.000000	64.701652 
1908.000000	64.684104 
1907.000000	64.665699 
1906.000000	64.648294 
1905.000000	64.633750 
1904.000000	64.623665 
1903.000000	64.619016 
1902.000000	64.620137 
1901.000000	64.626550 
1900.000000	64.637207 
1899.000000	64.650583 
1898.000000	64.665102 
1897.000000	64.679408 
1896.000000	64.692521 
1895.000000	64.703917 
1894.000000	64.713430 
1893.000000	64.721202 
1892.000000	64.727234 
1891.000000	64.731502 
1890.000000	64.733719 
1889.000000	64.733600 
1888.000000	64.730978 
1887.000000	64.725947 
1886.000000	64.719152 
1885.000000	64.711380 
1884.000000	64.703989 
1883.000000	64.698028 
1882.000000	64.694285 
1881.000000	64.692759 
1880.000000	64.692735 
1879.000000	64.692997 
1878.000000	64.691925 
1877.000000	64.688158 
1876.000000	64.681029 
1875.000000	64.670634 
1874.000000	64.657855 
1873.000000	64.644265 
1872.000000	64.631581 
1871.000000	64.621305 
1870.000000	64.614343 
1869.000000	64.610695 
1868.000000	64.609718 
1867.000000	64.610362 
1866.000000	64.611792 
1865.000000	64.613294 
1864.000000	64.614987 
1863.000000	64.617490 
1862.000000	64.621877 
1861.000000	64.629125 
1860.000000	64.639687 
1859.000000	64.653158 
1858.000000	64.668178 
1857.000000	64.682769 
1856.000000	64.694571 
1855.000000	64.701485 
1854.000000	64.702415 
1853.000000	64.697313 
1852.000000	64.687347 
1851.000000	64.674639 
1850.000000	64.661741 
1849.000000	64.651131 
1848.000000	64.644575 
1847.000000	64.642715 
1846.000000	64.645195 
1845.000000	64.650821 
1844.000000	64.657926 
1843.000000	64.664864 
1842.000000	64.670252 
1841.000000	64.673542 
1840.000000	64.674639 
1839.000000	64.674210 
1838.000000	64.673042 
1837.000000	64.672160 
1836.000000	64.672398 
1835.000000	64.674520 
1834.000000	64.678907 
1833.000000	64.685654 
1832.000000	64.694428 
1831.000000	64.704489 
1830.000000	64.714837 
1829.000000	64.724278 
1828.000000	64.731645 
1827.000000	64.735984 
1826.000000	64.736771 
1825.000000	64.734196 
1824.000000	64.728903 
1823.000000	64.721989 
1822.000000	64.714860 
1821.000000	64.708805 
1820.000000	64.704680 
1819.000000	64.702796 
1818.000000	64.702701 
1817.000000	64.703273 
1816.000000	64.703083 
1815.000000	64.700651 
1814.000000	64.694929 
1813.000000	64.685678 
1812.000000	64.673495 
1811.000000	64.659762 
1810.000000	64.646291 
1809.000000	64.635038 
1808.000000	64.627647 
1807.000000	64.624905 
1806.000000	64.626741 
1805.000000	64.632105 
1804.000000	64.639353 
1803.000000	64.646553 
1802.000000	64.652109 
1801.000000	64.654970 
1800.000000	64.654922 
1799.000000	64.652395 
1798.000000	64.648389 
1797.000000	64.644050 
1796.000000	64.640235 
1795.000000	64.637351 
1794.000000	64.635300 
1793.000000	64.633655 
1792.000000	64.631819 
1791.000000	64.629197 
1790.000000	64.625382 
1789.000000	64.620471 
1788.000000	64.614701 
1787.000000	64.608526 
1786.000000	64.602446 
1785.000000	64.596939 
1784.000000	64.592313 
1783.000000	64.588832 
1782.000000	64.586615 
1781.000000	64.585757 
1780.000000	64.586281 
1779.000000	64.588093 
1778.000000	64.591073 
1777.000000	64.594674 
1776.000000	64.598250 
1775.000000	64.600920 
1774.000000	64.601731 
1773.000000	64.599847 
1772.000000	64.594602 
1771.000000	64.585995 
1770.000000	64.574527 
1769.000000	64.561104 
1768.000000	64.546799 
1767.000000	64.532709 
1766.000000	64.519762 
1765.000000	64.508366 
1764.000000	64.498376 
1763.000000	64.489293 
1762.000000	64.480614 
1761.000000	64.471888 
1760.000000	64.462924 
1759.000000	64.453983 
1758.000000	64.445567 
1757.000000	64.438509 
1756.000000	64.433336 
1755.000000	64.430260 
1754.000000	64.429020 
1753.000000	64.428949 
1752.000000	64.428973 
1751.000000	64.427971 
1750.000000	64.424920 
1749.000000	64.419507 
1748.000000	64.411735 
1747.000000	64.401984 
1746.000000	64.390873 
1745.000000	64.379119 
1744.000000	64.367008 
1743.000000	64.354467 
1742.000000	64.341163 
1741.000000	64.326405 
1740.000000	64.309501 
1739.000000	64.289832 
1738.000000	64.267396 
1737.000000	64.242982 
1736.000000	64.218020 
1735.000000	64.194464 
1734.000000	64.174699 
1733.000000	64.160847 
1732.000000	64.154529 
1731.000000	64.156317 
1730.000000	64.165711 
1729.000000	64.181280 
1728.000000	64.200663 
1727.000000	64.221525 
1726.000000	64.241671 
1725.000000	64.259839 
1724.000000	64.275693 
1723.000000	64.289879 
1722.000000	64.303708 
1721.000000	64.318466 
1720.000000	64.334917 
1719.000000	64.353084 
1718.000000	64.372110 
1717.000000	64.390468 
1716.000000	64.406466 
1715.000000	64.418935 
1714.000000	64.427471 
1713.000000	64.432573 
1712.000000	64.435434 
1711.000000	64.437603 
1710.000000	64.440631 
1709.000000	64.445281 
1708.000000	64.451646 
1707.000000	64.459109 
1706.000000	64.466691 
1705.000000	64.473485 
1704.000000	64.478898 
1703.000000	64.483046 
1702.000000	64.486384 
1701.000000	64.489626 
1700.000000	64.493489 
1699.000000	64.498090 
1698.000000	64.503335 
1697.000000	64.508891 
1696.000000	64.514565 
1695.000000	64.520263 
1694.000000	64.526224 
1693.000000	64.532899 
1692.000000	64.540481 
1691.000000	64.548850 
1690.000000	64.557194 
1689.000000	64.564228 
1688.000000	64.568424 
1687.000000	64.568519 
1686.000000	64.564108 
1685.000000	64.555788 
1684.000000	64.545226 
1683.000000	64.534783 
1682.000000	64.527034 
1681.000000	64.523601 
1680.000000	64.524936 
1679.000000	64.530014 
1678.000000	64.536786 
1677.000000	64.542412 
1676.000000	64.544343 
1675.000000	64.540743 
1674.000000	64.531254 
1673.000000	64.516639 
1672.000000	64.498782 
1671.000000	64.479994 
1670.000000	64.462590 
1669.000000	64.448356 
1668.000000	64.438295 
1667.000000	64.432644 
1666.000000	64.431118 
1665.000000	64.433264 
1664.000000	64.438581 
1663.000000	64.447021 
1662.000000	64.458632 
1661.000000	64.473485 
1660.000000	64.491271 
1659.000000	64.511322 
1658.000000	64.532303 
1657.000000	64.552450 
1656.000000	64.569544 
1655.000000	64.581513 
1654.000000	64.586591 
1653.000000	64.583873 
1652.000000	64.573264 
1651.000000	64.555811 
1650.000000	64.533400 
1649.000000	64.508605 
1648.000000	64.484095 
1647.000000	64.462494 
1646.000000	64.445829 
1645.000000	64.435315 
1644.000000	64.431381 
1643.000000	64.433646 
1642.000000	64.440965 
1641.000000	64.451885 
1640.000000	64.464688 
1639.000000	64.477419 
1638.000000	64.488363 
1637.000000	64.496064 
1636.000000	64.499378 
1635.000000	64.497494 
1634.000000	64.490151 
1633.000000	64.477539 
1632.000000	64.460563 
1631.000000	64.440536 
1630.000000	64.419007 
1629.000000	64.397501 
1628.000000	64.377403 
1627.000000	64.359426 
1626.000000	64.343571 
1625.000000	64.329338 
1624.000000	64.315819 
1623.000000	64.302182 
1622.000000	64.287567 
1621.000000	64.271831 
1620.000000	64.255380 
1619.000000	64.239335 
1618.000000	64.225053 
1617.000000	64.214324 
1616.000000	64.208722 
1615.000000	64.209699 
1614.000000	64.217996 
1613.000000	64.234042 
1612.000000	64.257574 
1611.000000	64.287590 
1610.000000	64.322304 
1609.000000	64.359235 
1608.000000	64.395332 
1607.000000	64.427399 
1606.000000	64.452314 
1605.000000	64.467954 
1604.000000	64.473366 
1603.000000	64.469361 
1602.000000	64.458107 
1601.000000	64.442801 
1600.000000	64.426541 
1599.000000	64.412164 
1598.000000	64.401316 
1597.000000	64.394187 
1596.000000	64.389634 
1595.000000	64.386129 
1594.000000	64.382076 
1593.000000	64.376425 
1592.000000	64.369082 
1591.000000	64.361119 
1590.000000	64.353990 
1589.000000	64.349389 
1588.000000	64.348077 
1587.000000	64.349746 
1586.000000	64.352440 
1585.000000	64.353108 
1584.000000	64.348030 
1583.000000	64.334082 
1582.000000	64.309740 
1581.000000	64.276003 
1580.000000	64.236140 
1579.000000	64.195418 
1578.000000	64.159822 
1577.000000	64.134860 
1576.000000	64.124274 
1575.000000	64.129161 
1574.000000	64.148378 
1573.000000	64.178776 
1572.000000	64.216065 
1571.000000	64.255642 
1570.000000	64.293456 
1569.000000	64.326333 
1568.000000	64.352130 
1567.000000	64.369916 
1566.000000	64.379286 
1565.000000	64.380908 
1564.000000	64.375948 
1563.000000	64.365959 
1562.000000	64.352869 
1561.000000	64.338445 
1560.000000	64.324736 
1559.000000	64.313054 
1558.000000	64.304256 
1557.000000	64.298224 
1556.000000	64.294171 
1555.000000	64.290952 
1554.000000	64.287376 
1553.000000	64.282608 
1552.000000	64.276647 
1551.000000	64.270138 
1550.000000	64.264345 
1549.000000	64.260721 
1548.000000	64.260578 
1547.000000	64.264225 
1546.000000	64.271283 
1545.000000	64.280366 
1544.000000	64.289808 
1543.000000	64.297819 
1542.000000	64.303255 
1541.000000	64.305663 
1540.000000	64.305758 
1539.000000	64.305257 
1538.000000	64.306378 
1537.000000	64.311242 
1536.000000	64.321136 
1535.000000	64.336490 
1534.000000	64.356327 
1533.000000	64.378571 
1532.000000	64.400219 
1531.000000	64.418029 
1530.000000	64.429140 
1529.000000	64.431834 
1528.000000	64.426016 
1527.000000	64.413189 
1526.000000	64.396524 
1525.000000	64.380073 
1524.000000	64.368033 
1523.000000	64.363694 
1522.000000	64.368796 
1521.000000	64.383172 
1520.000000	64.404678 
1519.000000	64.429593 
1518.000000	64.453387 
1517.000000	64.471650 
1516.000000	64.480948 
1515.000000	64.479517 
1514.000000	64.467310 
1513.000000	64.446330 
1512.000000	64.420032 
1511.000000	64.392590 
1510.000000	64.368128 
1509.000000	64.350008 
1508.000000	64.340376 
1507.000000	64.339804 
1506.000000	64.347195 
1505.000000	64.360213 
1504.000000	64.375853 
1503.000000	64.390969 
1502.000000	64.402914 
1501.000000	64.410161 
1500.000000	64.412546 
1499.000000	64.411067 
1498.000000	64.407610 
1497.000000	64.404296 
1496.000000	64.402866 
1495.000000	64.404177 
1494.000000	64.408373 
1493.000000	64.414739 
1492.000000	64.422035 
1491.000000	64.429259 
1490.000000	64.435601 
1489.000000	64.440894 
1488.000000	64.445185 
1487.000000	64.448642 
1486.000000	64.451050 
1485.000000	64.452075 
1484.000000	64.450740 
1483.000000	64.445900 
1482.000000	64.436197 
1481.000000	64.420604 
1480.000000	64.398646 
1479.000000	64.370870 
1478.000000	64.338564 
1477.000000	64.303874 
1476.000000	64.269351 
1475.000000	64.237475 
1474.000000	64.210700 
1473.000000	64.190840 
1472.000000	64.179039 
1471.000000	64.175796 
1470.000000	64.181017 
1469.000000	64.194178 
1468.000000	64.214181 
1467.000000	64.239645 
1466.000000	64.268779 
1465.000000	64.299511 
1464.000000	64.329433 
1463.000000	64.356160 
1462.000000	64.377188 
1461.000000	64.390802 
1460.000000	64.396047 
1459.000000	64.393234 
1458.000000	64.383959 
1457.000000	64.370822 
1456.000000	64.357423 
1455.000000	64.346933 
1454.000000	64.341640 
1453.000000	64.342284 
1452.000000	64.348053 
1451.000000	64.356684 
1450.000000	64.365243 
1449.000000	64.370918 
1448.000000	64.371919 
1447.000000	64.367842 
1446.000000	64.359617 
1445.000000	64.349222 
1444.000000	64.339065 
1443.000000	64.331102 
1442.000000	64.326357 
1441.000000	64.324593 
1440.000000	64.324426 
1439.000000	64.323949 
1438.000000	64.321255 
1437.000000	64.315104 
1436.000000	64.305305 
1435.000000	64.293003 
1434.000000	64.280700 
1433.000000	64.271092 
1432.000000	64.266896 
1431.000000	64.270186 
1430.000000	64.281988 
1429.000000	64.301705 
1428.000000	64.327692 
1427.000000	64.357399 
1426.000000	64.387750 
1425.000000	64.415860 
1424.000000	64.439225 
1423.000000	64.456176 
1422.000000	64.465689 
1421.000000	64.467525 
1420.000000	64.461779 
1419.000000	64.448785 
1418.000000	64.428901 
1417.000000	64.402866 
1416.000000	64.371466 
1415.000000	64.335989 
1414.000000	64.298272 
1413.000000	64.260697 
1412.000000	64.226078 
1411.000000	64.197468 
1410.000000	64.177584 
1409.000000	64.168334 
1408.000000	64.170312 
1407.000000	64.182758 
1406.000000	64.203405 
1405.000000	64.228940 
1404.000000	64.255332 
1403.000000	64.278745 
1402.000000	64.295887 
1401.000000	64.304614 
1400.000000	64.304018 
1399.000000	64.294385 
1398.000000	64.277100 
1397.000000	64.254140 
1396.000000	64.227914 
1395.000000	64.200830 
1394.000000	64.175057 
1393.000000	64.152431 
1392.000000	64.134502 
1391.000000	64.122366 
1390.000000	64.116716 
1389.000000	64.117455 
1388.000000	64.124083 
1387.000000	64.135241 
1386.000000	64.149260 
1385.000000	64.164113 
1384.000000	64.177989 
1383.000000	64.189457 
1382.000000	64.197921 
1381.000000	64.203858 
1380.000000	64.208483 
1379.000000	64.213585 
1378.000000	64.221024 
1377.000000	64.232230 
1376.000000	64.247608 
1375.000000	64.266586 
1374.000000	64.287209 
1373.000000	64.306926 
1372.000000	64.322638 
1371.000000	64.331769 
1370.000000	64.332461 
1369.000000	64.324069 
1368.000000	64.307284 
1367.000000	64.284253 
1366.000000	64.257979 
1365.000000	64.231801 
1364.000000	64.209032 
1363.000000	64.192342 
1362.000000	64.183187 
1361.000000	64.181542 
1360.000000	64.186167 
1359.000000	64.194798 
1358.000000	64.204478 
1357.000000	64.212203 
1356.000000	64.215230 
1355.000000	64.211940 
1354.000000	64.201641 
1353.000000	64.185166 
1352.000000	64.164090 
1351.000000	64.140772 
1350.000000	64.117836 
1349.000000	64.097833 
1348.000000	64.082646 
1347.000000	64.073657 
1346.000000	64.071774 
1345.000000	64.077234 
1344.000000	64.089560 
1343.000000	64.107918 
1342.000000	64.130902 
1341.000000	64.156675 
1340.000000	64.182996 
1339.000000	64.207792 
1338.000000	64.229345 
1337.000000	64.246678 
1336.000000	64.259576 
1335.000000	64.268612 
1334.000000	64.274907 
1333.000000	64.279770 
1332.000000	64.284181 
1331.000000	64.288520 
1330.000000	64.292216 
1329.000000	64.294242 
1328.000000	64.293098 
1327.000000	64.287710 
1326.000000	64.277529 
1325.000000	64.263081 
1324.000000	64.245486 
1323.000000	64.226388 
1322.000000	64.207363 
1321.000000	64.189624 
1320.000000	64.173769 
1319.000000	64.159607 
1318.000000	64.146757 
1317.000000	64.134788 
1316.000000	64.123725 
1315.000000	64.114212 
1314.000000	64.107394 
1313.000000	64.104437 
1312.000000	64.106369 
1311.000000	64.113640 
1310.000000	64.125633 
1309.000000	64.140677 
1308.000000	64.156508 
1307.000000	64.170646 
1306.000000	64.180874 
1305.000000	64.185833 
1304.000000	64.185070 
1303.000000	64.179205 
1302.000000	64.169454 
1301.000000	64.157581 
1300.000000	64.145255 
1299.000000	64.133834 
1298.000000	64.124488 
1297.000000	64.117813 
1296.000000	64.114165 
1295.000000	64.113545 
1294.000000	64.115810 
1293.000000	64.120411 
1292.000000	64.126396 
1291.000000	64.132380 
1290.000000	64.136743 
1289.000000	64.137744 
1288.000000	64.133739 
1287.000000	64.123845 
1286.000000	64.108014 
1285.000000	64.087295 
1284.000000	64.063715 
1283.000000	64.039945 
1282.000000	64.018726 
1281.000000	64.002299 
1280.000000	63.991951 
1279.000000	63.987874 
1278.000000	63.989162 
1277.000000	63.994145 
1276.000000	64.000988 
1275.000000	64.007925 
1274.000000	64.013838 
1273.000000	64.018201 
1272.000000	64.021396 
1271.000000	64.024019 
1270.000000	64.027118 
1269.000000	64.031434 
1268.000000	64.037561 
1267.000000	64.045834 
1266.000000	64.056110 
1265.000000	64.068055 
1264.000000	64.080858 
1263.000000	64.093661 
1262.000000	64.105486 
1261.000000	64.115285 
1260.000000	64.122009 
1259.000000	64.124989 
1258.000000	64.123988 
1257.000000	64.119482 
1256.000000	64.112544 
1255.000000	64.104628 
1254.000000	64.096927 
1253.000000	64.090204 
1252.000000	64.084577 
1251.000000	64.079475 
1250.000000	64.073896 
1249.000000	64.066624 
1248.000000	64.057159 
1247.000000	64.045810 
1246.000000	64.033484 
1245.000000	64.021992 
1244.000000	64.013290 
1243.000000	64.009237 
1242.000000	64.011073 
1241.000000	64.019441 
1240.000000	64.033865 
1239.000000	64.053130 
1238.000000	64.075541 
1237.000000	64.099025 
1236.000000	64.121365 
1235.000000	64.140295 
1234.000000	64.153766 
1233.000000	64.159965 
1232.000000	64.157581 
1231.000000	64.146256 
1230.000000	64.126944 
1229.000000	64.101910 
1228.000000	64.074492 
1227.000000	64.048647 
1226.000000	64.028239 
1225.000000	64.016389 
1224.000000	64.014792 
1223.000000	64.023542 
1222.000000	64.041233 
1221.000000	64.065408 
1220.000000	64.092969 
1219.000000	64.120888 
1218.000000	64.146614 
1217.000000	64.168310 
1216.000000	64.184808 
1215.000000	64.195370 
1214.000000	64.199686 
1213.000000	64.197635 
1212.000000	64.189362 
1211.000000	64.175391 
1210.000000	64.156603 
1209.000000	64.134693 
1208.000000	64.111518 
1207.000000	64.089131 
1206.000000	64.069247 
1205.000000	64.052963 
1204.000000	64.040732 
1203.000000	64.032602 
1202.000000	64.028167 
1201.000000	64.026832 
1200.000000	64.027786 
1199.000000	64.030289 
1198.000000	64.033436 
1197.000000	64.036393 
1196.000000	64.038205 
1195.000000	64.038062 
1194.000000	64.035272 
1193.000000	64.029884 
1192.000000	64.022231 
1191.000000	64.013481 
1190.000000	64.005184 
1189.000000	63.999366 
1188.000000	63.998055 
1187.000000	64.002966 
1186.000000	64.014816 
1185.000000	64.033126 
1184.000000	64.056301 
1183.000000	64.081501 
1182.000000	64.105272 
1181.000000	64.123916 
1180.000000	64.134407 
1179.000000	64.134764 
1178.000000	64.124631 
1177.000000	64.105296 
1176.000000	64.079213 
1175.000000	64.049816 
1174.000000	64.020872 
1173.000000	63.995695 
1172.000000	63.976764 
1171.000000	63.965463 
1170.000000	63.961911 
1169.000000	63.965272 
1168.000000	63.974070 
1167.000000	63.986587 
1166.000000	64.001274 
1165.000000	64.016604 
1164.000000	64.031815 
1163.000000	64.046072 
1162.000000	64.059019 
1161.000000	64.070343 
1160.000000	64.079833 
1159.000000	64.087128 
1158.000000	64.091706 
1157.000000	64.093160 
1156.000000	64.091110 
1155.000000	64.085650 
1154.000000	64.077305 
1153.000000	64.067339 
1152.000000	64.057230 
1151.000000	64.048957 
1150.000000	64.043903 
1149.000000	64.042782 
1148.000000	64.045357 
1147.000000	64.050364 
1146.000000	64.055824 
1145.000000	64.059376 
1144.000000	64.059185 
1143.000000	64.054369 
1142.000000	64.045429 
1141.000000	64.033961 
1140.000000	64.022421 
1139.000000	64.013004 
1138.000000	64.006876 
1137.000000	64.003324 
1136.000000	64.000248 
1135.000000	63.994288 
1134.000000	63.982605 
1133.000000	63.963317 
1132.000000	63.936614 
1131.000000	63.904690 
1130.000000	63.871145 
1129.000000	63.840341 
1128.000000	63.815736 
1127.000000	63.800239 
1126.000000	63.795280 
1125.000000	63.801264 
1124.000000	63.817572 
1123.000000	63.843035 
1122.000000	63.875818 
1121.000000	63.913750 
1120.000000	63.954162 
1119.000000	63.994216 
1118.000000	64.030861 
1117.000000	64.061164 
1116.000000	64.082741 
1115.000000	64.093971 
1114.000000	64.094281 
1113.000000	64.084291 
1112.000000	64.065837 
1111.000000	64.041686 
1110.000000	64.015102 
1109.000000	63.989496 
1108.000000	63.967657 
1107.000000	63.951373 
1106.000000	63.941073 
1105.000000	63.936185 
1104.000000	63.935208 
1103.000000	63.936352 
1102.000000	63.937878 
1101.000000	63.938665 
1100.000000	63.938093 
1099.000000	63.936257 
1098.000000	63.933801 
1097.000000	63.931536 
1096.000000	63.930439 
1095.000000	63.931345 
1094.000000	63.934803 
1093.000000	63.940787 
1092.000000	63.948798 
1091.000000	63.957691 
1090.000000	63.965797 
1089.000000	63.971328 
1088.000000	63.972878 
1087.000000	63.969945 
1086.000000	63.963079 
1085.000000	63.953614 
1084.000000	63.943624 
1083.000000	63.935256 
1082.000000	63.930177 
1081.000000	63.929057 
1080.000000	63.931274 
1079.000000	63.935375 
1078.000000	63.939142 
1077.000000	63.940477 
1076.000000	63.937878 
1075.000000	63.930988 
1074.000000	63.920593 
1073.000000	63.908386 
1072.000000	63.896584 
1071.000000	63.887214 
1070.000000	63.881468 
1069.000000	63.879609 
1068.000000	63.880944 
1067.000000	63.884091 
1066.000000	63.887476 
1065.000000	63.889718 
1064.000000	63.890194 
1063.000000	63.889098 
1062.000000	63.887429 
1061.000000	63.886499 
1060.000000	63.887786 
1059.000000	63.892531 
1058.000000	63.901329 
1057.000000	63.913917 
1056.000000	63.929033 
1055.000000	63.945007 
1054.000000	63.959240 
1053.000000	63.969087 
1052.000000	63.971972 
1051.000000	63.965773 
1050.000000	63.949465 
1049.000000	63.923478 
1048.000000	63.889861 
1047.000000	63.851976 
1046.000000	63.814043 
1045.000000	63.780498 
1044.000000	63.755106 
1043.000000	63.740229 
1042.000000	63.736319 
1041.000000	63.741993 
1040.000000	63.754320 
1039.000000	63.769698 
1038.000000	63.784623 
1037.000000	63.796567 
1036.000000	63.804578 
1035.000000	63.809442 
1034.000000	63.813400 
1033.000000	63.819670 
1032.000000	63.831305 
1031.000000	63.850378 
1030.000000	63.877344 
1029.000000	63.910508 
1028.000000	63.946485 
1027.000000	63.980603 
1026.000000	64.007854 
1025.000000	64.023923 
1024.000000	64.026021 
1023.000000	64.013481 
1022.000000	63.987827 
1021.000000	63.952541 
1020.000000	63.912296 
1019.000000	63.872146 
1018.000000	63.836479 
1017.000000	63.808488 
1016.000000	63.789892 
1015.000000	63.780689 
1014.000000	63.779520 
1013.000000	63.784122 
1012.000000	63.792133 
1011.000000	63.801622 
1010.000000	63.811349 
1009.000000	63.820981 
1008.000000	63.830828 
1007.000000	63.841938 
1006.000000	63.855648 
1005.000000	63.872766 
1004.000000	63.893604 
1003.000000	63.917613 
1002.000000	63.943648 
1001.000000	63.969969 
1000.000000	63.994598 
999.000000	 64.016008 
998.000000	 64.032983 
997.000000	 64.044976 
996.000000	 64.051985 
995.000000	 64.054608 
994.000000	 64.053511 
993.000000	 64.049530 
992.000000	 64.043211 
991.000000	 64.034938 
990.000000	 64.025115 
989.000000	 64.014482 
988.000000	 64.003777 
987.000000	 63.993906 
986.000000	 63.985633 
985.000000	 63.979530 
984.000000	 63.975548 
983.000000	 63.973045 
982.000000	 63.970541 
981.000000	 63.966512 
980.000000	 63.959884 
979.000000	 63.950467 
978.000000	 63.939094 
977.000000	 63.927388 
976.000000	 63.917303 
975.000000	 63.910365 
974.000000	 63.907098 
973.000000	 63.906693 
972.000000	 63.907122 
971.000000	 63.905978 
970.000000	 63.901019 
969.000000	 63.891410 
968.000000	 63.878035 
967.000000	 63.863873 
966.000000	 63.853120 
965.000000	 63.850092 
964.000000	 63.858032 
963.000000	 63.877892 
962.000000	 63.908004 
961.000000	 63.944268 
960.000000	 63.980746 
959.000000	 64.011335 
958.000000	 64.030957 
957.000000	 64.035987 
956.000000	 64.025044 
955.000000	 63.998818 
954.000000	 63.960099 
953.000000	 63.912987 
952.000000	 63.862395 
951.000000	 63.813710 
950.000000	 63.771700 
949.000000	 63.740444 
948.000000	 63.722515 
947.000000	 63.718891 
946.000000	 63.728809 
945.000000	 63.750171 
944.000000	 63.779616 
943.000000	 63.813018 
942.000000	 63.846540 
941.000000	 63.876986 
940.000000	 63.902497 
939.000000	 63.922214 
938.000000	 63.936471 
937.000000	 63.946318 
936.000000	 63.953304 
935.000000	 63.958835 
934.000000	 63.964343 
933.000000	 63.971066 
932.000000	 63.980150 
931.000000	 63.992547 
930.000000	 64.008903 
929.000000	 64.029169 
928.000000	 64.052557 
927.000000	 64.077520 
926.000000	 64.102172 
925.000000	 64.124536 
924.000000	 64.143109 
923.000000	 64.156723 
922.000000	 64.165043 
921.000000	 64.167785 
920.000000	 64.165353 
919.000000	 64.157819 
918.000000	 64.145112 
917.000000	 64.126658 
916.000000	 64.102125 
915.000000	 64.071321 
914.000000	 64.034771 
913.000000	 63.993906 
912.000000	 63.951134 
911.000000	 63.909411 
910.000000	 63.871908 
909.000000	 63.841199 
908.000000	 63.819026 
907.000000	 63.805985 
906.000000	 63.801503 
905.000000	 63.804173 
904.000000	 63.812112 
903.000000	 63.823366 
902.000000	 63.836288 
901.000000	 63.849616 
900.000000	 63.862562 
899.000000	 63.874626 
898.000000	 63.885498 
897.000000	 63.894772 
896.000000	 63.901877 
895.000000	 63.906311 
894.000000	 63.907432 
893.000000	 63.904881 
892.000000	 63.898324 
891.000000	 63.888072 
890.000000	 63.875055 
889.000000	 63.860654 
888.000000	 63.847184 
887.000000	 63.837146 
886.000000	 63.833284 
885.000000	 63.838148 
884.000000	 63.853478 
883.000000	 63.879656 
882.000000	 63.915562 
881.000000	 63.958501 
880.000000	 64.004635 
879.000000	 64.049553 
878.000000	 64.089274 
877.000000	 64.120793 
876.000000	 64.142680 
875.000000	 64.155149 
874.000000	 64.159917 
873.000000	 64.159131 
872.000000	 64.154958 
871.000000	 64.148402 
870.000000	 64.139556 
869.000000	 64.127373 
868.000000	 64.110445 
867.000000	 64.087629 
866.000000	 64.059090 
865.000000	 64.026474 
864.000000	 63.993096 
863.000000	 63.963294 
862.000000	 63.941287 
861.000000	 63.930201 
860.000000	 63.931322 
859.000000	 63.943433 
858.000000	 63.963270 
857.000000	 63.985896 
856.000000	 64.005923 
855.000000	 64.018321 
854.000000	 64.019775 
853.000000	 64.008641 
852.000000	 63.985443 
851.000000	 63.952159 
850.000000	 63.911843 
849.000000	 63.868451 
848.000000	 63.826179 
847.000000	 63.789176 
846.000000	 63.761115 
845.000000	 63.745045 
844.000000	 63.742971 
843.000000	 63.755321 
842.000000	 63.780593 
841.000000	 63.815259 
840.000000	 63.854074 
839.000000	 63.890814 
838.000000	 63.919639 
837.000000	 63.935518 
836.000000	 63.936281 
835.000000	 63.922667 
834.000000	 63.898539 
833.000000	 63.869881 
832.000000	 63.843488 
831.000000	 63.825869 
830.000000	 63.821077 
829.000000	 63.829922 
828.000000	 63.849830 
827.000000	 63.875627 
826.000000	 63.900852 
825.000000	 63.919615 
824.000000	 63.927626 
823.000000	 63.923168 
822.000000	 63.907051 
821.000000	 63.881897 
820.000000	 63.851380 
819.000000	 63.819003 
818.000000	 63.787531 
817.000000	 63.758587 
816.000000	 63.733410 
815.000000	 63.712716 
814.000000	 63.696932 
813.000000	 63.686633 
812.000000	 63.682341 
811.000000	 63.685035 
810.000000	 63.695669 
809.000000	 63.715171 
808.000000	 63.743686 
807.000000	 63.780856 
806.000000	 63.825607 
805.000000	 63.875818 
804.000000	 63.928484 
803.000000	 63.979840 
802.000000	 64.026236 
801.000000	 64.063978 
800.000000	 64.090180 
799.000000	 64.102673 
798.000000	 64.100718 
797.000000	 64.084959 
796.000000	 64.057731 
795.000000	 64.023089 
794.000000	 63.986325 
793.000000	 63.953328 
792.000000	 63.929677 
791.000000	 63.919782 
790.000000	 63.926005 
789.000000	 63.948202 
788.000000	 63.983702 
787.000000	 64.027738 
786.000000	 64.074349 
785.000000	 64.117574 
784.000000	 64.152216 
783.000000	 64.174866 
782.000000	 64.183902 
781.000000	 64.179587 
780.000000	 64.163017 
779.000000	 64.135861 
778.000000	 64.099550 
777.000000	 64.055418 
776.000000	 64.004659 
775.000000	 63.949108 
774.000000	 63.891172 
773.000000	 63.834500 
772.000000	 63.782644 
771.000000	 63.738870 
770.000000	 63.704919 
769.000000	 63.680958 
768.000000	 63.665652 
767.000000	 63.656711 
766.000000	 63.651418 
765.000000	 63.647460 
764.000000	 63.643288 
763.000000	 63.638544 
762.000000	 63.633513 
761.000000	 63.629126 
760.000000	 63.626003 
759.000000	 63.624525 
758.000000	 63.624525 
757.000000	 63.625359 
756.000000	 63.626027 
755.000000	 63.625717 
754.000000	 63.623785 
753.000000	 63.620662 
752.000000	 63.617300 
751.000000	 63.616013 
750.000000	 63.619327 
749.000000	 63.630414 
748.000000	 63.652372 
747.000000	 63.687467 
746.000000	 63.736605 
745.000000	 63.798093 
744.000000	 63.867640 
743.000000	 63.938283 
742.000000	 64.001417 
741.000000	 64.048290 
740.000000	 64.071726 
739.000000	 64.068222 
738.000000	 64.038634 
737.000000	 63.987684 
736.000000	 63.923478 
735.000000	 63.856291 
734.000000	 63.796424 
733.000000	 63.752532 
732.000000	 63.729906 
731.000000	 63.730192 
730.000000	 63.751101 
729.000000	 63.787436 
728.000000	 63.832163 
727.000000	 63.877391 
726.000000	 63.916206 
725.000000	 63.943982 
724.000000	 63.958549 
723.000000	 63.960051 
722.000000	 63.950157 
721.000000	 63.931417 
720.000000	 63.905811 
719.000000	 63.874530 
718.000000	 63.837170 
717.000000	 63.792443 
716.000000	 63.739156 
715.000000	 63.677549 
714.000000	 63.611078 
713.000000	 63.546895 
712.000000	 63.494968 
711.000000	 63.466310 
710.000000	 63.470697 
709.000000	 63.513755 
708.000000	 63.594913 
707.000000	 63.706326 
706.000000	 63.833785 
705.000000	 63.958978 
704.000000	 64.063382 
703.000000	 64.131164 
702.000000	 64.152336 
701.000000	 64.124345 
700.000000	 64.052128 
699.000000	 63.947081 
698.000000	 63.824391 
697.000000	 63.700437 
696.000000	 63.589715 
695.000000	 63.503265 
694.000000	 63.448190 
693.000000	 63.426208 
692.000000	 63.434743 
691.000000	 63.467049 
690.000000	 63.514065 
689.000000	 63.565349 
688.000000	 63.611054 
687.000000	 63.642907 
686.000000	 63.655948 
685.000000	 63.649392 
684.000000	 63.626861 
683.000000	 63.595843 
682.000000	 63.565707 
681.000000	 63.546252 
680.000000	 63.544344 
679.000000	 63.562226 
678.000000	 63.596653 
677.000000	 63.639950 
676.000000	 63.681864 
675.000000	 63.713288 
674.000000	 63.727331 
673.000000	 63.722062 
672.000000	 63.698577 
671.000000	 63.660407 
670.000000	 63.611245 
669.000000	 63.552904 
668.000000	 63.486289 
667.000000	 63.411498 
666.000000	 63.330221 
665.000000	 63.246941 
664.000000	 63.169336 
663.000000	 63.107609 
662.000000	 63.071823 
661.000000	 63.069581 
660.000000	 63.103318 
659.000000	 63.169145 
658.000000	 63.256859 
657.000000	 63.352179 
656.000000	 63.440012 
655.000000	 63.507914 
654.000000	 63.549304 
653.000000	 63.564181 
652.000000	 63.557910 
651.000000	 63.539385 
650.000000	 63.517832 
649.000000	 63.500666 
648.000000	 63.492584 
647.000000	 63.494157 
646.000000	 63.503861 
645.000000	 63.517427 
644.000000	 63.530921 
643.000000	 63.539791 
642.000000	 63.540601 
641.000000	 63.530588 
640.000000	 63.508009 
639.000000	 63.471770 
638.000000	 63.421654 
637.000000	 63.357925 
636.000000	 63.281702 
635.000000	 63.195919 
634.000000	 63.105940 
633.000000	 63.019585 
632.000000	 62.946748 
631.000000	 62.899065 
630.000000	 62.887549 
629.000000	 62.920093 
628.000000	 62.998843 
627.000000	 63.119554 
626.000000	 63.270163 
625.000000	 63.432383 
624.000000	 63.583421 
623.000000	 63.700246 
622.000000	 63.763523 
621.000000	 63.761448 
620.000000	 63.692021 
619.000000	 63.563656 
618.000000	 63.393282 
617.000000	 63.203454 
616.000000	 63.017487 
615.000000	 62.855839 
614.000000	 62.732267 
613.000000	 62.652730 
612.000000	 62.615442 
611.000000	 62.613248 
610.000000	 62.636351 
609.000000	 62.675452 
608.000000	 62.724590 
607.000000	 62.781953 
606.000000	 62.849807 
605.000000	 62.932753 
604.000000	 63.035464 
603.000000	 63.160204 
602.000000	 63.305830 
601.000000	 63.466620 
600.000000	 63.633131 
599.000000	 63.793110 
598.000000	 63.935041 
597.000000	 64.048361 
596.000000	 64.126300 
595.000000	 64.165425 
594.000000	 64.167141 
593.000000	 64.135503 
592.000000	 64.077234 
591.000000	 63.999414 
590.000000	 63.909530 
589.000000	 63.814258 
588.000000	 63.720226 
587.000000	 63.633656 
586.000000	 63.560390 
585.000000	 63.506555 
584.000000	 63.478612 
583.000000	 63.481497 
582.000000	 63.517212 
581.000000	 63.584470 
580.000000	 63.677740 
579.000000	 63.787174 
578.000000	 63.898992 
577.000000	 63.997173 
576.000000	 64.065504 
575.000000	 64.090418 
574.000000	 64.063048 
573.000000	 63.980650 
572.000000	 63.847470 
571.000000	 63.674473 
570.000000	 63.478040 
569.000000	 63.276863 
568.000000	 63.090014 
567.000000	 62.934899 
566.000000	 62.824559 
565.000000	 62.765645 
564.000000	 62.758612 
563.000000	 62.797379 
562.000000	 62.872195 
561.000000	 62.969803 
560.000000	 63.078689 
559.000000	 63.189554 
558.000000	 63.297963 
557.000000	 63.403177 
556.000000	 63.506627 
555.000000	 63.608956 
554.000000	 63.708853 
553.000000	 63.801908 
552.000000	 63.881468 
551.000000	 63.939833 
550.000000	 63.971304 
549.000000	 63.973307 
548.000000	 63.947486 
547.000000	 63.899183 
546.000000	 63.836193 
545.000000	 63.766884 
544.000000	 63.699555 
543.000000	 63.640236 
542.000000	 63.593173 
541.000000	 63.559389 
540.000000	 63.537216 
539.000000	 63.523292 
538.000000	 63.513875 
537.000000	 63.505697 
536.000000	 63.495492 
535.000000	 63.482451 
534.000000	 63.467621 
533.000000	 63.454389 
532.000000	 63.446617 
531.000000	 63.448905 
530.000000	 63.464784 
529.000000	 63.496398 
528.000000	 63.543868 
527.000000	 63.604307 
526.000000	 63.671946 
525.000000	 63.738727 
524.000000	 63.795852 
523.000000	 63.834571 
522.000000	 63.847875 
521.000000	 63.832736 
520.000000	 63.790440 
519.000000	 63.726353 
518.000000	 63.648867 
517.000000	 63.567543 
516.000000	 63.491868 
515.000000	 63.428878 
514.000000	 63.383889 
513.000000	 63.360357 
512.000000	 63.360571 
511.000000	 63.385939 
510.000000	 63.437032 
509.000000	 63.512802 
508.000000	 63.610243 
507.000000	 63.722753 
506.000000	 63.841772 
505.000000	 63.957619 
504.000000	 64.060759 
503.000000	 64.143300 
502.000000	 64.199590 
501.000000	 64.226746 
500.000000	 64.224815 
499.000000	 64.196538 
498.000000	 64.146542 
497.000000	 64.080476 
496.000000	 64.004778 
495.000000	 63.925766 
494.000000	 63.848829 
493.000000	 63.777971 
492.000000	 63.716053 
491.000000	 63.664698 
490.000000	 63.624477 
489.000000	 63.594794 
488.000000	 63.574099 
487.000000	 63.559508 
486.000000	 63.547348 
485.000000	 63.532662 
484.000000	 63.509249 
483.000000	 63.471126 
482.000000	 63.413667 
481.000000	 63.335323 
480.000000	 63.237190 
479.000000	 63.125681 
478.000000	 63.011407 
477.000000	 62.908005 
476.000000	 62.829113 
475.000000	 62.785959 
474.000000	 62.784910 
473.000000	 62.825608 
472.000000	 62.900972 
471.000000	 62.999582 
470.000000	 63.108205 
469.000000	 63.215112 
468.000000	 63.312506 
467.000000	 63.398075 
466.000000	 63.473606 
465.000000	 63.544082 
464.000000	 63.612937 
463.000000	 63.679790 
462.000000	 63.737225 
461.000000	 63.774418 
460.000000	 63.776087 
459.000000	 63.728022 
458.000000	 63.619399 
457.000000	 63.448309 
456.000000	 63.222312 
455.000000	 62.958550 
454.000000	 62.681126 
453.000000	 62.416815 
452.000000	 62.190651 
451.000000	 62.020564 
450.000000	 61.916899 
449.000000	 61.881566 
448.000000	 61.908888 
447.000000	 61.987328 
446.000000	 62.102746 
445.000000	 62.240886 
444.000000	 62.386417 
443.000000	 62.524986 
442.000000	 62.642669 
441.000000	 62.728762 
440.000000	 62.778544 
439.000000	 62.794804 
438.000000	 62.785696 
437.000000	 62.763977 
436.000000	 62.749457 
435.000000	 62.759780 
434.000000	 62.803936 
433.000000	 62.879657 
432.000000	 62.977719 
431.000000	 63.080620 
430.000000	 63.162565 
429.000000	 63.202691 
428.000000	 63.193321 
427.000000	 63.142085 
426.000000	 63.067770 
425.000000	 63.000917 
424.000000	 62.976479 
423.000000	 63.022994 
422.000000	 63.152265 
421.000000	 63.363122 
420.000000	 63.641476 
419.000000	 63.963723 
418.000000	 64.301753 
417.000000	 64.620876 
416.000000	 64.882135 
415.000000	 65.060305 
414.000000	 65.139102 
413.000000	 65.097665 
412.000000	 64.909863 
411.000000	 64.565801 
410.000000	 64.058327 
409.000000	 63.391685 
408.000000	 62.571501 
407.000000	 61.607408 
406.000000	 60.512351 
405.000000	 59.320235 
404.000000	 58.071804 
403.000000	 56.813192 
402.000000	 55.590271 
401.000000	 54.452228 
400.000000	 53.431844 
399.000000	 52.546668 
398.000000	 51.783919 
397.000000	 51.094508 
396.000000	 50.422835 
395.000000	 49.726819 
394.000000	 48.980832 
393.000000	 48.179197 
392.000000	 47.395586 
391.000000	 46.778559 
390.000000	 46.566867 
389.000000	 47.035741 
388.000000	 48.466706 
387.000000	 51.040005 
386.000000	 54.755926 
385.000000	 59.373593 
384.000000	 64.403796 
383.000000	 69.180703 
382.000000	 73.046755 
381.000000	 75.436472 
380.000000	 76.008200 
379.000000	 74.683809 
378.000000	 71.666932 
377.000000	 67.391872 
376.000000	 62.374615 
375.000000	 57.221150 
374.000000	 52.520918 
373.000000	 48.832368 
372.000000	 46.638631 
371.000000	 46.290779 
370.000000	 47.949266 

