PE IR       SPECTRUM    SPECTRUM    ASCII       PEDS        1.60        
  -1
BZ6034~1.ASC
17/04/07
17:12:54.00
17/04/07
17:12:54.00
tln
$BZ1503107-1_t0048$<tbV0>[5.2,-2.6,8.0,0.0,27,1,0]
370.000000
64









2002,4.07    
MIRTGS : RIGHTBACK : INTERNAL 2
MIR : ON : INTERNAL 2
OPTKBR

0.200000
8
8.000000
FILLER
RATIO
SPECTRUM
UNLOCKED 256

DOUBLE
64
COMBINED
1
0
0


1.000000
RATIO


1
0
TRUE
51149
0
LEFT NOT FITTED RIGHT NOT FITTED 0
NONE
NONE
15600
12.000000
4.427000
51148
TRUE
1 0 8 72 0 0 0 0 

15798.010000






#HDR
-1
-1
#GR
CM-1
%T
0.00002384185791015625
0.0
5000.000000
-1.000000
4631
8
67.473745
41.505885
#DATA
5000.000000	64.010667 
4999.000000	64.254379 
4998.000000	64.498114 
4997.000000	64.703464 
4996.000000	64.841032 
4995.000000	64.896059 
4994.000000	64.871835 
4993.000000	64.786648 
4992.000000	64.669370 
4991.000000	64.549994 
4990.000000	64.455723 
4989.000000	64.404320 
4988.000000	64.405870 
4987.000000	64.463376 
4986.000000	64.575052 
4985.000000	64.736485 
4984.000000	64.942741 
4983.000000	65.188527 
4982.000000	65.465521 
4981.000000	65.761017 
4980.000000	66.058087 
4979.000000	66.335725 
4978.000000	66.572570 
4977.000000	66.748499 
4976.000000	66.848373 
4975.000000	66.863632 
4974.000000	66.795372 
4973.000000	66.653752 
4972.000000	66.458177 
4971.000000	66.233706 
4970.000000	66.009569 
4969.000000	65.811991 
4968.000000	65.663313 
4967.000000	65.575218 
4966.000000	65.549254 
4965.000000	65.575003 
4964.000000	65.634703 
4963.000000	65.704941 
4962.000000	65.761470 
4961.000000	65.784430 
4960.000000	65.761327 
4959.000000	65.689849 
4958.000000	65.576934 
4957.000000	65.437793 
4956.000000	65.291762 
4955.000000	65.158271 
4954.000000	65.052366 
4953.000000	64.983296 
4952.000000	64.952635 
4951.000000	64.954662 
4950.000000	64.978456 
4949.000000	65.011262 
4948.000000	65.041494 
4947.000000	65.059542 
4946.000000	65.060591 
4945.000000	65.044283 
4944.000000	65.014982 
4943.000000	64.978170 
4942.000000	64.940547 
4941.000000	64.907336 
4940.000000	64.882278 
4939.000000	64.867830 
4938.000000	64.864659 
4937.000000	64.872241 
4936.000000	64.888978 
4935.000000	64.913463 
4934.000000	64.942979 
4933.000000	64.973545 
4932.000000	64.999699 
4931.000000	65.015268 
4930.000000	65.014791 
4929.000000	64.994907 
4928.000000	64.956092 
4927.000000	64.903235 
4926.000000	64.844465 
4925.000000	64.789795 
4924.000000	64.749789 
4923.000000	64.732432 
4922.000000	64.740705 
4921.000000	64.771652 
4920.000000	64.817118 
4919.000000	64.865612 
4918.000000	64.905238 
4917.000000	64.926195 
4916.000000	64.923262 
4915.000000	64.896702 
4914.000000	64.851498 
4913.000000	64.796066 
4912.000000	64.739871 
4911.000000	64.690804 
4910.000000	64.653635 
4909.000000	64.628911 
4908.000000	64.613842 
4907.000000	64.603352 
4906.000000	64.592123 
4905.000000	64.576530 
4904.000000	64.555931 
4903.000000	64.534449 
4902.000000	64.520001 
4901.000000	64.522767 
4900.000000	64.552283 
4899.000000	64.614701 
4898.000000	64.709997 
4897.000000	64.831209 
4896.000000	64.964818 
4895.000000	65.092968 
4894.000000	65.197300 
4893.000000	65.262818 
4892.000000	65.281748 
4891.000000	65.254759 
4890.000000	65.191507 
4889.000000	65.108489 
4888.000000	65.024781 
4887.000000	64.958357 
4886.000000	64.920902 
4885.000000	64.916753 
4884.000000	64.940714 
4883.000000	64.981365 
4882.000000	65.022921 
4881.000000	65.050244 
4880.000000	65.051841 
4879.000000	65.022635 
4878.000000	64.964962 
4877.000000	64.887404 
4876.000000	64.803123 
4875.000000	64.726233 
4874.000000	64.668822 
4873.000000	64.638113 
4872.000000	64.635658 
4871.000000	64.657044 
4870.000000	64.693379 
4869.000000	64.733600 
4868.000000	64.767050 
4867.000000	64.786291 
4866.000000	64.787745 
4865.000000	64.773106 
4864.000000	64.748430 
4863.000000	64.722132 
4862.000000	64.702701 
4861.000000	64.695692 
4860.000000	64.702677 
4859.000000	64.720106 
4858.000000	64.740896 
4857.000000	64.755797 
4856.000000	64.756584 
4855.000000	64.738392 
4854.000000	64.701509 
4853.000000	64.650940 
4852.000000	64.595055 
4851.000000	64.542961 
4850.000000	64.502048 
4849.000000	64.475846 
4848.000000	64.463114 
4847.000000	64.458513 
4846.000000	64.454746 
4845.000000	64.444541 
4844.000000	64.423418 
4843.000000	64.391016 
4842.000000	64.351630 
4841.000000	64.311766 
4840.000000	64.279365 
4839.000000	64.260530 
4838.000000	64.258861 
4837.000000	64.274787 
4836.000000	64.305520 
4835.000000	64.346528 
4834.000000	64.391732 
4833.000000	64.435338 
4832.000000	64.472079 
4831.000000	64.497947 
4830.000000	64.510536 
4829.000000	64.508581 
4828.000000	64.492750 
4827.000000	64.465355 
4826.000000	64.430189 
4825.000000	64.392137 
4824.000000	64.356589 
4823.000000	64.328575 
4822.000000	64.311814 
4821.000000	64.308214 
4820.000000	64.317655 
4819.000000	64.338445 
4818.000000	64.368033 
4817.000000	64.403629 
4816.000000	64.443159 
4815.000000	64.484930 
4814.000000	64.526963 
4813.000000	64.567017 
4812.000000	64.601659 
4811.000000	64.627122 
4810.000000	64.639949 
4809.000000	64.638161 
4808.000000	64.622521 
4807.000000	64.596486 
4806.000000	64.565992 
4805.000000	64.537835 
4804.000000	64.518737 
4803.000000	64.512991 
4802.000000	64.521741 
4801.000000	64.542317 
4800.000000	64.569330 
4799.000000	64.595699 
4798.000000	64.614844 
4797.000000	64.621973 
4796.000000	64.615559 
4795.000000	64.596962 
4794.000000	64.569878 
4793.000000	64.539051 
4792.000000	64.509010 
4791.000000	64.483141 
4790.000000	64.463114 
4789.000000	64.449286 
4788.000000	64.440703 
4787.000000	64.435791 
4786.000000	64.432644 
4785.000000	64.429187 
4784.000000	64.424133 
4783.000000	64.416980 
4782.000000	64.408397 
4781.000000	64.399313 
4780.000000	64.391374 
4779.000000	64.386487 
4778.000000	64.386868 
4777.000000	64.394211 
4776.000000	64.410185 
4775.000000	64.435911 
4774.000000	64.471864 
4773.000000	64.517688 
4772.000000	64.571356 
4771.000000	64.629125 
4770.000000	64.685797 
4769.000000	64.735364 
4768.000000	64.771890 
4767.000000	64.790654 
4766.000000	64.789605 
4765.000000	64.770054 
4764.000000	64.737153 
4763.000000	64.698743 
4762.000000	64.664363 
4761.000000	64.642119 
4760.000000	64.637112 
4759.000000	64.649105 
4758.000000	64.673113 
4757.000000	64.700222 
4756.000000	64.720320 
4755.000000	64.724588 
4754.000000	64.707922 
4753.000000	64.670181 
4752.000000	64.616250 
4751.000000	64.554858 
4750.000000	64.495539 
4749.000000	64.447355 
4748.000000	64.416575 
4747.000000	64.406108 
4746.000000	64.415264 
4745.000000	64.441061 
4744.000000	64.479470 
4743.000000	64.526462 
4742.000000	64.578747 
4741.000000	64.633703 
4740.000000	64.689278 
4739.000000	64.743161 
4738.000000	64.792537 
4737.000000	64.835000 
4736.000000	64.868497 
4735.000000	64.892482 
4734.000000	64.906978 
4733.000000	64.913296 
4732.000000	64.912533 
4731.000000	64.905881 
4730.000000	64.893388 
4729.000000	64.874434 
4728.000000	64.847731 
4727.000000	64.812707 
4726.000000	64.769482 
4725.000000	64.719414 
4724.000000	64.665269 
4723.000000	64.611005 
4722.000000	64.561152 
4721.000000	64.519262 
4720.000000	64.488244 
4719.000000	64.469289 
4718.000000	64.462518 
4717.000000	64.466929 
4716.000000	64.481091 
4715.000000	64.503312 
4714.000000	64.531540 
4713.000000	64.563298 
4712.000000	64.595627 
4711.000000	64.625215 
4710.000000	64.648866 
4709.000000	64.664077 
4708.000000	64.669442 
4707.000000	64.664793 
4706.000000	64.651083 
4705.000000	64.630126 
4704.000000	64.603877 
4703.000000	64.574813 
4702.000000	64.545726 
4701.000000	64.520478 
4700.000000	64.503192 
4699.000000	64.498662 
4698.000000	64.511656 
4697.000000	64.545631 
4696.000000	64.601826 
4695.000000	64.677786 
4694.000000	64.767003 
4693.000000	64.859652 
4692.000000	64.943933 
4691.000000	65.008926 
4690.000000	65.046906 
4689.000000	65.055990 
4688.000000	65.040612 
4687.000000	65.010523 
4686.000000	64.978480 
4685.000000	64.957141 
4684.000000	64.955878 
4683.000000	64.979171 
4682.000000	65.025138 
4681.000000	65.086817 
4680.000000	65.153503 
4679.000000	65.213775 
4678.000000	65.257954 
4677.000000	65.279960 
4676.000000	65.278482 
4675.000000	65.256834 
4674.000000	65.221476 
4673.000000	65.180516 
4672.000000	65.140986 
4671.000000	65.107560 
4670.000000	65.081453 
4669.000000	65.061402 
4668.000000	65.044307 
4667.000000	65.026903 
4666.000000	65.007376 
4665.000000	64.986133 
4664.000000	64.966154 
4663.000000	64.951920 
4662.000000	64.947962 
4661.000000	64.956927 
4660.000000	64.978551 
4659.000000	65.009212 
4658.000000	65.042066 
4657.000000	65.068435 
4656.000000	65.080070 
4655.000000	65.071320 
4654.000000	65.040421 
4653.000000	64.989995 
4652.000000	64.926171 
4651.000000	64.857578 
4650.000000	64.792990 
4649.000000	64.740419 
4648.000000	64.706063 
4647.000000	64.693474 
4646.000000	64.703416 
4645.000000	64.734292 
4644.000000	64.782619 
4643.000000	64.843988 
4642.000000	64.912843 
4641.000000	64.984035 
4640.000000	65.052723 
4639.000000	65.115118 
4638.000000	65.168547 
4637.000000	65.211367 
4636.000000	65.242552 
4635.000000	65.261530 
4634.000000	65.268254 
4633.000000	65.262484 
4632.000000	65.244102 
4631.000000	65.213632 
4630.000000	65.172791 
4629.000000	65.124869 
4628.000000	65.074372 
4627.000000	65.027070 
4626.000000	64.988327 
4625.000000	64.962220 
4624.000000	64.950060 
4623.000000	64.949989 
4622.000000	64.957618 
4621.000000	64.966917 
4620.000000	64.972138 
4619.000000	64.969301 
4618.000000	64.957070 
4617.000000	64.936780 
4616.000000	64.912176 
4615.000000	64.887762 
4614.000000	64.868330 
4613.000000	64.856886 
4612.000000	64.855265 
4611.000000	64.863204 
4610.000000	64.879846 
4609.000000	64.904284 
4608.000000	64.935970 
4607.000000	64.974665 
4606.000000	65.019965 
4605.000000	65.070652 
4604.000000	65.124034 
4603.000000	65.175819 
4602.000000	65.221071 
4601.000000	65.255022 
4600.000000	65.274572 
4599.000000	65.278553 
4598.000000	65.268421 
4597.000000	65.247559 
4596.000000	65.220546 
4595.000000	65.192174 
4594.000000	65.166449 
4593.000000	65.145969 
4592.000000	65.131974 
4591.000000	65.124273 
4590.000000	65.121912 
4589.000000	65.123581 
4588.000000	65.128397 
4587.000000	65.135788 
4586.000000	65.145492 
4585.000000	65.157818 
4584.000000	65.173268 
4583.000000	65.192437 
4582.000000	65.215277 
4581.000000	65.241432 
4580.000000	65.270066 
4579.000000	65.299296 
4578.000000	65.326237 
4577.000000	65.347218 
4576.000000	65.358424 
4575.000000	65.356898 
4574.000000	65.341043 
4573.000000	65.311288 
4572.000000	65.269827 
4571.000000	65.220808 
4570.000000	65.169167 
4569.000000	65.119194 
4568.000000	65.074539 
4567.000000	65.037393 
4566.000000	65.009045 
4565.000000	64.989662 
4564.000000	64.979839 
4563.000000	64.980030 
4562.000000	64.992308 
4561.000000	65.018892 
4560.000000	65.062761 
4559.000000	65.125465 
4558.000000	65.207290 
4557.000000	65.305685 
4556.000000	65.415859 
4555.000000	65.530943 
4554.000000	65.642857 
4553.000000	65.743422 
4552.000000	65.825557 
4551.000000	65.884208 
4550.000000	65.916872 
4549.000000	65.923523 
4548.000000	65.906167 
4547.000000	65.867924 
4546.000000	65.813064 
4545.000000	65.745973 
4544.000000	65.671038 
4543.000000	65.592336 
4542.000000	65.514349 
4541.000000	65.441846 
4540.000000	65.379166 
4539.000000	65.330982 
4538.000000	65.301489 
4537.000000	65.294456 
4536.000000	65.311717 
4535.000000	65.353131 
4534.000000	65.415930 
4533.000000	65.494179 
4532.000000	65.579199 
4531.000000	65.660166 
4530.000000	65.725278 
4529.000000	65.764594 
4528.000000	65.771722 
4527.000000	65.745234 
4526.000000	65.688729 
4525.000000	65.611124 
4524.000000	65.525054 
4523.000000	65.443849 
4522.000000	65.379023 
4521.000000	65.339016 
4520.000000	65.327978 
4519.000000	65.344929 
4518.000000	65.385270 
4517.000000	65.442276 
4516.000000	65.509438 
4515.000000	65.581226 
4514.000000	65.654706 
4513.000000	65.728855 
4512.000000	65.804386 
4511.000000	65.882468 
4510.000000	65.963292 
4509.000000	66.045188 
4508.000000	66.123867 
4507.000000	66.194272 
4506.000000	66.249728 
4505.000000	66.284918 
4504.000000	66.295313 
4503.000000	66.279673 
4502.000000	66.238760 
4501.000000	66.176223 
4500.000000	66.097164 
4499.000000	66.007828 
4498.000000	65.913915 
4497.000000	65.820240 
4496.000000	65.730166 
4495.000000	65.645909 
4494.000000	65.568900 
4493.000000	65.500235 
4492.000000	65.441250 
4491.000000	65.393829 
4490.000000	65.358853 
4489.000000	65.337395 
4488.000000	65.329146 
4487.000000	65.334153 
4486.000000	65.353083 
4485.000000	65.386438 
4484.000000	65.433859 
4483.000000	65.492820 
4482.000000	65.558648 
4481.000000	65.624070 
4480.000000	65.678286 
4479.000000	65.711379 
4478.000000	65.716552 
4477.000000	65.693306 
4476.000000	65.648412 
4475.000000	65.594387 
4474.000000	65.547275 
4473.000000	65.520501 
4472.000000	65.519547 
4471.000000	65.547537 
4470.000000	65.606498 
4469.000000	65.686392 
4468.000000	65.768551 
4467.000000	65.842437 
4466.000000	65.906739 
4465.000000	65.961885 
4464.000000	66.010475 
4463.000000	66.057682 
4462.000000	66.106033 
4461.000000	66.155672 
4460.000000	66.200065 
4459.000000	66.225957 
4458.000000	66.215634 
4457.000000	66.157269 
4456.000000	66.044116 
4455.000000	65.868902 
4454.000000	65.638685 
4453.000000	65.376138 
4452.000000	65.118837 
4451.000000	64.914512 
4450.000000	64.805507 
4449.000000	64.830279 
4448.000000	64.978981 
4447.000000	65.196442 
4446.000000	65.360903 
4445.000000	65.313053 
4444.000000	64.857912 
4443.000000	63.814902 
4442.000000	62.061405 
4441.000000	59.580564 
4440.000000	56.480097 
4439.000000	52.996635 
4438.000000	49.460196 
4437.000000	46.246862 
4436.000000	43.699622 
4435.000000	42.080855 
4434.000000	41.505885 
4433.000000	41.955709 
4432.000000	43.277263 
4431.000000	45.248007 
4430.000000	47.602057 
4429.000000	50.106310 
4428.000000	52.567505 
4427.000000	54.869174 
4426.000000	56.932973 
4425.000000	58.729982 
4424.000000	60.234165 
4423.000000	61.433100 
4422.000000	62.313175 
4421.000000	62.877726 
4420.000000	63.159012 
4419.000000	63.225173 
4418.000000	63.187623 
4417.000000	63.161802 
4416.000000	63.249588 
4415.000000	63.510012 
4414.000000	63.949131 
4413.000000	64.518666 
4412.000000	65.130996 
4411.000000	65.696430 
4410.000000	66.141676 
4409.000000	66.421604 
4408.000000	66.528320 
4407.000000	66.491365 
4406.000000	66.364574 
4405.000000	66.199898 
4404.000000	66.041135 
4403.000000	65.922379 
4402.000000	65.856385 
4401.000000	65.842866 
4400.000000	65.865874 
4399.000000	65.903544 
4398.000000	65.934419 
4397.000000	65.952205 
4396.000000	65.954947 
4395.000000	65.937590 
4394.000000	65.902137 
4393.000000	65.856814 
4392.000000	65.809941 
4391.000000	65.766406 
4390.000000	65.731477 
4389.000000	65.710306 
4388.000000	65.703606 
4387.000000	65.708422 
4386.000000	65.721106 
4385.000000	65.738368 
4384.000000	65.758204 
4383.000000	65.779900 
4382.000000	65.804409 
4381.000000	65.833139 
4380.000000	65.863990 
4379.000000	65.893125 
4378.000000	65.917563 
4377.000000	65.934467 
4376.000000	65.941572 
4375.000000	65.938043 
4374.000000	65.924715 
4373.000000	65.904307 
4372.000000	65.880942 
4371.000000	65.859818 
4370.000000	65.845704 
4369.000000	65.843343 
4368.000000	65.856432 
4367.000000	65.887832 
4366.000000	65.938878 
4365.000000	66.009068 
4364.000000	66.095829 
4363.000000	66.194009 
4362.000000	66.296172 
4361.000000	66.392946 
4360.000000	66.473793 
4359.000000	66.527962 
4358.000000	66.545724 
4357.000000	66.520404 
4356.000000	66.449761 
4355.000000	66.336798 
4354.000000	66.189956 
4353.000000	66.022419 
4352.000000	65.850281 
4351.000000	65.690779 
4350.000000	65.558767 
4349.000000	65.465283 
4348.000000	65.414929 
4347.000000	65.405893 
4346.000000	65.430283 
4345.000000	65.475416 
4344.000000	65.527677 
4343.000000	65.574717 
4342.000000	65.608406 
4341.000000	65.625095 
4340.000000	65.626740 
4339.000000	65.618753 
4338.000000	65.608549 
4337.000000	65.602421 
4336.000000	65.604615 
4335.000000	65.616083 
4334.000000	65.634489 
4333.000000	65.654993 
4332.000000	65.671968 
4331.000000	65.680456 
4330.000000	65.677332 
4329.000000	65.662097 
4328.000000	65.636801 
4327.000000	65.605640 
4326.000000	65.573453 
4325.000000	65.544772 
4324.000000	65.523076 
4323.000000	65.509724 
4322.000000	65.504908 
4321.000000	65.506696 
4320.000000	65.511655 
4319.000000	65.515732 
4318.000000	65.515708 
4317.000000	65.509414 
4316.000000	65.496230 
4315.000000	65.476751 
4314.000000	65.452885 
4313.000000	65.426421 
4312.000000	65.398597 
4311.000000	65.369367 
4310.000000	65.337514 
4309.000000	65.301871 
4308.000000	65.262365 
4307.000000	65.220713 
4306.000000	65.180611 
4305.000000	65.147137 
4304.000000	65.125536 
4303.000000	65.119600 
4302.000000	65.130329 
4301.000000	65.155076 
4300.000000	65.188002 
4299.000000	65.221142 
4298.000000	65.246629 
4297.000000	65.258932 
4296.000000	65.256214 
4295.000000	65.240859 
4294.000000	65.218329 
4293.000000	65.195488 
4292.000000	65.178632 
4291.000000	65.171432 
4290.000000	65.174460 
4289.000000	65.185284 
4288.000000	65.199351 
4287.000000	65.212011 
4286.000000	65.219187 
4285.000000	65.218687 
4284.000000	65.210247 
4283.000000	65.195417 
4282.000000	65.176892 
4281.000000	65.157866 
4280.000000	65.141487 
4279.000000	65.130543 
4278.000000	65.127348 
4277.000000	65.133285 
4276.000000	65.149140 
4275.000000	65.174269 
4274.000000	65.206646 
4273.000000	65.242934 
4272.000000	65.278220 
4271.000000	65.307450 
4270.000000	65.325951 
4269.000000	65.330719 
4268.000000	65.321040 
4267.000000	65.298700 
4266.000000	65.267586 
4265.000000	65.232968 
4264.000000	65.199899 
4263.000000	65.172624 
4262.000000	65.153884 
4261.000000	65.144753 
4260.000000	65.144968 
4259.000000	65.153527 
4258.000000	65.169215 
4257.000000	65.190744 
4256.000000	65.216875 
4255.000000	65.245699 
4254.000000	65.274381 
4253.000000	65.299010 
4252.000000	65.315008 
4251.000000	65.318012 
4250.000000	65.304803 
4249.000000	65.274667 
4248.000000	65.229773 
4247.000000	65.174937 
4246.000000	65.116906 
4245.000000	65.062761 
4244.000000	65.018796 
4243.000000	64.989280 
4242.000000	64.975738 
4241.000000	64.976835 
4240.000000	64.988994 
4239.000000	65.007829 
4238.000000	65.028595 
4237.000000	65.047240 
4236.000000	65.060687 
4235.000000	65.066838 
4234.000000	65.064978 
4233.000000	65.055131 
4232.000000	65.038776 
4231.000000	65.017890 
4230.000000	64.995741 
4229.000000	64.976406 
4228.000000	64.963841 
4227.000000	64.961171 
4226.000000	64.969897 
4225.000000	64.989256 
4224.000000	65.016531 
4223.000000	65.047240 
4222.000000	65.076041 
4221.000000	65.097570 
4220.000000	65.107703 
4219.000000	65.103960 
4218.000000	65.085864 
4217.000000	65.054869 
4216.000000	65.013527 
4215.000000	64.965486 
4214.000000	64.914631 
4213.000000	64.865088 
4212.000000	64.820671 
4211.000000	64.785099 
4210.000000	64.761543 
4209.000000	64.752745 
4208.000000	64.760398 
4207.000000	64.784669 
4206.000000	64.823818 
4205.000000	64.874386 
4204.000000	64.931249 
4203.000000	64.988422 
4202.000000	65.039706 
4201.000000	65.079426 
4200.000000	65.103220 
4199.000000	65.108442 
4198.000000	65.094614 
4197.000000	65.063190 
4196.000000	65.017247 
4195.000000	64.961314 
4194.000000	64.900588 
4193.000000	64.840674 
4192.000000	64.786624 
4191.000000	64.742970 
4190.000000	64.712381 
4189.000000	64.695692 
4188.000000	64.691424 
4187.000000	64.696049 
4186.000000	64.704728 
4185.000000	64.711737 
4184.000000	64.712262 
4183.000000	64.702725 
4182.000000	64.682602 
4181.000000	64.653730 
4180.000000	64.620971 
4179.000000	64.590477 
4178.000000	64.569044 
4177.000000	64.562225 
4176.000000	64.573287 
4175.000000	64.602327 
4174.000000	64.645910 
4173.000000	64.697861 
4172.000000	64.750289 
4171.000000	64.795255 
4170.000000	64.826321 
4169.000000	64.839792 
4168.000000	64.835381 
4167.000000	64.816236 
4166.000000	64.788007 
4165.000000	64.757561 
4164.000000	64.731693 
4163.000000	64.715456 
4162.000000	64.711284 
4161.000000	64.718341 
4160.000000	64.733958 
4159.000000	64.753532 
4158.000000	64.771914 
4157.000000	64.784622 
4156.000000	64.788889 
4155.000000	64.783978 
4154.000000	64.770770 
4153.000000	64.751648 
4152.000000	64.729380 
4151.000000	64.707136 
4150.000000	64.687514 
4149.000000	64.672565 
4148.000000	64.663624 
4147.000000	64.661717 
4146.000000	64.667463 
4145.000000	64.681124 
4144.000000	64.702391 
4143.000000	64.729905 
4142.000000	64.761233 
4141.000000	64.792847 
4140.000000	64.820647 
4139.000000	64.840626 
4138.000000	64.849853 
4137.000000	64.847016 
4136.000000	64.833354 
4135.000000	64.812350 
4134.000000	64.789485 
4133.000000	64.770913 
4132.000000	64.762592 
4131.000000	64.769029 
4130.000000	64.792084 
4129.000000	64.831018 
4128.000000	64.882016 
4127.000000	64.939498 
4126.000000	64.996027 
4125.000000	65.044212 
4124.000000	65.077090 
4123.000000	65.089392 
4122.000000	65.078401 
4121.000000	65.044236 
4120.000000	64.990472 
4119.000000	64.923739 
4118.000000	64.853286 
4117.000000	64.789366 
4116.000000	64.741778 
4115.000000	64.717960 
4114.000000	64.721512 
4113.000000	64.751172 
4112.000000	64.801120 
4111.000000	64.861989 
4110.000000	64.922308 
4109.000000	64.971184 
4108.000000	65.000271 
4107.000000	65.005135 
4106.000000	64.985942 
4105.000000	64.946937 
4104.000000	64.895200 
4103.000000	64.839148 
4102.000000	64.786553 
4101.000000	64.743375 
4100.000000	64.713072 
4099.000000	64.696645 
4098.000000	64.693284 
4097.000000	64.700651 
4096.000000	64.716196 
4095.000000	64.736962 
4094.000000	64.760112 
4093.000000	64.783000 
4092.000000	64.803266 
4091.000000	64.818835 
4090.000000	64.828157 
4089.000000	64.830255 
4088.000000	64.825224 
4087.000000	64.814591 
4086.000000	64.800953 
4085.000000	64.787697 
4084.000000	64.777898 
4083.000000	64.774084 
4082.000000	64.777350 
4081.000000	64.787054 
4080.000000	64.800906 
4079.000000	64.815473 
4078.000000	64.827156 
4077.000000	64.833045 
4076.000000	64.831924 
4075.000000	64.824128 
4074.000000	64.811825 
4073.000000	64.797997 
4072.000000	64.786100 
4071.000000	64.778995 
4070.000000	64.778447 
4069.000000	64.784646 
4068.000000	64.796733 
4067.000000	64.813137 
4066.000000	64.831995 
4065.000000	64.852023 
4064.000000	64.872407 
4063.000000	64.892935 
4062.000000	64.913845 
4061.000000	64.935564 
4060.000000	64.957928 
4059.000000	64.980053 
4058.000000	65.000677 
4057.000000	65.018153 
4056.000000	65.031075 
4055.000000	65.038537 
4054.000000	65.040659 
4053.000000	65.038776 
4052.000000	65.035104 
4051.000000	65.032386 
4050.000000	65.033459 
4049.000000	65.040349 
4048.000000	65.053939 
4047.000000	65.073537 
4046.000000	65.096783 
4045.000000	65.120387 
4044.000000	65.140700 
4043.000000	65.154600 
4042.000000	65.160036 
4041.000000	65.156769 
4040.000000	65.146231 
4039.000000	65.130853 
4038.000000	65.113306 
4037.000000	65.095734 
4036.000000	65.079188 
4035.000000	65.063524 
4034.000000	65.047526 
4033.000000	65.029525 
4032.000000	65.008068 
4031.000000	64.982795 
4030.000000	64.954543 
4029.000000	64.925479 
4028.000000	64.898157 
4027.000000	64.874863 
4026.000000	64.857292 
4025.000000	64.845609 
4024.000000	64.839220 
4023.000000	64.836478 
4022.000000	64.835953 
4021.000000	64.836883 
4020.000000	64.839529 
4019.000000	64.844870 
4018.000000	64.854621 
4017.000000	64.870357 
4016.000000	64.893245 
4015.000000	64.923262 
4014.000000	64.959359 
4013.000000	64.999389 
4012.000000	65.040564 
4011.000000	65.079975 
4010.000000	65.114951 
4009.000000	65.143275 
4008.000000	65.163350 
4007.000000	65.174221 
4006.000000	65.175700 
4005.000000	65.168309 
4004.000000	65.153431 
4003.000000	65.133309 
4002.000000	65.110945 
4001.000000	65.090131 
4000.000000	65.074896 
3999.000000	65.068912 
3998.000000	65.074801 
3997.000000	65.093898 
3996.000000	65.125632 
3995.000000	65.168023 
3994.000000	65.217733 
3993.000000	65.270853 
3992.000000	65.323567 
3991.000000	65.372419 
3990.000000	65.414929 
3989.000000	65.449261 
3988.000000	65.474510 
3987.000000	65.490174 
3986.000000	65.496087 
3985.000000	65.492439 
3984.000000	65.479969 
3983.000000	65.460062 
3982.000000	65.434503 
3981.000000	65.405845 
3980.000000	65.376663 
3979.000000	65.349197 
3978.000000	65.324568 
3977.000000	65.302562 
3976.000000	65.281796 
3975.000000	65.259695 
3974.000000	65.233874 
3973.000000	65.202403 
3972.000000	65.165090 
3971.000000	65.123343 
3970.000000	65.080451 
3969.000000	65.040516 
3968.000000	65.007805 
3967.000000	64.985227 
3966.000000	64.974141 
3965.000000	64.974045 
3964.000000	64.982557 
3963.000000	64.996075 
3962.000000	65.010666 
3961.000000	65.023183 
3960.000000	65.031313 
3959.000000	65.033817 
3958.000000	65.030288 
3957.000000	65.021133 
3956.000000	65.007090 
3955.000000	64.989352 
3954.000000	64.969468 
3953.000000	64.949369 
3952.000000	64.931845 
3951.000000	64.919805 
3950.000000	64.915728 
3949.000000	64.920759 
3948.000000	64.934682 
3947.000000	64.955472 
3946.000000	64.979600 
3945.000000	65.002584 
3944.000000	65.020442 
3943.000000	65.029978 
3942.000000	65.029311 
3941.000000	65.018272 
3940.000000	64.998340 
3939.000000	64.971852 
3938.000000	64.941263 
3937.000000	64.908862 
3936.000000	64.876365 
3935.000000	64.845156 
3934.000000	64.816331 
3933.000000	64.791131 
3932.000000	64.771437 
3931.000000	64.759778 
3930.000000	64.758944 
3929.000000	64.771533 
3928.000000	64.798951 
3927.000000	64.841127 
3926.000000	64.896106 
3925.000000	64.959883 
3924.000000	65.026950 
3923.000000	65.090847 
3922.000000	65.145540 
3921.000000	65.186285 
3920.000000	65.211009 
3919.000000	65.220427 
3918.000000	65.217995 
3917.000000	65.209507 
3916.000000	65.201234 
3915.000000	65.199089 
3914.000000	65.206861 
3913.000000	65.225911 
3912.000000	65.254449 
3911.000000	65.288925 
3910.000000	65.324449 
3909.000000	65.356469 
3908.000000	65.381407 
3907.000000	65.397357 
3906.000000	65.404057 
3905.000000	65.402650 
3904.000000	65.394592 
3903.000000	65.381169 
3902.000000	65.363359 
3901.000000	65.341973 
3900.000000	65.317893 
3899.000000	65.292549 
3898.000000	65.268564 
3897.000000	65.249133 
3896.000000	65.237498 
3895.000000	65.235805 
3894.000000	65.244388 
3893.000000	65.261173 
3892.000000	65.282177 
3891.000000	65.301942 
3890.000000	65.314698 
3889.000000	65.315771 
3888.000000	65.303111 
3887.000000	65.277409 
3886.000000	65.241789 
3885.000000	65.201187 
3884.000000	65.161275 
3883.000000	65.127277 
3882.000000	65.102648 
3881.000000	65.089297 
3880.000000	65.087413 
3879.000000	65.095901 
3878.000000	65.112829 
3877.000000	65.136098 
3876.000000	65.163826 
3875.000000	65.194272 
3874.000000	65.225958 
3873.000000	65.257883 
3872.000000	65.289640 
3871.000000	65.321540 
3870.000000	65.354084 
3869.000000	65.387701 
3868.000000	65.422010 
3867.000000	65.456128 
3866.000000	65.487670 
3865.000000	65.513586 
3864.000000	65.529823 
3863.000000	65.532851 
3862.000000	65.519785 
3861.000000	65.489673 
3860.000000	65.443491 
3859.000000	65.384769 
3858.000000	65.318918 
3857.000000	65.252614 
3856.000000	65.192437 
3855.000000	65.144014 
3854.000000	65.110826 
3853.000000	65.093684 
3852.000000	65.090680 
3851.000000	65.097832 
3850.000000	65.110015 
3849.000000	65.122127 
3848.000000	65.130019 
3847.000000	65.131664 
3846.000000	65.127563 
3845.000000	65.120506 
3844.000000	65.114331 
3843.000000	65.112757 
3842.000000	65.118575 
3841.000000	65.132355 
3840.000000	65.152215 
3839.000000	65.174126 
3838.000000	65.193319 
3837.000000	65.205335 
3836.000000	65.207481 
3835.000000	65.199708 
3834.000000	65.184330 
3833.000000	65.165805 
3832.000000	65.149188 
3831.000000	65.138840 
3830.000000	65.136909 
3829.000000	65.143060 
3828.000000	65.154528 
3827.000000	65.167164 
3826.000000	65.176892 
3825.000000	65.180778 
3824.000000	65.178036 
3823.000000	65.169692 
3822.000000	65.157938 
3821.000000	65.144968 
3820.000000	65.132164 
3819.000000	65.118885 
3818.000000	65.102648 
3817.000000	65.080094 
3816.000000	65.048360 
3815.000000	65.005970 
3814.000000	64.954185 
3813.000000	64.897155 
3812.000000	64.841437 
3811.000000	64.794325 
3810.000000	64.762902 
3809.000000	64.751696 
3808.000000	64.762258 
3807.000000	64.792895 
3806.000000	64.838743 
3805.000000	64.893102 
3804.000000	64.947891 
3803.000000	64.995646 
3802.000000	65.029740 
3801.000000	65.045237 
3800.000000	65.039753 
3799.000000	65.013408 
3798.000000	64.969253 
3797.000000	64.912724 
3796.000000	64.851570 
3795.000000	64.794754 
3794.000000	64.751577 
3793.000000	64.730072 
3792.000000	64.735913 
3791.000000	64.771103 
3790.000000	64.833641 
3789.000000	64.917635 
3788.000000	65.013790 
3787.000000	65.111422 
3786.000000	65.199780 
3785.000000	65.270161 
3784.000000	65.316843 
3783.000000	65.337848 
3782.000000	65.334963 
3781.000000	65.312433 
3780.000000	65.276074 
3779.000000	65.231394 
3778.000000	65.183568 
3777.000000	65.135669 
3776.000000	65.089416 
3775.000000	65.044975 
3774.000000	65.002298 
3773.000000	64.961743 
3772.000000	64.924573 
3771.000000	64.893102 
3770.000000	64.870047 
3769.000000	64.858126 
3768.000000	64.859104 
3767.000000	64.873123 
3766.000000	64.898586 
3765.000000	64.932298 
3764.000000	64.969992 
3763.000000	65.007424 
3762.000000	65.041208 
3761.000000	65.068960 
3760.000000	65.089726 
3759.000000	65.103626 
3758.000000	65.111684 
3757.000000	65.115356 
3756.000000	65.115976 
3755.000000	65.114283 
3754.000000	65.110445 
3753.000000	65.104770 
3752.000000	65.097236 
3751.000000	65.088105 
3750.000000	65.077590 
3749.000000	65.066337 
3748.000000	65.055227 
3747.000000	65.045094 
3746.000000	65.036725 
3745.000000	65.030598 
3744.000000	65.027046 
3743.000000	65.026164 
3742.000000	65.027809 
3741.000000	65.031766 
3740.000000	65.037846 
3739.000000	65.045928 
3738.000000	65.056061 
3737.000000	65.068554 
3736.000000	65.083932 
3735.000000	65.102386 
3734.000000	65.123748 
3733.000000	65.147089 
3732.000000	65.170669 
3731.000000	65.192008 
3730.000000	65.208458 
3729.000000	65.217494 
3728.000000	65.217447 
3727.000000	65.207362 
3726.000000	65.187764 
3725.000000	65.160083 
3724.000000	65.126681 
3723.000000	65.090346 
3722.000000	65.053892 
3721.000000	65.019607 
3720.000000	64.989256 
3719.000000	64.963889 
3718.000000	64.944028 
3717.000000	64.929604 
3716.000000	64.920210 
3715.000000	64.915227 
3714.000000	64.914011 
3713.000000	64.915752 
3712.000000	64.919710 
3711.000000	64.925456 
3710.000000	64.932918 
3709.000000	64.942359 
3708.000000	64.954137 
3707.000000	64.968657 
3706.000000	64.986109 
3705.000000	65.006279 
3704.000000	65.028309 
3703.000000	65.051054 
3702.000000	65.072774 
3701.000000	65.092039 
3700.000000	65.107440 
3699.000000	65.117859 
3698.000000	65.122652 
3697.000000	65.121722 
3696.000000	65.115356 
3695.000000	65.104365 
3694.000000	65.089893 
3693.000000	65.073704 
3692.000000	65.057635 
3691.000000	65.043497 
3690.000000	65.032982 
3689.000000	65.027570 
3688.000000	65.027928 
3687.000000	65.033888 
3686.000000	65.044331 
3685.000000	65.057349 
3684.000000	65.070390 
3683.000000	65.080761 
3682.000000	65.086007 
3681.000000	65.084600 
3680.000000	65.076184 
3679.000000	65.061926 
3678.000000	65.043926 
3677.000000	65.025067 
3676.000000	65.008425 
3675.000000	64.996600 
3674.000000	64.991164 
3673.000000	64.992499 
3672.000000	64.999723 
3671.000000	65.011310 
3670.000000	65.025544 
3669.000000	65.041232 
3668.000000	65.057992 
3667.000000	65.076375 
3666.000000	65.097308 
3665.000000	65.121793 
3664.000000	65.149927 
3663.000000	65.180683 
3662.000000	65.211486 
3661.000000	65.239095 
3660.000000	65.260195 
3659.000000	65.272140 
3658.000000	65.273737 
3657.000000	65.265464 
3656.000000	65.249180 
3655.000000	65.227484 
3654.000000	65.203046 
3653.000000	65.177679 
3652.000000	65.152120 
3651.000000	65.126109 
3650.000000	65.099143 
3649.000000	65.071010 
3648.000000	65.042877 
3647.000000	65.017247 
3646.000000	64.997768 
3645.000000	64.988493 
3644.000000	64.992642 
3643.000000	65.011453 
3642.000000	65.043640 
3641.000000	65.085124 
3640.000000	65.129661 
3639.000000	65.170121 
3638.000000	65.199780 
3637.000000	65.213871 
3636.000000	65.210223 
3635.000000	65.189719 
3634.000000	65.155768 
3633.000000	65.113258 
3632.000000	65.067410 
3631.000000	65.022826 
3630.000000	64.982795 
3629.000000	64.949226 
3628.000000	64.922595 
3627.000000	64.902591 
3626.000000	64.888668 
3625.000000	64.880561 
3624.000000	64.878153 
3623.000000	64.881777 
3622.000000	64.891362 
3621.000000	64.906978 
3620.000000	64.927792 
3619.000000	64.952445 
3618.000000	64.978742 
3617.000000	65.004229 
3616.000000	65.026688 
3615.000000	65.044546 
3614.000000	65.056896 
3613.000000	65.064096 
3612.000000	65.067410 
3611.000000	65.068817 
3610.000000	65.070652 
3609.000000	65.074849 
3608.000000	65.082645 
3607.000000	65.094065 
3606.000000	65.107846 
3605.000000	65.121650 
3604.000000	65.132665 
3603.000000	65.137958 
3602.000000	65.135359 
3601.000000	65.123987 
3600.000000	65.104722 
3599.000000	65.079450 
3598.000000	65.051007 
3597.000000	65.022492 
3596.000000	64.996838 
3595.000000	64.976334 
3594.000000	64.962458 
3593.000000	64.955639 
3592.000000	64.955687 
3591.000000	64.961934 
3590.000000	64.973425 
3589.000000	64.988899 
3588.000000	65.007019 
3587.000000	65.026402 
3586.000000	65.045714 
3585.000000	65.063333 
3584.000000	65.077972 
3583.000000	65.088653 
3582.000000	65.095186 
3581.000000	65.097928 
3580.000000	65.098023 
3579.000000	65.097188 
3578.000000	65.097570 
3577.000000	65.101218 
3576.000000	65.109825 
3575.000000	65.124392 
3574.000000	65.144968 
3573.000000	65.170478 
3572.000000	65.198659 
3571.000000	65.226364 
3570.000000	65.250039 
3569.000000	65.266156 
3568.000000	65.271949 
3567.000000	65.265846 
3566.000000	65.247893 
3565.000000	65.219664 
3564.000000	65.184092 
3563.000000	65.144824 
3562.000000	65.105581 
3561.000000	65.069770 
3560.000000	65.040063 
3559.000000	65.018033 
3558.000000	65.004253 
3557.000000	64.998388 
3556.000000	64.999580 
3555.000000	65.006732 
3554.000000	65.018558 
3553.000000	65.033769 
3552.000000	65.051102 
3551.000000	65.069460 
3550.000000	65.087771 
3549.000000	65.105223 
3548.000000	65.121245 
3547.000000	65.135598 
3546.000000	65.148377 
3545.000000	65.160012 
3544.000000	65.170788 
3543.000000	65.180897 
3542.000000	65.190124 
3541.000000	65.197849 
3540.000000	65.203070 
3539.000000	65.204811 
3538.000000	65.201926 
3537.000000	65.193772 
3536.000000	65.180253 
3535.000000	65.161871 
3534.000000	65.139961 
3533.000000	65.116238 
3532.000000	65.093016 
3531.000000	65.072703 
3530.000000	65.057945 
3529.000000	65.050935 
3528.000000	65.053725 
3527.000000	65.067696 
3526.000000	65.093636 
3525.000000	65.131139 
3524.000000	65.178513 
3523.000000	65.232634 
3522.000000	65.289020 
3521.000000	65.342426 
3520.000000	65.387153 
3519.000000	65.418362 
3518.000000	65.432882 
3517.000000	65.430021 
3516.000000	65.411686 
3515.000000	65.382099 
3514.000000	65.346932 
3513.000000	65.311932 
3512.000000	65.282082 
3511.000000	65.260267 
3510.000000	65.247011 
3509.000000	65.240788 
3508.000000	65.238666 
3507.000000	65.237474 
3506.000000	65.235018 
3505.000000	65.230560 
3504.000000	65.225124 
3503.000000	65.220928 
3502.000000	65.220522 
3501.000000	65.225911 
3500.000000	65.237545 
3499.000000	65.254235 
3498.000000	65.273141 
3497.000000	65.290689 
3496.000000	65.303230 
3495.000000	65.308070 
3494.000000	65.303945 
3493.000000	65.291213 
3492.000000	65.271592 
3491.000000	65.247988 
3490.000000	65.223717 
3489.000000	65.201711 
3488.000000	65.184020 
3487.000000	65.171813 
3486.000000	65.165162 
3485.000000	65.163207 
3484.000000	65.164637 
3483.000000	65.167808 
3482.000000	65.171289 
3481.000000	65.174031 
3480.000000	65.175461 
3479.000000	65.175461 
3478.000000	65.174341 
3477.000000	65.172505 
3476.000000	65.170693 
3475.000000	65.169644 
3474.000000	65.170049 
3473.000000	65.172290 
3472.000000	65.176773 
3471.000000	65.183758 
3470.000000	65.193343 
3469.000000	65.205264 
3468.000000	65.218973 
3467.000000	65.233445 
3466.000000	65.247273 
3465.000000	65.258789 
3464.000000	65.266323 
3463.000000	65.268540 
3462.000000	65.264558 
3461.000000	65.254473 
3460.000000	65.239214 
3459.000000	65.220546 
3458.000000	65.200734 
3457.000000	65.182185 
3456.000000	65.167093 
3455.000000	65.156698 
3454.000000	65.151524 
3453.000000	65.150594 
3452.000000	65.152096 
3451.000000	65.153121 
3450.000000	65.150761 
3449.000000	65.142297 
3448.000000	65.125966 
3447.000000	65.101432 
3446.000000	65.069699 
3445.000000	65.033245 
3444.000000	64.995384 
3443.000000	64.960026 
3442.000000	64.930772 
3441.000000	64.910578 
3440.000000	64.900994 
3439.000000	64.902377 
3438.000000	64.913535 
3437.000000	64.932012 
3436.000000	64.954352 
3435.000000	64.976596 
3434.000000	64.994812 
3433.000000	65.005636 
3432.000000	65.006828 
3431.000000	64.997649 
3430.000000	64.979410 
3429.000000	64.954948 
3428.000000	64.928627 
3427.000000	64.905619 
3426.000000	64.890575 
3425.000000	64.886808 
3424.000000	64.895272 
3423.000000	64.914774 
3422.000000	64.941573 
3421.000000	64.970684 
3420.000000	64.996910 
3419.000000	65.016078 
3418.000000	65.026044 
3417.000000	65.026950 
3416.000000	65.021228 
3415.000000	65.012812 
3414.000000	65.005803 
3413.000000	65.003395 
3412.000000	65.007209 
3411.000000	65.016746 
3410.000000	65.029883 
3409.000000	65.043258 
3408.000000	65.053677 
3407.000000	65.058970 
3406.000000	65.058279 
3405.000000	65.052580 
3404.000000	65.044045 
3403.000000	65.035533 
3402.000000	65.029764 
3401.000000	65.028595 
3400.000000	65.032672 
3399.000000	65.041089 
3398.000000	65.051960 
3397.000000	65.062713 
3396.000000	65.070939 
3395.000000	65.075087 
3394.000000	65.074753 
3393.000000	65.070676 
3392.000000	65.064477 
3391.000000	65.058469 
3390.000000	65.054821 
3389.000000	65.054893 
3388.000000	65.058922 
3387.000000	65.066146 
3386.000000	65.074992 
3385.000000	65.083384 
3384.000000	65.089511 
3383.000000	65.092206 
3382.000000	65.091562 
3381.000000	65.088868 
3380.000000	65.086412 
3379.000000	65.086817 
3378.000000	65.092396 
3377.000000	65.104722 
3376.000000	65.123867 
3375.000000	65.148735 
3374.000000	65.176773 
3373.000000	65.204906 
3372.000000	65.229678 
3371.000000	65.248131 
3370.000000	65.258049 
3369.000000	65.258455 
3368.000000	65.249443 
3367.000000	65.231943 
3366.000000	65.207338 
3365.000000	65.177297 
3364.000000	65.143060 
3363.000000	65.105628 
3362.000000	65.065670 
3361.000000	65.023827 
3360.000000	64.980936 
3359.000000	64.938282 
3358.000000	64.897608 
3357.000000	64.861178 
3356.000000	64.831399 
3355.000000	64.810442 
3354.000000	64.799475 
3353.000000	64.799046 
3352.000000	64.808225 
3351.000000	64.825367 
3350.000000	64.847779 
3349.000000	64.872765 
3348.000000	64.897704 
3347.000000	64.920735 
3346.000000	64.940524 
3345.000000	64.956641 
3344.000000	64.969110 
3343.000000	64.978551 
3342.000000	64.985609 
3341.000000	64.990973 
3340.000000	64.995193 
3339.000000	64.998936 
3338.000000	65.002751 
3337.000000	65.007305 
3336.000000	65.013194 
3335.000000	65.020871 
3334.000000	65.030741 
3333.000000	65.042781 
3332.000000	65.056681 
3331.000000	65.071964 
3330.000000	65.087795 
3329.000000	65.103220 
3328.000000	65.117049 
3327.000000	65.128350 
3326.000000	65.136218 
3325.000000	65.139889 
3324.000000	65.138769 
3323.000000	65.132617 
3322.000000	65.121674 
3321.000000	65.106606 
3320.000000	65.088629 
3319.000000	65.069317 
3318.000000	65.050530 
3317.000000	65.034294 
3316.000000	65.022206 
3315.000000	65.015339 
3314.000000	65.013766 
3313.000000	65.016984 
3312.000000	65.023660 
3311.000000	65.032005 
3310.000000	65.039873 
3309.000000	65.045380 
3308.000000	65.047121 
3307.000000	65.044379 
3306.000000	65.037178 
3305.000000	65.026354 
3304.000000	65.013265 
3303.000000	64.999508 
3302.000000	64.986515 
3301.000000	64.975404 
3300.000000	64.966630 
3299.000000	64.959979 
3298.000000	64.954733 
3297.000000	64.949917 
3296.000000	64.944434 
3295.000000	64.937663 
3294.000000	64.929437 
3293.000000	64.920330 
3292.000000	64.911341 
3291.000000	64.903974 
3290.000000	64.899587 
3289.000000	64.899182 
3288.000000	64.903330 
3287.000000	64.911985 
3286.000000	64.924645 
3285.000000	64.940428 
3284.000000	64.958286 
3283.000000	64.977145 
3282.000000	64.995789 
3281.000000	65.013170 
3280.000000	65.028166 
3279.000000	65.039753 
3278.000000	65.047192 
3277.000000	65.050029 
3276.000000	65.048193 
3275.000000	65.042209 
3274.000000	65.032792 
3273.000000	65.021204 
3272.000000	65.008878 
3271.000000	64.996981 
3270.000000	64.986515 
3269.000000	64.978003 
3268.000000	64.971828 
3267.000000	64.968109 
3266.000000	64.966940 
3265.000000	64.968204 
3264.000000	64.971780 
3263.000000	64.977550 
3262.000000	64.985132 
3261.000000	64.993953 
3260.000000	65.003275 
3259.000000	65.012216 
3258.000000	65.020132 
3257.000000	65.026521 
3256.000000	65.031003 
3255.000000	65.033316 
3254.000000	65.033292 
3253.000000	65.030860 
3252.000000	65.025997 
3251.000000	65.018963 
3250.000000	65.010166 
3249.000000	65.000557 
3248.000000	64.991545 
3247.000000	64.984655 
3246.000000	64.981722 
3245.000000	64.983797 
3244.000000	64.991307 
3243.000000	65.003347 
3242.000000	65.017843 
3241.000000	65.031790 
3240.000000	65.041708 
3239.000000	65.044522 
3238.000000	65.038323 
3237.000000	65.022850 
3236.000000	64.999628 
3235.000000	64.972019 
3234.000000	64.944291 
3233.000000	64.921355 
3232.000000	64.907336 
3231.000000	64.905238 
3230.000000	64.916110 
3229.000000	64.939093 
3228.000000	64.971733 
3227.000000	65.010261 
3226.000000	65.050482 
3225.000000	65.088558 
3224.000000	65.121722 
3223.000000	65.148353 
3222.000000	65.168094 
3221.000000	65.181446 
3220.000000	65.189337 
3219.000000	65.192818 
3218.000000	65.192675 
3217.000000	65.189480 
3216.000000	65.183496 
3215.000000	65.175318 
3214.000000	65.165543 
3213.000000	65.155696 
3212.000000	65.147280 
3211.000000	65.142226 
3210.000000	65.141773 
3209.000000	65.146422 
3208.000000	65.155482 
3207.000000	65.167117 
3206.000000	65.178585 
3205.000000	65.186977 
3204.000000	65.189719 
3203.000000	65.185403 
3202.000000	65.173745 
3201.000000	65.155816 
3200.000000	65.133714 
3199.000000	65.110111 
3198.000000	65.087771 
3197.000000	65.069031 
3196.000000	65.055346 
3195.000000	65.047073 
3194.000000	65.043330 
3193.000000	65.042519 
3192.000000	65.042257 
3191.000000	65.040349 
3190.000000	65.035152 
3189.000000	65.026283 
3188.000000	65.014433 
3187.000000	65.001606 
3186.000000	64.990210 
3185.000000	64.982914 
3184.000000	64.981746 
3183.000000	64.987587 
3182.000000	65.000009 
3181.000000	65.017437 
3180.000000	65.037488 
3179.000000	65.057778 
3178.000000	65.076303 
3177.000000	65.092039 
3176.000000	65.104889 
3175.000000	65.115475 
3174.000000	65.124559 
3173.000000	65.132617 
3172.000000	65.139317 
3171.000000	65.143775 
3170.000000	65.144562 
3169.000000	65.140533 
3168.000000	65.131139 
3167.000000	65.116739 
3166.000000	65.098834 
3165.000000	65.079736 
3164.000000	65.062212 
3163.000000	65.048861 
3162.000000	65.041255 
3161.000000	65.039849 
3160.000000	65.043878 
3159.000000	65.051555 
3158.000000	65.060520 
3157.000000	65.068507 
3156.000000	65.073847 
3155.000000	65.075564 
3154.000000	65.073704 
3153.000000	65.068864 
3152.000000	65.062260 
3151.000000	65.054893 
3150.000000	65.047550 
3149.000000	65.040612 
3148.000000	65.034031 
3147.000000	65.027523 
3146.000000	65.020704 
3145.000000	65.013670 
3144.000000	65.007042 
3143.000000	65.002036 
3142.000000	65.000224 
3141.000000	65.003108 
3140.000000	65.011477 
3139.000000	65.025067 
3138.000000	65.042448 
3137.000000	65.061259 
3136.000000	65.078759 
3135.000000	65.092301 
3134.000000	65.100169 
3133.000000	65.101623 
3132.000000	65.097379 
3131.000000	65.088963 
3130.000000	65.078568 
3129.000000	65.068435 
3128.000000	65.060400 
3127.000000	65.055513 
3126.000000	65.054059 
3125.000000	65.055680 
3124.000000	65.059995 
3123.000000	65.066385 
3122.000000	65.074396 
3121.000000	65.083622 
3120.000000	65.093827 
3119.000000	65.104770 
3118.000000	65.116167 
3117.000000	65.127897 
3116.000000	65.140080 
3115.000000	65.153002 
3114.000000	65.166854 
3113.000000	65.181422 
3112.000000	65.195775 
3111.000000	65.208315 
3110.000000	65.216970 
3109.000000	65.219879 
3108.000000	65.215921 
3107.000000	65.205383 
3106.000000	65.190124 
3105.000000	65.173530 
3104.000000	65.159440 
3103.000000	65.151548 
3102.000000	65.151810 
3101.000000	65.160250 
3100.000000	65.174198 
3099.000000	65.189099 
3098.000000	65.199518 
3097.000000	65.200805 
3096.000000	65.190100 
3095.000000	65.167284 
3094.000000	65.134906 
3093.000000	65.097498 
3092.000000	65.060329 
3091.000000	65.028190 
3090.000000	65.004467 
3089.000000	64.990544 
3088.000000	64.985966 
3087.000000	64.988803 
3086.000000	64.996552 
3085.000000	65.006995 
3084.000000	65.018439 
3083.000000	65.030169 
3082.000000	65.042209 
3081.000000	65.055298 
3080.000000	65.069627 
3079.000000	65.085434 
3078.000000	65.102052 
3077.000000	65.118432 
3076.000000	65.133118 
3075.000000	65.144491 
3074.000000	65.151262 
3073.000000	65.152502 
3072.000000	65.148115 
3071.000000	65.138792 
3070.000000	65.125942 
3069.000000	65.111541 
3068.000000	65.097904 
3067.000000	65.087103 
3066.000000	65.080690 
3065.000000	65.079283 
3064.000000	65.082454 
3063.000000	65.088915 
3062.000000	65.096664 
3061.000000	65.103650 
3060.000000	65.108180 
3059.000000	65.109133 
3058.000000	65.106201 
3057.000000	65.099906 
3056.000000	65.091276 
3055.000000	65.081453 
3054.000000	65.070939 
3053.000000	65.060114 
3052.000000	65.048575 
3051.000000	65.035724 
3050.000000	65.021038 
3049.000000	65.004324 
3048.000000	64.986109 
3047.000000	64.967489 
3046.000000	64.950084 
3045.000000	64.935564 
3044.000000	64.925241 
3043.000000	64.919757 
3042.000000	64.918899 
3041.000000	64.921712 
3040.000000	64.926767 
3039.000000	64.932632 
3038.000000	64.938020 
3037.000000	64.942240 
3036.000000	64.944887 
3035.000000	64.946198 
3034.000000	64.946460 
3033.000000	64.946198 
3032.000000	64.946031 
3031.000000	64.946675 
3030.000000	64.948916 
3029.000000	64.953613 
3028.000000	64.961695 
3027.000000	64.973545 
3026.000000	64.989209 
3025.000000	65.007758 
3024.000000	65.027689 
3023.000000	65.046858 
3022.000000	65.063071 
3021.000000	65.074563 
3020.000000	65.080523 
3019.000000	65.081191 
3018.000000	65.078258 
3017.000000	65.073823 
3016.000000	65.070056 
3015.000000	65.068483 
3014.000000	65.069723 
3013.000000	65.073013 
3012.000000	65.076804 
3011.000000	65.079140 
3010.000000	65.078449 
3009.000000	65.073990 
3008.000000	65.066075 
3007.000000	65.055942 
3006.000000	65.045261 
3005.000000	65.035700 
3004.000000	65.028333 
3003.000000	65.023279 
3002.000000	65.019679 
3001.000000	65.016031 
3000.000000	65.010929 
2999.000000	65.003371 
2998.000000	64.993405 
2997.000000	64.982318 
2996.000000	64.972305 
2995.000000	64.965844 
2994.000000	64.965295 
2993.000000	64.971876 
2992.000000	64.985561 
2991.000000	65.004658 
2990.000000	65.026521 
2989.000000	65.048003 
2988.000000	65.066123 
2987.000000	65.078759 
2986.000000	65.084862 
2985.000000	65.084624 
2984.000000	65.079069 
2983.000000	65.069532 
2982.000000	65.057229 
2981.000000	65.042781 
2980.000000	65.026307 
2979.000000	65.007543 
2978.000000	64.986228 
2977.000000	64.962363 
2976.000000	64.936804 
2975.000000	64.911127 
2974.000000	64.887261 
2973.000000	64.867258 
2972.000000	64.852571 
2971.000000	64.843988 
2970.000000	64.841151 
2969.000000	64.842796 
2968.000000	64.847016 
2967.000000	64.851880 
2966.000000	64.855694 
2965.000000	64.857554 
2964.000000	64.857172 
2963.000000	64.855051 
2962.000000	64.852046 
2961.000000	64.849090 
2960.000000	64.846706 
2959.000000	64.845061 
2958.000000	64.843964 
2957.000000	64.842987 
2956.000000	64.841699 
2955.000000	64.840149 
2954.000000	64.838981 
2953.000000	64.839148 
2952.000000	64.841866 
2951.000000	64.848065 
2950.000000	64.858245 
2949.000000	64.871978 
2948.000000	64.888191 
2947.000000	64.905166 
2946.000000	64.921021 
2945.000000	64.934253 
2944.000000	64.943909 
2943.000000	64.949727 
2942.000000	64.952015 
2941.000000	64.951753 
2940.000000	64.950013 
2939.000000	64.947557 
2938.000000	64.944648 
2937.000000	64.941239 
2936.000000	64.936757 
2935.000000	64.930486 
2934.000000	64.921808 
2933.000000	64.910554 
2932.000000	64.896941 
2931.000000	64.881610 
2930.000000	64.865493 
2929.000000	64.849495 
2928.000000	64.834237 
2927.000000	64.819860 
2926.000000	64.806151 
2925.000000	64.792633 
2924.000000	64.778685 
2923.000000	64.763879 
2922.000000	64.748263 
2921.000000	64.732742 
2920.000000	64.718842 
2919.000000	64.708709 
2918.000000	64.704275 
2917.000000	64.707279 
2916.000000	64.718222 
2915.000000	64.736604 
2914.000000	64.760351 
2913.000000	64.786720 
2912.000000	64.812588 
2911.000000	64.835309 
2910.000000	64.853215 
2909.000000	64.865565 
2908.000000	64.872789 
2907.000000	64.876103 
2906.000000	64.877009 
2905.000000	64.876890 
2904.000000	64.876675 
2903.000000	64.876937 
2902.000000	64.878010 
2901.000000	64.880084 
2900.000000	64.883446 
2899.000000	64.888691 
2898.000000	64.896655 
2897.000000	64.908027 
2896.000000	64.923095 
2895.000000	64.941644 
2894.000000	64.962601 
2893.000000	64.984369 
2892.000000	65.004658 
2891.000000	65.021395 
2890.000000	65.032672 
2889.000000	65.037369 
2888.000000	65.035176 
2887.000000	65.026760 
2886.000000	65.013504 
2885.000000	64.997696 
2884.000000	64.981889 
2883.000000	64.968466 
2882.000000	64.959263 
2881.000000	64.955472 
2880.000000	64.957213 
2879.000000	64.963603 
2878.000000	64.973092 
2877.000000	64.983820 
2876.000000	64.994001 
2875.000000	65.002226 
2874.000000	65.007877 
2873.000000	65.010952 
2872.000000	65.012121 
2871.000000	65.012764 
2870.000000	65.014410 
2869.000000	65.018463 
2868.000000	65.026021 
2867.000000	65.037226 
2866.000000	65.051436 
2865.000000	65.066933 
2864.000000	65.081381 
2863.000000	65.091872 
2862.000000	65.095782 
2861.000000	65.091109 
2860.000000	65.077042 
2859.000000	65.054249 
2858.000000	65.024733 
2857.000000	64.991807 
2856.000000	64.959192 
2855.000000	64.930438 
2854.000000	64.908170 
2853.000000	64.893627 
2852.000000	64.886713 
2851.000000	64.886188 
2850.000000	64.890193 
2849.000000	64.896893 
2848.000000	64.904737 
2847.000000	64.912843 
2846.000000	64.920902 
2845.000000	64.928770 
2844.000000	64.936208 
2843.000000	64.942789 
2842.000000	64.947867 
2841.000000	64.950609 
2840.000000	64.950156 
2839.000000	64.946174 
2838.000000	64.938831 
2837.000000	64.928960 
2836.000000	64.918208 
2835.000000	64.908432 
2834.000000	64.901542 
2833.000000	64.899206 
2832.000000	64.902329 
2831.000000	64.911055 
2830.000000	64.924573 
2829.000000	64.941525 
2828.000000	64.959907 
2827.000000	64.977455 
2826.000000	64.991950 
2825.000000	65.001678 
2824.000000	65.005421 
2823.000000	65.002536 
2822.000000	64.993309 
2821.000000	64.978718 
2820.000000	64.960312 
2819.000000	64.939904 
2818.000000	64.919376 
2817.000000	64.900612 
2816.000000	64.885282 
2815.000000	64.874505 
2814.000000	64.869070 
2813.000000	64.869165 
2812.000000	64.874625 
2811.000000	64.884829 
2810.000000	64.898562 
2809.000000	64.914274 
2808.000000	64.930152 
2807.000000	64.944505 
2806.000000	64.955711 
2805.000000	64.962601 
2804.000000	64.964723 
2803.000000	64.962387 
2802.000000	64.956545 
2801.000000	64.948701 
2800.000000	64.940595 
2799.000000	64.933776 
2798.000000	64.929437 
2797.000000	64.928221 
2796.000000	64.930319 
2795.000000	64.935421 
2794.000000	64.942979 
2793.000000	64.952445 
2792.000000	64.963436 
2791.000000	64.975666 
2790.000000	64.988851 
2789.000000	65.002512 
2788.000000	65.015816 
2787.000000	65.027642 
2786.000000	65.036725 
2785.000000	65.041589 
2784.000000	65.041041 
2783.000000	65.034818 
2782.000000	65.023422 
2781.000000	65.008354 
2780.000000	64.991641 
2779.000000	64.975666 
2778.000000	64.962506 
2777.000000	64.953541 
2776.000000	64.949059 
2775.000000	64.948248 
2774.000000	64.949417 
2773.000000	64.950585 
2772.000000	64.949798 
2771.000000	64.945793 
2770.000000	64.938211 
2769.000000	64.927816 
2768.000000	64.916133 
2767.000000	64.905142 
2766.000000	64.896774 
2765.000000	64.892411 
2764.000000	64.892721 
2763.000000	64.897608 
2762.000000	64.906358 
2761.000000	64.918088 
2760.000000	64.931797 
2759.000000	64.946651 
2758.000000	64.961886 
2757.000000	64.976811 
2756.000000	64.990568 
2755.000000	65.001916 
2754.000000	65.009403 
2753.000000	65.011596 
2752.000000	65.007352 
2751.000000	64.996147 
2750.000000	64.978480 
2749.000000	64.956068 
2748.000000	64.931726 
2747.000000	64.908862 
2746.000000	64.890813 
2745.000000	64.880228 
2744.000000	64.878678 
2743.000000	64.886140 
2742.000000	64.901256 
2741.000000	64.921474 
2740.000000	64.943695 
2739.000000	64.964723 
2738.000000	64.981961 
2737.000000	64.993619 
2736.000000	64.999032 
2735.000000	64.998459 
2734.000000	64.992952 
2733.000000	64.984035 
2732.000000	64.973235 
2731.000000	64.961981 
2730.000000	64.951276 
2729.000000	64.941620 
2728.000000	64.933395 
2727.000000	64.926886 
2726.000000	64.922475 
2725.000000	64.920711 
2724.000000	64.922094 
2723.000000	64.927101 
2722.000000	64.935970 
2721.000000	64.948534 
2720.000000	64.964103 
2719.000000	64.981484 
2718.000000	64.999270 
2717.000000	65.016150 
2716.000000	65.031027 
2715.000000	65.043234 
2714.000000	65.052556 
2713.000000	65.059161 
2712.000000	65.063285 
2711.000000	65.064978 
2710.000000	65.063977 
2709.000000	65.059781 
2708.000000	65.051960 
2707.000000	65.040397 
2706.000000	65.025401 
2705.000000	65.007948 
2704.000000	64.989566 
2703.000000	64.972090 
2702.000000	64.957165 
2701.000000	64.946222 
2700.000000	64.939832 
2699.000000	64.938092 
2698.000000	64.940357 
2697.000000	64.945793 
2696.000000	64.953613 
2695.000000	64.963150 
2694.000000	64.973974 
2693.000000	64.985895 
2692.000000	64.998769 
2691.000000	65.012168 
2690.000000	65.025305 
2689.000000	65.037178 
2688.000000	65.046572 
2687.000000	65.052413 
2686.000000	65.053963 
2685.000000	65.051031 
2684.000000	65.043950 
2683.000000	65.033674 
2682.000000	65.021443 
2681.000000	65.008687 
2680.000000	64.996695 
2679.000000	64.986610 
2678.000000	64.979219 
2677.000000	64.974999 
2676.000000	64.973783 
2675.000000	64.975261 
2674.000000	64.978814 
2673.000000	64.983487 
2672.000000	64.988088 
2671.000000	64.991664 
2670.000000	64.993453 
2669.000000	64.993000 
2668.000000	64.990282 
2667.000000	64.985966 
2666.000000	64.980769 
2665.000000	64.975595 
2664.000000	64.971041 
2663.000000	64.967346 
2662.000000	64.964342 
2661.000000	64.961647 
2660.000000	64.958739 
2659.000000	64.955258 
2658.000000	64.951252 
2657.000000	64.947152 
2656.000000	64.943742 
2655.000000	64.941787 
2654.000000	64.941859 
2653.000000	64.944052 
2652.000000	64.947819 
2651.000000	64.951992 
2650.000000	64.955186 
2649.000000	64.955925 
2648.000000	64.953422 
2647.000000	64.947438 
2646.000000	64.938592 
2645.000000	64.928293 
2644.000000	64.918494 
2643.000000	64.911198 
2642.000000	64.908289 
2641.000000	64.910817 
2640.000000	64.918994 
2639.000000	64.931869 
2638.000000	64.947700 
2637.000000	64.963960 
2636.000000	64.977955 
2635.000000	64.987277 
2634.000000	64.990186 
2633.000000	64.986109 
2632.000000	64.975595 
2631.000000	64.960145 
2630.000000	64.941835 
2629.000000	64.923000 
2628.000000	64.905619 
2627.000000	64.891028 
2626.000000	64.879751 
2625.000000	64.871644 
2624.000000	64.866042 
2623.000000	64.862275 
2622.000000	64.859938 
2621.000000	64.858961 
2620.000000	64.859628 
2619.000000	64.862179 
2618.000000	64.866709 
2617.000000	64.872717 
2616.000000	64.879298 
2615.000000	64.885067 
2614.000000	64.888763 
2613.000000	64.889407 
2612.000000	64.886784 
2611.000000	64.881515 
2610.000000	64.875197 
2609.000000	64.869976 
2608.000000	64.868211 
2607.000000	64.871907 
2606.000000	64.882278 
2605.000000	64.899420 
2604.000000	64.922308 
2603.000000	64.948797 
2602.000000	64.975976 
2601.000000	65.000915 
2600.000000	65.020799 
2599.000000	65.033698 
2598.000000	65.038704 
2597.000000	65.036177 
2596.000000	65.027666 
2595.000000	65.015482 
2594.000000	65.002369 
2593.000000	64.990735 
2592.000000	64.982342 
2591.000000	64.977693 
2590.000000	64.976286 
2589.000000	64.976644 
2588.000000	64.977073 
2587.000000	64.975905 
2586.000000	64.972376 
2585.000000	64.966440 
2584.000000	64.958906 
2583.000000	64.951157 
2582.000000	64.944624 
2581.000000	64.940381 
2580.000000	64.938807 
2579.000000	64.939594 
2578.000000	64.941692 
2577.000000	64.943838 
2576.000000	64.944672 
2575.000000	64.943242 
2574.000000	64.939165 
2573.000000	64.932513 
2572.000000	64.923834 
2571.000000	64.913821 
2570.000000	64.903044 
2569.000000	64.892125 
2568.000000	64.881491 
2567.000000	64.871430 
2566.000000	64.862036 
2565.000000	64.853358 
2564.000000	64.845609 
2563.000000	64.838862 
2562.000000	64.833498 
2561.000000	64.829897 
2560.000000	64.828705 
2559.000000	64.830422 
2558.000000	64.835500 
2557.000000	64.844346 
2556.000000	64.856910 
2555.000000	64.872837 
2554.000000	64.891386 
2553.000000	64.911508 
2552.000000	64.932131 
2551.000000	64.951968 
2550.000000	64.970040 
2549.000000	64.985466 
2548.000000	64.997720 
2547.000000	65.006637 
2546.000000	65.012335 
2545.000000	65.015101 
2544.000000	65.015459 
2543.000000	65.014028 
2542.000000	65.011453 
2541.000000	65.008306 
2540.000000	65.005159 
2539.000000	65.002369 
2538.000000	65.000104 
2537.000000	64.998054 
2536.000000	64.995741 
2535.000000	64.992403 
2534.000000	64.987254 
2533.000000	64.979887 
2532.000000	64.970183 
2531.000000	64.958691 
2530.000000	64.946341 
2529.000000	64.934539 
2528.000000	64.924502 
2527.000000	64.917325 
2526.000000	64.913463 
2525.000000	64.912676 
2524.000000	64.913940 
2523.000000	64.916014 
2522.000000	64.917802 
2521.000000	64.918541 
2520.000000	64.918303 
2519.000000	64.918136 
2518.000000	64.919662 
2517.000000	64.924812 
2516.000000	64.934873 
2515.000000	64.950299 
2514.000000	64.969921 
2513.000000	64.991283 
2512.000000	65.011096 
2511.000000	65.025901 
2510.000000	65.032958 
2509.000000	65.030956 
2508.000000	65.020489 
2507.000000	65.004134 
2506.000000	64.985585 
2505.000000	64.968967 
2504.000000	64.957618 
2503.000000	64.953494 
2502.000000	64.956307 
2501.000000	64.964008 
2500.000000	64.973139 
2499.000000	64.980030 
2498.000000	64.981508 
2497.000000	64.975833 
2496.000000	64.963054 
2495.000000	64.945149 
2494.000000	64.925265 
2493.000000	64.907026 
2492.000000	64.893722 
2491.000000	64.887714 
2490.000000	64.890003 
2489.000000	64.899992 
2488.000000	64.915895 
2487.000000	64.934897 
2486.000000	64.953827 
2485.000000	64.969682 
2484.000000	64.979958 
2483.000000	64.983153 
2482.000000	64.978647 
2481.000000	64.967107 
2480.000000	64.950227 
2479.000000	64.930462 
2478.000000	64.910674 
2477.000000	64.893436 
2476.000000	64.880466 
2475.000000	64.872288 
2474.000000	64.868068 
2473.000000	64.865827 
2472.000000	64.862799 
2471.000000	64.856195 
2470.000000	64.844155 
2469.000000	64.826083 
2468.000000	64.803361 
2467.000000	64.778709 
2466.000000	64.755940 
2465.000000	64.738655 
2464.000000	64.729690 
2463.000000	64.730262 
2462.000000	64.739537 
2461.000000	64.755010 
2460.000000	64.772939 
2459.000000	64.789462 
2458.000000	64.801502 
2457.000000	64.807415 
2456.000000	64.807438 
2455.000000	64.803171 
2454.000000	64.797449 
2453.000000	64.793300 
2452.000000	64.793229 
2451.000000	64.798426 
2450.000000	64.808607 
2449.000000	64.822006 
2448.000000	64.835786 
2447.000000	64.847111 
2446.000000	64.853358 
2445.000000	64.853000 
2444.000000	64.845895 
2443.000000	64.833450 
2442.000000	64.818382 
2441.000000	64.804172 
2440.000000	64.794540 
2439.000000	64.792537 
2438.000000	64.800047 
2437.000000	64.817309 
2436.000000	64.842939 
2435.000000	64.874005 
2434.000000	64.906573 
2433.000000	64.936423 
2432.000000	64.959859 
2431.000000	64.974403 
2430.000000	64.978885 
2429.000000	64.973807 
2428.000000	64.961123 
2427.000000	64.943432 
2426.000000	64.923858 
2425.000000	64.905023 
2424.000000	64.889001 
2423.000000	64.876484 
2422.000000	64.867234 
2421.000000	64.860010 
2420.000000	64.853239 
2419.000000	64.845275 
2418.000000	64.834904 
2417.000000	64.821553 
2416.000000	64.805412 
2415.000000	64.787530 
2414.000000	64.769506 
2413.000000	64.753150 
2412.000000	64.740061 
2411.000000	64.731574 
2410.000000	64.728426 
2409.000000	64.730644 
2408.000000	64.737725 
2407.000000	64.748764 
2406.000000	64.762639 
2405.000000	64.778017 
2404.000000	64.793753 
2403.000000	64.808845 
2402.000000	64.822626 
2401.000000	64.834427 
2400.000000	64.844131 
2399.000000	64.851880 
2398.000000	64.858150 
2397.000000	64.863491 
2396.000000	64.868521 
2395.000000	64.873814 
2394.000000	64.879584 
2393.000000	64.885783 
2392.000000	64.891934 
2391.000000	64.897346 
2390.000000	64.901113 
2389.000000	64.902520 
2388.000000	64.901161 
2387.000000	64.896845 
2386.000000	64.890003 
2385.000000	64.881300 
2384.000000	64.871573 
2383.000000	64.861464 
2382.000000	64.851737 
2381.000000	64.842796 
2380.000000	64.834642 
2379.000000	64.827108 
2378.000000	64.819836 
2377.000000	64.812350 
2376.000000	64.803957 
2375.000000	64.794039 
2374.000000	64.781761 
2373.000000	64.766693 
2372.000000	64.748787 
2371.000000	64.728403 
2370.000000	64.706301 
2369.000000	64.683914 
2368.000000	64.662837 
2367.000000	64.644765 
2366.000000	64.630985 
2365.000000	64.622330 
2364.000000	64.618968 
2363.000000	64.620375 
2362.000000	64.625453 
2361.000000	64.632797 
2360.000000	64.641141 
2359.000000	64.649581 
2358.000000	64.657807 
2357.000000	64.666080 
2356.000000	64.675140 
2355.000000	64.685916 
2354.000000	64.699244 
2353.000000	64.715600 
2352.000000	64.734506 
2351.000000	64.755082 
2350.000000	64.775681 
2349.000000	64.794349 
2348.000000	64.809107 
2347.000000	64.818572 
2346.000000	64.822006 
2345.000000	64.819574 
2344.000000	64.812159 
2343.000000	64.801335 
2342.000000	64.788699 
2341.000000	64.775562 
2340.000000	64.762639 
2339.000000	64.750146 
2338.000000	64.737629 
2337.000000	64.724469 
2336.000000	64.710259 
2335.000000	64.695215 
2334.000000	64.680266 
2333.000000	64.667057 
2332.000000	64.657616 
2331.000000	64.653778 
2330.000000	64.656639 
2329.000000	64.666271 
2328.000000	64.681339 
2327.000000	64.699673 
2326.000000	64.718484 
2325.000000	64.735245 
2324.000000	64.747858 
2323.000000	64.755558 
2322.000000	64.758610 
2321.000000	64.758276 
2320.000000	64.756250 
2319.000000	64.754295 
2318.000000	64.753627 
2317.000000	64.754915 
2316.000000	64.758110 
2315.000000	64.762663 
2314.000000	64.767837 
2313.000000	64.772939 
2312.000000	64.777565 
2311.000000	64.781570 
2310.000000	64.785051 
2309.000000	64.788198 
2308.000000	64.791131 
2307.000000	64.793920 
2306.000000	64.796423 
2305.000000	64.798521 
2304.000000	64.800119 
2303.000000	64.801049 
2302.000000	64.801311 
2301.000000	64.800786 
2300.000000	64.799714 
2299.000000	64.798188 
2298.000000	64.796328 
2297.000000	64.794564 
2296.000000	64.793157 
2295.000000	64.792585 
2294.000000	64.793062 
2293.000000	64.794850 
2292.000000	64.797854 
2291.000000	64.801812 
2290.000000	64.806222 
2289.000000	64.810466 
2288.000000	64.813780 
2287.000000	64.815330 
2286.000000	64.814400 
2285.000000	64.810514 
2284.000000	64.803171 
2283.000000	64.792275 
2282.000000	64.777874 
2281.000000	64.760398 
2280.000000	64.740800 
2279.000000	64.720511 
2278.000000	64.701485 
2277.000000	64.685916 
2276.000000	64.675974 
2275.000000	64.673423 
2274.000000	64.679217 
2273.000000	64.693212 
2272.000000	64.713978 
2271.000000	64.739441 
2270.000000	64.766573 
2269.000000	64.792442 
2268.000000	64.814448 
2267.000000	64.831018 
2266.000000	64.841508 
2265.000000	64.846539 
2264.000000	64.847612 
2263.000000	64.846515 
2262.000000	64.845204 
2261.000000	64.844918 
2260.000000	64.846181 
2259.000000	64.848518 
2258.000000	64.850735 
2257.000000	64.851093 
2256.000000	64.847993 
2255.000000	64.840173 
2254.000000	64.827299 
2253.000000	64.809918 
2252.000000	64.789557 
2251.000000	64.768338 
2250.000000	64.748716 
2249.000000	64.732909 
2248.000000	64.722490 
2247.000000	64.718127 
2246.000000	64.719390 
2245.000000	64.725160 
2244.000000	64.733672 
2243.000000	64.742922 
2242.000000	64.751100 
2241.000000	64.757132 
2240.000000	64.760446 
2239.000000	64.760923 
2238.000000	64.759063 
2237.000000	64.755439 
2236.000000	64.750695 
2235.000000	64.744997 
2234.000000	64.738464 
2233.000000	64.731121 
2232.000000	64.723134 
2231.000000	64.714813 
2230.000000	64.707040 
2229.000000	64.701080 
2228.000000	64.698338 
2227.000000	64.700007 
2226.000000	64.706850 
2225.000000	64.718794 
2224.000000	64.734935 
2223.000000	64.753460 
2222.000000	64.772129 
2221.000000	64.788556 
2220.000000	64.800786 
2219.000000	64.807558 
2218.000000	64.808392 
2217.000000	64.803910 
2216.000000	64.795351 
2215.000000	64.784479 
2214.000000	64.773201 
2213.000000	64.763140 
2212.000000	64.755725 
2211.000000	64.751696 
2210.000000	64.751291 
2209.000000	64.754033 
2208.000000	64.759039 
2207.000000	64.765095 
2206.000000	64.770817 
2205.000000	64.774894 
2204.000000	64.776158 
2203.000000	64.774036 
2202.000000	64.768719 
2201.000000	64.760828 
2200.000000	64.751577 
2199.000000	64.742255 
2198.000000	64.733982 
2197.000000	64.727544 
2196.000000	64.723038 
2195.000000	64.720153 
2194.000000	64.718127 
2193.000000	64.716196 
2192.000000	64.713716 
2191.000000	64.710402 
2190.000000	64.706587 
2189.000000	64.702892 
2188.000000	64.700460 
2187.000000	64.700365 
2186.000000	64.703726 
2185.000000	64.711165 
2184.000000	64.722752 
2183.000000	64.737725 
2182.000000	64.754390 
2181.000000	64.770555 
2180.000000	64.783620 
2179.000000	64.790964 
2178.000000	64.790654 
2177.000000	64.781665 
2176.000000	64.764404 
2175.000000	64.740705 
2174.000000	64.713740 
2173.000000	64.687371 
2172.000000	64.665484 
2171.000000	64.651083 
2170.000000	64.645767 
2169.000000	64.649486 
2168.000000	64.660835 
2167.000000	64.677429 
2166.000000	64.696359 
2165.000000	64.715147 
2164.000000	64.731907 
2163.000000	64.746046 
2162.000000	64.757633 
2161.000000	64.767670 
2160.000000	64.777278 
2159.000000	64.787554 
2158.000000	64.799237 
2157.000000	64.812088 
2156.000000	64.825224 
2155.000000	64.836931 
2154.000000	64.845442 
2153.000000	64.849066 
2152.000000	64.846897 
2151.000000	64.839053 
2150.000000	64.826726 
2149.000000	64.812111 
2148.000000	64.797806 
2147.000000	64.786529 
2146.000000	64.780139 
2145.000000	64.779281 
2144.000000	64.783024 
2143.000000	64.789152 
2142.000000	64.794373 
2141.000000	64.795136 
2140.000000	64.788460 
2139.000000	64.772558 
2138.000000	64.747548 
2137.000000	64.715313 
2136.000000	64.679479 
2135.000000	64.644503 
2134.000000	64.615035 
2133.000000	64.595031 
2132.000000	64.587020 
2131.000000	64.591622 
2130.000000	64.607572 
2129.000000	64.631962 
2128.000000	64.660859 
2127.000000	64.689850 
2126.000000	64.715147 
2125.000000	64.733982 
2124.000000	64.745140 
2123.000000	64.748787 
2122.000000	64.746356 
2121.000000	64.740133 
2120.000000	64.732575 
2119.000000	64.725708 
2118.000000	64.720797 
2117.000000	64.718317 
2116.000000	64.717864 
2115.000000	64.718580 
2114.000000	64.719438 
2113.000000	64.719700 
2112.000000	64.719104 
2111.000000	64.718222 
2110.000000	64.718055 
2109.000000	64.719915 
2108.000000	64.724898 
2107.000000	64.733719 
2106.000000	64.746117 
2105.000000	64.761185 
2104.000000	64.777278 
2103.000000	64.792633 
2102.000000	64.805269 
2101.000000	64.813899 
2100.000000	64.818120 
2099.000000	64.818191 
2098.000000	64.814949 
2097.000000	64.809274 
2096.000000	64.802050 
2095.000000	64.793562 
2094.000000	64.783811 
2093.000000	64.772319 
2092.000000	64.758634 
2091.000000	64.742565 
2090.000000	64.724516 
2089.000000	64.705705 
2088.000000	64.687871 
2087.000000	64.673113 
2086.000000	64.663290 
2085.000000	64.659500 
2084.000000	64.662003 
2083.000000	64.669656 
2082.000000	64.680528 
2081.000000	64.691948 
2080.000000	64.701652 
2079.000000	64.707994 
2078.000000	64.710712 
2077.000000	64.710879 
2076.000000	64.710593 
2075.000000	64.712429 
2074.000000	64.718651 
2073.000000	64.730501 
2072.000000	64.747762 
2071.000000	64.768815 
2070.000000	64.790749 
2069.000000	64.810228 
2068.000000	64.823937 
2067.000000	64.829516 
2066.000000	64.825963 
2065.000000	64.813733 
2064.000000	64.794516 
2063.000000	64.770960 
2062.000000	64.745903 
2061.000000	64.722084 
2060.000000	64.701724 
2059.000000	64.686059 
2058.000000	64.675593 
2057.000000	64.670228 
2056.000000	64.669251 
2055.000000	64.671778 
2054.000000	64.676713 
2053.000000	64.683079 
2052.000000	64.689970 
2051.000000	64.696741 
2050.000000	64.702773 
2049.000000	64.707684 
2048.000000	64.711046 
2047.000000	64.712667 
2046.000000	64.712405 
2045.000000	64.710164 
2044.000000	64.706087 
2043.000000	64.700341 
2042.000000	64.693427 
2041.000000	64.685821 
2040.000000	64.678072 
2039.000000	64.670705 
2038.000000	64.664196 
2037.000000	64.658999 
2036.000000	64.655590 
2035.000000	64.654374 
2034.000000	64.655518 
2033.000000	64.658999 
2032.000000	64.664435 
2031.000000	64.671087 
2030.000000	64.677882 
2029.000000	64.683485 
2028.000000	64.686632 
2027.000000	64.686441 
2026.000000	64.682602 
2025.000000	64.675545 
2024.000000	64.666247 
2023.000000	64.656305 
2022.000000	64.647388 
2021.000000	64.640903 
2020.000000	64.637804 
2019.000000	64.638304 
2018.000000	64.642190 
2017.000000	64.648866 
2016.000000	64.657688 
2015.000000	64.668107 
2014.000000	64.679741 
2013.000000	64.692258 
2012.000000	64.705300 
2011.000000	64.718222 
2010.000000	64.730262 
2009.000000	64.740443 
2008.000000	64.747834 
2007.000000	64.751696 
2006.000000	64.751887 
2005.000000	64.748740 
2004.000000	64.743280 
2003.000000	64.736771 
2002.000000	64.730715 
2001.000000	64.726424 
2000.000000	64.724779 
1999.000000	64.726161 
1998.000000	64.730429 
1997.000000	64.737033 
1996.000000	64.745163 
1995.000000	64.753985 
1994.000000	64.762687 
1993.000000	64.770579 
1992.000000	64.777112 
1991.000000	64.781808 
1990.000000	64.784431 
1989.000000	64.784908 
1988.000000	64.783358 
1987.000000	64.780092 
1986.000000	64.775633 
1985.000000	64.770507 
1984.000000	64.765095 
1983.000000	64.759492 
1982.000000	64.753532 
1981.000000	64.746689 
1980.000000	64.738345 
1979.000000	64.728045 
1978.000000	64.715623 
1977.000000	64.701414 
1976.000000	64.686346 
1975.000000	64.671730 
1974.000000	64.659023 
1973.000000	64.649605 
1972.000000	64.644265 
1971.000000	64.643239 
1970.000000	64.646124 
1969.000000	64.652085 
1968.000000	64.659738 
1967.000000	64.667582 
1966.000000	64.674067 
1965.000000	64.678001 
1964.000000	64.678430 
1963.000000	64.674901 
1962.000000	64.667344 
1961.000000	64.656162 
1960.000000	64.642024 
1959.000000	64.625930 
1958.000000	64.609098 
1957.000000	64.592885 
1956.000000	64.578628 
1955.000000	64.567542 
1954.000000	64.560365 
1953.000000	64.557552 
1952.000000	64.558815 
1951.000000	64.563465 
1950.000000	64.570188 
1949.000000	64.577746 
1948.000000	64.584946 
1947.000000	64.591193 
1946.000000	64.596366 
1945.000000	64.601182 
1944.000000	64.606761 
1943.000000	64.614439 
1942.000000	64.625334 
1941.000000	64.639854 
1940.000000	64.657592 
1939.000000	64.677166 
1938.000000	64.696669 
1937.000000	64.713978 
1936.000000	64.727258 
1935.000000	64.735460 
1934.000000	64.738535 
1933.000000	64.737129 
1932.000000	64.732575 
1931.000000	64.726448 
1930.000000	64.720010 
1929.000000	64.713954 
1928.000000	64.708447 
1927.000000	64.703154 
1926.000000	64.697527 
1925.000000	64.690828 
1924.000000	64.682507 
1923.000000	64.672231 
1922.000000	64.660120 
1921.000000	64.646410 
1920.000000	64.631700 
1919.000000	64.616727 
1918.000000	64.602160 
1917.000000	64.588618 
1916.000000	64.576745 
1915.000000	64.566874 
1914.000000	64.559388 
1913.000000	64.554452 
1912.000000	64.551925 
1911.000000	64.551496 
1910.000000	64.552569 
1909.000000	64.554476 
1908.000000	64.556455 
1907.000000	64.557766 
1906.000000	64.557981 
1905.000000	64.557075 
1904.000000	64.555335 
1903.000000	64.553451 
1902.000000	64.552330 
1901.000000	64.552712 
1900.000000	64.555072 
1899.000000	64.559435 
1898.000000	64.565134 
1897.000000	64.571046 
1896.000000	64.575624 
1895.000000	64.577674 
1894.000000	64.576053 
1893.000000	64.570784 
1892.000000	64.562487 
1891.000000	64.553046 
1890.000000	64.544653 
1889.000000	64.539813 
1888.000000	64.540505 
1887.000000	64.547872 
1886.000000	64.561748 
1885.000000	64.580559 
1884.000000	64.601731 
1883.000000	64.622044 
1882.000000	64.638233 
1881.000000	64.647889 
1880.000000	64.649748 
1879.000000	64.644336 
1878.000000	64.633536 
1877.000000	64.620351 
1876.000000	64.608216 
1875.000000	64.599967 
1874.000000	64.597439 
1873.000000	64.601016 
1872.000000	64.609646 
1871.000000	64.621233 
1870.000000	64.633250 
1869.000000	64.643383 
1868.000000	64.650368 
1867.000000	64.653968 
1866.000000	64.654994 
1865.000000	64.654803 
1864.000000	64.654803 
1863.000000	64.655756 
1862.000000	64.657592 
1861.000000	64.659452 
1860.000000	64.659643 
1859.000000	64.656662 
1858.000000	64.649295 
1857.000000	64.637470 
1856.000000	64.621663 
1855.000000	64.603281 
1854.000000	64.583897 
1853.000000	64.565014 
1852.000000	64.547872 
1851.000000	64.533352 
1850.000000	64.522075 
1849.000000	64.514446 
1848.000000	64.510917 
1847.000000	64.512109 
1846.000000	64.518475 
1845.000000	64.530229 
1844.000000	64.546871 
1843.000000	64.567232 
1842.000000	64.589166 
1841.000000	64.610266 
1840.000000	64.627957 
1839.000000	64.639949 
1838.000000	64.645028 
1837.000000	64.643049 
1836.000000	64.635038 
1835.000000	64.623045 
1834.000000	64.609456 
1833.000000	64.596772 
1832.000000	64.587092 
1831.000000	64.581727 
1830.000000	64.581227 
1829.000000	64.585041 
1828.000000	64.591932 
1827.000000	64.599967 
1826.000000	64.607119 
1825.000000	64.611458 
1824.000000	64.611673 
1823.000000	64.607095 
1822.000000	64.597964 
1821.000000	64.585280 
1820.000000	64.570569 
1819.000000	64.555478 
1818.000000	64.541673 
1817.000000	64.530444 
1816.000000	64.522528 
1815.000000	64.518141 
1814.000000	64.516806 
1813.000000	64.517807 
1812.000000	64.520120 
1811.000000	64.522790 
1810.000000	64.525032 
1809.000000	64.526224 
1808.000000	64.526152 
1807.000000	64.524817 
1806.000000	64.522457 
1805.000000	64.519500 
1804.000000	64.516687 
1803.000000	64.514732 
1802.000000	64.514470 
1801.000000	64.516592 
1800.000000	64.521384 
1799.000000	64.528846 
1798.000000	64.538311 
1797.000000	64.548850 
1796.000000	64.558863 
1795.000000	64.566588 
1794.000000	64.570307 
1793.000000	64.568686 
1792.000000	64.560937 
1791.000000	64.547348 
1790.000000	64.528918 
1789.000000	64.507627 
1788.000000	64.485931 
1787.000000	64.466595 
1786.000000	64.451909 
1785.000000	64.443635 
1784.000000	64.442443 
1783.000000	64.448070 
1782.000000	64.459466 
1781.000000	64.474773 
1780.000000	64.491939 
1779.000000	64.508938 
1778.000000	64.524078 
1777.000000	64.536213 
1776.000000	64.544630 
1775.000000	64.548945 
1774.000000	64.549207 
1773.000000	64.545416 
1772.000000	64.537811 
1771.000000	64.526700 
1770.000000	64.512610 
1769.000000	64.496445 
1768.000000	64.479184 
1767.000000	64.462137 
1766.000000	64.446640 
1765.000000	64.433860 
1764.000000	64.424467 
1763.000000	64.418673 
1762.000000	64.416146 
1761.000000	64.416146 
1760.000000	64.417695 
1759.000000	64.419937 
1758.000000	64.422106 
1757.000000	64.423871 
1756.000000	64.425277 
1755.000000	64.426445 
1754.000000	64.427590 
1753.000000	64.428734 
1752.000000	64.429759 
1751.000000	64.430212 
1750.000000	64.429616 
1749.000000	64.427542 
1748.000000	64.423727 
1747.000000	64.418125 
1746.000000	64.410901 
1745.000000	64.402389 
1744.000000	64.393043 
1743.000000	64.383244 
1742.000000	64.373302 
1741.000000	64.363455 
1740.000000	64.353966 
1739.000000	64.345216 
1738.000000	64.337730 
1737.000000	64.332175 
1736.000000	64.329218 
1735.000000	64.329504 
1734.000000	64.333200 
1733.000000	64.340114 
1732.000000	64.349389 
1731.000000	64.359855 
1730.000000	64.370083 
1729.000000	64.378666 
1728.000000	64.384651 
1727.000000	64.387798 
1726.000000	64.388465 
1725.000000	64.387774 
1724.000000	64.387536 
1723.000000	64.389348 
1722.000000	64.394521 
1721.000000	64.403319 
1720.000000	64.414906 
1719.000000	64.427495 
1718.000000	64.438652 
1717.000000	64.445877 
1716.000000	64.447450 
1715.000000	64.442706 
1714.000000	64.432382 
1713.000000	64.418339 
1712.000000	64.403176 
1711.000000	64.389443 
1710.000000	64.379119 
1709.000000	64.373278 
1708.000000	64.371871 
1707.000000	64.373993 
1706.000000	64.378213 
1705.000000	64.383220 
1704.000000	64.387893 
1703.000000	64.391827 
1702.000000	64.395070 
1701.000000	64.397788 
1700.000000	64.400196 
1699.000000	64.402103 
1698.000000	64.403200 
1697.000000	64.402770 
1696.000000	64.400267 
1695.000000	64.395523 
1694.000000	64.388656 
1693.000000	64.380168 
1692.000000	64.370775 
1691.000000	64.361238 
1690.000000	64.352178 
1689.000000	64.344000 
1688.000000	64.336729 
1687.000000	64.330220 
1686.000000	64.324378 
1685.000000	64.319133 
1684.000000	64.314532 
1683.000000	64.310836 
1682.000000	64.308333 
1681.000000	64.307403 
1680.000000	64.308166 
1679.000000	64.310765 
1678.000000	64.314985 
1677.000000	64.320588 
1676.000000	64.327263 
1675.000000	64.334750 
1674.000000	64.342927 
1673.000000	64.351725 
1672.000000	64.361143 
1671.000000	64.371180 
1670.000000	64.381885 
1669.000000	64.393305 
1668.000000	64.405417 
1667.000000	64.418125 
1666.000000	64.431166 
1665.000000	64.444088 
1664.000000	64.456343 
1663.000000	64.467167 
1662.000000	64.475679 
1661.000000	64.481043 
1660.000000	64.482641 
1659.000000	64.480018 
1658.000000	64.473032 
1657.000000	64.462184 
1656.000000	64.448237 
1655.000000	64.432525 
1654.000000	64.416599 
1653.000000	64.401960 
1652.000000	64.389824 
1651.000000	64.380931 
1650.000000	64.375472 
1649.000000	64.372777 
1648.000000	64.371585 
1647.000000	64.370393 
1646.000000	64.367723 
1645.000000	64.362335 
1644.000000	64.353871 
1643.000000	64.342594 
1642.000000	64.329767 
1641.000000	64.316987 
1640.000000	64.306282 
1639.000000	64.299345 
1638.000000	64.297413 
1637.000000	64.300942 
1636.000000	64.309620 
1635.000000	64.322423 
1634.000000	64.337754 
1633.000000	64.353799 
1632.000000	64.368891 
1631.000000	64.381575 
1630.000000	64.390730 
1629.000000	64.395451 
1628.000000	64.395189 
1627.000000	64.389538 
1626.000000	64.378380 
1625.000000	64.361929 
1624.000000	64.340901 
1623.000000	64.316582 
1622.000000	64.290928 
1621.000000	64.266443 
1620.000000	64.245748 
1619.000000	64.231252 
1618.000000	64.224672 
1617.000000	64.226984 
1616.000000	64.237928 
1615.000000	64.256310 
1614.000000	64.280080 
1613.000000	64.306974 
1612.000000	64.334678 
1611.000000	64.361357 
1610.000000	64.385533 
1609.000000	64.406061 
1608.000000	64.422202 
1607.000000	64.433145 
1606.000000	64.438128 
1605.000000	64.436411 
1604.000000	64.427518 
1603.000000	64.411568 
1602.000000	64.389491 
1601.000000	64.362931 
1600.000000	64.334368 
1599.000000	64.306521 
1598.000000	64.282131 
1597.000000	64.263224 
1596.000000	64.250683 
1595.000000	64.244389 
1594.000000	64.243221 
1593.000000	64.245295 
1592.000000	64.248538 
1591.000000	64.251255 
1590.000000	64.252352 
1589.000000	64.251279 
1588.000000	64.248228 
1587.000000	64.243531 
1586.000000	64.237642 
1585.000000	64.230585 
1584.000000	64.222145 
1583.000000	64.211869 
1582.000000	64.199447 
1581.000000	64.184999 
1580.000000	64.169263 
1579.000000	64.153456 
1578.000000	64.139413 
1577.000000	64.129114 
1576.000000	64.124274 
1575.000000	64.125967 
1574.000000	64.134526 
1573.000000	64.149475 
1572.000000	64.169740 
1571.000000	64.193701 
1570.000000	64.219474 
1569.000000	64.245033 
1568.000000	64.268565 
1567.000000	64.288568 
1566.000000	64.303731 
1565.000000	64.313435 
1564.000000	64.317560 
1563.000000	64.316534 
1562.000000	64.311528 
1561.000000	64.303970 
1560.000000	64.295721 
1559.000000	64.288520 
1558.000000	64.283728 
1557.000000	64.282035 
1556.000000	64.283442 
1555.000000	64.287161 
1554.000000	64.291810 
1553.000000	64.295768 
1552.000000	64.297699 
1551.000000	64.296460 
1550.000000	64.291644 
1549.000000	64.283442 
1548.000000	64.272713 
1547.000000	64.260840 
1546.000000	64.249372 
1545.000000	64.239859 
1544.000000	64.233303 
1543.000000	64.230132 
1542.000000	64.229965 
1541.000000	64.231657 
1540.000000	64.233589 
1539.000000	64.234375 
1538.000000	64.232873 
1537.000000	64.228606 
1536.000000	64.221930 
1535.000000	64.213848 
1534.000000	64.205908 
1533.000000	64.199590 
1532.000000	64.196133 
1531.000000	64.196419 
1530.000000	64.200758 
1529.000000	64.208889 
1528.000000	64.220356 
1527.000000	64.234566 
1526.000000	64.251017 
1525.000000	64.269185 
1524.000000	64.288663 
1523.000000	64.308905 
1522.000000	64.329075 
1521.000000	64.348077 
1520.000000	64.364480 
1519.000000	64.376688 
1518.000000	64.383554 
1517.000000	64.384078 
1516.000000	64.378118 
1515.000000	64.366126 
1514.000000	64.349484 
1513.000000	64.329886 
1512.000000	64.309382 
1511.000000	64.289450 
1510.000000	64.271473 
1509.000000	64.255809 
1508.000000	64.242339 
1507.000000	64.230298 
1506.000000	64.218711 
1505.000000	64.206695 
1504.000000	64.193773 
1503.000000	64.180183 
1502.000000	64.166688 
1501.000000	64.154744 
1500.000000	64.146018 
1499.000000	64.142131 
1498.000000	64.144039 
1497.000000	64.151740 
1496.000000	64.164280 
1495.000000	64.179539 
1494.000000	64.195036 
1493.000000	64.208340 
1492.000000	64.217829 
1491.000000	64.222931 
1490.000000	64.224290 
1489.000000	64.223384 
1488.000000	64.222049 
1487.000000	64.221882 
1486.000000	64.223909 
1485.000000	64.228367 
1484.000000	64.234495 
1483.000000	64.241361 
1482.000000	64.247584 
1481.000000	64.251828 
1480.000000	64.252996 
1479.000000	64.250588 
1478.000000	64.244532 
1477.000000	64.235162 
1476.000000	64.223265 
1475.000000	64.209651 
1474.000000	64.195322 
1473.000000	64.181160 
1472.000000	64.167952 
1471.000000	64.156293 
1470.000000	64.146566 
1469.000000	64.139080 
1468.000000	64.134049 
1467.000000	64.131426 
1466.000000	64.131045 
1465.000000	64.132595 
1464.000000	64.135670 
1463.000000	64.139747 
1462.000000	64.144229 
1461.000000	64.148831 
1460.000000	64.153242 
1459.000000	64.157485 
1458.000000	64.161968 
1457.000000	64.167475 
1456.000000	64.174985 
1455.000000	64.185285 
1454.000000	64.198827 
1453.000000	64.215421 
1452.000000	64.234137 
1451.000000	64.253163 
1450.000000	64.270210 
1449.000000	64.282679 
1448.000000	64.288449 
1447.000000	64.285993 
1446.000000	64.274883 
1445.000000	64.255905 
1444.000000	64.231014 
1443.000000	64.203000 
1442.000000	64.174938 
1441.000000	64.149808 
1440.000000	64.129948 
1439.000000	64.116835 
1438.000000	64.110970 
1437.000000	64.111685 
1436.000000	64.117527 
1435.000000	64.126467 
1434.000000	64.136552 
1433.000000	64.145779 
1432.000000	64.153051 
1431.000000	64.157938 
1430.000000	64.161038 
1429.000000	64.163327 
1428.000000	64.166140 
1427.000000	64.170861 
1426.000000	64.178371 
1425.000000	64.188718 
1424.000000	64.201331 
1423.000000	64.215111 
1422.000000	64.228725 
1421.000000	64.240884 
1420.000000	64.250802 
1419.000000	64.258193 
1418.000000	64.263153 
1417.000000	64.266037 
1416.000000	64.266991 
1415.000000	64.265966 
1414.000000	64.262485 
1413.000000	64.255881 
1412.000000	64.245700 
1411.000000	64.231944 
1410.000000	64.215469 
1409.000000	64.197969 
1408.000000	64.181518 
1407.000000	64.168119 
1406.000000	64.159202 
1405.000000	64.155054 
1404.000000	64.154720 
1403.000000	64.156150 
1402.000000	64.156746 
1401.000000	64.154100 
1400.000000	64.146614 
1399.000000	64.134144 
1398.000000	64.117765 
1397.000000	64.099693 
1396.000000	64.082527 
1395.000000	64.068531 
1394.000000	64.058971 
1393.000000	64.054012 
1392.000000	64.052844 
1391.000000	64.053940 
1390.000000	64.055705 
1389.000000	64.056968 
1388.000000	64.056944 
1387.000000	64.055681 
1386.000000	64.053583 
1385.000000	64.051175 
1384.000000	64.048814 
1383.000000	64.046382 
1382.000000	64.043664 
1381.000000	64.040279 
1380.000000	64.036130 
1379.000000	64.031505 
1378.000000	64.027285 
1377.000000	64.024829 
1376.000000	64.025616 
1375.000000	64.030838 
1374.000000	64.040899 
1373.000000	64.055132 
1372.000000	64.071822 
1371.000000	64.088487 
1370.000000	64.102458 
1369.000000	64.111304 
1368.000000	64.113807 
1367.000000	64.109945 
1366.000000	64.101266 
1365.000000	64.090347 
1364.000000	64.080452 
1363.000000	64.074969 
1362.000000	64.076399 
1361.000000	64.085984 
1360.000000	64.103460 
1359.000000	64.126801 
1358.000000	64.152860 
1357.000000	64.177608 
1356.000000	64.197039 
1355.000000	64.207792 
1354.000000	64.207935 
1353.000000	64.197230 
1352.000000	64.177274 
1351.000000	64.151096 
1350.000000	64.122629 
1349.000000	64.095997 
1348.000000	64.074850 
1347.000000	64.061498 
1346.000000	64.057087 
1345.000000	64.061045 
1344.000000	64.071846 
1343.000000	64.087128 
1342.000000	64.104390 
1341.000000	64.121627 
1340.000000	64.137268 
1339.000000	64.150786 
1338.000000	64.162278 
1337.000000	64.172387 
1336.000000	64.181780 
1335.000000	64.191007 
1334.000000	64.200091 
1333.000000	64.208769 
1332.000000	64.216232 
1331.000000	64.221477 
1330.000000	64.223146 
1329.000000	64.220309 
1328.000000	64.212512 
1327.000000	64.199662 
1326.000000	64.182353 
1325.000000	64.161705 
1324.000000	64.139223 
1323.000000	64.116859 
1322.000000	64.096450 
1321.000000	64.079642 
1320.000000	64.067554 
1319.000000	64.060568 
1318.000000	64.058160 
1317.000000	64.059138 
1316.000000	64.061713 
1315.000000	64.063882 
1314.000000	64.063787 
1313.000000	64.060020 
1312.000000	64.051985 
1311.000000	64.039945 
1310.000000	64.025068 
1309.000000	64.009165 
1308.000000	63.994765 
1307.000000	63.984632 
1306.000000	63.981389 
1305.000000	63.987159 
1304.000000	64.003109 
1303.000000	64.029169 
1302.000000	64.064025 
1301.000000	64.104795 
1300.000000	64.147448 
1299.000000	64.187359 
1298.000000	64.219999 
1297.000000	64.241695 
1296.000000	64.250111 
1295.000000	64.244890 
1294.000000	64.227724 
1293.000000	64.202046 
1292.000000	64.172315 
1291.000000	64.143252 
1290.000000	64.119029 
1289.000000	64.102363 
1288.000000	64.094305 
1287.000000	64.094328 
1286.000000	64.100551 
1285.000000	64.110422 
1284.000000	64.121484 
1283.000000	64.131808 
1282.000000	64.140200 
1281.000000	64.146184 
1280.000000	64.149975 
1279.000000	64.151930 
1278.000000	64.152503 
1277.000000	64.152073 
1276.000000	64.150929 
1275.000000	64.149618 
1274.000000	64.148831 
1273.000000	64.149427 
1272.000000	64.152193 
1271.000000	64.157700 
1270.000000	64.165663 
1269.000000	64.175295 
1268.000000	64.184951 
1267.000000	64.192366 
1266.000000	64.195251 
1265.000000	64.191746 
1264.000000	64.180946 
1263.000000	64.163088 
1262.000000	64.139533 
1261.000000	64.112401 
1260.000000	64.084196 
1259.000000	64.057397 
1258.000000	64.033770 
1257.000000	64.014267 
1256.000000	63.999056 
1255.000000	63.987779 
1254.000000	63.979792 
1253.000000	63.974452 
1252.000000	63.971328 
1251.000000	63.970184 
1250.000000	63.970851 
1249.000000	63.973164 
1248.000000	63.976550 
1247.000000	63.979911 
1246.000000	63.982009 
1245.000000	63.981389 
1244.000000	63.976883 
1243.000000	63.967895 
1242.000000	63.954639 
1241.000000	63.938212 
1240.000000	63.920402 
1239.000000	63.903403 
1238.000000	63.889050 
1237.000000	63.878798 
1236.000000	63.873124 
1235.000000	63.871932 
1234.000000	63.874292 
1233.000000	63.879084 
1232.000000	63.885211 
1231.000000	63.891839 
1230.000000	63.898515 
1229.000000	63.905310 
1228.000000	63.912415 
1227.000000	63.920092 
1226.000000	63.928389 
1225.000000	63.937020 
1224.000000	63.945198 
1223.000000	63.951611 
1222.000000	63.954615 
1221.000000	63.952612 
1220.000000	63.944458 
1219.000000	63.929772 
1218.000000	63.909435 
1217.000000	63.885259 
1216.000000	63.860368 
1215.000000	63.838267 
1214.000000	63.822531 
1213.000000	63.816022 
1212.000000	63.820195 
1211.000000	63.834834 
1210.000000	63.858079 
1209.000000	63.886690 
1208.000000	63.916850 
1207.000000	63.944959 
1206.000000	63.968110 
1205.000000	63.984632 
1204.000000	63.993883 
1203.000000	63.995957 
1202.000000	63.991594 
1201.000000	63.981580 
1200.000000	63.966894 
1199.000000	63.948607 
1198.000000	63.928127 
1197.000000	63.907027 
1196.000000	63.887214 
1195.000000	63.870620 
1194.000000	63.858723 
1193.000000	63.852357 
1192.000000	63.851475 
1191.000000	63.855409 
1190.000000	63.862562 
1189.000000	63.871216 
1188.000000	63.879680 
1187.000000	63.886976 
1186.000000	63.892507 
1185.000000	63.896393 
1184.000000	63.898849 
1183.000000	63.900256 
1182.000000	63.900756 
1181.000000	63.900566 
1180.000000	63.899803 
1179.000000	63.898992 
1178.000000	63.898944 
1177.000000	63.900661 
1176.000000	63.905191 
1175.000000	63.913083 
1174.000000	63.924121 
1173.000000	63.937473 
1172.000000	63.951492 
1171.000000	63.964176 
1170.000000	63.973307 
1169.000000	63.976669 
1168.000000	63.972282 
1167.000000	63.958859 
1166.000000	63.936090 
1165.000000	63.904881 
1164.000000	63.867187 
1163.000000	63.826131 
1162.000000	63.785195 
1161.000000	63.747739 
1160.000000	63.716506 
1159.000000	63.692998 
1158.000000	63.677835 
1157.000000	63.670802 
1156.000000	63.671159 
1155.000000	63.677716 
1154.000000	63.688969 
1153.000000	63.703083 
1152.000000	63.718008 
1151.000000	63.731455 
1150.000000	63.741827 
1149.000000	63.748264 
1148.000000	63.751220 
1147.000000	63.752341 
1146.000000	63.754057 
1145.000000	63.759088 
1144.000000	63.769721 
1143.000000	63.787150 
1142.000000	63.811373 
1141.000000	63.840889 
1140.000000	63.873481 
1139.000000	63.906168 
1138.000000	63.935542 
1137.000000	63.958430 
1136.000000	63.972163 
1135.000000	63.975334 
1134.000000	63.967490 
1133.000000	63.949704 
1132.000000	63.924455 
1131.000000	63.895058 
1130.000000	63.865113 
1129.000000	63.838052 
1128.000000	63.816761 
1127.000000	63.802790 
1126.000000	63.796591 
1125.000000	63.797116 
1124.000000	63.802313 
1123.000000	63.809490 
1122.000000	63.816046 
1121.000000	63.819718 
1120.000000	63.819217 
1119.000000	63.814473 
1118.000000	63.806962 
1117.000000	63.798999 
1116.000000	63.793635 
1115.000000	63.794136 
1114.000000	63.803029 
1113.000000	63.821935 
1112.000000	63.850784 
1111.000000	63.888120 
1110.000000	63.931179 
1109.000000	63.976097 
1108.000000	64.018869 
1107.000000	64.056015 
1106.000000	64.084982 
1105.000000	64.104485 
1104.000000	64.114308 
1103.000000	64.115428 
1102.000000	64.109301 
1101.000000	64.097762 
1100.000000	64.082193 
1099.000000	64.063644 
1098.000000	64.042735 
1097.000000	64.020156 
1096.000000	63.996624 
1095.000000	63.973283 
1094.000000	63.951778 
1093.000000	63.934111 
1092.000000	63.922047 
1091.000000	63.916802 
1090.000000	63.918542 
1089.000000	63.926219 
1088.000000	63.937878 
1087.000000	63.950657 
1086.000000	63.961577 
1085.000000	63.967680 
1084.000000	63.966655 
1083.000000	63.957142 
1082.000000	63.938689 
1081.000000	63.912081 
1080.000000	63.879132 
1079.000000	63.842439 
1078.000000	63.805079 
1077.000000	63.770174 
1076.000000	63.740491 
1075.000000	63.717985 
1074.000000	63.703250 
1073.000000	63.695836 
1072.000000	63.694310 
1071.000000	63.696789 
1070.000000	63.701081 
1069.000000	63.705849 
1068.000000	63.710474 
1067.000000	63.715410 
1066.000000	63.721871 
1065.000000	63.731217 
1064.000000	63.744163 
1063.000000	63.760638 
1062.000000	63.779187 
1061.000000	63.797307 
1060.000000	63.811850 
1059.000000	63.819980 
1058.000000	63.820052 
1057.000000	63.811850 
1056.000000	63.797235 
1055.000000	63.779497 
1054.000000	63.762974 
1053.000000	63.751935 
1052.000000	63.749599 
1051.000000	63.757514 
1050.000000	63.774967 
1049.000000	63.799357 
1048.000000	63.826417 
1047.000000	63.851523 
1046.000000	63.870358 
1045.000000	63.879752 
1044.000000	63.878345 
1043.000000	63.866758 
1042.000000	63.847231 
1041.000000	63.822960 
1040.000000	63.797545 
1039.000000	63.774347 
1038.000000	63.755702 
1037.000000	63.742828 
1036.000000	63.735771 
1035.000000	63.733935 
1034.000000	63.736248 
1033.000000	63.741660 
1032.000000	63.749337 
1031.000000	63.758683 
1030.000000	63.769507 
1029.000000	63.781571 
1028.000000	63.794279 
1027.000000	63.806772 
1026.000000	63.817644 
1025.000000	63.825368 
1024.000000	63.828492 
1023.000000	63.825798 
1022.000000	63.816809 
1021.000000	63.801765 
1020.000000	63.781809 
1019.000000	63.758850 
1018.000000	63.735127 
1017.000000	63.713216 
1016.000000	63.695454 
1015.000000	63.683867 
1014.000000	63.679838 
1013.000000	63.684058 
1012.000000	63.696527 
1011.000000	63.716197 
1010.000000	63.740992 
1009.000000	63.768196 
1008.000000	63.794922 
1007.000000	63.818335 
1006.000000	63.836216 
1005.000000	63.847351 
1004.000000	63.851642 
1003.000000	63.850188 
1002.000000	63.845038 
1001.000000	63.838291 
1000.000000	63.832020 
999.000000	 63.827943 
998.000000	 63.826751 
997.000000	 63.828325 
996.000000	 63.831448 
995.000000	 63.834595 
994.000000	 63.836336 
993.000000	 63.835382 
992.000000	 63.831830 
991.000000	 63.826918 
990.000000	 63.823485 
989.000000	 63.825201 
988.000000	 63.836312 
987.000000	 63.860511 
986.000000	 63.900089 
985.000000	 63.955044 
984.000000	 64.022445 
983.000000	 64.096546 
982.000000	 64.169621 
981.000000	 64.233279 
980.000000	 64.279890 
979.000000	 64.304113 
978.000000	 64.303994 
977.000000	 64.280939 
976.000000	 64.239621 
975.000000	 64.186334 
974.000000	 64.128017 
973.000000	 64.070415 
972.000000	 64.017820 
971.000000	 63.972282 
970.000000	 63.934254 
969.000000	 63.902711 
968.000000	 63.876533 
967.000000	 63.854598 
966.000000	 63.836383 
965.000000	 63.821840 
964.000000	 63.811039 
963.000000	 63.804054 
962.000000	 63.800311 
961.000000	 63.799047 
960.000000	 63.799476 
959.000000	 63.801145 
958.000000	 63.804221 
957.000000	 63.809466 
956.000000	 63.818049 
955.000000	 63.830876 
954.000000	 63.848018 
953.000000	 63.868570 
952.000000	 63.890171 
951.000000	 63.909435 
950.000000	 63.922357 
949.000000	 63.925743 
948.000000	 63.917565 
947.000000	 63.897609 
946.000000	 63.867497 
945.000000	 63.830232 
944.000000	 63.789725 
943.000000	 63.750100 
942.000000	 63.714742 
941.000000	 63.685750 
940.000000	 63.664007 
939.000000	 63.649606 
938.000000	 63.642024 
937.000000	 63.640308 
936.000000	 63.643884 
935.000000	 63.652396 
934.000000	 63.666057 
933.000000	 63.685226 
932.000000	 63.710117 
931.000000	 63.740348 
930.000000	 63.774847 
929.000000	 63.811516 
928.000000	 63.847470 
927.000000	 63.879013 
926.000000	 63.902449 
925.000000	 63.914275 
924.000000	 63.912177 
923.000000	 63.895273 
922.000000	 63.864827 
921.000000	 63.823843 
920.000000	 63.776969 
919.000000	 63.729643 
918.000000	 63.687133 
917.000000	 63.653802 
916.000000	 63.632655 
915.000000	 63.624906 
914.000000	 63.629961 
913.000000	 63.645958 
912.000000	 63.670325 
911.000000	 63.699960 
910.000000	 63.731718 
909.000000	 63.762497 
908.000000	 63.789486 
907.000000	 63.810157 
906.000000	 63.822364 
905.000000	 63.824677 
904.000000	 63.816618 
903.000000	 63.799166 
902.000000	 63.774633 
901.000000	 63.746237 
900.000000	 63.717532 
899.000000	 63.691782 
898.000000	 63.671469 
897.000000	 63.657188 
896.000000	 63.648343 
895.000000	 63.643503 
894.000000	 63.641619 
893.000000	 63.641905 
892.000000	 63.645195 
891.000000	 63.653087 
890.000000	 63.667917 
889.000000	 63.691496 
888.000000	 63.724613 
887.000000	 63.765764 
886.000000	 63.811922 
885.000000	 63.858556 
884.000000	 63.901162 
883.000000	 63.935852 
882.000000	 63.960719 
881.000000	 63.976216 
880.000000	 63.984584 
879.000000	 63.989019 
878.000000	 63.992404 
877.000000	 63.996267 
876.000000	 63.999724 
875.000000	 63.999772 
874.000000	 63.992118 
873.000000	 63.972592 
872.000000	 63.938689 
871.000000	 63.890624 
870.000000	 63.831663 
869.000000	 63.768053 
868.000000	 63.707447 
867.000000	 63.657641 
866.000000	 63.624358 
865.000000	 63.610744 
864.000000	 63.616394 
863.000000	 63.638401 
862.000000	 63.671731 
861.000000	 63.710856 
860.000000	 63.750720 
859.000000	 63.787937 
858.000000	 63.820409 
857.000000	 63.847923 
856.000000	 63.871121 
855.000000	 63.891243 
854.000000	 63.909149 
853.000000	 63.925743 
852.000000	 63.941764 
851.000000	 63.957858 
850.000000	 63.974761 
849.000000	 63.993024 
848.000000	 64.012932 
847.000000	 64.034223 
846.000000	 64.055871 
845.000000	 64.075803 
844.000000	 64.091014 
843.000000	 64.098453 
842.000000	 64.095449 
841.000000	 64.080548 
840.000000	 64.054059 
839.000000	 64.018154 
838.000000	 63.976955 
837.000000	 63.935375 
836.000000	 63.898658 
835.000000	 63.871359 
834.000000	 63.856649 
833.000000	 63.855767 
832.000000	 63.867998 
831.000000	 63.890743 
830.000000	 63.919997 
829.000000	 63.950967 
828.000000	 63.978886 
827.000000	 63.999485 
826.000000	 64.010214 
825.000000	 64.010524 
824.000000	 64.002132 
823.000000	 63.988161 
822.000000	 63.972520 
821.000000	 63.958573 
820.000000	 63.948512 
819.000000	 63.942694 
818.000000	 63.940119 
817.000000	 63.938689 
816.000000	 63.936090 
815.000000	 63.930439 
814.000000	 63.920640 
813.000000	 63.906884 
812.000000	 63.889932 
811.000000	 63.871383 
810.000000	 63.852953 
809.000000	 63.836145 
808.000000	 63.822007 
807.000000	 63.810753 
806.000000	 63.801836 
805.000000	 63.794088 
804.000000	 63.786196 
803.000000	 63.777160 
802.000000	 63.766765 
801.000000	 63.755655 
800.000000	 63.745260 
799.000000	 63.737797 
798.000000	 63.735508 
797.000000	 63.740062 
796.000000	 63.751935 
795.000000	 63.770270 
794.000000	 63.792777 
793.000000	 63.816261 
792.000000	 63.837099 
791.000000	 63.852405 
790.000000	 63.860344 
789.000000	 63.860940 
788.000000	 63.855624 
787.000000	 63.846898 
786.000000	 63.837528 
785.000000	 63.830041 
784.000000	 63.826179 
783.000000	 63.826870 
782.000000	 63.831830 
781.000000	 63.840365 
780.000000	 63.850855 
779.000000	 63.861513 
778.000000	 63.870048 
777.000000	 63.874197 
776.000000	 63.871979 
775.000000	 63.862204 
774.000000	 63.844752 
773.000000	 63.820648 
772.000000	 63.792157 
771.000000	 63.762307 
770.000000	 63.734221 
769.000000	 63.710641 
768.000000	 63.692927 
767.000000	 63.681244 
766.000000	 63.674163 
765.000000	 63.669371 
764.000000	 63.664460 
763.000000	 63.657832 
762.000000	 63.649129 
761.000000	 63.639378 
760.000000	 63.630580 
759.000000	 63.625049 
758.000000	 63.624382 
757.000000	 63.628935 
756.000000	 63.637495 
755.000000	 63.647246 
754.000000	 63.654875 
753.000000	 63.656878 
752.000000	 63.650727 
751.000000	 63.635182 
750.000000	 63.611125 
749.000000	 63.580846 
748.000000	 63.547754 
747.000000	 63.515496 
746.000000	 63.487291 
745.000000	 63.464736 
744.000000	 63.447904 
743.000000	 63.435196 
742.000000	 63.424181 
741.000000	 63.412213 
740.000000	 63.397479 
739.000000	 63.379573 
738.000000	 63.359928 
737.000000	 63.340997 
736.000000	 63.326287 
735.000000	 63.318872 
734.000000	 63.321280 
733.000000	 63.334536 
732.000000	 63.358092 
731.000000	 63.389825 
730.000000	 63.426423 
729.000000	 63.463997 
728.000000	 63.498973 
727.000000	 63.528132 
726.000000	 63.549828 
725.000000	 63.564062 
724.000000	 63.572502 
723.000000	 63.578057 
722.000000	 63.583970 
721.000000	 63.593053 
720.000000	 63.606715 
719.000000	 63.625097 
718.000000	 63.646626 
717.000000	 63.668632 
716.000000	 63.687992 
715.000000	 63.702154 
714.000000	 63.709449 
713.000000	 63.709330 
712.000000	 63.702774 
711.000000	 63.691854 
710.000000	 63.678932 
709.000000	 63.665938 
708.000000	 63.654494 
707.000000	 63.644838 
706.000000	 63.636136 
705.000000	 63.625979 
704.000000	 63.611578 
703.000000	 63.589692 
702.000000	 63.557958 
701.000000	 63.515543 
700.000000	 63.463139 
699.000000	 63.403916 
698.000000	 63.342738 
697.000000	 63.285994 
696.000000	 63.240075 
695.000000	 63.210487 
694.000000	 63.200783 
693.000000	 63.211536 
692.000000	 63.240122 
691.000000	 63.281011 
690.000000	 63.326811 
689.000000	 63.370084 
688.000000	 63.404917 
687.000000	 63.429069 
686.000000	 63.443922 
685.000000	 63.454484 
684.000000	 63.467383 
683.000000	 63.488912 
682.000000	 63.522291 
681.000000	 63.566541 
680.000000	 63.615632 
679.000000	 63.660097 
678.000000	 63.689351 
677.000000	 63.694334 
676.000000	 63.670563 
675.000000	 63.619971 
674.000000	 63.550353 
673.000000	 63.473463 
672.000000	 63.402748 
671.000000	 63.350009 
670.000000	 63.323092 
669.000000	 63.324046 
668.000000	 63.349819 
667.000000	 63.393640 
666.000000	 63.447403 
665.000000	 63.504242 
664.000000	 63.559389 
663.000000	 63.610768 
662.000000	 63.657951 
661.000000	 63.701176 
660.000000	 63.739871 
659.000000	 63.772153 
658.000000	 63.794875 
657.000000	 63.804602 
656.000000	 63.799595 
655.000000	 63.779687 
654.000000	 63.748383 
653.000000	 63.710069 
652.000000	 63.668680 
651.000000	 63.625431 
650.000000	 63.578891 
649.000000	 63.524842 
648.000000	 63.457226 
647.000000	 63.371133 
646.000000	 63.265204 
645.000000	 63.143682 
644.000000	 63.016366 
643.000000	 62.897634 
642.000000	 62.802600 
641.000000	 62.744879 
640.000000	 62.732291 
639.000000	 62.765932 
638.000000	 62.838912 
637.000000	 62.938332 
636.000000	 63.047909 
635.000000	 63.151168 
634.000000	 63.234615 
633.000000	 63.289642 
632.000000	 63.314127 
631.000000	 63.311219 
630.000000	 63.289308 
629.000000	 63.260841 
628.000000	 63.240551 
627.000000	 63.243126 
626.000000	 63.280177 
625.000000	 63.359808 
624.000000	 63.482761 
623.000000	 63.643312 
622.000000	 63.827776 
621.000000	 64.017391 
620.000000	 64.190292 
619.000000	 64.326453 
618.000000	 64.410114 
617.000000	 64.432239 
616.000000	 64.392876 
615.000000	 64.301562 
614.000000	 64.174771 
613.000000	 64.032363 
612.000000	 63.894605 
611.000000	 63.779163 
610.000000	 63.698005 
609.000000	 63.656616 
608.000000	 63.653564 
607.000000	 63.681960 
606.000000	 63.730883 
605.000000	 63.787531 
604.000000	 63.837790 
603.000000	 63.868474 
602.000000	 63.869452 
601.000000	 63.835215 
600.000000	 63.764548 
599.000000	 63.661837 
598.000000	 63.534593 
597.000000	 63.394689 
596.000000	 63.255715 
595.000000	 63.133072 
594.000000	 63.041806 
593.000000	 62.995195 
592.000000	 63.002276 
591.000000	 63.066363 
590.000000	 63.183760 
589.000000	 63.344049 
588.000000	 63.529896 
587.000000	 63.721418 
586.000000	 63.899374 
585.000000	 64.047384 
584.000000	 64.154314 
583.000000	 64.214277 
582.000000	 64.226531 
581.000000	 64.193367 
580.000000	 64.119100 
579.000000	 64.007949 
578.000000	 63.864636 
577.000000	 63.696217 
576.000000	 63.513493 
575.000000	 63.332176 
574.000000	 63.171768 
573.000000	 63.054132 
572.000000	 62.998604 
571.000000	 63.016319 
570.000000	 63.107395 
569.000000	 63.258099 
568.000000	 63.444709 
567.000000	 63.636994 
566.000000	 63.806080 
565.000000	 63.930845 
564.000000	 64.001226 
563.000000	 64.018726 
562.000000	 63.993763 
561.000000	 63.941693 
560.000000	 63.876533 
559.000000	 63.807320 
558.000000	 63.735604 
557.000000	 63.657045 
556.000000	 63.564372 
555.000000	 63.452792 
554.000000	 63.322687 
553.000000	 63.182234 
552.000000	 63.047599 
551.000000	 62.940216 
550.000000	 62.880444 
549.000000	 62.882781 
548.000000	 62.951135 
547.000000	 63.078069 
546.000000	 63.245606 
545.000000	 63.430142 
544.000000	 63.606667 
543.000000	 63.755464 
542.000000	 63.865542 
541.000000	 63.936686 
540.000000	 63.976860 
539.000000	 63.999366 
538.000000	 64.017748 
537.000000	 64.041924 
536.000000	 64.077043 
535.000000	 64.120793 
534.000000	 64.166951 
533.000000	 64.205336 
532.000000	 64.227366 
531.000000	 64.226102 
530.000000	 64.199542 
529.000000	 64.148616 
528.000000	 64.076924 
527.000000	 63.989138 
526.000000	 63.890147 
525.000000	 63.783836 
524.000000	 63.673830 
523.000000	 63.564300 
522.000000	 63.461208 
521.000000	 63.373064 
520.000000	 63.310146 
519.000000	 63.283228 
518.000000	 63.300013 
517.000000	 63.362669 
516.000000	 63.465070 
515.000000	 63.592720 
514.000000	 63.724303 
513.000000	 63.835453 
512.000000	 63.904118 
511.000000	 63.913679 
510.000000	 63.859248 
509.000000	 63.748979 
508.000000	 63.602828 
507.000000	 63.447618 
506.000000	 63.311576 
505.000000	 63.217902 
504.000000	 63.179564 
503.000000	 63.197398 
502.000000	 63.260579 
501.000000	 63.350415 
500.000000	 63.445043 
499.000000	 63.525319 
498.000000	 63.576984 
497.000000	 63.593482 
496.000000	 63.575482 
495.000000	 63.530516 
494.000000	 63.469576 
493.000000	 63.405227 
492.000000	 63.350701 
491.000000	 63.316607 
490.000000	 63.310122 
489.000000	 63.332486 
488.000000	 63.381719 
487.000000	 63.450169 
486.000000	 63.526463 
485.000000	 63.596582 
484.000000	 63.646197 
483.000000	 63.663530 
482.000000	 63.641190 
481.000000	 63.578748 
480.000000	 63.482475 
479.000000	 63.365221 
478.000000	 63.243389 
477.000000	 63.134765 
476.000000	 63.054490 
475.000000	 63.013792 
474.000000	 63.018465 
473.000000	 63.067626 
472.000000	 63.154745 
471.000000	 63.269281 
470.000000	 63.399624 
469.000000	 63.533139 
468.000000	 63.659596 
467.000000	 63.774085 
466.000000	 63.877010 
465.000000	 63.973093 
464.000000	 64.068365 
463.000000	 64.167594 
462.000000	 64.271521 
461.000000	 64.376544 
460.000000	 64.474844 
459.000000	 64.556837 
458.000000	 64.614248 
457.000000	 64.645266 
456.000000	 64.653038 
455.000000	 64.646434 
454.000000	 64.635801 
453.000000	 64.632320 
452.000000	 64.640808 
451.000000	 64.659500 
450.000000	 64.677238 
449.000000	 64.677596 
448.000000	 64.639902 
447.000000	 64.545798 
446.000000	 64.382719 
445.000000	 64.148378 
444.000000	 63.852500 
443.000000	 63.516402 
442.000000	 63.168406 
441.000000	 62.839293 
440.000000	 62.556362 
439.000000	 62.340068 
438.000000	 62.199282 
437.000000	 62.134242 
436.000000	 62.136483 
435.000000	 62.195658 
434.000000	 62.300968 
433.000000	 62.445902 
432.000000	 62.622880 
431.000000	 62.828278 
430.000000	 63.056969 
429.000000	 63.303995 
428.000000	 63.561964 
427.000000	 63.820242 
426.000000	 64.064121 
425.000000	 64.276838 
424.000000	 64.445519 
423.000000	 64.555931 
422.000000	 64.594459 
421.000000	 64.553117 
420.000000	 64.433693 
419.000000	 64.244532 
418.000000	 64.001059 
417.000000	 63.724064 
416.000000	 63.437938 
415.000000	 63.165211 
414.000000	 62.926220 
413.000000	 62.737727 
412.000000	 62.616229 
411.000000	 62.570595 
410.000000	 62.610936 
409.000000	 62.748336 
408.000000	 62.996888 
407.000000	 63.366222 
406.000000	 63.857889 
405.000000	 64.464163 
404.000000	 65.153956 
403.000000	 65.881896 
402.000000	 66.571450 
401.000000	 67.135119 
400.000000	 67.468738 
399.000000	 67.473745 
398.000000	 67.076635 
397.000000	 66.257500 
396.000000	 65.049791 
395.000000	 63.544487 
394.000000	 61.873435 
393.000000	 60.187244 
392.000000	 58.642983 
391.000000	 57.380580 
390.000000	 56.481933 
389.000000	 55.955791 
388.000000	 55.765342 
387.000000	 55.831289 
386.000000	 56.012964 
385.000000	 56.151247 
384.000000	 56.104731 
383.000000	 55.791854 
382.000000	 55.178427 
381.000000	 54.315018 
380.000000	 53.336215 
379.000000	 52.417874 
378.000000	 51.740741 
377.000000	 51.418495 
376.000000	 51.479268 
375.000000	 51.823687 
374.000000	 52.252149 
373.000000	 52.503013 
372.000000	 52.329492 
371.000000	 51.560306 
370.000000	 50.127315 

