PE IR       SPECTRUM    SPECTRUM    ASCII       PEDS        1.60        
  -1
BZ4CF9~1.ASC
17/04/07
23:02:13.00
17/04/07
23:02:13.00
tln
$BZ1503107-1_t0119$<tbV0>[-7.8,13.0,8.0,0.0,27,1,0]
370.000000
64









2002,4.07    
MIRTGS : RIGHTBACK : INTERNAL 2
MIR : ON : INTERNAL 2
OPTKBR

0.200000
8
8.000000
FILLER
RATIO
SPECTRUM
UNLOCKED 256

DOUBLE
64
COMBINED
1
0
0


1.000000
RATIO


1
0
TRUE
51149
0
LEFT NOT FITTED RIGHT NOT FITTED 0
NONE
NONE
15600
12.000000
4.427000
51148
TRUE
1 0 8 72 0 0 0 0 

15798.010000






#HDR
-1
-1
#GR
CM-1
%T
0.00002384185791015625
0.0
5000.000000
-1.000000
4631
8
75.443124
58.816790
#DATA
5000.000000	64.411234 
4999.000000	64.249777 
4998.000000	64.070653 
4997.000000	63.908219 
4996.000000	63.794660 
4995.000000	63.754963 
4994.000000	63.800644 
4993.000000	63.928818 
4992.000000	64.121818 
4991.000000	64.352345 
4990.000000	64.587450 
4989.000000	64.795827 
4988.000000	64.951252 
4987.000000	65.036201 
4986.000000	65.042829 
4985.000000	64.972805 
4984.000000	64.835023 
4983.000000	64.643359 
4982.000000	64.415550 
4981.000000	64.171361 
4980.000000	63.931083 
4979.000000	63.714528 
4978.000000	63.540697 
4977.000000	63.425970 
4976.000000	63.382101 
4975.000000	63.414525 
4974.000000	63.518905 
4973.000000	63.683390 
4972.000000	63.888192 
4971.000000	64.111256 
4970.000000	64.328074 
4969.000000	64.519882 
4968.000000	64.673805 
4967.000000	64.787316 
4966.000000	64.866352 
4965.000000	64.922904 
4964.000000	64.970946 
4963.000000	65.021204 
4962.000000	65.079927 
4961.000000	65.143871 
4960.000000	65.202736 
4959.000000	65.241026 
4958.000000	65.243816 
4957.000000	65.202021 
4956.000000	65.116715 
4955.000000	64.999985 
4954.000000	64.872694 
4953.000000	64.759588 
4952.000000	64.682626 
4951.000000	64.655685 
4950.000000	64.680671 
4949.000000	64.747500 
4948.000000	64.836645 
4947.000000	64.925432 
4946.000000	64.993715 
4945.000000	65.028047 
4944.000000	65.025997 
4943.000000	64.994025 
4942.000000	64.947342 
4941.000000	64.904236 
4940.000000	64.882111 
4939.000000	64.891910 
4938.000000	64.936971 
4937.000000	65.013670 
4936.000000	65.111708 
4935.000000	65.217590 
4934.000000	65.317678 
4933.000000	65.401840 
4932.000000	65.464115 
4931.000000	65.503096 
4930.000000	65.521955 
4929.000000	65.526223 
4928.000000	65.522122 
4927.000000	65.513992 
4926.000000	65.503144 
4925.000000	65.487217 
4924.000000	65.461874 
4923.000000	65.422415 
4922.000000	65.366268 
4921.000000	65.294361 
4920.000000	65.212774 
4919.000000	65.131187 
4918.000000	65.060877 
4917.000000	65.011811 
4916.000000	64.989566 
4915.000000	64.994239 
4914.000000	65.020632 
4913.000000	65.059018 
4912.000000	65.097665 
4911.000000	65.125322 
4910.000000	65.134143 
4909.000000	65.120410 
4908.000000	65.084743 
4907.000000	65.030765 
4906.000000	64.963436 
4905.000000	64.887857 
4904.000000	64.808058 
4903.000000	64.728283 
4902.000000	64.653158 
4901.000000	64.588475 
4900.000000	64.540886 
4899.000000	64.516711 
4898.000000	64.520502 
4897.000000	64.552760 
4896.000000	64.609527 
4895.000000	64.682078 
4894.000000	64.758682 
4893.000000	64.827060 
4892.000000	64.877152 
4891.000000	64.902806 
4890.000000	64.903116 
4889.000000	64.882373 
4888.000000	64.848375 
4887.000000	64.809966 
4886.000000	64.774680 
4885.000000	64.747333 
4884.000000	64.728856 
4883.000000	64.716792 
4882.000000	64.706969 
4881.000000	64.695739 
4880.000000	64.681172 
4879.000000	64.664363 
4878.000000	64.649081 
4877.000000	64.640498 
4876.000000	64.643740 
4875.000000	64.661931 
4874.000000	64.695167 
4873.000000	64.740252 
4872.000000	64.790987 
4871.000000	64.840221 
4870.000000	64.881443 
4869.000000	64.910960 
4868.000000	64.928627 
4867.000000	64.937520 
4866.000000	64.943575 
4865.000000	64.952588 
4864.000000	64.968800 
4863.000000	64.992690 
4862.000000	65.020871 
4861.000000	65.046930 
4860.000000	65.063953 
4859.000000	65.066099 
4858.000000	65.051054 
4857.000000	65.020465 
4856.000000	64.980053 
4855.000000	64.937853 
4854.000000	64.902114 
4853.000000	64.879322 
4852.000000	64.872646 
4851.000000	64.881181 
4850.000000	64.900469 
4849.000000	64.923453 
4848.000000	64.942717 
4847.000000	64.951968 
4846.000000	64.947891 
4845.000000	64.930963 
4844.000000	64.905381 
4843.000000	64.877533 
4842.000000	64.854788 
4841.000000	64.843797 
4840.000000	64.848661 
4839.000000	64.869952 
4838.000000	64.904522 
4837.000000	64.946627 
4836.000000	64.988899 
4835.000000	65.024304 
4834.000000	65.047550 
4833.000000	65.056562 
4832.000000	65.052103 
4831.000000	65.037703 
4830.000000	65.017628 
4829.000000	64.995336 
4828.000000	64.972686 
4827.000000	64.949369 
4826.000000	64.924097 
4825.000000	64.895772 
4824.000000	64.864945 
4823.000000	64.834570 
4822.000000	64.809036 
4821.000000	64.793109 
4820.000000	64.790272 
4819.000000	64.801192 
4818.000000	64.823031 
4817.000000	64.849686 
4816.000000	64.873075 
4815.000000	64.885258 
4814.000000	64.880371 
4813.000000	64.856410 
4812.000000	64.815425 
4811.000000	64.763450 
4810.000000	64.708757 
4809.000000	64.660286 
4808.000000	64.625000 
4807.000000	64.607191 
4806.000000	64.607858 
4805.000000	64.624714 
4804.000000	64.653110 
4803.000000	64.687108 
4802.000000	64.720964 
4801.000000	64.749932 
4800.000000	64.770412 
4799.000000	64.780926 
4798.000000	64.781498 
4797.000000	64.774012 
4796.000000	64.761519 
4795.000000	64.747381 
4794.000000	64.734435 
4793.000000	64.725112 
4792.000000	64.721107 
4791.000000	64.723110 
4790.000000	64.731001 
4789.000000	64.744138 
4788.000000	64.761209 
4787.000000	64.780211 
4786.000000	64.798498 
4785.000000	64.813327 
4784.000000	64.821815 
4783.000000	64.821410 
4782.000000	64.810156 
4781.000000	64.787483 
4780.000000	64.753675 
4779.000000	64.709687 
4778.000000	64.657115 
4777.000000	64.598250 
4776.000000	64.535975 
4775.000000	64.473247 
4774.000000	64.413952 
4773.000000	64.362239 
4772.000000	64.323043 
4771.000000	64.301204 
4770.000000	64.300751 
4769.000000	64.323878 
4768.000000	64.370465 
4767.000000	64.437460 
4766.000000	64.518833 
4765.000000	64.606261 
4764.000000	64.690804 
4763.000000	64.764738 
4762.000000	64.822602 
4761.000000	64.862442 
4760.000000	64.886260 
4759.000000	64.899158 
4758.000000	64.907932 
4757.000000	64.919281 
4756.000000	64.938688 
4755.000000	64.968729 
4754.000000	65.009117 
4753.000000	65.056514 
4752.000000	65.106034 
4751.000000	65.152335 
4750.000000	65.191197 
4749.000000	65.220308 
4748.000000	65.240025 
4747.000000	65.252566 
4746.000000	65.261673 
4745.000000	65.270519 
4744.000000	65.280890 
4743.000000	65.292239 
4742.000000	65.302085 
4741.000000	65.306210 
4740.000000	65.299987 
4739.000000	65.279817 
4738.000000	65.244245 
4737.000000	65.194344 
4736.000000	65.133547 
4735.000000	65.066885 
4734.000000	64.999485 
4733.000000	64.936232 
4732.000000	64.880323 
4731.000000	64.832854 
4730.000000	64.792776 
4729.000000	64.758133 
4728.000000	64.726781 
4727.000000	64.696931 
4726.000000	64.667963 
4725.000000	64.640283 
4724.000000	64.615535 
4723.000000	64.595437 
4722.000000	64.582061 
4721.000000	64.576601 
4720.000000	64.579653 
4719.000000	64.590239 
4718.000000	64.606595 
4717.000000	64.626455 
4716.000000	64.647507 
4715.000000	64.667701 
4714.000000	64.686036 
4713.000000	64.702510 
4712.000000	64.718103 
4711.000000	64.734125 
4710.000000	64.751529 
4709.000000	64.770054 
4708.000000	64.787983 
4707.000000	64.802217 
4706.000000	64.808535 
4705.000000	64.803147 
4704.000000	64.783859 
4703.000000	64.751434 
4702.000000	64.709711 
4701.000000	64.665436 
4700.000000	64.627456 
4699.000000	64.604306 
4698.000000	64.601898 
4697.000000	64.622044 
4696.000000	64.661812 
4695.000000	64.714026 
4694.000000	64.768600 
4693.000000	64.815402 
4692.000000	64.846467 
4691.000000	64.857912 
4690.000000	64.850592 
4689.000000	64.829516 
4688.000000	64.802169 
4687.000000	64.776182 
4686.000000	64.757227 
4685.000000	64.747667 
4684.000000	64.746212 
4683.000000	64.748978 
4682.000000	64.750623 
4681.000000	64.746546 
4680.000000	64.734125 
4679.000000	64.713430 
4678.000000	64.687299 
4677.000000	64.659833 
4676.000000	64.636254 
4675.000000	64.620804 
4674.000000	64.616870 
4673.000000	64.625954 
4672.000000	64.648056 
4671.000000	64.681911 
4670.000000	64.725184 
4669.000000	64.775061 
4668.000000	64.827847 
4667.000000	64.879059 
4666.000000	64.924192 
4665.000000	64.958667 
4664.000000	64.979434 
4663.000000	64.985513 
4662.000000	64.978623 
4661.000000	64.962863 
4660.000000	64.944267 
4659.000000	64.929580 
4658.000000	64.924359 
4657.000000	64.931583 
4656.000000	64.950966 
4655.000000	64.979243 
4654.000000	65.011024 
4653.000000	65.040206 
4652.000000	65.061759 
4651.000000	65.072965 
4650.000000	65.073704 
4649.000000	65.066552 
4648.000000	65.055465 
4647.000000	65.044832 
4646.000000	65.038204 
4645.000000	65.037584 
4644.000000	65.043354 
4643.000000	65.054321 
4642.000000	65.068984 
4641.000000	65.085482 
4640.000000	65.102648 
4639.000000	65.119075 
4638.000000	65.133357 
4637.000000	65.143442 
4636.000000	65.146923 
4635.000000	65.140652 
4634.000000	65.121531 
4633.000000	65.087461 
4632.000000	65.038061 
4631.000000	64.975309 
4630.000000	64.903473 
4629.000000	64.828324 
4628.000000	64.756274 
4627.000000	64.692902 
4626.000000	64.642596 
4625.000000	64.607596 
4624.000000	64.588522 
4623.000000	64.584326 
4622.000000	64.593291 
4621.000000	64.613533 
4620.000000	64.643406 
4619.000000	64.681100 
4618.000000	64.724397 
4617.000000	64.770197 
4616.000000	64.814114 
4615.000000	64.850926 
4614.000000	64.874553 
4613.000000	64.879274 
4612.000000	64.860916 
4611.000000	64.818239 
4610.000000	64.753413 
4609.000000	64.672183 
4608.000000	64.583301 
4607.000000	64.497137 
4606.000000	64.424538 
4605.000000	64.374732 
4604.000000	64.353895 
4603.000000	64.363861 
4602.000000	64.401507 
4601.000000	64.459323 
4600.000000	64.526700 
4599.000000	64.592361 
4598.000000	64.646077 
4597.000000	64.681148 
4596.000000	64.695215 
4595.000000	64.690637 
4594.000000	64.672970 
4593.000000	64.649653 
4592.000000	64.628076 
4591.000000	64.614129 
4590.000000	64.611411 
4589.000000	64.620780 
4588.000000	64.641118 
4587.000000	64.669561 
4586.000000	64.703273 
4585.000000	64.738941 
4584.000000	64.773273 
4583.000000	64.803004 
4582.000000	64.825153 
4581.000000	64.836668 
4580.000000	64.834880 
4579.000000	64.818763 
4578.000000	64.789247 
4577.000000	64.750242 
4576.000000	64.707875 
4575.000000	64.669132 
4574.000000	64.640522 
4573.000000	64.626789 
4572.000000	64.629840 
4571.000000	64.648246 
4570.000000	64.677786 
4569.000000	64.712691 
4568.000000	64.746713 
4567.000000	64.775109 
4566.000000	64.794754 
4565.000000	64.804339 
4564.000000	64.803886 
4563.000000	64.794158 
4562.000000	64.775371 
4561.000000	64.747285 
4560.000000	64.708375 
4559.000000	64.656996 
4558.000000	64.591383 
4557.000000	64.511394 
4556.000000	64.418601 
4555.000000	64.316916 
4554.000000	64.212441 
4553.000000	64.112591 
4552.000000	64.025759 
4551.000000	63.960170 
4550.000000	63.922524 
4549.000000	63.917040 
4548.000000	63.944673 
4547.000000	64.002704 
4546.000000	64.084911 
4545.000000	64.182257 
4544.000000	64.283251 
4543.000000	64.376521 
4542.000000	64.451885 
4541.000000	64.502692 
4540.000000	64.526581 
4539.000000	64.525628 
4538.000000	64.505648 
4537.000000	64.474391 
4536.000000	64.439845 
4535.000000	64.408016 
4534.000000	64.382338 
4533.000000	64.363002 
4532.000000	64.348316 
4531.000000	64.335632 
4530.000000	64.323472 
4529.000000	64.311528 
4528.000000	64.300847 
4527.000000	64.293265 
4526.000000	64.290452 
4525.000000	64.292740 
4524.000000	64.298820 
4523.000000	64.306068 
4522.000000	64.311504 
4521.000000	64.313626 
4520.000000	64.312958 
4519.000000	64.312481 
4518.000000	64.316463 
4517.000000	64.329028 
4516.000000	64.351844 
4515.000000	64.382505 
4514.000000	64.414787 
4513.000000	64.440155 
4512.000000	64.449930 
4511.000000	64.437961 
4510.000000	64.402675 
4509.000000	64.348244 
4508.000000	64.283609 
4507.000000	64.220190 
4506.000000	64.169907 
4505.000000	64.142251 
4504.000000	64.142179 
4503.000000	64.169335 
4502.000000	64.217376 
4501.000000	64.275860 
4500.000000	64.332509 
4499.000000	64.376306 
4498.000000	64.399456 
4497.000000	64.398789 
4496.000000	64.375734 
4495.000000	64.335107 
4494.000000	64.281916 
4493.000000	64.219975 
4492.000000	64.151215 
4491.000000	64.076566 
4490.000000	63.997364 
4489.000000	63.916873 
4488.000000	63.842034 
4487.000000	63.781762 
4486.000000	63.745474 
4485.000000	63.739800 
4484.000000	63.766145 
4483.000000	63.819360 
4482.000000	63.887095 
4481.000000	63.953828 
4480.000000	64.003419 
4479.000000	64.024662 
4478.000000	64.013719 
4477.000000	63.975834 
4476.000000	63.923335 
4475.000000	63.872933 
4474.000000	63.840818 
4473.000000	63.837957 
4472.000000	63.866829 
4471.000000	63.923883 
4470.000000	64.000868 
4469.000000	64.090323 
4468.000000	64.188027 
4467.000000	64.288234 
4466.000000	64.384984 
4465.000000	64.476251 
4464.000000	64.562654 
4463.000000	64.641499 
4462.000000	64.709162 
4461.000000	64.765787 
4460.000000	64.812350 
4459.000000	64.850497 
4458.000000	64.882445 
4457.000000	64.907312 
4456.000000	64.925742 
4455.000000	64.946293 
4454.000000	64.977383 
4453.000000	65.027165 
4452.000000	65.095663 
4451.000000	65.177774 
4450.000000	65.253758 
4449.000000	65.293526 
4448.000000	65.262031 
4447.000000	65.128564 
4446.000000	64.880156 
4445.000000	64.528393 
4444.000000	64.122796 
4443.000000	63.746571 
4442.000000	63.508558 
4441.000000	63.522958 
4440.000000	63.889455 
4439.000000	64.667582 
4438.000000	65.862035 
4437.000000	67.408895 
4436.000000	69.190120 
4435.000000	71.035075 
4434.000000	72.757625 
4433.000000	74.166679 
4432.000000	75.100660 
4431.000000	75.443124 
4430.000000	75.143885 
4429.000000	74.224972 
4428.000000	72.783398 
4427.000000	70.974469 
4426.000000	69.001913 
4425.000000	67.073893 
4424.000000	65.383720 
4423.000000	64.070248 
4422.000000	63.209891 
4421.000000	62.804532 
4420.000000	62.796235 
4419.000000	63.082504 
4418.000000	63.542056 
4417.000000	64.062452 
4416.000000	64.558529 
4415.000000	64.978981 
4414.000000	65.305256 
4413.000000	65.544581 
4412.000000	65.717124 
4411.000000	65.841269 
4410.000000	65.925168 
4409.000000	65.967822 
4408.000000	65.958523 
4407.000000	65.888738 
4406.000000	65.753507 
4405.000000	65.564894 
4404.000000	65.344619 
4403.000000	65.120005 
4402.000000	64.918255 
4401.000000	64.763426 
4400.000000	64.668583 
4399.000000	64.632582 
4398.000000	64.642405 
4397.000000	64.676547 
4396.000000	64.713001 
4395.000000	64.738130 
4394.000000	64.743328 
4393.000000	64.722847 
4392.000000	64.679121 
4391.000000	64.620828 
4390.000000	64.556241 
4389.000000	64.490222 
4388.000000	64.426612 
4387.000000	64.367556 
4386.000000	64.315509 
4385.000000	64.273571 
4384.000000	64.243650 
4383.000000	64.226627 
4382.000000	64.223122 
4381.000000	64.232873 
4380.000000	64.252686 
4379.000000	64.278316 
4378.000000	64.304375 
4377.000000	64.326643 
4376.000000	64.342379 
4375.000000	64.351797 
4374.000000	64.357161 
4373.000000	64.362668 
4372.000000	64.373207 
4371.000000	64.392828 
4370.000000	64.422869 
4369.000000	64.462423 
4368.000000	64.508867 
4367.000000	64.558053 
4366.000000	64.605379 
4365.000000	64.646840 
4364.000000	64.679932 
4363.000000	64.703655 
4362.000000	64.718317 
4361.000000	64.725255 
4360.000000	64.725947 
4359.000000	64.721679 
4358.000000	64.713239 
4357.000000	64.701342 
4356.000000	64.686560 
4355.000000	64.669537 
4354.000000	64.651179 
4353.000000	64.632987 
4352.000000	64.616847 
4351.000000	64.604973 
4350.000000	64.599680 
4349.000000	64.602589 
4348.000000	64.614200 
4347.000000	64.633393 
4346.000000	64.657473 
4345.000000	64.682102 
4344.000000	64.702677 
4343.000000	64.715385 
4342.000000	64.718127 
4341.000000	64.711070 
4340.000000	64.696836 
4339.000000	64.679956 
4338.000000	64.665627 
4337.000000	64.658212 
4336.000000	64.660358 
4335.000000	64.672255 
4334.000000	64.691376 
4333.000000	64.713120 
4332.000000	64.732050 
4331.000000	64.743208 
4330.000000	64.743399 
4329.000000	64.731740 
4328.000000	64.709424 
4327.000000	64.679360 
4326.000000	64.645123 
4325.000000	64.610481 
4324.000000	64.578461 
4323.000000	64.551019 
4322.000000	64.529180 
4321.000000	64.512920 
4320.000000	64.501476 
4319.000000	64.493775 
4318.000000	64.488816 
4317.000000	64.485740 
4316.000000	64.483904 
4315.000000	64.482688 
4314.000000	64.481568 
4313.000000	64.479589 
4312.000000	64.475250 
4311.000000	64.466810 
4310.000000	64.452433 
4309.000000	64.431309 
4308.000000	64.404201 
4307.000000	64.373874 
4306.000000	64.344787 
4305.000000	64.322829 
4304.000000	64.313983 
4303.000000	64.322662 
4302.000000	64.350461 
4301.000000	64.395427 
4300.000000	64.452123 
4299.000000	64.512085 
4298.000000	64.566445 
4297.000000	64.607429 
4296.000000	64.631128 
4295.000000	64.637684 
4294.000000	64.631938 
4293.000000	64.621686 
4292.000000	64.615964 
4291.000000	64.622569 
4290.000000	64.646196 
4289.000000	64.687275 
4288.000000	64.741873 
4287.000000	64.803361 
4286.000000	64.863157 
4285.000000	64.913034 
4284.000000	64.946651 
4283.000000	64.960694 
4282.000000	64.954948 
4281.000000	64.931631 
4280.000000	64.894604 
4279.000000	64.848232 
4278.000000	64.796519 
4277.000000	64.742541 
4276.000000	64.688730 
4275.000000	64.636683 
4274.000000	64.587831 
4273.000000	64.543533 
4272.000000	64.505386 
4271.000000	64.474844 
4270.000000	64.452791 
4269.000000	64.439439 
4268.000000	64.433550 
4267.000000	64.433288 
4266.000000	64.436030 
4265.000000	64.439558 
4264.000000	64.441871 
4263.000000	64.442634 
4262.000000	64.443087 
4261.000000	64.445996 
4260.000000	64.454627 
4259.000000	64.471817 
4258.000000	64.499068 
4257.000000	64.535641 
4256.000000	64.578413 
4255.000000	64.622259 
4254.000000	64.661121 
4253.000000	64.688968 
4252.000000	64.701557 
4251.000000	64.697003 
4250.000000	64.676403 
4249.000000	64.643907 
4248.000000	64.605903 
4247.000000	64.569592 
4246.000000	64.542031 
4245.000000	64.529204 
4244.000000	64.534831 
4243.000000	64.559817 
4242.000000	64.602088 
4241.000000	64.657545 
4240.000000	64.720249 
4239.000000	64.783549 
4238.000000	64.840793 
4237.000000	64.886212 
4236.000000	64.915823 
4235.000000	64.927744 
4234.000000	64.922451 
4233.000000	64.902353 
4232.000000	64.871716 
4231.000000	64.835667 
4230.000000	64.799618 
4229.000000	64.768457 
4228.000000	64.746093 
4227.000000	64.735126 
4226.000000	64.736461 
4225.000000	64.749479 
4224.000000	64.772510 
4223.000000	64.803194 
4222.000000	64.838528 
4221.000000	64.875745 
4220.000000	64.912700 
4219.000000	64.948225 
4218.000000	64.981770 
4217.000000	65.013170 
4216.000000	65.042614 
4215.000000	65.069556 
4214.000000	65.093326 
4213.000000	65.112209 
4212.000000	65.123939 
4211.000000	65.126109 
4210.000000	65.116953 
4209.000000	65.095901 
4208.000000	65.064358 
4207.000000	65.025448 
4206.000000	64.983677 
4205.000000	64.943981 
4204.000000	64.910960 
4203.000000	64.887762 
4202.000000	64.875602 
4201.000000	64.873743 
4200.000000	64.879894 
4199.000000	64.890933 
4198.000000	64.903640 
4197.000000	64.915013 
4196.000000	64.922475 
4195.000000	64.924216 
4194.000000	64.919018 
4193.000000	64.906430 
4192.000000	64.886832 
4191.000000	64.861297 
4190.000000	64.832067 
4189.000000	64.802598 
4188.000000	64.776897 
4187.000000	64.759063 
4186.000000	64.752364 
4185.000000	64.758324 
4184.000000	64.776349 
4183.000000	64.803147 
4182.000000	64.833903 
4181.000000	64.863133 
4180.000000	64.886236 
4179.000000	64.900088 
4178.000000	64.904117 
4177.000000	64.899826 
4176.000000	64.890646 
4175.000000	64.880537 
4174.000000	64.873242 
4173.000000	64.871382 
4172.000000	64.875960 
4171.000000	64.886355 
4170.000000	64.900779 
4169.000000	64.916801 
4168.000000	64.932155 
4167.000000	64.945220 
4166.000000	64.955425 
4165.000000	64.963126 
4164.000000	64.969444 
4163.000000	64.975690 
4162.000000	64.982867 
4161.000000	64.991259 
4160.000000	65.000605 
4159.000000	65.009355 
4158.000000	65.015316 
4157.000000	65.015935 
4156.000000	65.009212 
4155.000000	64.994263 
4154.000000	64.971661 
4153.000000	64.943408 
4152.000000	64.912867 
4151.000000	64.883351 
4150.000000	64.857792 
4149.000000	64.837384 
4148.000000	64.821338 
4147.000000	64.807391 
4146.000000	64.792656 
4145.000000	64.774465 
4144.000000	64.751577 
4143.000000	64.724731 
4142.000000	64.696907 
4141.000000	64.672493 
4140.000000	64.656758 
4139.000000	64.653825 
4138.000000	64.666342 
4137.000000	64.694213 
4136.000000	64.735054 
4135.000000	64.784622 
4134.000000	64.838051 
4133.000000	64.890575 
4132.000000	64.938640 
4131.000000	64.980006 
4130.000000	65.013790 
4129.000000	65.040016 
4128.000000	65.059089 
4127.000000	65.071702 
4126.000000	65.077972 
4125.000000	65.078043 
4124.000000	65.071630 
4123.000000	65.058755 
4122.000000	65.039801 
4121.000000	65.016007 
4120.000000	64.989614 
4119.000000	64.963817 
4118.000000	64.942383 
4117.000000	64.929032 
4116.000000	64.927053 
4115.000000	64.938402 
4114.000000	64.963316 
4113.000000	65.000033 
4112.000000	65.045022 
4111.000000	65.093731 
4110.000000	65.141201 
4109.000000	65.183115 
4108.000000	65.216279 
4107.000000	65.239119 
4106.000000	65.252089 
4105.000000	65.256571 
4104.000000	65.254712 
4103.000000	65.248060 
4102.000000	65.237522 
4101.000000	65.223073 
4100.000000	65.204524 
4099.000000	65.181326 
4098.000000	65.153455 
4097.000000	65.121245 
4096.000000	65.085887 
4095.000000	65.048623 
4094.000000	65.010571 
4093.000000	64.972448 
4092.000000	64.934659 
4091.000000	64.897108 
4090.000000	64.859747 
4089.000000	64.822578 
4088.000000	64.786481 
4087.000000	64.753103 
4086.000000	64.725303 
4085.000000	64.706540 
4084.000000	64.700865 
4083.000000	64.711380 
4082.000000	64.740180 
4081.000000	64.787268 
4080.000000	64.850449 
4079.000000	64.924979 
4078.000000	65.004205 
4077.000000	65.080738 
4076.000000	65.147280 
4075.000000	65.197801 
4074.000000	65.228462 
4073.000000	65.238308 
4072.000000	65.228962 
4071.000000	65.204310 
4070.000000	65.169119 
4069.000000	65.128540 
4068.000000	65.087056 
4067.000000	65.048074 
4066.000000	65.013766 
4065.000000	64.985370 
4064.000000	64.963746 
4063.000000	64.949798 
4062.000000	64.944410 
4061.000000	64.948368 
4060.000000	64.962005 
4059.000000	64.984965 
4058.000000	65.015435 
4057.000000	65.050482 
4056.000000	65.086340 
4055.000000	65.119028 
4054.000000	65.145373 
4053.000000	65.163087 
4052.000000	65.171766 
4051.000000	65.171742 
4050.000000	65.164566 
4049.000000	65.151333 
4048.000000	65.132808 
4047.000000	65.108847 
4046.000000	65.079212 
4045.000000	65.043711 
4044.000000	65.002822 
4043.000000	64.958405 
4042.000000	64.913940 
4041.000000	64.873886 
4040.000000	64.842653 
4039.000000	64.823698 
4038.000000	64.818596 
4037.000000	64.826536 
4036.000000	64.844775 
4035.000000	64.868879 
4034.000000	64.894104 
4033.000000	64.916563 
4032.000000	64.933896 
4031.000000	64.945363 
4030.000000	64.951801 
4029.000000	64.954543 
4028.000000	64.954972 
4027.000000	64.953851 
4026.000000	64.951276 
4025.000000	64.946556 
4024.000000	64.938783 
4023.000000	64.927625 
4022.000000	64.913320 
4021.000000	64.897108 
4020.000000	64.880514 
4019.000000	64.864993 
4018.000000	64.851450 
4017.000000	64.839816 
4016.000000	64.829611 
4015.000000	64.819645 
4014.000000	64.809370 
4013.000000	64.799189 
4012.000000	64.790654 
4011.000000	64.786219 
4010.000000	64.788770 
4009.000000	64.800715 
4008.000000	64.823198 
4007.000000	64.855241 
4006.000000	64.893960 
4005.000000	64.934539 
4004.000000	64.971256 
4003.000000	64.998626 
4002.000000	65.012240 
4001.000000	65.010094 
4000.000000	64.992833 
3999.000000	64.963650 
3998.000000	64.927697 
3997.000000	64.890885 
3996.000000	64.858603 
3995.000000	64.834809 
3994.000000	64.821505 
3993.000000	64.818358 
3992.000000	64.823269 
3991.000000	64.832949 
3990.000000	64.844155 
3989.000000	64.854288 
3988.000000	64.862108 
3987.000000	64.867734 
3986.000000	64.872217 
3985.000000	64.876842 
3984.000000	64.882445 
3983.000000	64.888978 
3982.000000	64.895391 
3981.000000	64.899992 
3980.000000	64.900851 
3979.000000	64.896750 
3978.000000	64.887356 
3977.000000	64.873266 
3976.000000	64.856147 
3975.000000	64.837837 
3974.000000	64.820456 
3973.000000	64.805841 
3972.000000	64.795255 
3971.000000	64.789509 
3970.000000	64.788699 
3969.000000	64.792776 
3968.000000	64.801144 
3967.000000	64.812850 
3966.000000	64.826321 
3965.000000	64.839529 
3964.000000	64.850187 
3963.000000	64.855957 
3962.000000	64.855313 
3961.000000	64.847707 
3960.000000	64.834189 
3959.000000	64.817023 
3958.000000	64.799427 
3957.000000	64.785051 
3956.000000	64.777040 
3955.000000	64.777469 
3954.000000	64.787101 
3953.000000	64.805364 
3952.000000	64.830756 
3951.000000	64.861273 
3950.000000	64.894795 
3949.000000	64.929413 
3948.000000	64.963603 
3947.000000	64.995884 
3946.000000	65.024685 
3945.000000	65.048050 
3944.000000	65.064048 
3943.000000	65.070891 
3942.000000	65.067529 
3941.000000	65.053606 
3940.000000	65.030217 
3939.000000	64.998984 
3938.000000	64.962196 
3937.000000	64.921951 
3936.000000	64.880108 
3935.000000	64.838004 
3934.000000	64.796853 
3933.000000	64.757966 
3932.000000	64.723062 
3931.000000	64.694333 
3930.000000	64.674472 
3929.000000	64.665818 
3928.000000	64.669752 
3927.000000	64.686250 
3926.000000	64.713883 
3925.000000	64.749550 
3924.000000	64.789533 
3923.000000	64.830136 
3922.000000	64.868521 
3921.000000	64.903140 
3920.000000	64.933490 
3919.000000	64.959597 
3918.000000	64.981293 
3917.000000	64.997935 
3916.000000	65.007996 
3915.000000	65.009689 
3914.000000	65.001440 
3913.000000	64.983153 
3912.000000	64.956188 
3911.000000	64.923739 
3910.000000	64.890098 
3909.000000	64.859867 
3908.000000	64.836645 
3907.000000	64.822268 
3906.000000	64.816212 
3905.000000	64.816117 
3904.000000	64.818191 
3903.000000	64.818572 
3902.000000	64.814233 
3901.000000	64.804124 
3900.000000	64.788889 
3899.000000	64.770936 
3898.000000	64.753293 
3897.000000	64.739394 
3896.000000	64.731931 
3895.000000	64.733004 
3894.000000	64.743518 
3893.000000	64.763379 
3892.000000	64.791846 
3891.000000	64.827251 
3890.000000	64.867305 
3889.000000	64.909005 
3888.000000	64.949154 
3887.000000	64.984393 
3886.000000	65.011644 
3885.000000	65.028285 
3884.000000	65.032839 
3883.000000	65.024995 
3882.000000	65.006208 
3881.000000	64.979243 
3880.000000	64.948201 
3879.000000	64.917397 
3878.000000	64.890980 
3877.000000	64.871931 
3876.000000	64.861631 
3875.000000	64.859890 
3874.000000	64.865040 
3873.000000	64.874529 
3872.000000	64.885568 
3871.000000	64.895939 
3870.000000	64.904522 
3869.000000	64.911103 
3868.000000	64.916515 
3867.000000	64.921712 
3866.000000	64.927887 
3865.000000	64.935350 
3864.000000	64.944005 
3863.000000	64.953088 
3862.000000	64.961695 
3861.000000	64.969325 
3860.000000	64.975714 
3859.000000	64.981484 
3858.000000	64.986968 
3857.000000	64.992642 
3856.000000	64.997625 
3855.000000	65.000033 
3854.000000	64.996838 
3853.000000	64.984965 
3852.000000	64.961981 
3851.000000	64.927268 
3850.000000	64.882826 
3849.000000	64.833259 
3848.000000	64.785480 
3847.000000	64.747285 
3846.000000	64.726018 
3845.000000	64.726495 
3844.000000	64.749956 
3843.000000	64.793443 
3842.000000	64.850187 
3841.000000	64.911055 
3840.000000	64.966368 
3839.000000	65.008378 
3838.000000	65.032505 
3837.000000	65.038752 
3836.000000	65.031123 
3835.000000	65.016078 
3834.000000	65.000677 
3833.000000	64.990448 
3832.000000	64.988183 
3831.000000	64.993119 
3830.000000	65.001940 
3829.000000	65.009856 
3828.000000	65.012574 
3827.000000	65.007615 
3826.000000	64.995551 
3825.000000	64.979386 
3824.000000	64.963555 
3823.000000	64.952349 
3822.000000	64.948368 
3821.000000	64.951467 
3820.000000	64.958810 
3819.000000	64.965915 
3818.000000	64.967823 
3817.000000	64.961218 
3816.000000	64.945268 
3815.000000	64.922070 
3814.000000	64.896297 
3813.000000	64.873671 
3812.000000	64.859867 
3811.000000	64.858627 
3810.000000	64.871287 
3809.000000	64.896416 
3808.000000	64.930176 
3807.000000	64.967560 
3806.000000	65.002965 
3805.000000	65.031790 
3804.000000	65.050482 
3803.000000	65.056967 
3802.000000	65.050768 
3801.000000	65.032792 
3800.000000	65.004944 
3799.000000	64.969706 
3798.000000	64.930224 
3797.000000	64.890027 
3796.000000	64.852404 
3795.000000	64.820170 
3794.000000	64.794969 
3793.000000	64.777207 
3792.000000	64.765691 
3791.000000	64.758110 
3790.000000	64.751434 
3789.000000	64.743280 
3788.000000	64.732241 
3787.000000	64.719057 
3786.000000	64.705991 
3785.000000	64.696717 
3784.000000	64.695000 
3783.000000	64.703965 
3782.000000	64.724707 
3781.000000	64.756202 
3780.000000	64.795279 
3779.000000	64.837622 
3778.000000	64.878606 
3777.000000	64.914631 
3776.000000	64.943671 
3775.000000	64.965724 
3774.000000	64.982199 
3773.000000	64.995598 
3772.000000	65.008497 
3771.000000	65.022897 
3770.000000	65.039563 
3769.000000	65.057897 
3768.000000	65.076041 
3767.000000	65.091490 
3766.000000	65.101957 
3765.000000	65.105342 
3764.000000	65.100312 
3763.000000	65.086579 
3762.000000	65.065026 
3761.000000	65.037441 
3760.000000	65.006327 
3759.000000	64.974951 
3758.000000	64.946532 
3757.000000	64.924192 
3756.000000	64.910197 
3755.000000	64.905762 
3754.000000	64.910840 
3753.000000	64.924120 
3752.000000	64.943313 
3751.000000	64.965415 
3750.000000	64.987301 
3749.000000	65.006065 
3748.000000	65.019679 
3747.000000	65.026903 
3746.000000	65.027570 
3745.000000	65.022444 
3744.000000	65.012812 
3743.000000	65.000128 
3742.000000	64.985895 
3741.000000	64.971590 
3740.000000	64.958262 
3739.000000	64.946770 
3738.000000	64.937591 
3737.000000	64.931178 
3736.000000	64.927697 
3735.000000	64.927124 
3734.000000	64.929342 
3733.000000	64.934039 
3732.000000	64.940667 
3731.000000	64.948582 
3730.000000	64.956879 
3729.000000	64.965081 
3728.000000	64.972424 
3727.000000	64.978837 
3726.000000	64.984631 
3725.000000	64.990520 
3724.000000	64.997696 
3723.000000	65.007138 
3722.000000	65.019559 
3721.000000	65.034651 
3720.000000	65.051507 
3719.000000	65.067958 
3718.000000	65.081167 
3717.000000	65.088105 
3716.000000	65.086293 
3715.000000	65.074610 
3714.000000	65.053606 
3713.000000	65.025830 
3712.000000	64.995288 
3711.000000	64.967060 
3710.000000	64.945936 
3709.000000	64.935660 
3708.000000	64.937925 
3707.000000	64.951896 
3706.000000	64.974379 
3705.000000	65.000534 
3704.000000	65.024518 
3703.000000	65.040946 
3702.000000	65.045905 
3701.000000	65.037488 
3700.000000	65.016603 
3699.000000	64.986515 
3698.000000	64.952397 
3697.000000	64.920139 
3696.000000	64.895343 
3695.000000	64.882469 
3694.000000	64.883661 
3693.000000	64.898705 
3692.000000	64.924812 
3691.000000	64.957451 
3690.000000	64.990925 
3689.000000	65.019583 
3688.000000	65.038990 
3687.000000	65.046405 
3686.000000	65.041399 
3685.000000	65.025639 
3684.000000	65.002560 
3683.000000	64.976406 
3682.000000	64.951562 
3681.000000	64.931488 
3680.000000	64.918136 
3679.000000	64.911770 
3678.000000	64.911293 
3677.000000	64.914727 
3676.000000	64.919924 
3675.000000	64.925146 
3674.000000	64.929294 
3673.000000	64.932322 
3672.000000	64.934587 
3671.000000	64.936947 
3670.000000	64.939785 
3669.000000	64.943265 
3668.000000	64.946794 
3667.000000	64.949822 
3666.000000	64.952063 
3665.000000	64.953613 
3664.000000	64.955019 
3663.000000	64.957237 
3662.000000	64.961647 
3661.000000	64.969134 
3660.000000	64.979934 
3659.000000	64.993000 
3658.000000	65.006494 
3657.000000	65.018057 
3656.000000	65.025448 
3655.000000	65.027070 
3654.000000	65.022420 
3653.000000	65.012359 
3652.000000	64.998912 
3651.000000	64.984512 
3650.000000	64.971733 
3649.000000	64.962291 
3648.000000	64.957118 
3647.000000	64.955973 
3646.000000	64.957928 
3645.000000	64.961886 
3644.000000	64.967107 
3643.000000	64.973258 
3642.000000	64.981007 
3641.000000	64.991641 
3640.000000	65.006852 
3639.000000	65.027880 
3638.000000	65.055370 
3637.000000	65.088915 
3636.000000	65.126943 
3635.000000	65.166878 
3634.000000	65.205430 
3633.000000	65.239214 
3632.000000	65.265226 
3631.000000	65.281224 
3630.000000	65.285778 
3629.000000	65.278434 
3628.000000	65.259909 
3627.000000	65.231680 
3626.000000	65.195870 
3625.000000	65.154814 
3624.000000	65.111231 
3623.000000	65.067625 
3622.000000	65.026402 
3621.000000	64.989590 
3620.000000	64.958691 
3619.000000	64.934754 
3618.000000	64.918255 
3617.000000	64.909029 
3616.000000	64.906382 
3615.000000	64.909315 
3614.000000	64.916300 
3613.000000	64.925646 
3612.000000	64.935374 
3611.000000	64.943838 
3610.000000	64.949679 
3609.000000	64.952301 
3608.000000	64.951801 
3607.000000	64.949202 
3606.000000	64.946413 
3605.000000	64.945912 
3604.000000	64.949870 
3603.000000	64.960050 
3602.000000	64.977097 
3601.000000	65.000057 
3600.000000	65.026450 
3599.000000	65.052556 
3598.000000	65.073990 
3597.000000	65.086746 
3596.000000	65.087723 
3595.000000	65.075373 
3594.000000	65.050244 
3593.000000	65.014958 
3592.000000	64.973735 
3591.000000	64.931559 
3590.000000	64.893460 
3589.000000	64.863753 
3588.000000	64.845132 
3587.000000	64.838624 
3586.000000	64.843225 
3585.000000	64.856553 
3584.000000	64.875149 
3583.000000	64.895343 
3582.000000	64.913773 
3581.000000	64.927673 
3580.000000	64.935660 
3579.000000	64.937472 
3578.000000	64.933991 
3577.000000	64.926552 
3576.000000	64.916849 
3575.000000	64.906501 
3574.000000	64.896726 
3573.000000	64.888477 
3572.000000	64.882373 
3571.000000	64.878940 
3570.000000	64.878678 
3569.000000	64.881873 
3568.000000	64.888620 
3567.000000	64.898633 
3566.000000	64.910769 
3565.000000	64.923548 
3564.000000	64.935135 
3563.000000	64.943718 
3562.000000	64.947772 
3561.000000	64.946365 
3560.000000	64.939427 
3559.000000	64.927506 
3558.000000	64.911866 
3557.000000	64.893817 
3556.000000	64.874362 
3555.000000	64.854121 
3554.000000	64.833378 
3553.000000	64.812064 
3552.000000	64.790010 
3551.000000	64.767384 
3550.000000	64.744782 
3549.000000	64.723348 
3548.000000	64.704704 
3547.000000	64.690518 
3546.000000	64.682221 
3545.000000	64.680552 
3544.000000	64.685392 
3543.000000	64.695763 
3542.000000	64.709901 
3541.000000	64.725184 
3540.000000	64.738631 
3539.000000	64.747262 
3538.000000	64.748716 
3537.000000	64.741277 
3536.000000	64.724659 
3535.000000	64.699769 
3534.000000	64.669013 
3533.000000	64.635825 
3532.000000	64.604544 
3531.000000	64.579725 
3530.000000	64.565277 
3529.000000	64.564085 
3528.000000	64.576935 
3527.000000	64.602708 
3526.000000	64.638018 
3525.000000	64.677882 
3524.000000	64.716553 
3523.000000	64.748454 
3522.000000	64.769458 
3521.000000	64.777731 
3520.000000	64.773917 
3519.000000	64.761281 
3518.000000	64.744901 
3517.000000	64.730310 
3516.000000	64.722657 
3515.000000	64.725089 
3514.000000	64.738249 
3513.000000	64.760112 
3512.000000	64.786815 
3511.000000	64.813685 
3510.000000	64.836406 
3509.000000	64.852118 
3508.000000	64.860177 
3507.000000	64.861822 
3506.000000	64.859414 
3505.000000	64.855623 
3504.000000	64.852309 
3503.000000	64.850115 
3502.000000	64.847898 
3501.000000	64.843583 
3500.000000	64.834928 
3499.000000	64.820337 
3498.000000	64.799475 
3497.000000	64.773488 
3496.000000	64.744901 
3495.000000	64.716815 
3494.000000	64.692449 
3493.000000	64.674043 
3492.000000	64.662694 
3491.000000	64.658284 
3490.000000	64.660096 
3489.000000	64.666986 
3488.000000	64.678168 
3487.000000	64.692831 
3486.000000	64.711022 
3485.000000	64.732694 
3484.000000	64.758014 
3483.000000	64.786648 
3482.000000	64.817976 
3481.000000	64.850950 
3480.000000	64.884042 
3479.000000	64.915776 
3478.000000	64.944362 
3477.000000	64.968371 
3476.000000	64.986348 
3475.000000	64.997243 
3474.000000	65.000033 
3473.000000	64.994311 
3472.000000	64.979958 
3471.000000	64.957427 
3470.000000	64.927887 
3469.000000	64.893341 
3468.000000	64.856314 
3467.000000	64.819931 
3466.000000	64.787268 
3465.000000	64.761304 
3464.000000	64.744257 
3463.000000	64.737653 
3462.000000	64.741849 
3461.000000	64.756512 
3460.000000	64.780020 
3459.000000	64.810180 
3458.000000	64.844012 
3457.000000	64.878535 
3456.000000	64.911007 
3455.000000	64.939141 
3454.000000	64.961123 
3453.000000	64.975833 
3452.000000	64.982938 
3451.000000	64.982676 
3450.000000	64.975762 
3449.000000	64.963173 
3448.000000	64.946269 
3447.000000	64.926600 
3446.000000	64.905691 
3445.000000	64.884996 
3444.000000	64.865565 
3443.000000	64.848232 
3442.000000	64.833521 
3441.000000	64.821839 
3440.000000	64.813613 
3439.000000	64.809441 
3438.000000	64.810132 
3437.000000	64.816451 
3436.000000	64.829134 
3435.000000	64.848303 
3434.000000	64.873361 
3433.000000	64.902591 
3432.000000	64.933133 
3431.000000	64.961457 
3430.000000	64.983582 
3429.000000	64.996027 
3428.000000	64.996242 
3427.000000	64.983487 
3426.000000	64.958977 
3425.000000	64.925909 
3424.000000	64.888906 
3423.000000	64.853286 
3422.000000	64.824056 
3421.000000	64.805316 
3420.000000	64.799380 
3419.000000	64.806532 
3418.000000	64.825034 
3417.000000	64.851713 
3416.000000	64.882540 
3415.000000	64.913296 
3414.000000	64.940500 
3413.000000	64.961814 
3412.000000	64.976072 
3411.000000	64.983296 
3410.000000	64.984059 
3409.000000	64.979267 
3408.000000	64.969921 
3407.000000	64.956903 
3406.000000	64.941048 
3405.000000	64.923429 
3404.000000	64.905762 
3403.000000	64.889860 
3402.000000	64.877986 
3401.000000	64.871931 
3400.000000	64.873051 
3399.000000	64.881467 
3398.000000	64.895892 
3397.000000	64.913797 
3396.000000	64.931845 
3395.000000	64.946293 
3394.000000	64.953875 
3393.000000	64.952325 
3392.000000	64.940905 
3391.000000	64.920306 
3390.000000	64.892506 
3389.000000	64.860272 
3388.000000	64.826536 
3387.000000	64.793920 
3386.000000	64.764428 
3385.000000	64.739203 
3384.000000	64.718937 
3383.000000	64.703917 
3382.000000	64.694571 
3381.000000	64.691257 
3380.000000	64.694595 
3379.000000	64.704990 
3378.000000	64.722728 
3377.000000	64.747214 
3376.000000	64.777350 
3375.000000	64.810967 
3374.000000	64.845538 
3373.000000	64.878296 
3372.000000	64.906692 
3371.000000	64.928889 
3370.000000	64.943909 
3369.000000	64.951777 
3368.000000	64.953184 
3367.000000	64.949321 
3366.000000	64.941525 
3365.000000	64.931154 
3364.000000	64.919185 
3363.000000	64.906477 
3362.000000	64.893817 
3361.000000	64.882040 
3360.000000	64.872002 
3359.000000	64.864492 
3358.000000	64.860343 
3357.000000	64.860105 
3356.000000	64.863657 
3355.000000	64.870476 
3354.000000	64.879441 
3353.000000	64.889359 
3352.000000	64.899134 
3351.000000	64.907908 
3350.000000	64.915466 
3349.000000	64.921784 
3348.000000	64.927077 
3347.000000	64.931488 
3346.000000	64.934682 
3345.000000	64.935851 
3344.000000	64.934015 
3343.000000	64.928245 
3342.000000	64.917874 
3341.000000	64.903402 
3340.000000	64.886379 
3339.000000	64.869427 
3338.000000	64.855694 
3337.000000	64.848399 
3336.000000	64.849948 
3335.000000	64.861655 
3334.000000	64.883160 
3333.000000	64.912509 
3332.000000	64.946365 
3331.000000	64.980864 
3330.000000	65.012025 
3329.000000	65.036249 
3328.000000	65.050888 
3327.000000	65.054464 
3326.000000	65.046739 
3325.000000	65.028905 
3324.000000	65.003061 
3323.000000	64.972329 
3322.000000	64.939689 
3321.000000	64.908289 
3320.000000	64.880228 
3319.000000	64.856863 
3318.000000	64.838194 
3317.000000	64.823246 
3316.000000	64.810442 
3315.000000	64.798045 
3314.000000	64.784860 
3313.000000	64.770555 
3312.000000	64.756131 
3311.000000	64.743351 
3310.000000	64.734578 
3309.000000	64.732074 
3308.000000	64.737367 
3307.000000	64.750599 
3306.000000	64.770364 
3305.000000	64.793682 
3304.000000	64.816808 
3303.000000	64.835786 
3302.000000	64.847230 
3301.000000	64.849185 
3300.000000	64.841246 
3299.000000	64.824843 
3298.000000	64.803004 
3297.000000	64.779686 
3296.000000	64.759016 
3295.000000	64.744305 
3294.000000	64.737844 
3293.000000	64.740180 
3292.000000	64.750599 
3291.000000	64.767003 
3290.000000	64.786386 
3289.000000	64.805555 
3288.000000	64.821887 
3287.000000	64.833664 
3286.000000	64.840006 
3285.000000	64.841151 
3284.000000	64.838266 
3283.000000	64.833068 
3282.000000	64.827370 
3281.000000	64.822864 
3280.000000	64.820742 
3279.000000	64.821457 
3278.000000	64.824724 
3277.000000	64.829730 
3276.000000	64.835286 
3275.000000	64.839982 
3274.000000	64.842367 
3273.000000	64.841222 
3272.000000	64.835906 
3271.000000	64.826250 
3270.000000	64.813113 
3269.000000	64.797711 
3268.000000	64.781880 
3267.000000	64.767765 
3266.000000	64.757657 
3265.000000	64.753532 
3264.000000	64.756894 
3263.000000	64.768409 
3262.000000	64.787530 
3261.000000	64.812803 
3260.000000	64.841508 
3259.000000	64.870214 
3258.000000	64.895057 
3257.000000	64.912462 
3256.000000	64.919924 
3255.000000	64.916539 
3254.000000	64.903330 
3253.000000	64.883136 
3252.000000	64.860343 
3251.000000	64.839839 
3250.000000	64.826130 
3249.000000	64.822244 
3248.000000	64.828944 
3247.000000	64.844679 
3246.000000	64.865636 
3245.000000	64.886975 
3244.000000	64.903950 
3243.000000	64.913249 
3242.000000	64.913368 
3241.000000	64.905405 
3240.000000	64.892339 
3239.000000	64.878273 
3238.000000	64.867329 
3237.000000	64.862275 
3236.000000	64.864015 
3235.000000	64.871120 
3234.000000	64.880704 
3233.000000	64.888691 
3232.000000	64.891386 
3231.000000	64.886164 
3230.000000	64.872264 
3229.000000	64.850664 
3228.000000	64.823675 
3227.000000	64.794397 
3226.000000	64.765906 
3225.000000	64.740777 
3224.000000	64.720487 
3223.000000	64.705681 
3222.000000	64.695692 
3221.000000	64.688897 
3220.000000	64.683318 
3219.000000	64.676547 
3218.000000	64.667153 
3217.000000	64.654517 
3216.000000	64.639616 
3215.000000	64.624619 
3214.000000	64.612793 
3213.000000	64.607596 
3212.000000	64.611911 
3211.000000	64.627075 
3210.000000	64.652585 
3209.000000	64.685916 
3208.000000	64.723134 
3207.000000	64.759826 
3206.000000	64.792156 
3205.000000	64.817786 
3204.000000	64.836359 
3203.000000	64.849400 
3202.000000	64.859580 
3201.000000	64.869809 
3200.000000	64.882302 
3199.000000	64.897775 
3198.000000	64.915657 
3197.000000	64.934110 
3196.000000	64.951086 
3195.000000	64.964699 
3194.000000	64.973855 
3193.000000	64.978098 
3192.000000	64.977860 
3191.000000	64.973878 
3190.000000	64.966869 
3189.000000	64.957547 
3188.000000	64.946174 
3187.000000	64.933133 
3186.000000	64.919090 
3185.000000	64.905047 
3184.000000	64.892530 
3183.000000	64.883017 
3182.000000	64.877867 
3181.000000	64.877414 
3180.000000	64.880967 
3179.000000	64.886689 
3178.000000	64.892244 
3177.000000	64.895415 
3176.000000	64.894318 
3175.000000	64.888620 
3174.000000	64.879536 
3173.000000	64.869403 
3172.000000	64.861178 
3171.000000	64.857697 
3170.000000	64.860773 
3169.000000	64.870667 
3168.000000	64.885830 
3167.000000	64.903402 
3166.000000	64.919734 
3165.000000	64.931511 
3164.000000	64.936137 
3163.000000	64.932656 
3162.000000	64.921903 
3161.000000	64.905762 
3160.000000	64.887166 
3159.000000	64.869141 
3158.000000	64.854240 
3157.000000	64.844083 
3156.000000	64.838671 
3155.000000	64.836835 
3154.000000	64.836382 
3153.000000	64.835023 
3152.000000	64.830732 
3151.000000	64.822554 
3150.000000	64.810752 
3149.000000	64.796829 
3148.000000	64.782977 
3147.000000	64.771437 
3146.000000	64.763903 
3145.000000	64.761042 
3144.000000	64.762496 
3143.000000	64.766979 
3142.000000	64.772725 
3141.000000	64.777994 
3140.000000	64.781618 
3139.000000	64.783048 
3138.000000	64.782309 
3137.000000	64.779686 
3136.000000	64.775228 
3135.000000	64.768695 
3134.000000	64.759349 
3133.000000	64.746642 
3132.000000	64.730358 
3131.000000	64.711427 
3130.000000	64.691877 
3129.000000	64.674592 
3128.000000	64.662551 
3127.000000	64.658164 
3126.000000	64.662694 
3125.000000	64.675736 
3124.000000	64.695334 
3123.000000	64.718580 
3122.000000	64.742112 
3121.000000	64.763140 
3120.000000	64.779639 
3119.000000	64.790678 
3118.000000	64.796447 
3117.000000	64.797425 
3116.000000	64.794206 
3115.000000	64.787220 
3114.000000	64.776587 
3113.000000	64.762592 
3112.000000	64.745640 
3111.000000	64.726996 
3110.000000	64.708375 
3109.000000	64.692091 
3108.000000	64.680480 
3107.000000	64.675021 
3106.000000	64.676523 
3105.000000	64.684605 
3104.000000	64.698338 
3103.000000	64.716029 
3102.000000	64.735913 
3101.000000	64.756417 
3100.000000	64.776420 
3099.000000	64.795160 
3098.000000	64.812278 
3097.000000	64.827370 
3096.000000	64.840269 
3095.000000	64.850687 
3094.000000	64.858460 
3093.000000	64.863705 
3092.000000	64.866662 
3091.000000	64.867949 
3090.000000	64.868402 
3089.000000	64.868617 
3088.000000	64.868950 
3087.000000	64.868998 
3086.000000	64.867925 
3085.000000	64.864492 
3084.000000	64.857339 
3083.000000	64.845538 
3082.000000	64.828872 
3081.000000	64.807891 
3080.000000	64.783954 
3079.000000	64.758944 
3078.000000	64.734768 
3077.000000	64.713239 
3076.000000	64.695477 
3075.000000	64.682030 
3074.000000	64.672803 
3073.000000	64.667510 
3072.000000	64.665579 
3071.000000	64.666891 
3070.000000	64.671540 
3069.000000	64.679837 
3068.000000	64.691925 
3067.000000	64.707517 
3066.000000	64.725875 
3065.000000	64.745426 
3064.000000	64.763998 
3063.000000	64.779305 
3062.000000	64.789271 
3061.000000	64.792561 
3060.000000	64.788722 
3059.000000	64.778542 
3058.000000	64.763641 
3057.000000	64.746189 
3056.000000	64.728379 
3055.000000	64.711976 
3054.000000	64.697933 
3053.000000	64.686632 
3052.000000	64.677739 
3051.000000	64.670777 
3050.000000	64.665317 
3049.000000	64.661383 
3048.000000	64.659500 
3047.000000	64.660310 
3046.000000	64.664697 
3045.000000	64.673042 
3044.000000	64.685201 
3043.000000	64.700317 
3042.000000	64.717030 
3041.000000	64.733457 
3040.000000	64.747881 
3039.000000	64.758920 
3038.000000	64.765810 
3037.000000	64.768505 
3036.000000	64.767575 
3035.000000	64.763998 
3034.000000	64.759016 
3033.000000	64.753794 
3032.000000	64.749312 
3031.000000	64.746260 
3030.000000	64.745044 
3029.000000	64.745974 
3028.000000	64.749121 
3027.000000	64.754509 
3026.000000	64.761972 
3025.000000	64.771199 
3024.000000	64.781546 
3023.000000	64.792060 
3022.000000	64.801573 
3021.000000	64.808773 
3020.000000	64.812374 
3019.000000	64.811205 
3018.000000	64.804577 
3017.000000	64.792513 
3016.000000	64.775753 
3015.000000	64.755773 
3014.000000	64.734482 
3013.000000	64.714145 
3012.000000	64.696860 
3011.000000	64.684367 
3010.000000	64.677882 
3009.000000	64.677858 
3008.000000	64.684033 
3007.000000	64.695620 
3006.000000	64.711332 
3005.000000	64.729595 
3004.000000	64.748740 
3003.000000	64.767146 
3002.000000	64.783239 
3001.000000	64.795589 
3000.000000	64.803123 
2999.000000	64.804959 
2998.000000	64.800858 
2997.000000	64.791274 
2996.000000	64.777278 
2995.000000	64.760351 
2994.000000	64.742279 
2993.000000	64.724946 
2992.000000	64.709997 
2991.000000	64.698481 
2990.000000	64.691042 
2989.000000	64.687991 
2988.000000	64.689373 
2987.000000	64.695072 
2986.000000	64.704942 
2985.000000	64.718818 
2984.000000	64.736270 
2983.000000	64.756584 
2982.000000	64.778614 
2981.000000	64.800882 
2980.000000	64.821696 
2979.000000	64.839410 
2978.000000	64.852714 
2977.000000	64.860796 
2976.000000	64.863681 
2975.000000	64.861488 
2974.000000	64.855027 
2973.000000	64.844465 
2972.000000	64.829993 
2971.000000	64.811182 
2970.000000	64.787507 
2969.000000	64.758419 
2968.000000	64.724040 
2967.000000	64.685177 
2966.000000	64.643454 
2965.000000	64.601588 
2964.000000	64.562726 
2963.000000	64.530038 
2962.000000	64.506101 
2961.000000	64.492511 
2960.000000	64.489364 
2959.000000	64.495396 
2958.000000	64.508056 
2957.000000	64.524102 
2956.000000	64.540076 
2955.000000	64.553070 
2954.000000	64.561128 
2953.000000	64.563441 
2952.000000	64.560437 
2951.000000	64.553523 
2950.000000	64.544558 
2949.000000	64.535474 
2948.000000	64.527583 
2947.000000	64.521551 
2946.000000	64.517140 
2945.000000	64.513611 
2944.000000	64.510202 
2943.000000	64.506530 
2942.000000	64.502859 
2941.000000	64.500260 
2940.000000	64.500141 
2939.000000	64.503717 
2938.000000	64.511322 
2937.000000	64.522194 
2936.000000	64.534306 
2935.000000	64.544725 
2934.000000	64.550471 
2933.000000	64.549303 
2932.000000	64.540481 
2931.000000	64.525198 
2930.000000	64.506483 
2929.000000	64.488482 
2928.000000	64.475369 
2927.000000	64.470362 
2926.000000	64.474749 
2925.000000	64.487695 
2924.000000	64.506363 
2923.000000	64.526534 
2922.000000	64.543867 
2921.000000	64.554762 
2920.000000	64.556908 
2919.000000	64.549803 
2918.000000	64.534664 
2917.000000	64.514064 
2916.000000	64.491152 
2915.000000	64.469122 
2914.000000	64.450669 
2913.000000	64.437389 
2912.000000	64.429640 
2911.000000	64.426541 
2910.000000	64.426374 
2909.000000	64.427208 
2908.000000	64.427161 
2907.000000	64.425039 
2906.000000	64.420390 
2905.000000	64.413571 
2904.000000	64.405560 
2903.000000	64.397716 
2902.000000	64.391422 
2901.000000	64.388012 
2900.000000	64.388561 
2899.000000	64.393806 
2898.000000	64.404082 
2897.000000	64.419460 
2896.000000	64.439558 
2895.000000	64.463639 
2894.000000	64.490580 
2893.000000	64.518666 
2892.000000	64.546036 
2891.000000	64.570736 
2890.000000	64.591002 
2889.000000	64.605712 
2888.000000	64.614534 
2887.000000	64.618086 
2886.000000	64.617609 
2885.000000	64.614629 
2884.000000	64.610385 
2883.000000	64.606046 
2882.000000	64.601802 
2881.000000	64.597344 
2880.000000	64.592003 
2879.000000	64.585161 
2878.000000	64.576482 
2877.000000	64.566278 
2876.000000	64.555311 
2875.000000	64.544725 
2874.000000	64.535713 
2873.000000	64.529132 
2872.000000	64.525127 
2871.000000	64.523339 
2870.000000	64.522981 
2869.000000	64.523267 
2868.000000	64.523530 
2867.000000	64.523553 
2866.000000	64.523553 
2865.000000	64.524102 
2864.000000	64.525580 
2863.000000	64.528489 
2862.000000	64.532756 
2861.000000	64.538359 
2860.000000	64.544796 
2859.000000	64.551591 
2858.000000	64.558506 
2857.000000	64.565372 
2856.000000	64.572381 
2855.000000	64.579653 
2854.000000	64.587211 
2853.000000	64.594984 
2852.000000	64.602541 
2851.000000	64.609289 
2850.000000	64.614391 
2849.000000	64.617228 
2848.000000	64.617276 
2847.000000	64.614200 
2846.000000	64.607954 
2845.000000	64.598751 
2844.000000	64.587235 
2843.000000	64.574360 
2842.000000	64.561462 
2841.000000	64.550209 
2840.000000	64.542102 
2839.000000	64.538478 
2838.000000	64.539957 
2837.000000	64.546179 
2836.000000	64.555954 
2835.000000	64.567279 
2834.000000	64.577865 
2833.000000	64.585351 
2832.000000	64.588236 
2831.000000	64.585852 
2830.000000	64.578938 
2829.000000	64.569020 
2828.000000	64.558315 
2827.000000	64.548969 
2826.000000	64.542651 
2825.000000	64.539980 
2824.000000	64.540767 
2823.000000	64.544010 
2822.000000	64.548373 
2821.000000	64.552593 
2820.000000	64.555907 
2819.000000	64.558339 
2818.000000	64.560508 
2817.000000	64.563488 
2816.000000	64.568519 
2815.000000	64.576649 
2814.000000	64.588451 
2813.000000	64.603829 
2812.000000	64.621758 
2811.000000	64.640617 
2810.000000	64.658474 
2809.000000	64.673304 
2808.000000	64.683508 
2807.000000	64.688014 
2806.000000	64.686560 
2805.000000	64.679861 
2804.000000	64.669322 
2803.000000	64.656782 
2802.000000	64.644241 
2801.000000	64.633345 
2800.000000	64.625167 
2799.000000	64.620041 
2798.000000	64.617562 
2797.000000	64.616513 
2796.000000	64.615440 
2795.000000	64.613008 
2794.000000	64.608097 
2793.000000	64.600276 
2792.000000	64.589834 
2791.000000	64.577651 
2790.000000	64.565277 
2789.000000	64.554524 
2788.000000	64.547038 
2787.000000	64.544200 
2786.000000	64.546442 
2785.000000	64.553618 
2784.000000	64.564561 
2783.000000	64.577436 
2782.000000	64.590048 
2781.000000	64.600324 
2780.000000	64.606833 
2779.000000	64.608907 
2778.000000	64.606809 
2777.000000	64.601755 
2776.000000	64.595365 
2775.000000	64.589405 
2774.000000	64.585113 
2773.000000	64.583015 
2772.000000	64.582753 
2771.000000	64.583253 
2770.000000	64.583086 
2769.000000	64.580917 
2768.000000	64.575886 
2767.000000	64.568066 
2766.000000	64.558386 
2765.000000	64.548420 
2764.000000	64.540076 
2763.000000	64.534974 
2762.000000	64.534091 
2761.000000	64.537453 
2760.000000	64.544248 
2759.000000	64.552831 
2758.000000	64.561128 
2757.000000	64.567279 
2756.000000	64.569997 
2755.000000	64.568924 
2754.000000	64.564681 
2753.000000	64.558911 
2752.000000	64.553475 
2751.000000	64.550304 
2750.000000	64.550828 
2749.000000	64.555573 
2748.000000	64.563989 
2747.000000	64.574623 
2746.000000	64.585471 
2745.000000	64.594531 
2744.000000	64.600276 
2743.000000	64.601898 
2742.000000	64.599657 
2741.000000	64.594578 
2740.000000	64.588284 
2739.000000	64.582610 
2738.000000	64.579010 
2737.000000	64.578509 
2736.000000	64.581298 
2735.000000	64.586853 
2734.000000	64.594101 
2733.000000	64.601850 
2732.000000	64.608907 
2731.000000	64.614343 
2730.000000	64.617657 
2729.000000	64.618444 
2728.000000	64.616775 
2727.000000	64.612722 
2726.000000	64.606571 
2725.000000	64.598584 
2724.000000	64.589238 
2723.000000	64.579367 
2722.000000	64.570045 
2721.000000	64.562630 
2720.000000	64.558482 
2719.000000	64.558672 
2718.000000	64.563608 
2717.000000	64.572858 
2716.000000	64.585137 
2715.000000	64.598464 
2714.000000	64.610624 
2713.000000	64.619684 
2712.000000	64.624691 
2711.000000	64.625883 
2710.000000	64.624762 
2709.000000	64.623498 
2708.000000	64.624309 
2707.000000	64.628672 
2706.000000	64.636778 
2705.000000	64.647054 
2704.000000	64.656710 
2703.000000	64.662170 
2702.000000	64.660024 
2701.000000	64.648127 
2700.000000	64.626145 
2699.000000	64.595770 
2698.000000	64.560437 
2697.000000	64.524483 
2696.000000	64.492297 
2695.000000	64.467287 
2694.000000	64.451193 
2693.000000	64.443945 
2692.000000	64.444017 
2691.000000	64.448952 
2690.000000	64.456224 
2689.000000	64.463758 
2688.000000	64.470386 
2687.000000	64.475870 
2686.000000	64.480543 
2685.000000	64.485001 
2684.000000	64.489626 
2683.000000	64.494395 
2682.000000	64.498829 
2681.000000	64.502334 
2680.000000	64.504337 
2679.000000	64.504814 
2678.000000	64.503955 
2677.000000	64.502334 
2676.000000	64.500498 
2675.000000	64.498662 
2674.000000	64.496779 
2673.000000	64.494276 
2672.000000	64.490532 
2671.000000	64.485025 
2670.000000	64.477753 
2669.000000	64.469337 
2668.000000	64.460849 
2667.000000	64.453673 
2666.000000	64.448833 
2665.000000	64.446711 
2664.000000	64.446663 
2663.000000	64.447379 
2662.000000	64.447188 
2661.000000	64.444732 
2660.000000	64.439487 
2659.000000	64.431929 
2658.000000	64.423561 
2657.000000	64.416503 
2656.000000	64.412760 
2655.000000	64.413785 
2654.000000	64.419865 
2653.000000	64.430356 
2652.000000	64.443755 
2651.000000	64.458203 
2650.000000	64.471840 
2649.000000	64.483356 
2648.000000	64.492034 
2647.000000	64.497995 
2646.000000	64.501643 
2645.000000	64.503550 
2644.000000	64.504003 
2643.000000	64.502906 
2642.000000	64.499664 
2641.000000	64.493513 
2640.000000	64.483857 
2639.000000	64.470219 
2638.000000	64.452743 
2637.000000	64.432096 
2636.000000	64.409542 
2635.000000	64.386820 
2634.000000	64.365792 
2633.000000	64.348268 
2632.000000	64.335680 
2631.000000	64.329051 
2630.000000	64.328789 
2629.000000	64.334630 
2628.000000	64.345955 
2627.000000	64.361763 
2626.000000	64.381074 
2625.000000	64.402866 
2624.000000	64.426255 
2623.000000	64.450311 
2622.000000	64.474058 
2621.000000	64.496493 
2620.000000	64.516687 
2619.000000	64.533734 
2618.000000	64.547085 
2617.000000	64.556670 
2616.000000	64.562702 
2615.000000	64.566087 
2614.000000	64.567780 
2613.000000	64.568972 
2612.000000	64.570260 
2611.000000	64.571785 
2610.000000	64.573073 
2609.000000	64.573216 
2608.000000	64.571285 
2607.000000	64.566731 
2606.000000	64.559698 
2605.000000	64.550852 
2604.000000	64.541506 
2603.000000	64.533185 
2602.000000	64.526987 
2601.000000	64.523506 
2600.000000	64.522409 
2599.000000	64.522767 
2598.000000	64.523267 
2597.000000	64.522576 
2596.000000	64.519762 
2595.000000	64.514756 
2594.000000	64.507937 
2593.000000	64.500355 
2592.000000	64.493155 
2591.000000	64.487552 
2590.000000	64.484047 
2589.000000	64.482855 
2588.000000	64.483523 
2587.000000	64.485454 
2586.000000	64.487814 
2585.000000	64.489865 
2584.000000	64.490985 
2583.000000	64.490771 
2582.000000	64.489006 
2581.000000	64.485549 
2580.000000	64.480400 
2579.000000	64.473748 
2578.000000	64.466190 
2577.000000	64.458560 
2576.000000	64.452052 
2575.000000	64.447855 
2574.000000	64.447045 
2573.000000	64.450216 
2572.000000	64.457416 
2571.000000	64.467787 
2570.000000	64.479804 
2569.000000	64.491391 
2568.000000	64.500427 
2567.000000	64.505100 
2566.000000	64.504551 
2565.000000	64.498758 
2564.000000	64.488768 
2563.000000	64.476299 
2562.000000	64.463448 
2561.000000	64.451956 
2560.000000	64.443063 
2559.000000	64.437246 
2558.000000	64.434409 
2557.000000	64.434170 
2556.000000	64.436101 
2555.000000	64.440107 
2554.000000	64.446258 
2553.000000	64.454603 
2552.000000	64.465045 
2551.000000	64.477014 
2550.000000	64.489293 
2549.000000	64.500427 
2548.000000	64.508700 
2547.000000	64.512777 
2546.000000	64.511799 
2545.000000	64.505887 
2544.000000	64.495968 
2543.000000	64.483785 
2542.000000	64.471483 
2541.000000	64.461207 
2540.000000	64.454770 
2539.000000	64.453196 
2538.000000	64.456796 
2537.000000	64.464950 
2536.000000	64.476370 
2535.000000	64.489340 
2534.000000	64.502000 
2533.000000	64.512538 
2532.000000	64.519596 
2531.000000	64.522337 
2530.000000	64.520478 
2529.000000	64.514350 
2528.000000	64.504790 
2527.000000	64.493036 
2526.000000	64.480447 
2525.000000	64.468336 
2524.000000	64.457488 
2523.000000	64.448285 
2522.000000	64.440512 
2521.000000	64.433407 
2520.000000	64.426064 
2519.000000	64.417743 
2518.000000	64.408159 
2517.000000	64.397644 
2516.000000	64.387106 
2515.000000	64.377641 
2514.000000	64.370489 
2513.000000	64.366221 
2512.000000	64.365029 
2511.000000	64.366459 
2510.000000	64.369893 
2509.000000	64.374566 
2508.000000	64.380121 
2507.000000	64.386653 
2506.000000	64.394593 
2505.000000	64.404511 
2504.000000	64.416575 
2503.000000	64.430356 
2502.000000	64.444470 
2501.000000	64.456820 
2500.000000	64.464974 
2499.000000	64.466667 
2498.000000	64.460372 
2497.000000	64.446067 
2496.000000	64.424991 
2495.000000	64.399576 
2494.000000	64.372992 
2493.000000	64.348697 
2492.000000	64.329719 
2491.000000	64.318108 
2490.000000	64.314842 
2489.000000	64.319682 
2488.000000	64.331316 
2487.000000	64.347672 
2486.000000	64.366149 
2485.000000	64.384174 
2484.000000	64.399194 
2483.000000	64.409279 
2482.000000	64.413189 
2481.000000	64.410543 
2480.000000	64.401865 
2479.000000	64.388561 
2478.000000	64.372658 
2477.000000	64.356422 
2476.000000	64.342021 
2475.000000	64.331126 
2474.000000	64.324712 
2473.000000	64.322924 
2472.000000	64.325332 
2471.000000	64.331054 
2470.000000	64.339089 
2469.000000	64.348626 
2468.000000	64.358925 
2467.000000	64.369630 
2466.000000	64.380502 
2465.000000	64.391231 
2464.000000	64.401364 
2463.000000	64.410233 
2462.000000	64.417076 
2461.000000	64.421129 
2460.000000	64.421796 
2459.000000	64.418935 
2458.000000	64.412951 
2457.000000	64.404749 
2456.000000	64.395737 
2455.000000	64.387202 
2454.000000	64.380216 
2453.000000	64.375543 
2452.000000	64.373469 
2451.000000	64.373564 
2450.000000	64.375185 
2449.000000	64.377522 
2448.000000	64.379882 
2447.000000	64.382052 
2446.000000	64.384198 
2445.000000	64.387083 
2444.000000	64.391636 
2443.000000	64.398813 
2442.000000	64.409160 
2441.000000	64.422631 
2440.000000	64.438462 
2439.000000	64.455223 
2438.000000	64.471173 
2437.000000	64.484429 
2436.000000	64.493370 
2435.000000	64.496803 
2434.000000	64.493894 
2433.000000	64.484167 
2432.000000	64.467740 
2431.000000	64.444947 
2430.000000	64.416551 
2429.000000	64.383816 
2428.000000	64.348483 
2427.000000	64.312911 
2426.000000	64.279699 
2425.000000	64.251589 
2424.000000	64.231061 
2423.000000	64.219522 
2422.000000	64.217233 
2421.000000	64.223194 
2420.000000	64.234995 
2419.000000	64.249730 
2418.000000	64.264416 
2417.000000	64.276599 
2416.000000	64.284777 
2415.000000	64.288759 
2414.000000	64.289522 
2413.000000	64.288735 
2412.000000	64.288210 
2411.000000	64.289569 
2410.000000	64.293766 
2409.000000	64.300942 
2408.000000	64.310646 
2407.000000	64.322113 
2406.000000	64.334297 
2405.000000	64.346385 
2404.000000	64.357686 
2403.000000	64.367866 
2402.000000	64.376688 
2401.000000	64.383935 
2400.000000	64.389562 
2399.000000	64.393281 
2398.000000	64.395070 
2397.000000	64.395093 
2396.000000	64.393663 
2395.000000	64.391112 
2394.000000	64.387869 
2393.000000	64.384293 
2392.000000	64.380478 
2391.000000	64.376139 
2390.000000	64.370799 
2389.000000	64.363956 
2388.000000	64.355278 
2387.000000	64.344930 
2386.000000	64.333534 
2385.000000	64.322137 
2384.000000	64.312171 
2383.000000	64.304995 
2382.000000	64.301443 
2381.000000	64.301633 
2380.000000	64.304971 
2379.000000	64.309906 
2378.000000	64.314603 
2377.000000	64.317083 
2376.000000	64.315629 
2375.000000	64.309120 
2374.000000	64.297270 
2373.000000	64.280700 
2372.000000	64.260816 
2371.000000	64.239645 
2370.000000	64.219427 
2369.000000	64.202523 
2368.000000	64.190840 
2367.000000	64.185714 
2366.000000	64.187836 
2365.000000	64.196872 
2364.000000	64.211678 
2363.000000	64.230346 
2362.000000	64.250516 
2361.000000	64.269661 
2360.000000	64.285540 
2359.000000	64.296412 
2358.000000	64.301323 
2357.000000	64.300227 
2356.000000	64.293789 
2355.000000	64.283370 
2354.000000	64.270448 
2353.000000	64.256739 
2352.000000	64.243602 
2351.000000	64.232182 
2350.000000	64.223265 
2349.000000	64.217138 
2348.000000	64.213943 
2347.000000	64.213633 
2346.000000	64.216113 
2345.000000	64.221429 
2344.000000	64.229655 
2343.000000	64.240694 
2342.000000	64.254426 
2341.000000	64.270496 
2340.000000	64.288353 
2339.000000	64.307284 
2338.000000	64.326572 
2337.000000	64.345455 
2336.000000	64.363384 
2335.000000	64.380073 
2334.000000	64.395260 
2333.000000	64.408731 
2332.000000	64.420080 
2331.000000	64.428687 
2330.000000	64.433741 
2329.000000	64.434337 
2328.000000	64.429831 
2327.000000	64.420199 
2326.000000	64.406299 
2325.000000	64.389657 
2324.000000	64.372587 
2323.000000	64.357447 
2322.000000	64.346289 
2321.000000	64.340162 
2320.000000	64.338803 
2319.000000	64.340877 
2318.000000	64.344120 
2317.000000	64.346456 
2316.000000	64.346027 
2315.000000	64.342117 
2314.000000	64.335370 
2313.000000	64.327406 
2312.000000	64.320373 
2311.000000	64.316248 
2310.000000	64.316344 
2309.000000	64.320635 
2308.000000	64.327979 
2307.000000	64.336585 
2306.000000	64.344310 
2305.000000	64.349412 
2304.000000	64.351058 
2303.000000	64.349532 
2302.000000	64.345955 
2301.000000	64.341855 
2300.000000	64.338397 
2299.000000	64.336299 
2298.000000	64.335107 
2297.000000	64.333820 
2296.000000	64.330720 
2295.000000	64.324259 
2294.000000	64.313387 
2293.000000	64.298081 
2292.000000	64.279341 
2291.000000	64.258790 
2290.000000	64.238572 
2289.000000	64.220547 
2288.000000	64.206171 
2287.000000	64.196109 
2286.000000	64.190268 
2285.000000	64.188027 
2284.000000	64.188575 
2283.000000	64.191222 
2282.000000	64.195322 
2281.000000	64.200520 
2280.000000	64.206409 
2279.000000	64.212536 
2278.000000	64.218044 
2277.000000	64.221930 
2276.000000	64.223051 
2275.000000	64.220619 
2274.000000	64.214229 
2273.000000	64.204263 
2272.000000	64.191794 
2271.000000	64.178562 
2270.000000	64.166641 
2269.000000	64.158105 
2268.000000	64.154529 
2267.000000	64.156889 
2266.000000	64.165139 
2265.000000	64.178395 
2264.000000	64.194893 
2263.000000	64.212393 
2262.000000	64.228630 
2261.000000	64.241528 
2260.000000	64.249682 
2259.000000	64.252614 
2258.000000	64.250779 
2257.000000	64.245605 
2256.000000	64.238834 
2255.000000	64.232349 
2254.000000	64.227843 
2253.000000	64.226198 
2252.000000	64.227461 
2251.000000	64.230847 
2250.000000	64.235019 
2249.000000	64.238548 
2248.000000	64.240169 
2247.000000	64.239335 
2246.000000	64.235997 
2245.000000	64.230585 
2244.000000	64.223742 
2243.000000	64.216089 
2242.000000	64.207959 
2241.000000	64.199304 
2240.000000	64.189887 
2239.000000	64.179539 
2238.000000	64.168238 
2237.000000	64.156484 
2236.000000	64.145159 
2235.000000	64.135432 
2234.000000	64.128637 
2233.000000	64.125752 
2232.000000	64.127469 
2231.000000	64.133548 
2230.000000	64.143466 
2229.000000	64.156222 
2228.000000	64.170646 
2227.000000	64.185667 
2226.000000	64.200258 
2225.000000	64.213800 
2224.000000	64.225816 
2223.000000	64.236068 
2222.000000	64.244341 
2221.000000	64.250636 
2220.000000	64.255070 
2219.000000	64.258050 
2218.000000	64.260220 
2217.000000	64.262318 
2216.000000	64.265131 
2215.000000	64.269089 
2214.000000	64.274144 
2213.000000	64.279580 
2212.000000	64.284276 
2211.000000	64.286875 
2210.000000	64.286017 
2209.000000	64.280891 
2208.000000	64.271593 
2207.000000	64.259028 
2206.000000	64.244771 
2205.000000	64.230728 
2204.000000	64.218616 
2203.000000	64.209532 
2202.000000	64.203953 
2201.000000	64.201402 
2200.000000	64.200615 
2199.000000	64.200019 
2198.000000	64.198017 
2197.000000	64.193129 
2196.000000	64.184474 
2195.000000	64.171934 
2194.000000	64.156055 
2193.000000	64.137864 
2192.000000	64.118766 
2191.000000	64.100098 
2190.000000	64.083409 
2189.000000	64.069819 
2188.000000	64.060401 
2187.000000	64.055871 
2186.000000	64.056801 
2185.000000	64.063286 
2184.000000	64.075183 
2183.000000	64.091849 
2182.000000	64.112138 
2181.000000	64.134430 
2180.000000	64.156746 
2179.000000	64.176821 
2178.000000	64.192533 
2177.000000	64.202308 
2176.000000	64.205145 
2175.000000	64.200997 
2174.000000	64.190602 
2173.000000	64.175605 
2172.000000	64.157772 
2171.000000	64.138770 
2170.000000	64.119935 
2169.000000	64.102220 
2168.000000	64.086365 
2167.000000	64.072847 
2166.000000	64.062166 
2165.000000	64.054989 
2164.000000	64.052081 
2163.000000	64.053940 
2162.000000	64.060735 
2161.000000	64.071869 
2160.000000	64.085745 
2159.000000	64.100122 
2158.000000	64.112281 
2157.000000	64.119887 
2156.000000	64.121150 
2155.000000	64.115738 
2154.000000	64.104700 
2153.000000	64.090251 
2152.000000	64.075398 
2151.000000	64.063119 
2150.000000	64.055919 
2149.000000	64.055180 
2148.000000	64.060974 
2147.000000	64.072227 
2146.000000	64.087057 
2145.000000	64.103150 
2144.000000	64.118051 
2143.000000	64.129805 
2142.000000	64.137172 
2141.000000	64.139437 
2140.000000	64.136552 
2139.000000	64.128994 
2138.000000	64.117789 
2137.000000	64.103794 
2136.000000	64.088106 
2135.000000	64.071774 
2134.000000	64.055800 
2133.000000	64.041137 
2132.000000	64.028692 
2131.000000	64.019083 
2130.000000	64.012885 
2129.000000	64.010477 
2128.000000	64.012145 
2127.000000	64.017701 
2126.000000	64.026999 
2125.000000	64.039754 
2124.000000	64.055633 
2123.000000	64.074087 
2122.000000	64.094519 
2121.000000	64.116191 
2120.000000	64.138245 
2119.000000	64.159440 
2118.000000	64.178323 
2117.000000	64.193224 
2116.000000	64.202523 
2115.000000	64.204931 
2114.000000	64.199924 
2113.000000	64.187788 
2112.000000	64.169931 
2111.000000	64.148449 
2110.000000	64.126014 
2109.000000	64.105153 
2108.000000	64.088010 
2107.000000	64.075684 
2106.000000	64.068269 
2105.000000	64.064908 
2104.000000	64.064073 
2103.000000	64.064049 
2102.000000	64.063096 
2101.000000	64.060044 
2100.000000	64.054298 
2099.000000	64.045977 
2098.000000	64.035797 
2097.000000	64.024615 
2096.000000	64.013314 
2095.000000	64.002466 
2094.000000	63.992285 
2093.000000	63.982629 
2092.000000	63.973188 
2091.000000	63.963794 
2090.000000	63.954830 
2089.000000	63.946938 
2088.000000	63.941216 
2087.000000	63.938736 
2086.000000	63.940429 
2085.000000	63.946509 
2084.000000	63.956522 
2083.000000	63.969302 
2082.000000	63.983321 
2081.000000	63.996934 
2080.000000	64.008879 
2079.000000	64.018368 
2078.000000	64.025020 
2077.000000	64.029169 
2076.000000	64.031267 
2075.000000	64.031767 
2074.000000	64.030671 
2073.000000	64.027881 
2072.000000	64.022827 
2071.000000	64.014840 
2070.000000	64.003300 
2069.000000	63.988232 
2068.000000	63.970232 
2067.000000	63.950514 
2066.000000	63.930845 
2065.000000	63.913321 
2064.000000	63.899683 
2063.000000	63.891005 
2062.000000	63.887548 
2061.000000	63.888764 
2060.000000	63.893461 
2059.000000	63.900113 
2058.000000	63.907217 
2057.000000	63.913488 
2056.000000	63.918042 
2055.000000	63.920450 
2054.000000	63.920426 
2053.000000	63.918113 
2052.000000	63.913726 
2051.000000	63.907670 
2050.000000	63.900470 
2049.000000	63.892817 
2048.000000	63.885664 
2047.000000	63.880038 
2046.000000	63.876914 
2045.000000	63.877058 
2044.000000	63.880920 
2043.000000	63.888669 
2042.000000	63.899970 
2041.000000	63.914203 
2040.000000	63.930463 
2039.000000	63.947725 
2038.000000	63.964891 
2037.000000	63.980770 
2036.000000	63.994002 
2035.000000	64.003372 
2034.000000	64.007735 
2033.000000	64.006185 
2032.000000	63.998270 
2031.000000	63.984370 
2030.000000	63.965702 
2029.000000	63.943982 
2028.000000	63.921308 
2027.000000	63.899970 
2026.000000	63.881635 
2025.000000	63.867354 
2024.000000	63.857364 
2023.000000	63.851022 
2022.000000	63.847422 
2021.000000	63.845705 
2020.000000	63.845443 
2019.000000	63.846683 
2018.000000	63.849925 
2017.000000	63.855791 
2016.000000	63.864517 
2015.000000	63.875675 
2014.000000	63.888168 
2013.000000	63.900208 
2012.000000	63.909816 
2011.000000	63.915300 
2010.000000	63.915610 
2009.000000	63.910794 
2008.000000	63.901853 
2007.000000	63.890504 
2006.000000	63.878941 
2005.000000	63.869166 
2004.000000	63.862752 
2003.000000	63.860249 
2002.000000	63.861393 
2001.000000	63.865089 
2000.000000	63.869786 
1999.000000	63.873958 
1998.000000	63.876247 
1997.000000	63.875818 
1996.000000	63.872528 
1995.000000	63.866734 
1994.000000	63.859081 
1993.000000	63.850450 
1992.000000	63.841700 
1991.000000	63.833498 
1990.000000	63.826394 
1989.000000	63.820672 
1988.000000	63.816475 
1987.000000	63.813853 
1986.000000	63.812756 
1985.000000	63.813114 
1984.000000	63.814711 
1983.000000	63.817358 
1982.000000	63.820886 
1981.000000	63.824963 
1980.000000	63.829374 
1979.000000	63.833785 
1978.000000	63.837885 
1977.000000	63.841319 
1976.000000	63.843894 
1975.000000	63.845348 
1974.000000	63.845562 
1973.000000	63.844680 
1972.000000	63.843011 
1971.000000	63.840985 
1970.000000	63.839054 
1969.000000	63.837790 
1968.000000	63.837528 
1967.000000	63.838458 
1966.000000	63.840460 
1965.000000	63.843178 
1964.000000	63.845992 
1963.000000	63.848042 
1962.000000	63.848543 
1961.000000	63.846850 
1960.000000	63.842678 
1959.000000	63.836121 
1958.000000	63.827729 
1957.000000	63.818526 
1956.000000	63.809800 
1955.000000	63.802981 
1954.000000	63.799381 
1953.000000	63.799810 
1952.000000	63.804578 
1951.000000	63.813233 
1950.000000	63.824653 
1949.000000	63.837194 
1948.000000	63.849115 
1947.000000	63.858747 
1946.000000	63.864922 
1945.000000	63.867115 
1944.000000	63.865375 
1943.000000	63.860607 
1942.000000	63.854193 
1941.000000	63.847804 
1940.000000	63.843059 
1939.000000	63.841295 
1938.000000	63.843488 
1937.000000	63.849735 
1936.000000	63.859558 
1935.000000	63.871669 
1934.000000	63.884401 
1933.000000	63.895988 
1932.000000	63.904881 
1931.000000	63.909983 
1930.000000	63.910818 
1929.000000	63.907432 
1928.000000	63.900256 
1927.000000	63.890027 
1926.000000	63.877415 
1925.000000	63.863229 
1924.000000	63.848114 
1923.000000	63.832807 
1922.000000	63.818073 
1921.000000	63.804793 
1920.000000	63.793992 
1919.000000	63.786435 
1918.000000	63.783049 
1917.000000	63.784027 
1916.000000	63.789558 
1915.000000	63.798928 
1914.000000	63.811326 
1913.000000	63.825559 
1912.000000	63.840341 
1911.000000	63.854479 
1910.000000	63.866806 
1909.000000	63.876247 
1908.000000	63.881897 
1907.000000	63.883018 
1906.000000	63.879370 
1905.000000	63.871192 
1904.000000	63.859224 
1903.000000	63.844871 
1902.000000	63.829779 
1901.000000	63.815712 
1900.000000	63.804125 
1899.000000	63.795876 
1898.000000	63.791084 
1897.000000	63.789343 
1896.000000	63.789677 
1895.000000	63.791084 
1894.000000	63.792514 
1893.000000	63.793253 
1892.000000	63.792943 
1891.000000	63.791728 
1890.000000	63.790035 
1889.000000	63.788342 
1888.000000	63.787078 
1887.000000	63.786792 
1886.000000	63.787746 
1885.000000	63.790154 
1884.000000	63.794159 
1883.000000	63.799548 
1882.000000	63.805890 
1881.000000	63.812446 
1880.000000	63.818120 
1879.000000	63.821887 
1878.000000	63.822746 
1877.000000	63.820147 
1876.000000	63.813996 
1875.000000	63.804697 
1874.000000	63.793134 
1873.000000	63.780307 
1872.000000	63.767385 
1871.000000	63.755321 
1870.000000	63.744831 
1869.000000	63.736653 
1868.000000	63.731217 
1867.000000	63.728976 
1866.000000	63.730192 
1865.000000	63.735079 
1864.000000	63.743662 
1863.000000	63.755464 
1862.000000	63.769674 
1861.000000	63.784956 
1860.000000	63.799929 
1859.000000	63.813304 
1858.000000	63.824319 
1857.000000	63.832783 
1856.000000	63.839077 
1855.000000	63.843774 
1854.000000	63.847351 
1853.000000	63.849949 
1852.000000	63.851165 
1851.000000	63.850069 
1850.000000	63.845515 
1849.000000	63.836503 
1848.000000	63.822650 
1847.000000	63.804554 
1846.000000	63.783717 
1845.000000	63.762497 
1844.000000	63.743734 
1843.000000	63.730192 
1842.000000	63.723921 
1841.000000	63.725852 
1840.000000	63.735556 
1839.000000	63.751292 
1838.000000	63.770389 
1837.000000	63.789725 
1836.000000	63.806414 
1835.000000	63.818073 
1834.000000	63.823413 
1833.000000	63.822460 
1832.000000	63.816213 
1831.000000	63.806533 
1830.000000	63.795638 
1829.000000	63.785576 
1828.000000	63.778090 
1827.000000	63.773894 
1826.000000	63.773012 
1825.000000	63.774514 
1824.000000	63.776993 
1823.000000	63.778662 
1822.000000	63.777828 
1821.000000	63.773059 
1820.000000	63.763594 
1819.000000	63.749289 
1818.000000	63.730859 
1817.000000	63.709688 
1816.000000	63.687777 
1815.000000	63.667440 
1814.000000	63.651108 
1813.000000	63.640880 
1812.000000	63.638401 
1811.000000	63.644289 
1810.000000	63.658475 
1809.000000	63.679671 
1808.000000	63.705778 
1807.000000	63.733959 
1806.000000	63.761377 
1805.000000	63.785433 
1804.000000	63.804054 
1803.000000	63.815975 
1802.000000	63.820815 
1801.000000	63.818907 
1800.000000	63.811063 
1799.000000	63.798356 
1798.000000	63.782024 
1797.000000	63.763260 
1796.000000	63.743209 
1795.000000	63.722920 
1794.000000	63.703489 
1793.000000	63.685989 
1792.000000	63.671207 
1791.000000	63.659715 
1790.000000	63.651728 
1789.000000	63.647294 
1788.000000	63.645935 
1787.000000	63.647031 
1786.000000	63.649773 
1785.000000	63.653683 
1784.000000	63.658261 
1783.000000	63.663482 
1782.000000	63.669157 
1781.000000	63.675546 
1780.000000	63.682627 
1779.000000	63.690280 
1778.000000	63.698291 
1777.000000	63.706398 
1776.000000	63.714194 
1775.000000	63.721036 
1774.000000	63.726353 
1773.000000	63.729429 
1772.000000	63.729405 
1771.000000	63.725447 
1770.000000	63.716888 
1769.000000	63.703227 
1768.000000	63.684391 
1767.000000	63.660836 
1766.000000	63.633441 
1765.000000	63.603687 
1764.000000	63.573288 
1763.000000	63.544058 
1762.000000	63.517665 
1761.000000	63.495492 
1760.000000	63.478422 
1759.000000	63.466882 
1758.000000	63.460874 
1757.000000	63.459706 
1756.000000	63.462376 
1755.000000	63.467526 
1754.000000	63.473463 
1753.000000	63.478350 
1752.000000	63.480472 
1751.000000	63.478469 
1750.000000	63.471555 
1749.000000	63.459658 
1748.000000	63.443350 
1747.000000	63.423681 
1746.000000	63.402009 
1745.000000	63.379788 
1744.000000	63.358235 
1743.000000	63.338065 
1742.000000	63.319754 
1741.000000	63.303589 
1740.000000	63.289785 
1739.000000	63.278794 
1738.000000	63.271236 
1737.000000	63.267993 
1736.000000	63.269686 
1735.000000	63.276553 
1734.000000	63.288283 
1733.000000	63.303804 
1732.000000	63.321328 
1731.000000	63.338589 
1730.000000	63.353538 
1729.000000	63.364696 
1728.000000	63.371086 
1727.000000	63.372874 
1726.000000	63.371038 
1725.000000	63.367438 
1724.000000	63.364028 
1723.000000	63.362765 
1722.000000	63.365221 
1721.000000	63.372302 
1720.000000	63.384175 
1719.000000	63.400435 
1718.000000	63.420128 
1717.000000	63.441944 
1716.000000	63.464617 
1715.000000	63.486909 
1714.000000	63.507747 
1713.000000	63.526153 
1712.000000	63.541555 
1711.000000	63.553524 
1710.000000	63.562154 
1709.000000	63.567733 
1708.000000	63.570976 
1707.000000	63.572907 
1706.000000	63.574600 
1705.000000	63.577270 
1704.000000	63.581633 
1703.000000	63.588070 
1702.000000	63.596296 
1701.000000	63.605570 
1700.000000	63.614773 
1699.000000	63.622617 
1698.000000	63.628005 
1697.000000	63.630247 
1696.000000	63.629388 
1695.000000	63.625979 
1694.000000	63.621115 
1693.000000	63.616013 
1692.000000	63.611888 
1691.000000	63.609552 
1690.000000	63.609337 
1689.000000	63.610887 
1688.000000	63.613462 
1687.000000	63.615846 
1686.000000	63.616871 
1685.000000	63.615608 
1684.000000	63.611435 
1683.000000	63.604259 
1682.000000	63.594532 
1681.000000	63.583016 
1680.000000	63.570761 
1679.000000	63.558650 
1678.000000	63.547253 
1677.000000	63.536953 
1676.000000	63.527512 
1675.000000	63.518643 
1674.000000	63.509678 
1673.000000	63.500285 
1672.000000	63.490200 
1671.000000	63.479733 
1670.000000	63.469672 
1669.000000	63.461184 
1668.000000	63.455533 
1667.000000	63.453817 
1666.000000	63.456630 
1665.000000	63.463854 
1664.000000	63.474583 
1663.000000	63.487124 
1662.000000	63.499474 
1661.000000	63.509559 
1660.000000	63.515663 
1659.000000	63.516640 
1658.000000	63.511967 
1657.000000	63.502073 
1656.000000	63.488030 
1655.000000	63.471460 
1654.000000	63.454222 
1653.000000	63.438296 
1652.000000	63.425087 
1651.000000	63.415789 
1650.000000	63.410615 
1649.000000	63.409256 
1648.000000	63.410949 
1647.000000	63.414430 
1646.000000	63.418483 
1645.000000	63.421964 
1644.000000	63.424253 
1643.000000	63.425111 
1642.000000	63.424658 
1641.000000	63.423395 
1640.000000	63.421773 
1639.000000	63.420081 
1638.000000	63.418316 
1637.000000	63.416314 
1636.000000	63.413953 
1635.000000	63.411021 
1634.000000	63.407635 
1633.000000	63.404178 
1632.000000	63.401126 
1631.000000	63.398814 
1630.000000	63.397359 
1629.000000	63.396477 
1628.000000	63.395738 
1627.000000	63.394570 
1626.000000	63.392472 
1625.000000	63.389086 
1624.000000	63.384532 
1623.000000	63.379096 
1622.000000	63.373327 
1621.000000	63.367724 
1620.000000	63.362622 
1619.000000	63.358068 
1618.000000	63.353848 
1617.000000	63.349699 
1616.000000	63.345456 
1615.000000	63.341331 
1614.000000	63.337635 
1613.000000	63.335061 
1612.000000	63.334345 
1611.000000	63.336229 
1610.000000	63.341069 
1609.000000	63.348937 
1608.000000	63.359308 
1607.000000	63.371324 
1606.000000	63.383936 
1605.000000	63.395714 
1604.000000	63.405156 
1603.000000	63.410782 
1602.000000	63.411641 
1601.000000	63.407254 
1600.000000	63.397836 
1599.000000	63.384604 
1598.000000	63.369297 
1597.000000	63.354110 
1596.000000	63.341093 
1595.000000	63.331770 
1594.000000	63.326621 
1593.000000	63.324928 
1592.000000	63.324952 
1591.000000	63.324141 
1590.000000	63.320088 
1589.000000	63.311362 
1588.000000	63.297939 
1587.000000	63.281250 
1586.000000	63.263797 
1585.000000	63.248777 
1584.000000	63.239002 
1583.000000	63.236260 
1582.000000	63.241052 
1581.000000	63.252568 
1580.000000	63.269042 
1579.000000	63.288259 
1578.000000	63.308000 
1577.000000	63.326454 
1576.000000	63.342428 
1575.000000	63.355493 
1574.000000	63.365888 
1573.000000	63.374376 
1572.000000	63.382005 
1571.000000	63.389420 
1570.000000	63.397121 
1569.000000	63.404607 
1568.000000	63.411092 
1567.000000	63.414978 
1566.000000	63.414573 
1565.000000	63.408207 
1564.000000	63.394927 
1563.000000	63.374614 
1562.000000	63.348245 
1561.000000	63.317704 
1560.000000	63.285684 
1559.000000	63.255262 
1558.000000	63.229227 
1557.000000	63.209843 
1556.000000	63.198304 
1555.000000	63.194775 
1554.000000	63.198280 
1553.000000	63.207054 
1552.000000	63.218927 
1551.000000	63.231801 
1550.000000	63.243770 
1549.000000	63.253402 
1548.000000	63.259744 
1547.000000	63.262319 
1546.000000	63.261103 
1545.000000	63.256359 
1544.000000	63.248658 
1543.000000	63.239121 
1542.000000	63.229179 
1541.000000	63.220810 
1540.000000	63.215827 
1539.000000	63.215708 
1538.000000	63.220977 
1537.000000	63.231229 
1536.000000	63.245081 
1535.000000	63.260507 
1534.000000	63.275170 
1533.000000	63.287138 
1532.000000	63.295388 
1531.000000	63.299775 
1530.000000	63.301205 
1529.000000	63.301348 
1528.000000	63.301873 
1527.000000	63.304066 
1526.000000	63.308453 
1525.000000	63.314700 
1524.000000	63.321495 
1523.000000	63.327026 
1522.000000	63.329648 
1521.000000	63.328099 
1520.000000	63.322043 
1519.000000	63.312101 
1518.000000	63.299584 
1517.000000	63.286566 
1516.000000	63.275218 
1515.000000	63.267612 
1514.000000	63.265085 
1513.000000	63.268232 
1512.000000	63.276720 
1511.000000	63.289237 
1510.000000	63.303995 
1509.000000	63.318848 
1508.000000	63.331842 
1507.000000	63.341355 
1506.000000	63.346314 
1505.000000	63.346338 
1504.000000	63.341450 
1503.000000	63.332104 
1502.000000	63.319110 
1501.000000	63.303685 
1500.000000	63.287401 
1499.000000	63.272118 
1498.000000	63.259506 
1497.000000	63.250803 
1496.000000	63.246464 
1495.000000	63.245892 
1494.000000	63.247585 
1493.000000	63.249254 
1492.000000	63.248777 
1491.000000	63.244295 
1490.000000	63.234996 
1489.000000	63.221359 
1488.000000	63.204836 
1487.000000	63.187742 
1486.000000	63.172459 
1485.000000	63.160824 
1484.000000	63.153648 
1483.000000	63.150668 
1482.000000	63.150620 
1481.000000	63.151478 
1480.000000	63.151216 
1479.000000	63.148212 
1478.000000	63.141775 
1477.000000	63.132143 
1476.000000	63.120412 
1475.000000	63.108015 
1474.000000	63.096785 
1473.000000	63.088274 
1472.000000	63.083457 
1471.000000	63.082551 
1470.000000	63.084888 
1469.000000	63.089156 
1468.000000	63.093662 
1467.000000	63.096547 
1466.000000	63.096070 
1465.000000	63.091182 
1464.000000	63.081645 
1463.000000	63.068342 
1462.000000	63.053083 
1461.000000	63.038349 
1460.000000	63.026976 
1459.000000	63.021373 
1458.000000	63.023066 
1457.000000	63.032484 
1456.000000	63.048601 
1455.000000	63.069510 
1454.000000	63.092732 
1453.000000	63.115549 
1452.000000	63.135910 
1451.000000	63.152194 
1450.000000	63.163423 
1449.000000	63.169002 
1448.000000	63.168692 
1447.000000	63.162350 
1446.000000	63.150048 
1445.000000	63.132214 
1444.000000	63.109898 
1443.000000	63.084912 
1442.000000	63.059830 
1441.000000	63.037586 
1440.000000	63.021159 
1439.000000	63.012695 
1438.000000	63.013005 
1437.000000	63.021230 
1436.000000	63.035130 
1435.000000	63.051295 
1434.000000	63.066506 
1433.000000	63.077712 
1432.000000	63.083267 
1431.000000	63.082838 
1430.000000	63.077473 
1429.000000	63.068890 
1428.000000	63.059496 
1427.000000	63.051223 
1426.000000	63.045644 
1425.000000	63.043665 
1424.000000	63.045525 
1423.000000	63.051080 
1422.000000	63.059782 
1421.000000	63.070964 
1420.000000	63.083600 
1419.000000	63.096642 
1418.000000	63.108634 
1417.000000	63.118076 
1416.000000	63.123559 
1415.000000	63.123965 
1414.000000	63.119029 
1413.000000	63.109421 
1412.000000	63.096642 
1411.000000	63.082957 
1410.000000	63.070774 
1409.000000	63.062262 
1408.000000	63.058733 
1407.000000	63.060355 
1406.000000	63.066315 
1405.000000	63.074922 
1404.000000	63.084268 
1403.000000	63.092708 
1402.000000	63.099193 
1401.000000	63.103556 
1400.000000	63.106369 
1399.000000	63.108587 
1398.000000	63.111090 
1397.000000	63.114213 
1396.000000	63.117623 
1395.000000	63.120174 
1394.000000	63.120388 
1393.000000	63.116812 
1392.000000	63.108539 
1391.000000	63.095450 
1390.000000	63.078427 
1389.000000	63.059234 
1388.000000	63.040065 
1387.000000	63.022923 
1386.000000	63.009262 
1385.000000	62.999486 
1384.000000	62.992954 
1383.000000	62.988162 
1382.000000	62.983155 
1381.000000	62.976145 
1380.000000	62.966132 
1379.000000	62.953066 
1378.000000	62.938117 
1377.000000	62.923216 
1376.000000	62.910866 
1375.000000	62.903237 
1374.000000	62.901997 
1373.000000	62.907576 
1372.000000	62.919330 
1371.000000	62.935566 
1370.000000	62.953758 
1369.000000	62.971138 
1368.000000	62.985253 
1367.000000	62.994289 
1366.000000	62.997484 
1365.000000	62.995004 
1364.000000	62.987971 
1363.000000	62.978172 
1362.000000	62.967705 
1361.000000	62.958478 
1360.000000	62.952065 
1359.000000	62.949395 
1358.000000	62.950706 
1357.000000	62.955665 
1356.000000	62.963485 
1355.000000	62.973332 
1354.000000	62.984180 
1353.000000	62.995290 
1352.000000	63.006067 
1351.000000	63.016295 
1350.000000	63.025927 
1349.000000	63.034939 
1348.000000	63.043379 
1347.000000	63.050985 
1346.000000	63.057541 
1345.000000	63.062787 
1344.000000	63.066506 
1343.000000	63.068580 
1342.000000	63.069057 
1341.000000	63.068318 
1340.000000	63.066935 
1339.000000	63.065648 
1338.000000	63.065242 
1337.000000	63.066267 
1336.000000	63.069009 
1335.000000	63.073253 
1334.000000	63.078331 
1333.000000	63.083195 
1332.000000	63.086605 
1331.000000	63.087463 
1330.000000	63.085174 
1329.000000	63.079786 
1328.000000	63.072037 
1327.000000	63.063049 
1326.000000	63.054347 
1325.000000	63.047218 
1324.000000	63.042378 
1323.000000	63.040161 
1322.000000	63.040065 
1321.000000	63.041090 
1320.000000	63.041949 
1319.000000	63.041567 
1318.000000	63.039183 
1317.000000	63.034653 
1316.000000	63.028264 
1315.000000	63.020753 
1314.000000	63.012933 
1313.000000	63.005542 
1312.000000	62.999057 
1311.000000	62.993431 
1310.000000	62.988328 
1309.000000	62.983274 
1308.000000	62.978053 
1307.000000	62.972879 
1306.000000	62.968301 
1305.000000	62.965250 
1304.000000	62.964749 
1303.000000	62.967562 
1302.000000	62.973809 
1301.000000	62.982869 
1300.000000	62.993431 
1299.000000	63.003730 
1298.000000	63.011980 
1297.000000	63.016510 
1296.000000	63.016366 
1295.000000	63.011240 
1294.000000	63.001537 
1293.000000	62.988400 
1292.000000	62.973475 
1291.000000	62.958598 
1290.000000	62.945461 
1289.000000	62.935590 
1288.000000	62.930130 
1287.000000	62.929606 
1286.000000	62.934088 
1285.000000	62.942862 
1284.000000	62.954735 
1283.000000	62.967824 
1282.000000	62.979841 
1281.000000	62.988567 
1280.000000	62.991952 
1279.000000	62.988591 
1278.000000	62.978029 
1277.000000	62.960886 
1276.000000	62.938761 
1275.000000	62.914061 
1274.000000	62.889480 
1273.000000	62.867546 
1272.000000	62.849998 
1271.000000	62.837600 
1270.000000	62.829923 
1269.000000	62.825655 
1268.000000	62.822794 
1267.000000	62.819218 
1266.000000	62.813258 
1265.000000	62.803888 
1264.000000	62.791132 
1263.000000	62.775874 
1262.000000	62.759733 
1261.000000	62.744450 
1260.000000	62.731695 
1259.000000	62.722539 
1258.000000	62.717390 
1257.000000	62.715935 
1256.000000	62.717318 
1255.000000	62.720346 
1254.000000	62.723851 
1253.000000	62.726974 
1252.000000	62.729167 
1251.000000	62.730431 
1250.000000	62.731313 
1249.000000	62.732529 
1248.000000	62.734770 
1247.000000	62.738466 
1246.000000	62.743330 
1245.000000	62.748551 
1244.000000	62.753033 
1243.000000	62.755680 
1242.000000	62.755823 
1241.000000	62.753677 
1240.000000	62.750291 
1239.000000	62.747383 
1238.000000	62.746834 
1237.000000	62.750077 
1236.000000	62.757658 
1235.000000	62.768983 
1234.000000	62.782478 
1233.000000	62.795853 
1232.000000	62.806892 
1231.000000	62.814116 
1230.000000	62.816929 
1229.000000	62.816047 
1228.000000	62.813067 
1227.000000	62.809705 
1226.000000	62.807416 
1225.000000	62.806844 
1224.000000	62.807774 
1223.000000	62.809133 
1222.000000	62.809514 
1221.000000	62.807917 
1220.000000	62.804031 
1219.000000	62.798357 
1218.000000	62.791967 
1217.000000	62.786316 
1216.000000	62.782478 
1215.000000	62.780809 
1214.000000	62.780857 
1213.000000	62.781381 
1212.000000	62.780666 
1211.000000	62.777376 
1210.000000	62.770628 
1209.000000	62.760519 
1208.000000	62.747740 
1207.000000	62.733650 
1206.000000	62.719655 
1205.000000	62.706613 
1204.000000	62.695074 
1203.000000	62.685275 
1202.000000	62.677335 
1201.000000	62.671518 
1200.000000	62.668323 
1199.000000	62.668728 
1198.000000	62.673616 
1197.000000	62.683892 
1196.000000	62.699937 
1195.000000	62.721562 
1194.000000	62.747859 
1193.000000	62.777042 
1192.000000	62.806892 
1191.000000	62.834882 
1190.000000	62.858557 
1189.000000	62.875843 
1188.000000	62.885570 
1187.000000	62.887048 
1186.000000	62.880682 
1185.000000	62.867259 
1184.000000	62.848019 
1183.000000	62.824320 
1182.000000	62.797546 
1181.000000	62.768840 
1180.000000	62.739181 
1179.000000	62.709379 
1178.000000	62.680244 
1177.000000	62.652730 
1176.000000	62.627792 
1175.000000	62.606549 
1174.000000	62.590169 
1173.000000	62.579417 
1172.000000	62.574625 
1171.000000	62.575364 
1170.000000	62.580752 
1169.000000	62.589526 
1168.000000	62.600493 
1167.000000	62.612342 
1166.000000	62.624001 
1165.000000	62.634611 
1164.000000	62.643527 
1163.000000	62.650012 
1162.000000	62.653636 
1161.000000	62.654423 
1160.000000	62.652635 
1159.000000	62.649035 
1158.000000	62.644433 
1157.000000	62.639546 
1156.000000	62.634539 
1155.000000	62.629175 
1154.000000	62.622737 
1153.000000	62.614250 
1152.000000	62.603139 
1151.000000	62.589573 
1150.000000	62.574625 
1149.000000	62.560153 
1148.000000	62.548613 
1147.000000	62.542486 
1146.000000	62.543392 
1145.000000	62.551355 
1144.000000	62.564826 
1143.000000	62.580990 
1142.000000	62.596273 
1141.000000	62.607240 
1140.000000	62.611556 
1139.000000	62.608504 
1138.000000	62.599134 
1137.000000	62.585806 
1136.000000	62.571620 
1135.000000	62.559366 
1134.000000	62.551116 
1133.000000	62.547564 
1132.000000	62.548089 
1131.000000	62.550854 
1130.000000	62.553691 
1129.000000	62.554526 
1128.000000	62.551808 
1127.000000	62.545037 
1126.000000	62.535119 
1125.000000	62.523818 
1124.000000	62.513327 
1123.000000	62.506151 
1122.000000	62.504315 
1121.000000	62.509274 
1120.000000	62.521505 
1119.000000	62.540674 
1118.000000	62.565684 
1117.000000	62.594795 
1116.000000	62.625813 
1115.000000	62.656068 
1114.000000	62.682795 
1113.000000	62.703490 
1112.000000	62.716531 
1111.000000	62.721347 
1110.000000	62.718653 
1109.000000	62.710618 
1108.000000	62.699818 
1107.000000	62.688994 
1106.000000	62.679767 
1105.000000	62.672686 
1104.000000	62.666583 
1103.000000	62.659287 
1102.000000	62.647795 
1101.000000	62.629771 
1100.000000	62.603878 
1099.000000	62.570476 
1098.000000	62.531280 
1097.000000	62.489247 
1096.000000	62.447810 
1095.000000	62.410235 
1094.000000	62.378931 
1093.000000	62.355208 
1092.000000	62.339711 
1091.000000	62.332558 
1090.000000	62.333774 
1089.000000	62.343478 
1088.000000	62.361931 
1087.000000	62.389254 
1086.000000	62.424612 
1085.000000	62.466120 
1084.000000	62.510728 
1083.000000	62.554478 
1082.000000	62.593007 
1081.000000	62.622427 
1080.000000	62.640452 
1079.000000	62.646675 
1078.000000	62.642884 
1077.000000	62.632489 
1076.000000	62.619876 
1075.000000	62.609171 
1074.000000	62.603688 
1073.000000	62.604856 
1072.000000	62.612271 
1071.000000	62.623906 
1070.000000	62.637019 
1069.000000	62.648701 
1068.000000	62.656593 
1067.000000	62.659406 
1066.000000	62.657117 
1065.000000	62.650442 
1064.000000	62.640452 
1063.000000	62.628483 
1062.000000	62.615537 
1061.000000	62.602376 
1060.000000	62.589192 
1059.000000	62.576222 
1058.000000	62.563323 
1057.000000	62.550592 
1056.000000	62.537837 
1055.000000	62.524700 
1054.000000	62.510824 
1053.000000	62.495946 
1052.000000	62.480115 
1051.000000	62.463521 
1050.000000	62.447047 
1049.000000	62.431931 
1048.000000	62.419819 
1047.000000	62.411999 
1046.000000	62.409567 
1045.000000	62.412810 
1044.000000	62.421178 
1043.000000	62.433314 
1042.000000	62.447714 
1041.000000	62.462806 
1040.000000	62.477588 
1039.000000	62.491679 
1038.000000	62.505435 
1037.000000	62.519431 
1036.000000	62.534213 
1035.000000	62.549805 
1034.000000	62.565565 
1033.000000	62.580108 
1032.000000	62.591648 
1031.000000	62.598299 
1030.000000	62.598633 
1029.000000	62.591958 
1028.000000	62.578773 
1027.000000	62.560606 
1026.000000	62.539839 
1025.000000	62.519216 
1024.000000	62.501430 
1023.000000	62.488126 
1022.000000	62.479972 
1021.000000	62.476372 
1020.000000	62.475705 
1019.000000	62.475776 
1018.000000	62.474441 
1017.000000	62.470316 
1016.000000	62.463021 
1015.000000	62.453365 
1014.000000	62.443137 
1013.000000	62.434458 
1012.000000	62.429213 
1011.000000	62.428522 
1010.000000	62.432193 
1009.000000	62.438869 
1008.000000	62.446331 
1007.000000	62.452125 
1006.000000	62.454462 
1005.000000	62.452483 
1004.000000	62.446498 
1003.000000	62.437939 
1002.000000	62.428617 
1001.000000	62.420439 
1000.000000	62.414526 
999.000000	 62.411165 
998.000000	 62.409615 
997.000000	 62.408542 
996.000000	 62.406277 
995.000000	 62.401390 
994.000000	 62.393116 
993.000000	 62.381649 
992.000000	 62.368202 
991.000000	 62.354612 
990.000000	 62.343192 
989.000000	 62.335896 
988.000000	 62.334227 
987.000000	 62.338781 
986.000000	 62.348985 
985.000000	 62.363433 
984.000000	 62.379860 
983.000000	 62.395739 
982.000000	 62.408494 
981.000000	 62.416362 
980.000000	 62.418413 
979.000000	 62.414813 
978.000000	 62.406945 
977.000000	 62.396764 
976.000000	 62.386488 
975.000000	 62.378072 
974.000000	 62.372851 
973.000000	 62.371158 
972.000000	 62.372493 
971.000000	 62.375497 
970.000000	 62.378597 
969.000000	 62.380170 
968.000000	 62.378740 
967.000000	 62.373471 
966.000000	 62.364172 
965.000000	 62.351274 
964.000000	 62.335801 
963.000000	 62.319159 
962.000000	 62.303018 
961.000000	 62.288975 
960.000000	 62.278437 
959.000000	 62.272334 
958.000000	 62.270998 
957.000000	 62.274050 
956.000000	 62.280607 
955.000000	 62.289118 
954.000000	 62.298107 
953.000000	 62.306356 
952.000000	 62.313532 
951.000000	 62.319803 
950.000000	 62.326145 
949.000000	 62.333774 
948.000000	 62.343883 
947.000000	 62.357139 
946.000000	 62.373590 
945.000000	 62.392520 
944.000000	 62.412834 
943.000000	 62.433338 
942.000000	 62.452816 
941.000000	 62.470483 
940.000000	 62.485861 
939.000000	 62.498784 
938.000000	 62.509107 
937.000000	 62.516760 
936.000000	 62.521362 
935.000000	 62.522411 
934.000000	 62.519383 
933.000000	 62.511944 
932.000000	 62.500143 
931.000000	 62.484669 
930.000000	 62.466549 
929.000000	 62.447285 
928.000000	 62.428355 
927.000000	 62.411260 
926.000000	 62.397551 
925.000000	 62.388443 
924.000000	 62.384843 
923.000000	 62.387156 
922.000000	 62.395334 
921.000000	 62.408924 
920.000000	 62.426567 
919.000000	 62.446427 
918.000000	 62.466406 
917.000000	 62.484288 
916.000000	 62.498116 
915.000000	 62.506389 
914.000000	 62.508344 
913.000000	 62.503957 
912.000000	 62.493801 
911.000000	 62.478971 
910.000000	 62.460899 
909.000000	 62.441325 
908.000000	 62.421917 
907.000000	 62.404394 
906.000000	 62.390279 
905.000000	 62.380957 
904.000000	 62.377238 
903.000000	 62.379145 
902.000000	 62.385725 
901.000000	 62.394976 
900.000000	 62.404108 
899.000000	 62.409973 
898.000000	 62.409925 
897.000000	 62.402319 
896.000000	 62.387037 
895.000000	 62.365555 
894.000000	 62.340688 
893.000000	 62.316155 
892.000000	 62.295413 
891.000000	 62.281155 
890.000000	 62.274432 
889.000000	 62.274742 
888.000000	 62.280106 
887.000000	 62.287473 
886.000000	 62.293815 
885.000000	 62.296772 
884.000000	 62.295484 
883.000000	 62.290549 
882.000000	 62.283945 
881.000000	 62.278318 
880.000000	 62.276339 
879.000000	 62.279677 
878.000000	 62.288761 
877.000000	 62.302494 
876.000000	 62.318277 
875.000000	 62.332797 
874.000000	 62.342667 
873.000000	 62.345457 
872.000000	 62.340021 
871.000000	 62.326860 
870.000000	 62.307786 
869.000000	 62.285494 
868.000000	 62.263131 
867.000000	 62.243437 
866.000000	 62.228465 
865.000000	 62.219452 
864.000000	 62.216806 
863.000000	 62.220501 
862.000000	 62.230324 
861.000000	 62.245798 
860.000000	 62.266206 
859.000000	 62.290287 
858.000000	 62.316274 
857.000000	 62.341594 
856.000000	 62.363004 
855.000000	 62.377285 
854.000000	 62.381911 
853.000000	 62.375617 
852.000000	 62.359166 
851.000000	 62.335300 
850.000000	 62.308311 
849.000000	 62.282752 
848.000000	 62.262272 
847.000000	 62.248659 
846.000000	 62.241387 
845.000000	 62.237811 
844.000000	 62.233996 
843.000000	 62.225651 
842.000000	 62.209653 
841.000000	 62.184739 
840.000000	 62.152147 
839.000000	 62.115001 
838.000000	 62.078189 
837.000000	 62.047052 
836.000000	 62.026548 
835.000000	 62.019968 
834.000000	 62.028551 
833.000000	 62.051367 
832.000000	 62.085509 
831.000000	 62.126755 
830.000000	 62.170624 
829.000000	 62.213015 
828.000000	 62.250995 
827.000000	 62.282919 
826.000000	 62.308788 
825.000000	 62.329626 
824.000000	 62.347149 
823.000000	 62.362718 
822.000000	 62.376976 
821.000000	 62.389516 
820.000000	 62.398958 
819.000000	 62.403464 
818.000000	 62.401485 
817.000000	 62.392044 
816.000000	 62.375569 
815.000000	 62.353491 
814.000000	 62.327957 
813.000000	 62.301158 
812.000000	 62.274646 
811.000000	 62.249517 
810.000000	 62.226486 
809.000000	 62.206339 
808.000000	 62.189888 
807.000000	 62.178492 
806.000000	 62.173843 
805.000000	 62.177515 
804.000000	 62.190341 
803.000000	 62.211775 
802.000000	 62.239575 
801.000000	 62.269997 
800.000000	 62.298202 
799.000000	 62.319517 
798.000000	 62.330603 
797.000000	 62.330079 
796.000000	 62.318897 
795.000000	 62.300109 
794.000000	 62.278127 
793.000000	 62.257599 
792.000000	 62.242197 
791.000000	 62.234234 
790.000000	 62.233877 
789.000000	 62.239789 
788.000000	 62.248849 
787.000000	 62.257051 
786.000000	 62.260103 
785.000000	 62.254071 
784.000000	 62.236166 
783.000000	 62.205171 
782.000000	 62.162160 
781.000000	 62.110066 
780.000000	 62.053656 
779.000000	 61.998534 
778.000000	 61.950492 
777.000000	 61.914515 
776.000000	 61.893916 
775.000000	 61.890006 
774.000000	 61.901807 
773.000000	 61.926245 
772.000000	 61.958956 
771.000000	 61.994981 
770.000000	 62.029623 
769.000000	 62.058925 
768.000000	 62.080383 
767.000000	 62.093114 
766.000000	 62.097501 
765.000000	 62.094616 
764.000000	 62.086105 
763.000000	 62.073540 
762.000000	 62.058448 
761.000000	 62.041878 
760.000000	 62.024664 
759.000000	 62.007260 
758.000000	 61.990332 
757.000000	 61.974668 
756.000000	 61.961364 
755.000000	 61.951684 
754.000000	 61.946582 
753.000000	 61.946725 
752.000000	 61.952114 
751.000000	 61.962080 
750.000000	 61.975383 
749.000000	 61.990261 
748.000000	 62.004423 
747.000000	 62.015652 
746.000000	 62.022280 
745.000000	 62.023329 
744.000000	 62.018465 
743.000000	 62.008047 
742.000000	 61.992859 
741.000000	 61.974191 
740.000000	 61.953806 
739.000000	 61.933207 
738.000000	 61.913728 
737.000000	 61.897110 
736.000000	 61.884832 
735.000000	 61.878180 
734.000000	 61.877584 
733.000000	 61.882495 
732.000000	 61.891365 
731.000000	 61.901283 
730.000000	 61.909174 
729.000000	 61.911535 
728.000000	 61.906599 
727.000000	 61.894059 
726.000000	 61.876440 
725.000000	 61.857724 
724.000000	 61.843371 
723.000000	 61.838912 
722.000000	 61.848187 
721.000000	 61.872434 
720.000000	 61.909222 
719.000000	 61.952853 
718.000000	 61.994981 
717.000000	 62.026524 
716.000000	 62.039160 
715.000000	 62.027311 
714.000000	 61.989188 
713.000000	 61.927485 
712.000000	 61.848616 
711.000000	 61.761522 
710.000000	 61.675739 
709.000000	 61.599707 
708.000000	 61.539268 
707.000000	 61.497354 
706.000000	 61.473631 
705.000000	 61.466073 
704.000000	 61.471223 
703.000000	 61.486387 
702.000000	 61.509728 
701.000000	 61.541366 
700.000000	 61.581683 
699.000000	 61.631846 
698.000000	 61.692070 
697.000000	 61.760735 
696.000000	 61.834216 
695.000000	 61.906075 
694.000000	 61.968159 
693.000000	 62.011837 
692.000000	 62.030291 
691.000000	 62.019610 
690.000000	 61.980080 
689.000000	 61.916542 
688.000000	 61.837887 
687.000000	 61.755132 
686.000000	 61.679530 
685.000000	 61.620068 
684.000000	 61.581945 
683.000000	 61.566233 
682.000000	 61.569881 
681.000000	 61.586904 
680.000000	 61.609935 
679.000000	 61.631917 
678.000000	 61.647653 
677.000000	 61.653733 
676.000000	 61.649513 
675.000000	 61.635971 
674.000000	 61.615848 
673.000000	 61.591410 
672.000000	 61.565732 
671.000000	 61.542081 
670.000000	 61.524319 
669.000000	 61.516404 
668.000000	 61.522221 
667.000000	 61.544704 
666.000000	 61.585330 
665.000000	 61.643505 
664.000000	 61.715888 
663.000000	 61.796212 
662.000000	 61.876225 
661.000000	 61.946868 
660.000000	 61.999654 
659.000000	 62.027955 
658.000000	 62.028312 
657.000000	 62.000703 
656.000000	 61.948895 
655.000000	 61.878943 
654.000000	 61.798739 
653.000000	 61.715078 
652.000000	 61.633610 
651.000000	 61.556386 
650.000000	 61.482644 
649.000000	 61.408662 
648.000000	 61.329460 
647.000000	 61.241436 
646.000000	 61.142206 
645.000000	 61.035227 
644.000000	 60.928201 
643.000000	 60.834884 
642.000000	 60.770392 
641.000000	 60.750508 
640.000000	 60.786390 
639.000000	 60.882663 
638.000000	 61.035013 
637.000000	 61.230063 
636.000000	 61.447024 
635.000000	 61.661076 
634.000000	 61.847615 
633.000000	 61.985588 
632.000000	 62.060570 
631.000000	 62.066888 
630.000000	 62.007308 
629.000000	 61.892008 
628.000000	 61.735582 
627.000000	 61.555051 
626.000000	 61.366248 
625.000000	 61.183953 
624.000000	 61.018681 
623.000000	 60.878062 
622.000000	 60.765337 
621.000000	 60.680603 
620.000000	 60.621833 
619.000000	 60.584592 
618.000000	 60.565114 
617.000000	 60.559248 
616.000000	 60.565328 
615.000000	 60.581946 
614.000000	 60.609936 
613.000000	 60.649681 
612.000000	 60.702133 
611.000000	 60.766959 
610.000000	 60.843420 
609.000000	 60.929608 
608.000000	 61.023187 
607.000000	 61.120939 
606.000000	 61.220169 
605.000000	 61.317849 
604.000000	 61.409854 
603.000000	 61.489748 
602.000000	 61.549139 
601.000000	 61.577630 
600.000000	 61.565184 
599.000000	 61.504030 
598.000000	 61.391782 
597.000000	 61.232280 
596.000000	 61.039018 
595.000000	 60.830593 
594.000000	 60.627317 
593.000000	 60.447573 
592.000000	 60.305047 
591.000000	 60.206913 
590.000000	 60.152506 
589.000000	 60.136508 
588.000000	 60.151553 
587.000000	 60.189652 
586.000000	 60.243129 
585.000000	 60.305428 
584.000000	 60.370302 
583.000000	 60.430765 
582.000000	 60.478281 
581.000000	 60.503005 
580.000000	 60.495138 
579.000000	 60.448145 
578.000000	 60.361146 
577.000000	 60.240602 
576.000000	 60.100722 
575.000000	 59.961962 
574.000000	 59.847664 
573.000000	 59.779453 
572.000000	 59.772872 
571.000000	 59.832978 
570.000000	 59.954214 
569.000000	 60.120868 
568.000000	 60.312008 
567.000000	 60.504889 
566.000000	 60.681891 
565.000000	 60.831546 
564.000000	 60.952687 
563.000000	 61.051607 
562.000000	 61.140704 
561.000000	 61.233568 
560.000000	 61.340761 
559.000000	 61.466741 
558.000000	 61.607503 
557.000000	 61.752843 
556.000000	 61.886096 
555.000000	 61.989378 
554.000000	 62.046122 
553.000000	 62.046098 
552.000000	 61.988139 
551.000000	 61.881923 
550.000000	 61.746311 
549.000000	 61.606574 
548.000000	 61.490702 
547.000000	 61.423110 
546.000000	 61.421203 
545.000000	 61.490011 
544.000000	 61.622262 
543.000000	 61.797595 
542.000000	 61.988520 
541.000000	 62.162923 
540.000000	 62.290573 
539.000000	 62.348508 
538.000000	 62.323832 
537.000000	 62.217879 
536.000000	 62.045788 
535.000000	 61.832976 
534.000000	 61.609435 
533.000000	 61.403822 
532.000000	 61.239147 
531.000000	 61.127281 
530.000000	 61.068654 
529.000000	 61.053347 
528.000000	 61.065793 
527.000000	 61.088037 
526.000000	 61.104583 
525.000000	 61.103677 
524.000000	 61.079716 
523.000000	 61.031198 
522.000000	 60.961699 
521.000000	 60.878705 
520.000000	 60.793185 
519.000000	 60.718488 
518.000000	 60.667729 
517.000000	 60.652399 
516.000000	 60.678553 
515.000000	 60.746574 
514.000000	 60.848355 
513.000000	 60.968899 
512.000000	 61.087489 
511.000000	 61.181139 
510.000000	 61.229753 
509.000000	 61.220192 
508.000000	 61.149716 
507.000000	 61.026144 
506.000000	 60.867524 
505.000000	 60.697841 
504.000000	 60.543227 
503.000000	 60.426831 
502.000000	 60.364270 
501.000000	 60.360884 
500.000000	 60.412526 
499.000000	 60.507392 
498.000000	 60.628008 
497.000000	 60.755372 
496.000000	 60.871887 
495.000000	 60.964870 
494.000000	 61.027693 
493.000000	 61.060285 
492.000000	 61.067152 
491.000000	 61.055660 
490.000000	 61.034226 
489.000000	 61.009263 
488.000000	 60.984587 
487.000000	 60.960221 
486.000000	 60.934472 
485.000000	 60.904002 
484.000000	 60.866498 
483.000000	 60.821366 
482.000000	 60.770535 
481.000000	 60.718870 
480.000000	 60.673069 
479.000000	 60.640645 
478.000000	 60.627341 
477.000000	 60.636520 
476.000000	 60.667610 
475.000000	 60.716795 
474.000000	 60.777473 
473.000000	 60.841917 
472.000000	 60.902643 
471.000000	 60.954236 
470.000000	 60.993456 
469.000000	 61.019611 
468.000000	 61.032605 
467.000000	 61.033296 
466.000000	 61.020636 
465.000000	 60.991096 
464.000000	 60.938167 
463.000000	 60.854864 
462.000000	 60.735845 
461.000000	 60.579395 
460.000000	 60.391330 
459.000000	 60.183835 
458.000000	 59.977602 
457.000000	 59.798145 
456.000000	 59.672164 
455.000000	 59.621047 
454.000000	 59.656381 
453.000000	 59.776902 
452.000000	 59.966421 
451.000000	 60.196208 
450.000000	 60.429811 
449.000000	 60.629725 
448.000000	 60.764813 
447.000000	 60.815858 
446.000000	 60.778594 
445.000000	 60.662746 
444.000000	 60.488915 
443.000000	 60.282397 
442.000000	 60.067105 
441.000000	 59.860515 
440.000000	 59.670162 
439.000000	 59.495496 
438.000000	 59.332060 
437.000000	 59.177494 
436.000000	 59.034109 
435.000000	 58.913397 
434.000000	 58.833456 
433.000000	 58.816790 
432.000000	 58.880639 
431.000000	 59.033799 
430.000000	 59.271550 
429.000000	 59.574747 
428.000000	 59.908509 
427.000000	 60.232377 
426.000000	 60.510158 
425.000000	 60.714054 
424.000000	 60.830235 
423.000000	 60.858106 
422.000000	 60.809206 
421.000000	 60.700607 
420.000000	 60.550546 
419.000000	 60.374903 
418.000000	 60.187125 
417.000000	 59.997582 
416.000000	 59.816598 
415.000000	 59.663963 
414.000000	 59.566807 
413.000000	 59.551548 
412.000000	 59.638452 
411.000000	 59.832262 
410.000000	 60.121369 
409.000000	 60.475993 
408.000000	 60.858941 
407.000000	 61.220932 
406.000000	 61.528611 
405.000000	 61.769199 
404.000000	 61.961340 
403.000000	 62.154364 
402.000000	 62.406945 
401.000000	 62.769985 
400.000000	 63.261651 
399.000000	 63.858866 
398.000000	 64.494490 
397.000000	 65.077352 
396.000000	 65.506005 
395.000000	 65.692949 
394.000000	 65.605235 
393.000000	 65.280103 
392.000000	 64.825701 
391.000000	 64.398694 
390.000000	 64.186763 
389.000000	 64.352774 
388.000000	 65.019321 
387.000000	 66.209578 
386.000000	 67.799997 
385.000000	 69.533276 
384.000000	 71.068668 
383.000000	 72.067666 
382.000000	 72.258853 
381.000000	 71.535110 
380.000000	 70.015382 
379.000000	 68.004488 
378.000000	 65.909552 
377.000000	 64.149618 
376.000000	 63.025450 
375.000000	 62.684726 
374.000000	 63.160872 
373.000000	 64.287066 
372.000000	 65.799164 
371.000000	 67.292952 
370.000000	 68.314814 

