PE IR       SPECTRUM    SPECTRUM    ASCII       PEDS        1.60        
  -1
BZ6D21~1.ASC
17/04/07
18:32:04.00
17/04/07
18:32:04.00
tln
$BZ1503107-1_t0065$<tbV0>[-10.4,0.0,8.0,0.0,27,1,0]
370.000000
64









2002,4.07    
MIRTGS : RIGHTBACK : INTERNAL 2
MIR : ON : INTERNAL 2
OPTKBR

0.200000
8
8.000000
FILLER
RATIO
SPECTRUM
UNLOCKED 256

DOUBLE
64
COMBINED
1
0
0


1.000000
RATIO


1
0
TRUE
51149
0
LEFT NOT FITTED RIGHT NOT FITTED 0
NONE
NONE
15600
12.000000
4.427000
51148
TRUE
1 0 8 72 0 0 0 0 

15798.010000






#HDR
-1
-1
#GR
CM-1
%T
0.00002384185791015625
0.0
5000.000000
-1.000000
4631
8
69.323062
37.852954
#DATA
5000.000000	64.349269 
4999.000000	64.256572 
4998.000000	64.208436 
4997.000000	64.208269 
4996.000000	64.253377 
4995.000000	64.336085 
4994.000000	64.446926 
4993.000000	64.574456 
4992.000000	64.710497 
4991.000000	64.849877 
4990.000000	64.991211 
4989.000000	65.133738 
4988.000000	65.277290 
4987.000000	65.419983 
4986.000000	65.558075 
4985.000000	65.686082 
4984.000000	65.796208 
4983.000000	65.879893 
4982.000000	65.929794 
4981.000000	65.941548 
4980.000000	65.914869 
4979.000000	65.853691 
4978.000000	65.766525 
4977.000000	65.663981 
4976.000000	65.556883 
4975.000000	65.454030 
4974.000000	65.361356 
4973.000000	65.281343 
4972.000000	65.213942 
4971.000000	65.157341 
4970.000000	65.110230 
4969.000000	65.071392 
4968.000000	65.040040 
4967.000000	65.015554 
4966.000000	64.996242 
4965.000000	64.979624 
4964.000000	64.961814 
4963.000000	64.938783 
4962.000000	64.905953 
4961.000000	64.861226 
4960.000000	64.805769 
4959.000000	64.743804 
4958.000000	64.681696 
4957.000000	64.627909 
4956.000000	64.591145 
4955.000000	64.577984 
4954.000000	64.591407 
4953.000000	64.630770 
4952.000000	64.691734 
4951.000000	64.767265 
4950.000000	64.849066 
4949.000000	64.928722 
4948.000000	64.999151 
4947.000000	65.055203 
4946.000000	65.094113 
4945.000000	65.114593 
4944.000000	65.117025 
4943.000000	65.103602 
4942.000000	65.077018 
4941.000000	65.040516 
4940.000000	64.996862 
4939.000000	64.949607 
4938.000000	64.901328 
4937.000000	64.854550 
4936.000000	64.810466 
4935.000000	64.769744 
4934.000000	64.731454 
4933.000000	64.693403 
4932.000000	64.653253 
4931.000000	64.609289 
4930.000000	64.561939 
4929.000000	64.514136 
4928.000000	64.471316 
4927.000000	64.440107 
4926.000000	64.426398 
4925.000000	64.434099 
4924.000000	64.462947 
4923.000000	64.508986 
4922.000000	64.565443 
4921.000000	64.624738 
4920.000000	64.680004 
4919.000000	64.726567 
4918.000000	64.762949 
4917.000000	64.790034 
4916.000000	64.809846 
4915.000000	64.824342 
4914.000000	64.834070 
4913.000000	64.838242 
4912.000000	64.835047 
4911.000000	64.823389 
4910.000000	64.804196 
4909.000000	64.781141 
4908.000000	64.760947 
4907.000000	64.750742 
4906.000000	64.756488 
4905.000000	64.780521 
4904.000000	64.820718 
4903.000000	64.870405 
4902.000000	64.919805 
4901.000000	64.958572 
4900.000000	64.978218 
4899.000000	64.973402 
4898.000000	64.943313 
4897.000000	64.890837 
4896.000000	64.822268 
4895.000000	64.745664 
4894.000000	64.669990 
4893.000000	64.603328 
4892.000000	64.552164 
4891.000000	64.521455 
4890.000000	64.513444 
4889.000000	64.527964 
4888.000000	64.561843 
4887.000000	64.609932 
4886.000000	64.665079 
4885.000000	64.718770 
4884.000000	64.763140 
4883.000000	64.791584 
4882.000000	64.800786 
4881.000000	64.791011 
4880.000000	64.766097 
4879.000000	64.732193 
4878.000000	64.696478 
4877.000000	64.665293 
4876.000000	64.642310 
4875.000000	64.627885 
4874.000000	64.619326 
4873.000000	64.611935 
4872.000000	64.600586 
4871.000000	64.581203 
4870.000000	64.551734 
4869.000000	64.512515 
4868.000000	64.466047 
4867.000000	64.416217 
4866.000000	64.366340 
4865.000000	64.319252 
4864.000000	64.275884 
4863.000000	64.236617 
4862.000000	64.201712 
4861.000000	64.172339 
4860.000000	64.150667 
4859.000000	64.140152 
4858.000000	64.144253 
4857.000000	64.165568 
4856.000000	64.204335 
4855.000000	64.257955 
4854.000000	64.320349 
4853.000000	64.384293 
4852.000000	64.442563 
4851.000000	64.490032 
4850.000000	64.524722 
4849.000000	64.547634 
4848.000000	64.561724 
4847.000000	64.570641 
4846.000000	64.577007 
4845.000000	64.581084 
4844.000000	64.580512 
4843.000000	64.571595 
4842.000000	64.550614 
4841.000000	64.515519 
4840.000000	64.467287 
4839.000000	64.410758 
4838.000000	64.353728 
4837.000000	64.305305 
4836.000000	64.273476 
4835.000000	64.263319 
4834.000000	64.275240 
4833.000000	64.304351 
4832.000000	64.341807 
4831.000000	64.376974 
4830.000000	64.400291 
4829.000000	64.405059 
4828.000000	64.390206 
4827.000000	64.359617 
4826.000000	64.322018 
4825.000000	64.288258 
4824.000000	64.268755 
4823.000000	64.270496 
4822.000000	64.295578 
4821.000000	64.340829 
4820.000000	64.398145 
4819.000000	64.457011 
4818.000000	64.507293 
4817.000000	64.541864 
4816.000000	64.558029 
4815.000000	64.557695 
4814.000000	64.546036 
4813.000000	64.530038 
4812.000000	64.516115 
4811.000000	64.508724 
4810.000000	64.509510 
4809.000000	64.517378 
4808.000000	64.530348 
4807.000000	64.545893 
4806.000000	64.562201 
4805.000000	64.578938 
4804.000000	64.597368 
4803.000000	64.619517 
4802.000000	64.647102 
4801.000000	64.680814 
4800.000000	64.719486 
4799.000000	64.760017 
4798.000000	64.797711 
4797.000000	64.826869 
4796.000000	64.842343 
4795.000000	64.840221 
4794.000000	64.818882 
4793.000000	64.779257 
4792.000000	64.725136 
4791.000000	64.662528 
4790.000000	64.598774 
4789.000000	64.541721 
4788.000000	64.498353 
4787.000000	64.474129 
4786.000000	64.472103 
4785.000000	64.492225 
4784.000000	64.531731 
4783.000000	64.585590 
4782.000000	64.647889 
4781.000000	64.711952 
4780.000000	64.772248 
4779.000000	64.824581 
4778.000000	64.867067 
4777.000000	64.899563 
4776.000000	64.923858 
4775.000000	64.942812 
4774.000000	64.959526 
4773.000000	64.976596 
4772.000000	64.995241 
4771.000000	65.015435 
4770.000000	65.035629 
4769.000000	65.053439 
4768.000000	65.066051 
4767.000000	65.071105 
4766.000000	65.067458 
4765.000000	65.055394 
4764.000000	65.036630 
4763.000000	65.013885 
4762.000000	64.990496 
4761.000000	64.969682 
4760.000000	64.953541 
4759.000000	64.942526 
4758.000000	64.936113 
4757.000000	64.932489 
4756.000000	64.929103 
4755.000000	64.923405 
4754.000000	64.913702 
4753.000000	64.899420 
4752.000000	64.881539 
4751.000000	64.861941 
4750.000000	64.842844 
4749.000000	64.825963 
4748.000000	64.812254 
4747.000000	64.801263 
4746.000000	64.791178 
4745.000000	64.779901 
4744.000000	64.766001 
4743.000000	64.749288 
4742.000000	64.731001 
4741.000000	64.714121 
4740.000000	64.702868 
4739.000000	64.701223 
4738.000000	64.712166 
4737.000000	64.736866 
4736.000000	64.774417 
4735.000000	64.821958 
4734.000000	64.875340 
4733.000000	64.930200 
4732.000000	64.982700 
4731.000000	65.030312 
4730.000000	65.071558 
4729.000000	65.105533 
4728.000000	65.131831 
4727.000000	65.150260 
4726.000000	65.160512 
4725.000000	65.162730 
4724.000000	65.156960 
4723.000000	65.144872 
4722.000000	65.127944 
4721.000000	65.108013 
4720.000000	65.085911 
4719.000000	65.062046 
4718.000000	65.035748 
4717.000000	65.005922 
4716.000000	64.971470 
4715.000000	64.932131 
4714.000000	64.889311 
4713.000000	64.846110 
4712.000000	64.807009 
4711.000000	64.776682 
4710.000000	64.758586 
4709.000000	64.754152 
4708.000000	64.761924 
4707.000000	64.778470 
4706.000000	64.799213 
4705.000000	64.820218 
4704.000000	64.838862 
4703.000000	64.855003 
4702.000000	64.870262 
4701.000000	64.888000 
4700.000000	64.911389 
4699.000000	64.943027 
4698.000000	64.984273 
4697.000000	65.034341 
4696.000000	65.091204 
4695.000000	65.150237 
4694.000000	65.205979 
4693.000000	65.251564 
4692.000000	65.280413 
4691.000000	65.286755 
4690.000000	65.267062 
4689.000000	65.221166 
4688.000000	65.153002 
4687.000000	65.070676 
4686.000000	64.985370 
4685.000000	64.909791 
4684.000000	64.855480 
4683.000000	64.830064 
4682.000000	64.835619 
4681.000000	64.867639 
4680.000000	64.916825 
4679.000000	64.971041 
4678.000000	65.019154 
4677.000000	65.053057 
4676.000000	65.070128 
4675.000000	65.072822 
4674.000000	65.067648 
4673.000000	65.062165 
4672.000000	65.062785 
4671.000000	65.072631 
4670.000000	65.090608 
4669.000000	65.112161 
4668.000000	65.130305 
4667.000000	65.138459 
4666.000000	65.131878 
4665.000000	65.109634 
4664.000000	65.074467 
4663.000000	65.032243 
4662.000000	64.990305 
4661.000000	64.955353 
4660.000000	64.932203 
4659.000000	64.922475 
4658.000000	64.925074 
4657.000000	64.936661 
4656.000000	64.952421 
4655.000000	64.967536 
4654.000000	64.978075 
4653.000000	64.981842 
4652.000000	64.978265 
4651.000000	64.968752 
4650.000000	64.955568 
4649.000000	64.941954 
4648.000000	64.931297 
4647.000000	64.927053 
4646.000000	64.931297 
4645.000000	64.944982 
4644.000000	64.967966 
4643.000000	64.998745 
4642.000000	65.034222 
4641.000000	65.070724 
4640.000000	65.104007 
4639.000000	65.130782 
4638.000000	65.149259 
4637.000000	65.160083 
4636.000000	65.166068 
4635.000000	65.171861 
4634.000000	65.182876 
4633.000000	65.203356 
4632.000000	65.234971 
4631.000000	65.276002 
4630.000000	65.321564 
4629.000000	65.364527 
4628.000000	65.396976 
4627.000000	65.412378 
4626.000000	65.406775 
4625.000000	65.379905 
4624.000000	65.334391 
4623.000000	65.275359 
4622.000000	65.208697 
4621.000000	65.139770 
4620.000000	65.072369 
4619.000000	65.008735 
4618.000000	64.949727 
4617.000000	64.895319 
4616.000000	64.845991 
4615.000000	64.802932 
4614.000000	64.768838 
4613.000000	64.746904 
4612.000000	64.740705 
4611.000000	64.752197 
4610.000000	64.782071 
4609.000000	64.828801 
4608.000000	64.888882 
4607.000000	64.956808 
4606.000000	65.025806 
4605.000000	65.088677 
4604.000000	65.138602 
4603.000000	65.170073 
4602.000000	65.179896 
4601.000000	65.167570 
4600.000000	65.135502 
4599.000000	65.088677 
4598.000000	65.033936 
4597.000000	64.979124 
4596.000000	64.931964 
4595.000000	64.898729 
4594.000000	64.883828 
4593.000000	64.888882 
4592.000000	64.913058 
4591.000000	64.952731 
4590.000000	65.001845 
4589.000000	65.053081 
4588.000000	65.098905 
4587.000000	65.132927 
4586.000000	65.150403 
4585.000000	65.149879 
4584.000000	65.132927 
4583.000000	65.104365 
4582.000000	65.070986 
4581.000000	65.040206 
4580.000000	65.018391 
4579.000000	65.009045 
4578.000000	65.012311 
4577.000000	65.024232 
4576.000000	65.038061 
4575.000000	65.045857 
4574.000000	65.040898 
4573.000000	65.018868 
4572.000000	64.979743 
4571.000000	64.927482 
4570.000000	64.869642 
4569.000000	64.815139 
4568.000000	64.772772 
4567.000000	64.748930 
4566.000000	64.746594 
4565.000000	64.765071 
4564.000000	64.800357 
4563.000000	64.846253 
4562.000000	64.895820 
4561.000000	64.943027 
4560.000000	64.983510 
4559.000000	65.014648 
4558.000000	65.035748 
4557.000000	65.047192 
4556.000000	65.049695 
4555.000000	65.043544 
4554.000000	65.028691 
4553.000000	65.005254 
4552.000000	64.973735 
4551.000000	64.935827 
4550.000000	64.894604 
4549.000000	64.854526 
4548.000000	64.820861 
4547.000000	64.798617 
4546.000000	64.791274 
4545.000000	64.800143 
4544.000000	64.824008 
4543.000000	64.859700 
4542.000000	64.901995 
4541.000000	64.945507 
4540.000000	64.985179 
4539.000000	65.017986 
4538.000000	65.042591 
4537.000000	65.060400 
4536.000000	65.074229 
4535.000000	65.088367 
4534.000000	65.107131 
4533.000000	65.134525 
4532.000000	65.173602 
4531.000000	65.225768 
4530.000000	65.290665 
4529.000000	65.365695 
4528.000000	65.446352 
4527.000000	65.526127 
4526.000000	65.597629 
4525.000000	65.653324 
4524.000000	65.686678 
4523.000000	65.693378 
4522.000000	65.672063 
4521.000000	65.624189 
4520.000000	65.553975 
4519.000000	65.468144 
4518.000000	65.375089 
4517.000000	65.284037 
4516.000000	65.203356 
4515.000000	65.140581 
4514.000000	65.099906 
4513.000000	65.082025 
4512.000000	65.083718 
4511.000000	65.097618 
4510.000000	65.115213 
4509.000000	65.128612 
4508.000000	65.132761 
4507.000000	65.125441 
4506.000000	65.108752 
4505.000000	65.087509 
4504.000000	65.068101 
4503.000000	65.056061 
4502.000000	65.055036 
4501.000000	65.065932 
4500.000000	65.086913 
4499.000000	65.114045 
4498.000000	65.142703 
4497.000000	65.169143 
4496.000000	65.190911 
4495.000000	65.207505 
4494.000000	65.220451 
4493.000000	65.232706 
4492.000000	65.247678 
4491.000000	65.267848 
4490.000000	65.294003 
4489.000000	65.323972 
4488.000000	65.354657 
4487.000000	65.380549 
4486.000000	65.394353 
4485.000000	65.388417 
4484.000000	65.357041 
4483.000000	65.298080 
4482.000000	65.213704 
4481.000000	65.111303 
4480.000000	65.002632 
4479.000000	64.901566 
4478.000000	64.821672 
4477.000000	64.772748 
4476.000000	64.758229 
4475.000000	64.775419 
4474.000000	64.816689 
4473.000000	64.870023 
4472.000000	64.921665 
4471.000000	64.958715 
4470.000000	64.971733 
4469.000000	64.956402 
4468.000000	64.914870 
4467.000000	64.854502 
4466.000000	64.787507 
4465.000000	64.729070 
4464.000000	64.694881 
4463.000000	64.700317 
4462.000000	64.756321 
4461.000000	64.862823 
4460.000000	65.010714 
4459.000000	65.189290 
4458.000000	65.383458 
4457.000000	65.572905 
4456.000000	65.737724 
4455.000000	65.864086 
4454.000000	65.942311 
4453.000000	65.969681 
4452.000000	65.946149 
4451.000000	65.874743 
4450.000000	65.758252 
4449.000000	65.602707 
4448.000000	65.410280 
4447.000000	65.178966 
4446.000000	64.912891 
4445.000000	64.626550 
4444.000000	64.346218 
4443.000000	64.106822 
4442.000000	63.954329 
4441.000000	63.931727 
4440.000000	64.066004 
4439.000000	64.349198 
4438.000000	64.737963 
4437.000000	65.145134 
4436.000000	65.451693 
4435.000000	65.524220 
4434.000000	65.244388 
4433.000000	64.537763 
4432.000000	63.394713 
4431.000000	61.883139 
4430.000000	60.136651 
4429.000000	58.338737 
4428.000000	56.681537 
4427.000000	55.343890 
4426.000000	54.446196 
4425.000000	54.055333 
4424.000000	54.173278 
4423.000000	54.757666 
4422.000000	55.728363 
4421.000000	56.995511 
4420.000000	58.465409 
4419.000000	60.053324 
4418.000000	61.676239 
4417.000000	63.264703 
4416.000000	64.754486 
4415.000000	66.092562 
4414.000000	67.232680 
4413.000000	68.140387 
4412.000000	68.790841 
4411.000000	69.181084 
4410.000000	69.323062 
4409.000000	69.250965 
4408.000000	69.006896 
4407.000000	68.651103 
4406.000000	68.238615 
4405.000000	67.820668 
4404.000000	67.429828 
4403.000000	67.088556 
4402.000000	66.802000 
4401.000000	66.567945 
4400.000000	66.377496 
4399.000000	66.227245 
4398.000000	66.112446 
4397.000000	66.024255 
4396.000000	65.953612 
4395.000000	65.889430 
4394.000000	65.820550 
4393.000000	65.734815 
4392.000000	65.624308 
4391.000000	65.485692 
4390.000000	65.324258 
4389.000000	65.153217 
4388.000000	64.985084 
4387.000000	64.828920 
4386.000000	64.695334 
4385.000000	64.593958 
4384.000000	64.527082 
4383.000000	64.491653 
4382.000000	64.484214 
4381.000000	64.501023 
4380.000000	64.533996 
4379.000000	64.576053 
4378.000000	64.621281 
4377.000000	64.667582 
4376.000000	64.714598 
4375.000000	64.765572 
4374.000000	64.823722 
4373.000000	64.893317 
4372.000000	64.978361 
4371.000000	65.080046 
4370.000000	65.194940 
4369.000000	65.315914 
4368.000000	65.433835 
4367.000000	65.538668 
4366.000000	65.621352 
4365.000000	65.677261 
4364.000000	65.707516 
4363.000000	65.717887 
4362.000000	65.717053 
4361.000000	65.714883 
4360.000000	65.719366 
4359.000000	65.733528 
4358.000000	65.754270 
4357.000000	65.774488 
4356.000000	65.784263 
4355.000000	65.773987 
4354.000000	65.736722 
4353.000000	65.671348 
4352.000000	65.582251 
4351.000000	65.478324 
4350.000000	65.370345 
4349.000000	65.267992 
4348.000000	65.177845 
4347.000000	65.102434 
4346.000000	65.040373 
4345.000000	64.987158 
4344.000000	64.938330 
4343.000000	64.891147 
4342.000000	64.846396 
4341.000000	64.807224 
4340.000000	64.780020 
4339.000000	64.771509 
4338.000000	64.787316 
4337.000000	64.829158 
4336.000000	64.895486 
4335.000000	64.981055 
4334.000000	65.078043 
4333.000000	65.177106 
4332.000000	65.269517 
4331.000000	65.348052 
4330.000000	65.407943 
4329.000000	65.446615 
4328.000000	65.463495 
4327.000000	65.459275 
4326.000000	65.436077 
4325.000000	65.396308 
4324.000000	65.343689 
4323.000000	65.281963 
4322.000000	65.216040 
4321.000000	65.150666 
4320.000000	65.090250 
4319.000000	65.038299 
4318.000000	64.997291 
4317.000000	64.968609 
4316.000000	64.952325 
4315.000000	64.947843 
4314.000000	64.954137 
4313.000000	64.969420 
4312.000000	64.991044 
4311.000000	65.015721 
4310.000000	65.039658 
4309.000000	65.059542 
4308.000000	65.072870 
4307.000000	65.078806 
4306.000000	65.078163 
4305.000000	65.073156 
4304.000000	65.066623 
4303.000000	65.061068 
4302.000000	65.057706 
4301.000000	65.056061 
4300.000000	65.053844 
4299.000000	65.047693 
4298.000000	65.034079 
4297.000000	65.010857 
4296.000000	64.977884 
4295.000000	64.937686 
4294.000000	64.894366 
4293.000000	64.852643 
4292.000000	64.816808 
4291.000000	64.789676 
4290.000000	64.772725 
4289.000000	64.765524 
4288.000000	64.766860 
4287.000000	64.775371 
4286.000000	64.789676 
4285.000000	64.808440 
4284.000000	64.830183 
4283.000000	64.852976 
4282.000000	64.874863 
4281.000000	64.893913 
4280.000000	64.908695 
4279.000000	64.918708 
4278.000000	64.924860 
4277.000000	64.929318 
4276.000000	64.935111 
4275.000000	64.945220 
4274.000000	64.961600 
4273.000000	64.984750 
4272.000000	65.013265 
4271.000000	65.044569 
4270.000000	65.075564 
4269.000000	65.103745 
4268.000000	65.128064 
4267.000000	65.148925 
4266.000000	65.167880 
4265.000000	65.186572 
4264.000000	65.206217 
4263.000000	65.226554 
4262.000000	65.245723 
4261.000000	65.260481 
4260.000000	65.267395 
4259.000000	65.263199 
4258.000000	65.245962 
4257.000000	65.215373 
4256.000000	65.173029 
4255.000000	65.122079 
4254.000000	65.066790 
4253.000000	65.011763 
4252.000000	64.961457 
4251.000000	64.919495 
4250.000000	64.888668 
4249.000000	64.870524 
4248.000000	64.865589 
4247.000000	64.873433 
4246.000000	64.892768 
4245.000000	64.920997 
4244.000000	64.954900 
4243.000000	64.990210 
4242.000000	65.022897 
4241.000000	65.049052 
4240.000000	65.066409 
4239.000000	65.074396 
4238.000000	65.074133 
4237.000000	65.068483 
4236.000000	65.060520 
4235.000000	65.053105 
4234.000000	65.047383 
4233.000000	65.042805 
4232.000000	65.037178 
4231.000000	65.027689 
4230.000000	65.012049 
4229.000000	64.989757 
4228.000000	64.962887 
4227.000000	64.935922 
4226.000000	64.914727 
4225.000000	64.904928 
4224.000000	64.909958 
4223.000000	64.929866 
4222.000000	64.960956 
4221.000000	64.997100 
4220.000000	65.030956 
4219.000000	65.056490 
4218.000000	65.070533 
4217.000000	65.073704 
4216.000000	65.069913 
4215.000000	65.065073 
4214.000000	65.064835 
4213.000000	65.072894 
4212.000000	65.090346 
4211.000000	65.115141 
4210.000000	65.142846 
4209.000000	65.168070 
4208.000000	65.186667 
4207.000000	65.196228 
4206.000000	65.196681 
4205.000000	65.189814 
4204.000000	65.178656 
4203.000000	65.166115 
4202.000000	65.154242 
4201.000000	65.144133 
4200.000000	65.136003 
4199.000000	65.130209 
4198.000000	65.127515 
4197.000000	65.129280 
4196.000000	65.136981 
4195.000000	65.151762 
4194.000000	65.173554 
4193.000000	65.200543 
4192.000000	65.229105 
4191.000000	65.254187 
4190.000000	65.270304 
4189.000000	65.272998 
4188.000000	65.259385 
4187.000000	65.229177 
4186.000000	65.183997 
4185.000000	65.127182 
4184.000000	65.062427 
4183.000000	64.993405 
4182.000000	64.922785 
4181.000000	64.852237 
4180.000000	64.782762 
4179.000000	64.715528 
4178.000000	64.652252 
4177.000000	64.595603 
4176.000000	64.549088 
4175.000000	64.516329 
4174.000000	64.500570 
4173.000000	64.503645 
4172.000000	64.525556 
4171.000000	64.563870 
4170.000000	64.613819 
4169.000000	64.669108 
4168.000000	64.722537 
4167.000000	64.767360 
4166.000000	64.798045 
4165.000000	64.811491 
4164.000000	64.807128 
4163.000000	64.787340 
4162.000000	64.756965 
4161.000000	64.722537 
4160.000000	64.691352 
4159.000000	64.669704 
4158.000000	64.661931 
4157.000000	64.669466 
4156.000000	64.690876 
4155.000000	64.721894 
4154.000000	64.756655 
4153.000000	64.788985 
4152.000000	64.814043 
4151.000000	64.829325 
4150.000000	64.834594 
4149.000000	64.832258 
4148.000000	64.826369 
4147.000000	64.821457 
4146.000000	64.821124 
4145.000000	64.827442 
4144.000000	64.840435 
4143.000000	64.858269 
4142.000000	64.877820 
4141.000000	64.895844 
4140.000000	64.909625 
4139.000000	64.917755 
4138.000000	64.920306 
4137.000000	64.918446 
4136.000000	64.914131 
4135.000000	64.909386 
4134.000000	64.906144 
4133.000000	64.905500 
4132.000000	64.907836 
4131.000000	64.913225 
4130.000000	64.921498 
4129.000000	64.932489 
4128.000000	64.946174 
4127.000000	64.962601 
4126.000000	64.981579 
4125.000000	65.002250 
4124.000000	65.023255 
4123.000000	65.042734 
4122.000000	65.058493 
4121.000000	65.068483 
4120.000000	65.071344 
4119.000000	65.066885 
4118.000000	65.056109 
4117.000000	65.041089 
4116.000000	65.024638 
4115.000000	65.009737 
4114.000000	64.998888 
4113.000000	64.993596 
4112.000000	64.994096 
4111.000000	64.999365 
4110.000000	65.007615 
4109.000000	65.016698 
4108.000000	65.024900 
4107.000000	65.031027 
4106.000000	65.034627 
4105.000000	65.035605 
4104.000000	65.033864 
4103.000000	65.029048 
4102.000000	65.020346 
4101.000000	65.006732 
4100.000000	64.987373 
4099.000000	64.962267 
4098.000000	64.932608 
4097.000000	64.900755 
4096.000000	64.870142 
4095.000000	64.844202 
4094.000000	64.825820 
4093.000000	64.816379 
4092.000000	64.815640 
4091.000000	64.821624 
4090.000000	64.831328 
4089.000000	64.841866 
4088.000000	64.851307 
4087.000000	64.859247 
4086.000000	64.866852 
4085.000000	64.876174 
4084.000000	64.889430 
4083.000000	64.907860 
4082.000000	64.931058 
4081.000000	64.956784 
4080.000000	64.981532 
4079.000000	65.001606 
4078.000000	65.013718 
4077.000000	65.016317 
4076.000000	65.009450 
4075.000000	64.995074 
4074.000000	64.976167 
4073.000000	64.956021 
4072.000000	64.937281 
4071.000000	64.921474 
4070.000000	64.908719 
4069.000000	64.898085 
4068.000000	64.888286 
4067.000000	64.878416 
4066.000000	64.868259 
4065.000000	64.858317 
4064.000000	64.849615 
4063.000000	64.843344 
4062.000000	64.840078 
4061.000000	64.839529 
4060.000000	64.840412 
4059.000000	64.841032 
4058.000000	64.839792 
4057.000000	64.836120 
4056.000000	64.830565 
4055.000000	64.824700 
4054.000000	64.821004 
4053.000000	64.821815 
4052.000000	64.828443 
4051.000000	64.840459 
4050.000000	64.855623 
4049.000000	64.870405 
4048.000000	64.880418 
4047.000000	64.882254 
4046.000000	64.874553 
4045.000000	64.858770 
4044.000000	64.838552 
4043.000000	64.819502 
4042.000000	64.807558 
4041.000000	64.807629 
4040.000000	64.822316 
4039.000000	64.851069 
4038.000000	64.890336 
4037.000000	64.934515 
4036.000000	64.977169 
4035.000000	65.012121 
4034.000000	65.034818 
4033.000000	65.042901 
4032.000000	65.036559 
4031.000000	65.017914 
4030.000000	64.990472 
4029.000000	64.958548 
4028.000000	64.926075 
4027.000000	64.896726 
4026.000000	64.872527 
4025.000000	64.854812 
4024.000000	64.843106 
4023.000000	64.835715 
4022.000000	64.829659 
4021.000000	64.821434 
4020.000000	64.808082 
4019.000000	64.787364 
4018.000000	64.759349 
4017.000000	64.725804 
4016.000000	64.690876 
4015.000000	64.659786 
4014.000000	64.638280 
4013.000000	64.630770 
4012.000000	64.639759 
4011.000000	64.665150 
4010.000000	64.704203 
4009.000000	64.752244 
4008.000000	64.803600 
4007.000000	64.852929 
4006.000000	64.896154 
4005.000000	64.931178 
4004.000000	64.957690 
4003.000000	64.977192 
4002.000000	64.991641 
4001.000000	65.003275 
4000.000000	65.013861 
3999.000000	65.024375 
3998.000000	65.035510 
3997.000000	65.047311 
3996.000000	65.059804 
3995.000000	65.072989 
3994.000000	65.087270 
3993.000000	65.103054 
3992.000000	65.120649 
3991.000000	65.139937 
3990.000000	65.160107 
3989.000000	65.179538 
3988.000000	65.196108 
3987.000000	65.207314 
3986.000000	65.210962 
3985.000000	65.205645 
3984.000000	65.191340 
3983.000000	65.169477 
3982.000000	65.142869 
3981.000000	65.115380 
3980.000000	65.090966 
3979.000000	65.073013 
3978.000000	65.063476 
3977.000000	65.062546 
3976.000000	65.068578 
3975.000000	65.078186 
3974.000000	65.087532 
3973.000000	65.093064 
3972.000000	65.092778 
3971.000000	65.086150 
3970.000000	65.074467 
3969.000000	65.060400 
3968.000000	65.047097 
3967.000000	65.037083 
3966.000000	65.031695 
3965.000000	65.030479 
3964.000000	65.031313 
3963.000000	65.031480 
3962.000000	65.027904 
3961.000000	65.018296 
3960.000000	65.001726 
3959.000000	64.979004 
3958.000000	64.952135 
3957.000000	64.923930 
3956.000000	64.897251 
3955.000000	64.874386 
3954.000000	64.857149 
3953.000000	64.846396 
3952.000000	64.842581 
3951.000000	64.845657 
3950.000000	64.855098 
3949.000000	64.869856 
3948.000000	64.888286 
3947.000000	64.908123 
3946.000000	64.926648 
3945.000000	64.941287 
3944.000000	64.949512 
3943.000000	64.950180 
3942.000000	64.943504 
3941.000000	64.931654 
3940.000000	64.918112 
3939.000000	64.907860 
3938.000000	64.905929 
3937.000000	64.916801 
3936.000000	64.943075 
3935.000000	64.985060 
3934.000000	65.040659 
3933.000000	65.105533 
3932.000000	65.174102 
3931.000000	65.240430 
3930.000000	65.299391 
3929.000000	65.347552 
3928.000000	65.383529 
3927.000000	65.407919 
3926.000000	65.422558 
3925.000000	65.430164 
3924.000000	65.433001 
3923.000000	65.432500 
3922.000000	65.428566 
3921.000000	65.420460 
3920.000000	65.406799 
3919.000000	65.386939 
3918.000000	65.360832 
3917.000000	65.330052 
3916.000000	65.297079 
3915.000000	65.264940 
3914.000000	65.236306 
3913.000000	65.212702 
3912.000000	65.194416 
3911.000000	65.180110 
3910.000000	65.167546 
3909.000000	65.154218 
3908.000000	65.138268 
3907.000000	65.119075 
3906.000000	65.097188 
3905.000000	65.074300 
3904.000000	65.052676 
3903.000000	65.034556 
3902.000000	65.021491 
3901.000000	65.014052 
3900.000000	65.012097 
3899.000000	65.015029 
3898.000000	65.022015 
3897.000000	65.032362 
3896.000000	65.045547 
3895.000000	65.061306 
3894.000000	65.079116 
3893.000000	65.098190 
3892.000000	65.117096 
3891.000000	65.134406 
3890.000000	65.148591 
3889.000000	65.159010 
3888.000000	65.165829 
3887.000000	65.170335 
3886.000000	65.174698 
3885.000000	65.181112 
3884.000000	65.191054 
3883.000000	65.204739 
3882.000000	65.221095 
3881.000000	65.237808 
3880.000000	65.252184 
3879.000000	65.261769 
3878.000000	65.265202 
3877.000000	65.262722 
3876.000000	65.255928 
3875.000000	65.247201 
3874.000000	65.239071 
3873.000000	65.233778 
3872.000000	65.232896 
3871.000000	65.236949 
3870.000000	65.245723 
3869.000000	65.258669 
3868.000000	65.274953 
3867.000000	65.294051 
3866.000000	65.315389 
3865.000000	65.338158 
3864.000000	65.361452 
3863.000000	65.383529 
3862.000000	65.402388 
3861.000000	65.416073 
3860.000000	65.423011 
3859.000000	65.422606 
3858.000000	65.415167 
3857.000000	65.402603 
3856.000000	65.387082 
3855.000000	65.371227 
3854.000000	65.356731 
3853.000000	65.344357 
3852.000000	65.333271 
3851.000000	65.321516 
3850.000000	65.306162 
3849.000000	65.284228 
3848.000000	65.253424 
3847.000000	65.213012 
3846.000000	65.164160 
3845.000000	65.110015 
3844.000000	65.055274 
3843.000000	65.005373 
3842.000000	64.965510 
3841.000000	64.939832 
3840.000000	64.930510 
3839.000000	64.937424 
3838.000000	64.958333 
3837.000000	64.989185 
3836.000000	65.024495 
3835.000000	65.058612 
3834.000000	65.086507 
3833.000000	65.104508 
3832.000000	65.110540 
3831.000000	65.104579 
3830.000000	65.088248 
3829.000000	65.064835 
3828.000000	65.038251 
3827.000000	65.012836 
3826.000000	64.992618 
3825.000000	64.980816 
3824.000000	64.979553 
3823.000000	64.989423 
3822.000000	65.009498 
3821.000000	65.037655 
3820.000000	65.070891 
3819.000000	65.105772 
3818.000000	65.138816 
3817.000000	65.167379 
3816.000000	65.189552 
3815.000000	65.203881 
3814.000000	65.209174 
3813.000000	65.205025 
3812.000000	65.191483 
3811.000000	65.169095 
3810.000000	65.138792 
3809.000000	65.102624 
3808.000000	65.063118 
3807.000000	65.023684 
3806.000000	64.987754 
3805.000000	64.958310 
3804.000000	64.937233 
3803.000000	64.925026 
3802.000000	64.920473 
3801.000000	64.920759 
3800.000000	64.922285 
3799.000000	64.921593 
3798.000000	64.916181 
3797.000000	64.904975 
3796.000000	64.888858 
3795.000000	64.870381 
3794.000000	64.853549 
3793.000000	64.843034 
3792.000000	64.843797 
3791.000000	64.860010 
3790.000000	64.894437 
3789.000000	64.947319 
3788.000000	65.016055 
3787.000000	65.094637 
3786.000000	65.174770 
3785.000000	65.246772 
3784.000000	65.301418 
3783.000000	65.331745 
3782.000000	65.334606 
3781.000000	65.311288 
3780.000000	65.267348 
3779.000000	65.211105 
3778.000000	65.152597 
3777.000000	65.100431 
3776.000000	65.060734 
3775.000000	65.035510 
3774.000000	65.023350 
3773.000000	65.020060 
3772.000000	65.020751 
3771.000000	65.021157 
3770.000000	65.019011 
3769.000000	65.014338 
3768.000000	65.009164 
3767.000000	65.006303 
3766.000000	65.008258 
3765.000000	65.016603 
3764.000000	65.031409 
3763.000000	65.051698 
3762.000000	65.075516 
3761.000000	65.100598 
3760.000000	65.125012 
3759.000000	65.147328 
3758.000000	65.166997 
3757.000000	65.184497 
3756.000000	65.200710 
3755.000000	65.216660 
3754.000000	65.233016 
3753.000000	65.250277 
3752.000000	65.267872 
3751.000000	65.284848 
3750.000000	65.298891 
3749.000000	65.307641 
3748.000000	65.308213 
3747.000000	65.298438 
3746.000000	65.276765 
3745.000000	65.243029 
3744.000000	65.198588 
3743.000000	65.146660 
3742.000000	65.091538 
3741.000000	65.037989 
3740.000000	64.990711 
3739.000000	64.953613 
3738.000000	64.929533 
3737.000000	64.919900 
3736.000000	64.924740 
3735.000000	64.942860 
3734.000000	64.971685 
3733.000000	65.008044 
3732.000000	65.047693 
3731.000000	65.086436 
3730.000000	65.120530 
3729.000000	65.147256 
3728.000000	65.164732 
3727.000000	65.172576 
3726.000000	65.171480 
3725.000000	65.163064 
3724.000000	65.149378 
3723.000000	65.132617 
3722.000000	65.114784 
3721.000000	65.097212 
3720.000000	65.081000 
3719.000000	65.066552 
3718.000000	65.054297 
3717.000000	65.044522 
3716.000000	65.037775 
3715.000000	65.034866 
3714.000000	65.036773 
3713.000000	65.044426 
3712.000000	65.058517 
3711.000000	65.079045 
3710.000000	65.104913 
3709.000000	65.134167 
3708.000000	65.163826 
3707.000000	65.190052 
3706.000000	65.208911 
3705.000000	65.217018 
3704.000000	65.212392 
3703.000000	65.195083 
3702.000000	65.167379 
3701.000000	65.133428 
3700.000000	65.098381 
3699.000000	65.067529 
3698.000000	65.044665 
3697.000000	65.031528 
3696.000000	65.027594 
3695.000000	65.030384 
3694.000000	65.036273 
3693.000000	65.041542 
3692.000000	65.043425 
3691.000000	65.040469 
3690.000000	65.032935 
3689.000000	65.022492 
3688.000000	65.011429 
3687.000000	65.001940 
3686.000000	64.995479 
3685.000000	64.992380 
3684.000000	64.992046 
3683.000000	64.993238 
3682.000000	64.994621 
3681.000000	64.995098 
3680.000000	64.994359 
3679.000000	64.993095 
3678.000000	64.992189 
3677.000000	64.992928 
3676.000000	64.996623 
3675.000000	65.004229 
3674.000000	65.015959 
3673.000000	65.031218 
3672.000000	65.048432 
3671.000000	65.065550 
3670.000000	65.080571 
3669.000000	65.091800 
3668.000000	65.098333 
3667.000000	65.100431 
3666.000000	65.099596 
3665.000000	65.097928 
3664.000000	65.097498 
3663.000000	65.099835 
3662.000000	65.105342 
3661.000000	65.113329 
3660.000000	65.122079 
3659.000000	65.129399 
3658.000000	65.133023 
3657.000000	65.131163 
3656.000000	65.123057 
3655.000000	65.108847 
3654.000000	65.089702 
3653.000000	65.067362 
3652.000000	65.043973 
3651.000000	65.021419 
3650.000000	65.001606 
3649.000000	64.986133 
3648.000000	64.976549 
3647.000000	64.974021 
3646.000000	64.979481 
3645.000000	64.993190 
3644.000000	65.014886 
3643.000000	65.043306 
3642.000000	65.076446 
3641.000000	65.111708 
3640.000000	65.146112 
3639.000000	65.176963 
3638.000000	65.201759 
3637.000000	65.218782 
3636.000000	65.226936 
3635.000000	65.226054 
3634.000000	65.216493 
3633.000000	65.199112 
3632.000000	65.175390 
3631.000000	65.147066 
3630.000000	65.116047 
3629.000000	65.084433 
3628.000000	65.054321 
3627.000000	65.027546 
3626.000000	65.005588 
3625.000000	64.989352 
3624.000000	64.979052 
3623.000000	64.974188 
3622.000000	64.973688 
3621.000000	64.976167 
3620.000000	64.980363 
3619.000000	64.985322 
3618.000000	64.990735 
3617.000000	64.996910 
3616.000000	65.004396 
3615.000000	65.014100 
3614.000000	65.026617 
3613.000000	65.042114 
3612.000000	65.059924 
3611.000000	65.078711 
3610.000000	65.096592 
3609.000000	65.111589 
3608.000000	65.121912 
3607.000000	65.126657 
3606.000000	65.125727 
3605.000000	65.119957 
3604.000000	65.110850 
3603.000000	65.100193 
3602.000000	65.089464 
3601.000000	65.079760 
3600.000000	65.071606 
3599.000000	65.064978 
3598.000000	65.059471 
3597.000000	65.054869 
3596.000000	65.050935 
3595.000000	65.047669 
3594.000000	65.044999 
3593.000000	65.042710 
3592.000000	65.040302 
3591.000000	65.036940 
3590.000000	65.031623 
3589.000000	65.023398 
3588.000000	65.011954 
3587.000000	64.997768 
3586.000000	64.982247 
3585.000000	64.967489 
3584.000000	64.955806 
3583.000000	64.949250 
3582.000000	64.948916 
3581.000000	64.954638 
3580.000000	64.965271 
3579.000000	64.978933 
3578.000000	64.993619 
3577.000000	65.007591 
3576.000000	65.019989 
3575.000000	65.030908 
3574.000000	65.041136 
3573.000000	65.051722 
3572.000000	65.063619 
3571.000000	65.076923 
3570.000000	65.091204 
3569.000000	65.105223 
3568.000000	65.117549 
3567.000000	65.126514 
3566.000000	65.131235 
3565.000000	65.131688 
3564.000000	65.128636 
3563.000000	65.123629 
3562.000000	65.118432 
3561.000000	65.114665 
3560.000000	65.113496 
3559.000000	65.115165 
3558.000000	65.119218 
3557.000000	65.124130 
3556.000000	65.128016 
3555.000000	65.128684 
3554.000000	65.124297 
3553.000000	65.113687 
3552.000000	65.096735 
3551.000000	65.074396 
3550.000000	65.048742 
3549.000000	65.022706 
3548.000000	64.999651 
3547.000000	64.982771 
3546.000000	64.974451 
3545.000000	64.976096 
3544.000000	64.987587 
3543.000000	65.007185 
3542.000000	65.031886 
3541.000000	65.057849 
3540.000000	65.081191 
3539.000000	65.098357 
3538.000000	65.107226 
3537.000000	65.106844 
3536.000000	65.097951 
3535.000000	65.082359 
3534.000000	65.062713 
3533.000000	65.041899 
3532.000000	65.022277 
3531.000000	65.005707 
3530.000000	64.992856 
3529.000000	64.983463 
3528.000000	64.976716 
3527.000000	64.971756 
3526.000000	64.968109 
3525.000000	64.966082 
3524.000000	64.966511 
3523.000000	64.970612 
3522.000000	64.979243 
3521.000000	64.992451 
3520.000000	65.009045 
3519.000000	65.026855 
3518.000000	65.043282 
3517.000000	65.055871 
3516.000000	65.063238 
3515.000000	65.065360 
3514.000000	65.063428 
3513.000000	65.059781 
3512.000000	65.056991 
3511.000000	65.057325 
3510.000000	65.062093 
3509.000000	65.071415 
3508.000000	65.084338 
3507.000000	65.099334 
3506.000000	65.114808 
3505.000000	65.129494 
3504.000000	65.142893 
3503.000000	65.154957 
3502.000000	65.165877 
3501.000000	65.175867 
3500.000000	65.184831 
3499.000000	65.192556 
3498.000000	65.198516 
3497.000000	65.202522 
3496.000000	65.204620 
3495.000000	65.205335 
3494.000000	65.205311 
3493.000000	65.205216 
3492.000000	65.205311 
3491.000000	65.205550 
3490.000000	65.205478 
3489.000000	65.204381 
3488.000000	65.201663 
3487.000000	65.197157 
3486.000000	65.190958 
3485.000000	65.183854 
3484.000000	65.176606 
3483.000000	65.169906 
3482.000000	65.164041 
3481.000000	65.158653 
3480.000000	65.153145 
3479.000000	65.146899 
3478.000000	65.139389 
3477.000000	65.130662 
3476.000000	65.121293 
3475.000000	65.112304 
3474.000000	65.104722 
3473.000000	65.099024 
3472.000000	65.095281 
3471.000000	65.093016 
3470.000000	65.091252 
3469.000000	65.088820 
3468.000000	65.084958 
3467.000000	65.079426 
3466.000000	65.072679 
3465.000000	65.065765 
3464.000000	65.060281 
3463.000000	65.057849 
3462.000000	65.059804 
3461.000000	65.066957 
3460.000000	65.079402 
3459.000000	65.096497 
3458.000000	65.117216 
3457.000000	65.139770 
3456.000000	65.161991 
3455.000000	65.181541 
3454.000000	65.196275 
3453.000000	65.204453 
3452.000000	65.204977 
3451.000000	65.197587 
3450.000000	65.183234 
3449.000000	65.163469 
3448.000000	65.140509 
3447.000000	65.116596 
3446.000000	65.093684 
3445.000000	65.072965 
3444.000000	65.055012 
3443.000000	65.039539 
3442.000000	65.025854 
3441.000000	65.013170 
3440.000000	65.000700 
3439.000000	64.988017 
3438.000000	64.974999 
3437.000000	64.961600 
3436.000000	64.947915 
3435.000000	64.933562 
3434.000000	64.918494 
3433.000000	64.902710 
3432.000000	64.886999 
3431.000000	64.872622 
3430.000000	64.861679 
3429.000000	64.856624 
3428.000000	64.859914 
3427.000000	64.873003 
3426.000000	64.896154 
3425.000000	64.927840 
3424.000000	64.964985 
3423.000000	65.003061 
3422.000000	65.037035 
3421.000000	65.062212 
3420.000000	65.075206 
3419.000000	65.074658 
3418.000000	65.061521 
3417.000000	65.038800 
3416.000000	65.011072 
3415.000000	64.983558 
3414.000000	64.961099 
3413.000000	64.947104 
3412.000000	64.943218 
3411.000000	64.948868 
3410.000000	64.961457 
3409.000000	64.976859 
3408.000000	64.990472 
3407.000000	64.998126 
3406.000000	64.996790 
3405.000000	64.985227 
3404.000000	64.964246 
3403.000000	64.936470 
3402.000000	64.905524 
3401.000000	64.875483 
3400.000000	64.850139 
3399.000000	64.832353 
3398.000000	64.823842 
3397.000000	64.825034 
3396.000000	64.835095 
3395.000000	64.852213 
3394.000000	64.874100 
3393.000000	64.898228 
3392.000000	64.922046 
3391.000000	64.943480 
3390.000000	64.961147 
3389.000000	64.974188 
3388.000000	64.982366 
3387.000000	64.986157 
3386.000000	64.986467 
3385.000000	64.984560 
3384.000000	64.981889 
3383.000000	64.979839 
3382.000000	64.979743 
3381.000000	64.983010 
3380.000000	64.990901 
3379.000000	65.004563 
3378.000000	65.024685 
3377.000000	65.051388 
3376.000000	65.083527 
3375.000000	65.118694 
3374.000000	65.153145 
3373.000000	65.182447 
3372.000000	65.202260 
3371.000000	65.209364 
3370.000000	65.202736 
3369.000000	65.184068 
3368.000000	65.157413 
3367.000000	65.128564 
3366.000000	65.103530 
3365.000000	65.087080 
3364.000000	65.081381 
3363.000000	65.085458 
3362.000000	65.095376 
3361.000000	65.105414 
3360.000000	65.109825 
3359.000000	65.104413 
3358.000000	65.087795 
3357.000000	65.061736 
3356.000000	65.030527 
3355.000000	64.999938 
3354.000000	64.975285 
3353.000000	64.960455 
3352.000000	64.956998 
3351.000000	64.964342 
3350.000000	64.980077 
3349.000000	65.000987 
3348.000000	65.024161 
3347.000000	65.047478 
3346.000000	65.069651 
3345.000000	65.090179 
3344.000000	65.108942 
3343.000000	65.125584 
3342.000000	65.139174 
3341.000000	65.148472 
3340.000000	65.152454 
3339.000000	65.150880 
3338.000000	65.144586 
3337.000000	65.135550 
3336.000000	65.126657 
3335.000000	65.120983 
3334.000000	65.121102 
3333.000000	65.128493 
3332.000000	65.142965 
3331.000000	65.162920 
3330.000000	65.185809 
3329.000000	65.208506 
3328.000000	65.228033 
3327.000000	65.242147 
3326.000000	65.249490 
3325.000000	65.249657 
3324.000000	65.243053 
3323.000000	65.230774 
3322.000000	65.213894 
3321.000000	65.193605 
3320.000000	65.170955 
3319.000000	65.147137 
3318.000000	65.123391 
3317.000000	65.101265 
3316.000000	65.082240 
3315.000000	65.067648 
3314.000000	65.058493 
3313.000000	65.055131 
3312.000000	65.057277 
3311.000000	65.063643 
3310.000000	65.072512 
3309.000000	65.081691 
3308.000000	65.089082 
3307.000000	65.092968 
3306.000000	65.092301 
3305.000000	65.086722 
3304.000000	65.076637 
3303.000000	65.062785 
3302.000000	65.046143 
3301.000000	65.027737 
3300.000000	65.008306 
3299.000000	64.988756 
3298.000000	64.969897 
3297.000000	64.952993 
3296.000000	64.939212 
3295.000000	64.929986 
3294.000000	64.926433 
3293.000000	64.929294 
3292.000000	64.938402 
3291.000000	64.952707 
3290.000000	64.970231 
3289.000000	64.988541 
3288.000000	65.005159 
3287.000000	65.018153 
3286.000000	65.026140 
3285.000000	65.028858 
3284.000000	65.027213 
3283.000000	65.022587 
3282.000000	65.016674 
3281.000000	65.010929 
3280.000000	65.006327 
3279.000000	65.003085 
3278.000000	65.000700 
3277.000000	64.998316 
3276.000000	64.994764 
3275.000000	64.988970 
3274.000000	64.980077 
3273.000000	64.967584 
3272.000000	64.951872 
3271.000000	64.933562 
3270.000000	64.913988 
3269.000000	64.894652 
3268.000000	64.877510 
3267.000000	64.864039 
3266.000000	64.855837 
3265.000000	64.853763 
3264.000000	64.858627 
3263.000000	64.870738 
3262.000000	64.890098 
3261.000000	64.916205 
3260.000000	64.948105 
3259.000000	64.984202 
3258.000000	65.022110 
3257.000000	65.058827 
3256.000000	65.090990 
3255.000000	65.115237 
3254.000000	65.128779 
3253.000000	65.129947 
3252.000000	65.118813 
3251.000000	65.097308 
3250.000000	65.068840 
3249.000000	65.037918 
3248.000000	65.009260 
3247.000000	64.986872 
3246.000000	64.973425 
3245.000000	64.969873 
3244.000000	64.975762 
3243.000000	64.989185 
3242.000000	65.007829 
3241.000000	65.028905 
3240.000000	65.049862 
3239.000000	65.068578 
3238.000000	65.083265 
3237.000000	65.092825 
3236.000000	65.096569 
3235.000000	65.094447 
3234.000000	65.087080 
3233.000000	65.075850 
3232.000000	65.062689 
3231.000000	65.049743 
3230.000000	65.039181 
3229.000000	65.032553 
3228.000000	65.030574 
3227.000000	65.032505 
3226.000000	65.036392 
3225.000000	65.039658 
3224.000000	65.039587 
3223.000000	65.033864 
3222.000000	65.021491 
3221.000000	65.002727 
3220.000000	64.979553 
3219.000000	64.954996 
3218.000000	64.932847 
3217.000000	64.916658 
3216.000000	64.909386 
3215.000000	64.912676 
3214.000000	64.926552 
3213.000000	64.949369 
3212.000000	64.978289 
3211.000000	65.009570 
3210.000000	65.039420 
3209.000000	65.064787 
3208.000000	65.083694 
3207.000000	65.095305 
3206.000000	65.100073 
3205.000000	65.099310 
3204.000000	65.094685 
3203.000000	65.087723 
3202.000000	65.079474 
3201.000000	65.070319 
3200.000000	65.060305 
3199.000000	65.049362 
3198.000000	65.037822 
3197.000000	65.026593 
3196.000000	65.017175 
3195.000000	65.011382 
3194.000000	65.010714 
3193.000000	65.015888 
3192.000000	65.026354 
3191.000000	65.040302 
3190.000000	65.055131 
3189.000000	65.068078 
3188.000000	65.076780 
3187.000000	65.079784 
3186.000000	65.076828 
3185.000000	65.068578 
3184.000000	65.056538 
3183.000000	65.042567 
3182.000000	65.028214 
3181.000000	65.014863 
3180.000000	65.003228 
3179.000000	64.993739 
3178.000000	64.986562 
3177.000000	64.981865 
3176.000000	64.979863 
3175.000000	64.980626 
3174.000000	64.983940 
3173.000000	64.989089 
3172.000000	64.994955 
3171.000000	64.999794 
3170.000000	65.001869 
3169.000000	64.999580 
3168.000000	64.991998 
3167.000000	64.979171 
3166.000000	64.962220 
3165.000000	64.943146 
3164.000000	64.924716 
3163.000000	64.909815 
3162.000000	64.901232 
3161.000000	64.900755 
3160.000000	64.909219 
3159.000000	64.925956 
3158.000000	64.949250 
3157.000000	64.976429 
3156.000000	65.004467 
3155.000000	65.030527 
3154.000000	65.052533 
3153.000000	65.069413 
3152.000000	65.081191 
3151.000000	65.088748 
3150.000000	65.093564 
3149.000000	65.097236 
3148.000000	65.100908 
3147.000000	65.104746 
3146.000000	65.108036 
3145.000000	65.109467 
3144.000000	65.107250 
3143.000000	65.099644 
3142.000000	65.085601 
3141.000000	65.064978 
3140.000000	65.038561 
3139.000000	65.008044 
3138.000000	64.975666 
3137.000000	64.944148 
3136.000000	64.915990 
3135.000000	64.893603 
3134.000000	64.878606 
3133.000000	64.872074 
3132.000000	64.874148 
3131.000000	64.884090 
3130.000000	64.900445 
3129.000000	64.921259 
3128.000000	64.944100 
3127.000000	64.966893 
3126.000000	64.987492 
3125.000000	65.004754 
3124.000000	65.018296 
3123.000000	65.028691 
3122.000000	65.036725 
3121.000000	65.043473 
3120.000000	65.049958 
3119.000000	65.056800 
3118.000000	65.064167 
3117.000000	65.071940 
3116.000000	65.079903 
3115.000000	65.088033 
3114.000000	65.096330 
3113.000000	65.104770 
3112.000000	65.113162 
3111.000000	65.120887 
3110.000000	65.127062 
3109.000000	65.130519 
3108.000000	65.130496 
3107.000000	65.126752 
3106.000000	65.119910 
3105.000000	65.111613 
3104.000000	65.104055 
3103.000000	65.099763 
3102.000000	65.100407 
3101.000000	65.106511 
3100.000000	65.116691 
3099.000000	65.128159 
3098.000000	65.137171 
3097.000000	65.140151 
3096.000000	65.134382 
3095.000000	65.119051 
3094.000000	65.095162 
3093.000000	65.065550 
3092.000000	65.034031 
3091.000000	65.004420 
3090.000000	64.979934 
3089.000000	64.962506 
3088.000000	64.952635 
3087.000000	64.949631 
3086.000000	64.951872 
3085.000000	64.957571 
3084.000000	64.964890 
3083.000000	64.972543 
3082.000000	64.979791 
3081.000000	64.986515 
3080.000000	64.992499 
3079.000000	64.997839 
3078.000000	65.002632 
3077.000000	65.006828 
3076.000000	65.010380 
3075.000000	65.013098 
3074.000000	65.014934 
3073.000000	65.015888 
3072.000000	65.016174 
3071.000000	65.015983 
3070.000000	65.015697 
3069.000000	65.015935 
3068.000000	65.017294 
3067.000000	65.020322 
3066.000000	65.025186 
3065.000000	65.031909 
3064.000000	65.040230 
3063.000000	65.049672 
3062.000000	65.059590 
3061.000000	65.069484 
3060.000000	65.078926 
3059.000000	65.087532 
3058.000000	65.094709 
3057.000000	65.099859 
3056.000000	65.102005 
3055.000000	65.100193 
3054.000000	65.093135 
3053.000000	65.079927 
3052.000000	65.059757 
3051.000000	65.032649 
3050.000000	64.999485 
3049.000000	64.961934 
3048.000000	64.922618 
3047.000000	64.884638 
3046.000000	64.851427 
3045.000000	64.826011 
3044.000000	64.811038 
3043.000000	64.808082 
3042.000000	64.817714 
3041.000000	64.839291 
3040.000000	64.871215 
3039.000000	64.911103 
3038.000000	64.956116 
3037.000000	65.003156 
3036.000000	65.049171 
3035.000000	65.091061 
3034.000000	65.126204 
3033.000000	65.152359 
3032.000000	65.167760 
3031.000000	65.171241 
3030.000000	65.162730 
3029.000000	65.143013 
3028.000000	65.114212 
3027.000000	65.079140 
3026.000000	65.041661 
3025.000000	65.005254 
3024.000000	64.973092 
3023.000000	64.947032 
3022.000000	64.927697 
3021.000000	64.914464 
3020.000000	64.905714 
3019.000000	64.899468 
3018.000000	64.894127 
3017.000000	64.888978 
3016.000000	64.883971 
3015.000000	64.880251 
3014.000000	64.879417 
3013.000000	64.883232 
3012.000000	64.892911 
3011.000000	64.909052 
3010.000000	64.931130 
3009.000000	64.957833 
3008.000000	64.986991 
3007.000000	65.015983 
3006.000000	65.041899 
3005.000000	65.062332 
3004.000000	65.075349 
3003.000000	65.079641 
3002.000000	65.074777 
3001.000000	65.061569 
3000.000000	65.041828 
2999.000000	65.018272 
2998.000000	64.994001 
2997.000000	64.972043 
2996.000000	64.954853 
2995.000000	64.944171 
2994.000000	64.940261 
2993.000000	64.942288 
2992.000000	64.948534 
2991.000000	64.956879 
2990.000000	64.965200 
2989.000000	64.971542 
2988.000000	64.974808 
2987.000000	64.974808 
2986.000000	64.972090 
2985.000000	64.967799 
2984.000000	64.963269 
2983.000000	64.959669 
2982.000000	64.957594 
2981.000000	64.956521 
2980.000000	64.955353 
2979.000000	64.952254 
2978.000000	64.945125 
2977.000000	64.932084 
2976.000000	64.912128 
2975.000000	64.885234 
2974.000000	64.852881 
2973.000000	64.817404 
2972.000000	64.781928 
2971.000000	64.749455 
2970.000000	64.722204 
2969.000000	64.701366 
2968.000000	64.686822 
2967.000000	64.677715 
2966.000000	64.672446 
2965.000000	64.669847 
2964.000000	64.669203 
2963.000000	64.670991 
2962.000000	64.676284 
2961.000000	64.686560 
2960.000000	64.702868 
2959.000000	64.725399 
2958.000000	64.753103 
2957.000000	64.783835 
2956.000000	64.814782 
2955.000000	64.843082 
2954.000000	64.866685 
2953.000000	64.884829 
2952.000000	64.897871 
2951.000000	64.907193 
2950.000000	64.914560 
2949.000000	64.921617 
2948.000000	64.929223 
2947.000000	64.937615 
2946.000000	64.946198 
2945.000000	64.954590 
2944.000000	64.962339 
2943.000000	64.969539 
2942.000000	64.976739 
2941.000000	64.984798 
2940.000000	64.994382 
2939.000000	65.005517 
2938.000000	65.017557 
2937.000000	65.029048 
2936.000000	65.038418 
2935.000000	65.044236 
2934.000000	65.045809 
2933.000000	65.043401 
2932.000000	65.038013 
2931.000000	65.031218 
2930.000000	65.024375 
2929.000000	65.018248 
2928.000000	65.013027 
2927.000000	65.008258 
2926.000000	65.003085 
2925.000000	64.996671 
2924.000000	64.988732 
2923.000000	64.979529 
2922.000000	64.970040 
2921.000000	64.961624 
2920.000000	64.955639 
2919.000000	64.953136 
2918.000000	64.954566 
2917.000000	64.959692 
2916.000000	64.967656 
2915.000000	64.977121 
2914.000000	64.986610 
2913.000000	64.994597 
2912.000000	64.999794 
2911.000000	65.001153 
2910.000000	64.997863 
2909.000000	64.989471 
2908.000000	64.976024 
2907.000000	64.957952 
2906.000000	64.936161 
2905.000000	64.911937 
2904.000000	64.886736 
2903.000000	64.862036 
2902.000000	64.839220 
2901.000000	64.819502 
2900.000000	64.803814 
2899.000000	64.792799 
2898.000000	64.786911 
2897.000000	64.786314 
2896.000000	64.790964 
2895.000000	64.800596 
2894.000000	64.814758 
2893.000000	64.832615 
2892.000000	64.853000 
2891.000000	64.874458 
2890.000000	64.895439 
2889.000000	64.914083 
2888.000000	64.928746 
2887.000000	64.938139 
2886.000000	64.941453 
2885.000000	64.938354 
2884.000000	64.929080 
2883.000000	64.914679 
2882.000000	64.896464 
2881.000000	64.876174 
2880.000000	64.855599 
2879.000000	64.836430 
2878.000000	64.820194 
2877.000000	64.808130 
2876.000000	64.800977 
2875.000000	64.799094 
2874.000000	64.802336 
2873.000000	64.810204 
2872.000000	64.821863 
2871.000000	64.836382 
2870.000000	64.852881 
2869.000000	64.870572 
2868.000000	64.888668 
2867.000000	64.906525 
2866.000000	64.923501 
2865.000000	64.938807 
2864.000000	64.951539 
2863.000000	64.961123 
2862.000000	64.967513 
2861.000000	64.971303 
2860.000000	64.973735 
2859.000000	64.976501 
2858.000000	64.981651 
2857.000000	64.990615 
2856.000000	65.004014 
2855.000000	65.021038 
2854.000000	65.039658 
2853.000000	65.056729 
2852.000000	65.069007 
2851.000000	65.073537 
2850.000000	65.068745 
2849.000000	65.054678 
2848.000000	65.033292 
2847.000000	65.007805 
2846.000000	64.981865 
2845.000000	64.958977 
2844.000000	64.941525 
2843.000000	64.930558 
2842.000000	64.925670 
2841.000000	64.925503 
2840.000000	64.928102 
2839.000000	64.931416 
2838.000000	64.933776 
2837.000000	64.933919 
2836.000000	64.931344 
2835.000000	64.925932 
2834.000000	64.918112 
2833.000000	64.908123 
2832.000000	64.896512 
2831.000000	64.883852 
2830.000000	64.870786 
2829.000000	64.858126 
2828.000000	64.846920 
2827.000000	64.838457 
2826.000000	64.833950 
2825.000000	64.834332 
2824.000000	64.839887 
2823.000000	64.850211 
2822.000000	64.864134 
2821.000000	64.879894 
2820.000000	64.895486 
2819.000000	64.909005 
2818.000000	64.919161 
2817.000000	64.925479 
2816.000000	64.928436 
2815.000000	64.929246 
2814.000000	64.929723 
2813.000000	64.931392 
2812.000000	64.935278 
2811.000000	64.941525 
2810.000000	64.949369 
2809.000000	64.957356 
2808.000000	64.963960 
2807.000000	64.967679 
2806.000000	64.967751 
2805.000000	64.963960 
2804.000000	64.956665 
2803.000000	64.946603 
2802.000000	64.934587 
2801.000000	64.921522 
2800.000000	64.908218 
2799.000000	64.895558 
2798.000000	64.884543 
2797.000000	64.876294 
2796.000000	64.871835 
2795.000000	64.871859 
2794.000000	64.876651 
2793.000000	64.885544 
2792.000000	64.897179 
2791.000000	64.909482 
2790.000000	64.920330 
2789.000000	64.927864 
2788.000000	64.931201 
2787.000000	64.930582 
2786.000000	64.927244 
2785.000000	64.923000 
2784.000000	64.919614 
2783.000000	64.918375 
2782.000000	64.919662 
2781.000000	64.923048 
2780.000000	64.927196 
2779.000000	64.930725 
2778.000000	64.932012 
2777.000000	64.930152 
2776.000000	64.924788 
2775.000000	64.916110 
2774.000000	64.904952 
2773.000000	64.892530 
2772.000000	64.880061 
2771.000000	64.868783 
2770.000000	64.859557 
2769.000000	64.852905 
2768.000000	64.848899 
2767.000000	64.847326 
2766.000000	64.847660 
2765.000000	64.849066 
2764.000000	64.850568 
2763.000000	64.851450 
2762.000000	64.851355 
2761.000000	64.850354 
2760.000000	64.848947 
2759.000000	64.847946 
2758.000000	64.848184 
2757.000000	64.850068 
2756.000000	64.853620 
2755.000000	64.858293 
2754.000000	64.863085 
2753.000000	64.866900 
2752.000000	64.868927 
2751.000000	64.868640 
2750.000000	64.866185 
2749.000000	64.862084 
2748.000000	64.857339 
2747.000000	64.852762 
2746.000000	64.849090 
2745.000000	64.846658 
2744.000000	64.845442 
2743.000000	64.845085 
2742.000000	64.845275 
2741.000000	64.845728 
2740.000000	64.846372 
2739.000000	64.847159 
2738.000000	64.848160 
2737.000000	64.849328 
2736.000000	64.850687 
2735.000000	64.852333 
2734.000000	64.854598 
2733.000000	64.858007 
2732.000000	64.863204 
2731.000000	64.871025 
2730.000000	64.881920 
2729.000000	64.895844 
2728.000000	64.911890 
2727.000000	64.928340 
2726.000000	64.943099 
2725.000000	64.953994 
2724.000000	64.959359 
2723.000000	64.958524 
2722.000000	64.952158 
2721.000000	64.942121 
2720.000000	64.930939 
2719.000000	64.921188 
2718.000000	64.914846 
2717.000000	64.912867 
2716.000000	64.915180 
2715.000000	64.920830 
2714.000000	64.928507 
2713.000000	64.936876 
2712.000000	64.945077 
2711.000000	64.952731 
2710.000000	64.959692 
2709.000000	64.965987 
2708.000000	64.971542 
2707.000000	64.976024 
2706.000000	64.978814 
2705.000000	64.979338 
2704.000000	64.977240 
2703.000000	64.972710 
2702.000000	64.966654 
2701.000000	64.960336 
2700.000000	64.955258 
2699.000000	64.952802 
2698.000000	64.953947 
2697.000000	64.958882 
2696.000000	64.967179 
2695.000000	64.977884 
2694.000000	64.989805 
2693.000000	65.001726 
2692.000000	65.012574 
2691.000000	65.021491 
2690.000000	65.027809 
2689.000000	65.031003 
2688.000000	65.030765 
2687.000000	65.026903 
2686.000000	65.019369 
2685.000000	65.008425 
2684.000000	64.994502 
2683.000000	64.978384 
2682.000000	64.960956 
2681.000000	64.943099 
2680.000000	64.925718 
2679.000000	64.909482 
2678.000000	64.894890 
2677.000000	64.882349 
2676.000000	64.872384 
2675.000000	64.865660 
2674.000000	64.862918 
2673.000000	64.864921 
2672.000000	64.872336 
2671.000000	64.885234 
2670.000000	64.903235 
2669.000000	64.925217 
2668.000000	64.949440 
2667.000000	64.973783 
2666.000000	64.995789 
2665.000000	65.013146 
2664.000000	65.023922 
2663.000000	65.026879 
2662.000000	65.021538 
2661.000000	65.008282 
2660.000000	64.988398 
2659.000000	64.963793 
2658.000000	64.936733 
2657.000000	64.909720 
2656.000000	64.885091 
2655.000000	64.864730 
2654.000000	64.850020 
2653.000000	64.841651 
2652.000000	64.839529 
2651.000000	64.843177 
2650.000000	64.851212 
2649.000000	64.862298 
2648.000000	64.874792 
2647.000000	64.887475 
2646.000000	64.899253 
2645.000000	64.909839 
2644.000000	64.918994 
2643.000000	64.926934 
2642.000000	64.933919 
2641.000000	64.939999 
2640.000000	64.945125 
2639.000000	64.949059 
2638.000000	64.951491 
2637.000000	64.952087 
2636.000000	64.950776 
2635.000000	64.947533 
2634.000000	64.942669 
2633.000000	64.936542 
2632.000000	64.929294 
2631.000000	64.920854 
2630.000000	64.910817 
2629.000000	64.898633 
2628.000000	64.883947 
2627.000000	64.866662 
2626.000000	64.847207 
2625.000000	64.826822 
2624.000000	64.807295 
2623.000000	64.790225 
2622.000000	64.776992 
2621.000000	64.768195 
2620.000000	64.763832 
2619.000000	64.763069 
2618.000000	64.764690 
2617.000000	64.767622 
2616.000000	64.770984 
2615.000000	64.774680 
2614.000000	64.778971 
2613.000000	64.784312 
2612.000000	64.790940 
2611.000000	64.798736 
2610.000000	64.806890 
2609.000000	64.813971 
2608.000000	64.818668 
2607.000000	64.819860 
2606.000000	64.817452 
2605.000000	64.812231 
2604.000000	64.806103 
2603.000000	64.801645 
2602.000000	64.801359 
2601.000000	64.807295 
2600.000000	64.820384 
2599.000000	64.840054 
2598.000000	64.864563 
2597.000000	64.891171 
2596.000000	64.916801 
2595.000000	64.938592 
2594.000000	64.954495 
2593.000000	64.963507 
2592.000000	64.965438 
2591.000000	64.961147 
2590.000000	64.952111 
2589.000000	64.940166 
2588.000000	64.927172 
2587.000000	64.914846 
2586.000000	64.904689 
2585.000000	64.897513 
2584.000000	64.893317 
2583.000000	64.891505 
2582.000000	64.890813 
2581.000000	64.889740 
2580.000000	64.887118 
2579.000000	64.882230 
2578.000000	64.875197 
2577.000000	64.866757 
2576.000000	64.858388 
2575.000000	64.851546 
2574.000000	64.847278 
2573.000000	64.846110 
2572.000000	64.847850 
2571.000000	64.851593 
2570.000000	64.855957 
2569.000000	64.859604 
2568.000000	64.861369 
2567.000000	64.860701 
2566.000000	64.857530 
2565.000000	64.852166 
2564.000000	64.845275 
2563.000000	64.837336 
2562.000000	64.828968 
2561.000000	64.820647 
2560.000000	64.812898 
2559.000000	64.806652 
2558.000000	64.802789 
2557.000000	64.802193 
2556.000000	64.805483 
2555.000000	64.812922 
2554.000000	64.823794 
2553.000000	64.836335 
2552.000000	64.848017 
2551.000000	64.856052 
2550.000000	64.857697 
2549.000000	64.850997 
2548.000000	64.835333 
2547.000000	64.811682 
2546.000000	64.782404 
2545.000000	64.750909 
2544.000000	64.721012 
2543.000000	64.696264 
2542.000000	64.679360 
2541.000000	64.671683 
2540.000000	64.673113 
2539.000000	64.682459 
2538.000000	64.697623 
2537.000000	64.716291 
2536.000000	64.735960 
2535.000000	64.754843 
2534.000000	64.771723 
2533.000000	64.786434 
2532.000000	64.799261 
2531.000000	64.811205 
2530.000000	64.823532 
2529.000000	64.837479 
2528.000000	64.854121 
2527.000000	64.873743 
2526.000000	64.895868 
2525.000000	64.919233 
2524.000000	64.942049 
2523.000000	64.962339 
2522.000000	64.978432 
2521.000000	64.989280 
2520.000000	64.994764 
2519.000000	64.995789 
2518.000000	64.994096 
2517.000000	64.991617 
2516.000000	64.990210 
2515.000000	64.990806 
2514.000000	64.993286 
2513.000000	64.996767 
2512.000000	64.999246 
2511.000000	64.998722 
2510.000000	64.993119 
2509.000000	64.981365 
2508.000000	64.963293 
2507.000000	64.939880 
2506.000000	64.913058 
2505.000000	64.885020 
2504.000000	64.858245 
2503.000000	64.835071 
2502.000000	64.817500 
2501.000000	64.806747 
2500.000000	64.803290 
2499.000000	64.806962 
2498.000000	64.816784 
2497.000000	64.831042 
2496.000000	64.847421 
2495.000000	64.863610 
2494.000000	64.877104 
2493.000000	64.885973 
2492.000000	64.889049 
2491.000000	64.886331 
2490.000000	64.878892 
2489.000000	64.868831 
2488.000000	64.858555 
2487.000000	64.850282 
2486.000000	64.845657 
2485.000000	64.845061 
2484.000000	64.847826 
2483.000000	64.852261 
2482.000000	64.856195 
2481.000000	64.857363 
2480.000000	64.854097 
2479.000000	64.845681 
2478.000000	64.832425 
2477.000000	64.815473 
2476.000000	64.796447 
2475.000000	64.777112 
2474.000000	64.758825 
2473.000000	64.742445 
2472.000000	64.728045 
2471.000000	64.715313 
2470.000000	64.703941 
2469.000000	64.693760 
2468.000000	64.685320 
2467.000000	64.679527 
2466.000000	64.677882 
2465.000000	64.681982 
2464.000000	64.692974 
2463.000000	64.711070 
2462.000000	64.735221 
2461.000000	64.763259 
2460.000000	64.791917 
2459.000000	64.817428 
2458.000000	64.836335 
2457.000000	64.846181 
2456.000000	64.846110 
2455.000000	64.837098 
2454.000000	64.821553 
2453.000000	64.803028 
2452.000000	64.785313 
2451.000000	64.771771 
2450.000000	64.764571 
2449.000000	64.764285 
2448.000000	64.770007 
2447.000000	64.779806 
2446.000000	64.791250 
2445.000000	64.802122 
2444.000000	64.810800 
2443.000000	64.816713 
2442.000000	64.820265 
2441.000000	64.822459 
2440.000000	64.824414 
2439.000000	64.827036 
2438.000000	64.830803 
2437.000000	64.835429 
2436.000000	64.840078 
2435.000000	64.843630 
2434.000000	64.844775 
2433.000000	64.842438 
2432.000000	64.835977 
2431.000000	64.825367 
2430.000000	64.811158 
2429.000000	64.794754 
2428.000000	64.777708 
2427.000000	64.762187 
2426.000000	64.750409 
2425.000000	64.744472 
2424.000000	64.745783 
2423.000000	64.754819 
2422.000000	64.770984 
2421.000000	64.792370 
2420.000000	64.816164 
2419.000000	64.839053 
2418.000000	64.857912 
2417.000000	64.870405 
2416.000000	64.875340 
2415.000000	64.872956 
2414.000000	64.864778 
2413.000000	64.853143 
2412.000000	64.840698 
2411.000000	64.830017 
2410.000000	64.822983 
2409.000000	64.820766 
2408.000000	64.823436 
2407.000000	64.830446 
2406.000000	64.840626 
2405.000000	64.852476 
2404.000000	64.864563 
2403.000000	64.875674 
2402.000000	64.884686 
2401.000000	64.890909 
2400.000000	64.893770 
2399.000000	64.892983 
2398.000000	64.888477 
2397.000000	64.880490 
2396.000000	64.869523 
2395.000000	64.856290 
2394.000000	64.841747 
2393.000000	64.827179 
2392.000000	64.814066 
2391.000000	64.803838 
2390.000000	64.797759 
2389.000000	64.796590 
2388.000000	64.800453 
2387.000000	64.808702 
2386.000000	64.819788 
2385.000000	64.831399 
2384.000000	64.841032 
2383.000000	64.846539 
2382.000000	64.846158 
2381.000000	64.839267 
2380.000000	64.826369 
2379.000000	64.809226 
2378.000000	64.790177 
2377.000000	64.772009 
2376.000000	64.757180 
2375.000000	64.747524 
2374.000000	64.743876 
2373.000000	64.746046 
2372.000000	64.753031 
2371.000000	64.763259 
2370.000000	64.774918 
2369.000000	64.786434 
2368.000000	64.796543 
2367.000000	64.804482 
2366.000000	64.809894 
2365.000000	64.812684 
2364.000000	64.812850 
2363.000000	64.810633 
2362.000000	64.806175 
2361.000000	64.799737 
2360.000000	64.791607 
2359.000000	64.782357 
2358.000000	64.772725 
2357.000000	64.763331 
2356.000000	64.754772 
2355.000000	64.747333 
2354.000000	64.741015 
2353.000000	64.735507 
2352.000000	64.730334 
2351.000000	64.724850 
2350.000000	64.718699 
2349.000000	64.711809 
2348.000000	64.704561 
2347.000000	64.697575 
2346.000000	64.691948 
2345.000000	64.688467 
2344.000000	64.687871 
2343.000000	64.690327 
2342.000000	64.695549 
2341.000000	64.702796 
2340.000000	64.710903 
2339.000000	64.718627 
2338.000000	64.724826 
2337.000000	64.728951 
2336.000000	64.730834 
2335.000000	64.731025 
2334.000000	64.730572 
2333.000000	64.730739 
2332.000000	64.732956 
2331.000000	64.738297 
2330.000000	64.747238 
2329.000000	64.759469 
2328.000000	64.773988 
2327.000000	64.789009 
2326.000000	64.802551 
2325.000000	64.812588 
2324.000000	64.817619 
2323.000000	64.816856 
2322.000000	64.810347 
2321.000000	64.799070 
2320.000000	64.784646 
2319.000000	64.768886 
2318.000000	64.753532 
2317.000000	64.739751 
2316.000000	64.728140 
2315.000000	64.718389 
2314.000000	64.709711 
2313.000000	64.700937 
2312.000000	64.691090 
2311.000000	64.679813 
2310.000000	64.667534 
2309.000000	64.655399 
2308.000000	64.645075 
2307.000000	64.638376 
2306.000000	64.636802 
2305.000000	64.640903 
2304.000000	64.650225 
2303.000000	64.663386 
2302.000000	64.678335 
2301.000000	64.692544 
2300.000000	64.703869 
2299.000000	64.710783 
2298.000000	64.712619 
2297.000000	64.709734 
2296.000000	64.703130 
2295.000000	64.694380 
2294.000000	64.685153 
2293.000000	64.677143 
2292.000000	64.671611 
2291.000000	64.669370 
2290.000000	64.670729 
2289.000000	64.675569 
2288.000000	64.683222 
2287.000000	64.692282 
2286.000000	64.700961 
2285.000000	64.707374 
2284.000000	64.709687 
2283.000000	64.706683 
2282.000000	64.697909 
2281.000000	64.683985 
2280.000000	64.666628 
2279.000000	64.647984 
2278.000000	64.630508 
2277.000000	64.616346 
2276.000000	64.606928 
2275.000000	64.602804 
2274.000000	64.603590 
2273.000000	64.608263 
2272.000000	64.615321 
2271.000000	64.623475 
2270.000000	64.631533 
2269.000000	64.638924 
2268.000000	64.645457 
2267.000000	64.651393 
2266.000000	64.657020 
2265.000000	64.662837 
2264.000000	64.669227 
2263.000000	64.676451 
2262.000000	64.684915 
2261.000000	64.694905 
2260.000000	64.706683 
2259.000000	64.720296 
2258.000000	64.735484 
2257.000000	64.751553 
2256.000000	64.767265 
2255.000000	64.781117 
2254.000000	64.791226 
2253.000000	64.795827 
2252.000000	64.793395 
2251.000000	64.783167 
2250.000000	64.765501 
2249.000000	64.741659 
2248.000000	64.713859 
2247.000000	64.684915 
2246.000000	64.657711 
2245.000000	64.634728 
2244.000000	64.617681 
2243.000000	64.607238 
2242.000000	64.603161 
2241.000000	64.604663 
2240.000000	64.610457 
2239.000000	64.619326 
2238.000000	64.630055 
2237.000000	64.641690 
2236.000000	64.653420 
2235.000000	64.664149 
2234.000000	64.672780 
2233.000000	64.678144 
2232.000000	64.679145 
2231.000000	64.675021 
2230.000000	64.665913 
2229.000000	64.652872 
2228.000000	64.637994 
2227.000000	64.623904 
2226.000000	64.613413 
2225.000000	64.608693 
2224.000000	64.610862 
2223.000000	64.619636 
2222.000000	64.633321 
2221.000000	64.649319 
2220.000000	64.664649 
2219.000000	64.676880 
2218.000000	64.684510 
2217.000000	64.687395 
2216.000000	64.686727 
2215.000000	64.684653 
2214.000000	64.683651 
2213.000000	64.685893 
2212.000000	64.692831 
2211.000000	64.704418 
2210.000000	64.719533 
2209.000000	64.735889 
2208.000000	64.750695 
2207.000000	64.761304 
2206.000000	64.765906 
2205.000000	64.763879 
2204.000000	64.755773 
2203.000000	64.743280 
2202.000000	64.728999 
2201.000000	64.715552 
2200.000000	64.705133 
2199.000000	64.699387 
2198.000000	64.698839 
2197.000000	64.703273 
2196.000000	64.711618 
2195.000000	64.722371 
2194.000000	64.733839 
2193.000000	64.744305 
2192.000000	64.752483 
2191.000000	64.757323 
2190.000000	64.758157 
2189.000000	64.754867 
2188.000000	64.747595 
2187.000000	64.736890 
2186.000000	64.723634 
2185.000000	64.708924 
2184.000000	64.693927 
2183.000000	64.680004 
2182.000000	64.668130 
2181.000000	64.659047 
2180.000000	64.652514 
2179.000000	64.647555 
2178.000000	64.642333 
2177.000000	64.634585 
2176.000000	64.622259 
2175.000000	64.604187 
2174.000000	64.580345 
2173.000000	64.552235 
2172.000000	64.522337 
2171.000000	64.493751 
2170.000000	64.469528 
2169.000000	64.452266 
2168.000000	64.443755 
2167.000000	64.444708 
2166.000000	64.454960 
2165.000000	64.473509 
2164.000000	64.498472 
2163.000000	64.527297 
2162.000000	64.557003 
2161.000000	64.584755 
2160.000000	64.607882 
2159.000000	64.624786 
2158.000000	64.634799 
2157.000000	64.638447 
2156.000000	64.637207 
2155.000000	64.632940 
2154.000000	64.627838 
2153.000000	64.623665 
2152.000000	64.621520 
2151.000000	64.621591 
2150.000000	64.623403 
2149.000000	64.625978 
2148.000000	64.628243 
2147.000000	64.629435 
2146.000000	64.629411 
2145.000000	64.628648 
2144.000000	64.628148 
2143.000000	64.629268 
2142.000000	64.633059 
2141.000000	64.640116 
2140.000000	64.650416 
2139.000000	64.663171 
2138.000000	64.677333 
2137.000000	64.691734 
2136.000000	64.705300 
2135.000000	64.717602 
2134.000000	64.728784 
2133.000000	64.739441 
2132.000000	64.750242 
2131.000000	64.761662 
2130.000000	64.773488 
2129.000000	64.785075 
2128.000000	64.794945 
2127.000000	64.801430 
2126.000000	64.802646 
2125.000000	64.797234 
2124.000000	64.784455 
2123.000000	64.764595 
2122.000000	64.738917 
2121.000000	64.709520 
2120.000000	64.678788 
2119.000000	64.649271 
2118.000000	64.622831 
2117.000000	64.600777 
2116.000000	64.583420 
2115.000000	64.570403 
2114.000000	64.560914 
2113.000000	64.554357 
2112.000000	64.550209 
2111.000000	64.548444 
2110.000000	64.548969 
2109.000000	64.552044 
2108.000000	64.557242 
2107.000000	64.564085 
2106.000000	64.571571 
2105.000000	64.578747 
2104.000000	64.584660 
2103.000000	64.588809 
2102.000000	64.591479 
2101.000000	64.593625 
2100.000000	64.596605 
2099.000000	64.601588 
2098.000000	64.609193 
2097.000000	64.618921 
2096.000000	64.629411 
2095.000000	64.638471 
2094.000000	64.643740 
2093.000000	64.643096 
2092.000000	64.635396 
2091.000000	64.620757 
2090.000000	64.600443 
2089.000000	64.576721 
2088.000000	64.552521 
2087.000000	64.530801 
2086.000000	64.514112 
2085.000000	64.504289 
2084.000000	64.501881 
2083.000000	64.506244 
2082.000000	64.515447 
2081.000000	64.526724 
2080.000000	64.537215 
2079.000000	64.544248 
2078.000000	64.546203 
2077.000000	64.542675 
2076.000000	64.534711 
2075.000000	64.524459 
2074.000000	64.514756 
2073.000000	64.508557 
2072.000000	64.508008 
2071.000000	64.514112 
2070.000000	64.526271 
2069.000000	64.542531 
2068.000000	64.559841 
2067.000000	64.574742 
2066.000000	64.583921 
2065.000000	64.585018 
2064.000000	64.576721 
2063.000000	64.559102 
2062.000000	64.533400 
2061.000000	64.501738 
2060.000000	64.466762 
2059.000000	64.431405 
2058.000000	64.398407 
2057.000000	64.370203 
2056.000000	64.348649 
2055.000000	64.335227 
2054.000000	64.330554 
2053.000000	64.334869 
2052.000000	64.347457 
2051.000000	64.367341 
2050.000000	64.392757 
2049.000000	64.421868 
2048.000000	64.452672 
2047.000000	64.483451 
2046.000000	64.512562 
2045.000000	64.538979 
2044.000000	64.561939 
2043.000000	64.581131 
2042.000000	64.596438 
2041.000000	64.607858 
2040.000000	64.615511 
2039.000000	64.619469 
2038.000000	64.620065 
2037.000000	64.617705 
2036.000000	64.613032 
2035.000000	64.606881 
2034.000000	64.599990 
2033.000000	64.592957 
2032.000000	64.585971 
2031.000000	64.579010 
2030.000000	64.571833 
2029.000000	64.564204 
2028.000000	64.556050 
2027.000000	64.547801 
2026.000000	64.540386 
2025.000000	64.534807 
2024.000000	64.532303 
2023.000000	64.533615 
2022.000000	64.539146 
2021.000000	64.548420 
2020.000000	64.560365 
2019.000000	64.573383 
2018.000000	64.585852 
2017.000000	64.596581 
2016.000000	64.604711 
2015.000000	64.609932 
2014.000000	64.612507 
2013.000000	64.612960 
2012.000000	64.611887 
2011.000000	64.609646 
2010.000000	64.606523 
2009.000000	64.602732 
2008.000000	64.598560 
2007.000000	64.594221 
2006.000000	64.590072 
2005.000000	64.586305 
2004.000000	64.582943 
2003.000000	64.579844 
2002.000000	64.576506 
2001.000000	64.572525 
2000.000000	64.567732 
1999.000000	64.562082 
1998.000000	64.556002 
1997.000000	64.550161 
1996.000000	64.545440 
1995.000000	64.542841 
1994.000000	64.543008 
1993.000000	64.546346 
1992.000000	64.552593 
1991.000000	64.561223 
1990.000000	64.571380 
1989.000000	64.581918 
1988.000000	64.591765 
1987.000000	64.599919 
1986.000000	64.605665 
1985.000000	64.608335 
1984.000000	64.607572 
1983.000000	64.603161 
1982.000000	64.595127 
1981.000000	64.583778 
1980.000000	64.569783 
1979.000000	64.553999 
1978.000000	64.537572 
1977.000000	64.521884 
1976.000000	64.508438 
1975.000000	64.498472 
1974.000000	64.492964 
1973.000000	64.492559 
1972.000000	64.497232 
1971.000000	64.506173 
1970.000000	64.517951 
1969.000000	64.530706 
1968.000000	64.542269 
1967.000000	64.550566 
1966.000000	64.553761 
1965.000000	64.550781 
1964.000000	64.541459 
1963.000000	64.526343 
1962.000000	64.506673 
1961.000000	64.484262 
1960.000000	64.461088 
1959.000000	64.439082 
1958.000000	64.419865 
1957.000000	64.404392 
1956.000000	64.393258 
1955.000000	64.386582 
1954.000000	64.384055 
1953.000000	64.385223 
1952.000000	64.389514 
1951.000000	64.396381 
1950.000000	64.405441 
1949.000000	64.416408 
1948.000000	64.429020 
1947.000000	64.443230 
1946.000000	64.458990 
1945.000000	64.476180 
1944.000000	64.494490 
1943.000000	64.513468 
1942.000000	64.532446 
1941.000000	64.550590 
1940.000000	64.567017 
1939.000000	64.580726 
1938.000000	64.590930 
1937.000000	64.596939 
1936.000000	64.598464 
1935.000000	64.595365 
1934.000000	64.587950 
1933.000000	64.576864 
1932.000000	64.563059 
1931.000000	64.547824 
1930.000000	64.532709 
1929.000000	64.519309 
1928.000000	64.509105 
1927.000000	64.503312 
1926.000000	64.502787 
1925.000000	64.507770 
1924.000000	64.517736 
1923.000000	64.531564 
1922.000000	64.547634 
1921.000000	64.564061 
1920.000000	64.579129 
1919.000000	64.591264 
1918.000000	64.599466 
1917.000000	64.603352 
1916.000000	64.603161 
1915.000000	64.599347 
1914.000000	64.592623 
1913.000000	64.583778 
1912.000000	64.573335 
1911.000000	64.561486 
1910.000000	64.548206 
1909.000000	64.533448 
1908.000000	64.517116 
1907.000000	64.499330 
1906.000000	64.480376 
1905.000000	64.460921 
1904.000000	64.441800 
1903.000000	64.424061 
1902.000000	64.408826 
1901.000000	64.397168 
1900.000000	64.389991 
1899.000000	64.387869 
1898.000000	64.390850 
1897.000000	64.398574 
1896.000000	64.410114 
1895.000000	64.424037 
1894.000000	64.438748 
1893.000000	64.452672 
1892.000000	64.464449 
1891.000000	64.473247 
1890.000000	64.478850 
1889.000000	64.481401 
1888.000000	64.481472 
1887.000000	64.479780 
1886.000000	64.476799 
1885.000000	64.472651 
1884.000000	64.467263 
1883.000000	64.460515 
1882.000000	64.452624 
1881.000000	64.444231 
1880.000000	64.436531 
1879.000000	64.431262 
1878.000000	64.430260 
1877.000000	64.434838 
1876.000000	64.445376 
1875.000000	64.461040 
1874.000000	64.479660 
1873.000000	64.498138 
1872.000000	64.513278 
1871.000000	64.522314 
1870.000000	64.523625 
1869.000000	64.517140 
1868.000000	64.504623 
1867.000000	64.488744 
1866.000000	64.472842 
1865.000000	64.460015 
1864.000000	64.452600 
1863.000000	64.451885 
1862.000000	64.457988 
1861.000000	64.469909 
1860.000000	64.485979 
1859.000000	64.504289 
1858.000000	64.522814 
1857.000000	64.539623 
1856.000000	64.552998 
1855.000000	64.561486 
1854.000000	64.564037 
1853.000000	64.559888 
1852.000000	64.548897 
1851.000000	64.531588 
1850.000000	64.509296 
1849.000000	64.484047 
1848.000000	64.458322 
1847.000000	64.434742 
1846.000000	64.415717 
1845.000000	64.402961 
1844.000000	64.397454 
1843.000000	64.399218 
1842.000000	64.407491 
1841.000000	64.420843 
1840.000000	64.437603 
1839.000000	64.455914 
1838.000000	64.473938 
1837.000000	64.489889 
1836.000000	64.502382 
1835.000000	64.510226 
1834.000000	64.512586 
1833.000000	64.509153 
1832.000000	64.500021 
1831.000000	64.485788 
1830.000000	64.467740 
1829.000000	64.447307 
1828.000000	64.426469 
1827.000000	64.406919 
1826.000000	64.390134 
1825.000000	64.377045 
1824.000000	64.368128 
1823.000000	64.363288 
1822.000000	64.362096 
1821.000000	64.364051 
1820.000000	64.368748 
1819.000000	64.375948 
1818.000000	64.385533 
1817.000000	64.397168 
1816.000000	64.410185 
1815.000000	64.423465 
1814.000000	64.435458 
1813.000000	64.444446 
1812.000000	64.448904 
1811.000000	64.447641 
1810.000000	64.440560 
1809.000000	64.428377 
1808.000000	64.412856 
1807.000000	64.396333 
1806.000000	64.381194 
1805.000000	64.369511 
1804.000000	64.362621 
1803.000000	64.361119 
1802.000000	64.364576 
1801.000000	64.372038 
1800.000000	64.382004 
1799.000000	64.393162 
1798.000000	64.404249 
1797.000000	64.414215 
1796.000000	64.422392 
1795.000000	64.428305 
1794.000000	64.431834 
1793.000000	64.432930 
1792.000000	64.431786 
1791.000000	64.428758 
1790.000000	64.424347 
1789.000000	64.419054 
1788.000000	64.413475 
1787.000000	64.407944 
1786.000000	64.402914 
1785.000000	64.398717 
1784.000000	64.395618 
1783.000000	64.393949 
1782.000000	64.394021 
1781.000000	64.396190 
1780.000000	64.400696 
1779.000000	64.407706 
1778.000000	64.417171 
1777.000000	64.428615 
1776.000000	64.441394 
1775.000000	64.454436 
1774.000000	64.466619 
1773.000000	64.476776 
1772.000000	64.484000 
1771.000000	64.487528 
1770.000000	64.486932 
1769.000000	64.481854 
1768.000000	64.472222 
1767.000000	64.458155 
1766.000000	64.439940 
1765.000000	64.418029 
1764.000000	64.393281 
1763.000000	64.366793 
1762.000000	64.340043 
1761.000000	64.314675 
1760.000000	64.292454 
1759.000000	64.275074 
1758.000000	64.263892 
1757.000000	64.259624 
1756.000000	64.262294 
1755.000000	64.270973 
1754.000000	64.284038 
1753.000000	64.299345 
1752.000000	64.314222 
1751.000000	64.326119 
1750.000000	64.332842 
1749.000000	64.332938 
1748.000000	64.325857 
1747.000000	64.312028 
1746.000000	64.292716 
1745.000000	64.269828 
1744.000000	64.245581 
1743.000000	64.222025 
1742.000000	64.200878 
1741.000000	64.183330 
1740.000000	64.169907 
1739.000000	64.160537 
1738.000000	64.154839 
1737.000000	64.152097 
1736.000000	64.151501 
1735.000000	64.152240 
1734.000000	64.153456 
1733.000000	64.154481 
1732.000000	64.154458 
1731.000000	64.153003 
1730.000000	64.149737 
1729.000000	64.144921 
1728.000000	64.139032 
1727.000000	64.133381 
1726.000000	64.129495 
1725.000000	64.129257 
1724.000000	64.134073 
1723.000000	64.144849 
1722.000000	64.161467 
1721.000000	64.182710 
1720.000000	64.206290 
1719.000000	64.229440 
1718.000000	64.249372 
1717.000000	64.263916 
1716.000000	64.271974 
1715.000000	64.273881 
1714.000000	64.271235 
1713.000000	64.266324 
1712.000000	64.261484 
1711.000000	64.258623 
1710.000000	64.258456 
1709.000000	64.260554 
1708.000000	64.263248 
1707.000000	64.264321 
1706.000000	64.261770 
1705.000000	64.254450 
1704.000000	64.242434 
1703.000000	64.227151 
1702.000000	64.211010 
1701.000000	64.196729 
1700.000000	64.186644 
1699.000000	64.182186 
1698.000000	64.183425 
1697.000000	64.189076 
1696.000000	64.197111 
1695.000000	64.205241 
1694.000000	64.211606 
1693.000000	64.215135 
1692.000000	64.215970 
1691.000000	64.214920 
1690.000000	64.213442 
1689.000000	64.213013 
1688.000000	64.214634 
1687.000000	64.218473 
1686.000000	64.224028 
1685.000000	64.230298 
1684.000000	64.236116 
1683.000000	64.240145 
1682.000000	64.241385 
1681.000000	64.239144 
1680.000000	64.232921 
1679.000000	64.222741 
1678.000000	64.208817 
1677.000000	64.191746 
1676.000000	64.172530 
1675.000000	64.152789 
1674.000000	64.134478 
1673.000000	64.119911 
1672.000000	64.111185 
1671.000000	64.109945 
1670.000000	64.117026 
1669.000000	64.131975 
1668.000000	64.153122 
1667.000000	64.177846 
1666.000000	64.202761 
1665.000000	64.224410 
1664.000000	64.239954 
1663.000000	64.247417 
1662.000000	64.246273 
1661.000000	64.237213 
1660.000000	64.221906 
1659.000000	64.202761 
1658.000000	64.182353 
1657.000000	64.163112 
1656.000000	64.147067 
1655.000000	64.135956 
1654.000000	64.130997 
1653.000000	64.133071 
1652.000000	64.142489 
1651.000000	64.158964 
1650.000000	64.181590 
1649.000000	64.208507 
1648.000000	64.237189 
1647.000000	64.264535 
1646.000000	64.287281 
1645.000000	64.302611 
1644.000000	64.308857 
1643.000000	64.305543 
1642.000000	64.293575 
1641.000000	64.275240 
1640.000000	64.253497 
1639.000000	64.231371 
1638.000000	64.211416 
1637.000000	64.195394 
1636.000000	64.183926 
1635.000000	64.176940 
1634.000000	64.173746 
1633.000000	64.173388 
1632.000000	64.174914 
1631.000000	64.177417 
1630.000000	64.180088 
1629.000000	64.182114 
1628.000000	64.182686 
1627.000000	64.180994 
1626.000000	64.176440 
1625.000000	64.168906 
1624.000000	64.158678 
1623.000000	64.146685 
1622.000000	64.134359 
1621.000000	64.123415 
1620.000000	64.115691 
1619.000000	64.112496 
1618.000000	64.114356 
1617.000000	64.120912 
1616.000000	64.131069 
1615.000000	64.143204 
1614.000000	64.155316 
1613.000000	64.165616 
1612.000000	64.173054 
1611.000000	64.177274 
1610.000000	64.178657 
1609.000000	64.178442 
1608.000000	64.178442 
1607.000000	64.180588 
1606.000000	64.186382 
1605.000000	64.196658 
1604.000000	64.211225 
1603.000000	64.228820 
1602.000000	64.247512 
1601.000000	64.264869 
1600.000000	64.278626 
1599.000000	64.287066 
1598.000000	64.289355 
1597.000000	64.285516 
1596.000000	64.276266 
1595.000000	64.263105 
1594.000000	64.247679 
1593.000000	64.231681 
1592.000000	64.216637 
1591.000000	64.203929 
1590.000000	64.194560 
1589.000000	64.189028 
1588.000000	64.187288 
1587.000000	64.188861 
1586.000000	64.192318 
1585.000000	64.195847 
1584.000000	64.196872 
1583.000000	64.192700 
1582.000000	64.181065 
1581.000000	64.160561 
1580.000000	64.131164 
1579.000000	64.094352 
1578.000000	64.053249 
1577.000000	64.011979 
1576.000000	63.975214 
1575.000000	63.947105 
1574.000000	63.930630 
1573.000000	63.926911 
1572.000000	63.935041 
1571.000000	63.952493 
1570.000000	63.975620 
1569.000000	64.000773 
1568.000000	64.024543 
1567.000000	64.044928 
1566.000000	64.061284 
1565.000000	64.074277 
1564.000000	64.085364 
1563.000000	64.096212 
1562.000000	64.108037 
1561.000000	64.121031 
1560.000000	64.134597 
1559.000000	64.146900 
1558.000000	64.155650 
1557.000000	64.158391 
1556.000000	64.153504 
1555.000000	64.140367 
1554.000000	64.119791 
1553.000000	64.093947 
1552.000000	64.065909 
1551.000000	64.039134 
1550.000000	64.016866 
1549.000000	64.001464 
1548.000000	63.994240 
1547.000000	63.995075 
1546.000000	64.002656 
1545.000000	64.015102 
1544.000000	64.030337 
1543.000000	64.046406 
1542.000000	64.061927 
1541.000000	64.076066 
1540.000000	64.088487 
1539.000000	64.099287 
1538.000000	64.108633 
1537.000000	64.116501 
1536.000000	64.122653 
1535.000000	64.127135 
1534.000000	64.129853 
1533.000000	64.130997 
1532.000000	64.130926 
1531.000000	64.129948 
1530.000000	64.128375 
1529.000000	64.126300 
1528.000000	64.123725 
1527.000000	64.120626 
1526.000000	64.117074 
1525.000000	64.113378 
1524.000000	64.110088 
1523.000000	64.107775 
1522.000000	64.107108 
1521.000000	64.108610 
1520.000000	64.112329 
1519.000000	64.117956 
1518.000000	64.124679 
1517.000000	64.131355 
1516.000000	64.136624 
1515.000000	64.139032 
1514.000000	64.137578 
1513.000000	64.131927 
1512.000000	64.122533 
1511.000000	64.110708 
1510.000000	64.098381 
1509.000000	64.087629 
1508.000000	64.080405 
1507.000000	64.077854 
1506.000000	64.080214 
1505.000000	64.086699 
1504.000000	64.095759 
1503.000000	64.105629 
1502.000000	64.114618 
1501.000000	64.121890 
1500.000000	64.127612 
1499.000000	64.132738 
1498.000000	64.138627 
1497.000000	64.146351 
1496.000000	64.156007 
1495.000000	64.166450 
1494.000000	64.175724 
1493.000000	64.181494 
1492.000000	64.181900 
1491.000000	64.176464 
1490.000000	64.166069 
1489.000000	64.153051 
1488.000000	64.140486 
1487.000000	64.131164 
1486.000000	64.127302 
1485.000000	64.129543 
1484.000000	64.137363 
1483.000000	64.149069 
1482.000000	64.162230 
1481.000000	64.174342 
1480.000000	64.183235 
1479.000000	64.187693 
1478.000000	64.187288 
1477.000000	64.182376 
1476.000000	64.173865 
1475.000000	64.162802 
1474.000000	64.149880 
1473.000000	64.135384 
1472.000000	64.119076 
1471.000000	64.100623 
1470.000000	64.079952 
1469.000000	64.057517 
1468.000000	64.034414 
1467.000000	64.012145 
1466.000000	63.992691 
1465.000000	63.977837 
1464.000000	63.968777 
1463.000000	63.965964 
1462.000000	63.968920 
1461.000000	63.976192 
1460.000000	63.985896 
1459.000000	63.995933 
1458.000000	64.004254 
1457.000000	64.009380 
1456.000000	64.010429 
1455.000000	64.007258 
1454.000000	64.000082 
1453.000000	63.989853 
1452.000000	63.977789 
1451.000000	63.965654 
1450.000000	63.955259 
1449.000000	63.948321 
1448.000000	63.946318 
1447.000000	63.949918 
1446.000000	63.958859 
1445.000000	63.971662 
1444.000000	63.985919 
1443.000000	63.998770 
1442.000000	64.007377 
1441.000000	64.009690 
1440.000000	64.005041 
1439.000000	63.994097 
1438.000000	63.978934 
1437.000000	63.962483 
1436.000000	63.947868 
1435.000000	63.937592 
1434.000000	63.933110 
1433.000000	63.934540 
1432.000000	63.941049 
1431.000000	63.951230 
1430.000000	63.963770 
1429.000000	63.977789 
1428.000000	63.993263 
1427.000000	64.010572 
1426.000000	64.030599 
1425.000000	64.053606 
1424.000000	64.079332 
1423.000000	64.106512 
1422.000000	64.133119 
1421.000000	64.156579 
1420.000000	64.174175 
1419.000000	64.183759 
1418.000000	64.184117 
1417.000000	64.175295 
1416.000000	64.158606 
1415.000000	64.136290 
1414.000000	64.111280 
1413.000000	64.086532 
1412.000000	64.064693 
1411.000000	64.047574 
1410.000000	64.036011 
1409.000000	64.029717 
1408.000000	64.027810 
1407.000000	64.028835 
1406.000000	64.030981 
1405.000000	64.032745 
1404.000000	64.032936 
1403.000000	64.031124 
1402.000000	64.027380 
1401.000000	64.022231 
1400.000000	64.016294 
1399.000000	64.010405 
1398.000000	64.005017 
1397.000000	64.000415 
1396.000000	63.996672 
1395.000000	63.993620 
1394.000000	63.991117 
1393.000000	63.988995 
1392.000000	63.987255 
1391.000000	63.985991 
1390.000000	63.985443 
1389.000000	63.986039 
1388.000000	63.988089 
1387.000000	63.991904 
1386.000000	63.997340 
1385.000000	64.003801 
1384.000000	64.009857 
1383.000000	64.013743 
1382.000000	64.013457 
1381.000000	64.007282 
1380.000000	63.994312 
1379.000000	63.974833 
1378.000000	63.950395 
1377.000000	63.923811 
1376.000000	63.898611 
1375.000000	63.878154 
1374.000000	63.865089 
1373.000000	63.860535 
1372.000000	63.863945 
1371.000000	63.873219 
1370.000000	63.885378 
1369.000000	63.897323 
1368.000000	63.906836 
1367.000000	63.912892 
1366.000000	63.916087 
1365.000000	63.918232 
1364.000000	63.921713 
1363.000000	63.928842 
1362.000000	63.941049 
1361.000000	63.958454 
1360.000000	63.979959 
1359.000000	64.003038 
1358.000000	64.024639 
1357.000000	64.041495 
1356.000000	64.050841 
1355.000000	64.050841 
1354.000000	64.040875 
1353.000000	64.021539 
1352.000000	63.994598 
1351.000000	63.962817 
1350.000000	63.929700 
1349.000000	63.898897 
1348.000000	63.873863 
1347.000000	63.857102 
1346.000000	63.850116 
1345.000000	63.852739 
1344.000000	63.863396 
1343.000000	63.879346 
1342.000000	63.897275 
1341.000000	63.913822 
1340.000000	63.926267 
1339.000000	63.932871 
1338.000000	63.933157 
1337.000000	63.927698 
1336.000000	63.917875 
1335.000000	63.905382 
1334.000000	63.891959 
1333.000000	63.879132 
1332.000000	63.868141 
1331.000000	63.860058 
1330.000000	63.855624 
1329.000000	63.855528 
1328.000000	63.860154 
1327.000000	63.869404 
1326.000000	63.882446 
1325.000000	63.897609 
1324.000000	63.912558 
1323.000000	63.924646 
1322.000000	63.931584 
1321.000000	63.931822 
1320.000000	63.924956 
1319.000000	63.911628 
1318.000000	63.893580 
1317.000000	63.873386 
1316.000000	63.853883 
1315.000000	63.837456 
1314.000000	63.825941 
1313.000000	63.820362 
1312.000000	63.820815 
1311.000000	63.826632 
1310.000000	63.836503 
1309.000000	63.848805 
1308.000000	63.861918 
1307.000000	63.874459 
1306.000000	63.885378 
1305.000000	63.893961 
1304.000000	63.899898 
1303.000000	63.903212 
1302.000000	63.904380 
1301.000000	63.903808 
1300.000000	63.902068 
1299.000000	63.899564 
1298.000000	63.896703 
1297.000000	63.893842 
1296.000000	63.891220 
1295.000000	63.889312 
1294.000000	63.888478 
1293.000000	63.889288 
1292.000000	63.892412 
1291.000000	63.898515 
1290.000000	63.907814 
1289.000000	63.919997 
1288.000000	63.934135 
1287.000000	63.948678 
1286.000000	63.961672 
1285.000000	63.971018 
1284.000000	63.974928 
1283.000000	63.972258 
1282.000000	63.962769 
1281.000000	63.947153 
1280.000000	63.926839 
1279.000000	63.903832 
1278.000000	63.880205 
1277.000000	63.857889 
1276.000000	63.838744 
1275.000000	63.824081 
1274.000000	63.814926 
1273.000000	63.811945 
1272.000000	63.815283 
1271.000000	63.824677 
1270.000000	63.839125 
1269.000000	63.856887 
1268.000000	63.875627 
1267.000000	63.892507 
1266.000000	63.904786 
1265.000000	63.910365 
1264.000000	63.908219 
1263.000000	63.898658 
1262.000000	63.883256 
1261.000000	63.864612 
1260.000000	63.845586 
1259.000000	63.828706 
1258.000000	63.815569 
1257.000000	63.806653 
1256.000000	63.801288 
1255.000000	63.798141 
1254.000000	63.795709 
1253.000000	63.792872 
1252.000000	63.789248 
1251.000000	63.785386 
1250.000000	63.782334 
1249.000000	63.781356 
1248.000000	63.783359 
1247.000000	63.788509 
1246.000000	63.796186 
1245.000000	63.804984 
1244.000000	63.813161 
1243.000000	63.819050 
1242.000000	63.821411 
1241.000000	63.819694 
1240.000000	63.814210 
1239.000000	63.805842 
1238.000000	63.795995 
1237.000000	63.785958 
1236.000000	63.776874 
1235.000000	63.769268 
1234.000000	63.763308 
1233.000000	63.758635 
1232.000000	63.754796 
1231.000000	63.751411 
1230.000000	63.748383 
1229.000000	63.746118 
1228.000000	63.745403 
1227.000000	63.747334 
1226.000000	63.753080 
1225.000000	63.763403 
1224.000000	63.778233 
1223.000000	63.796782 
1222.000000	63.817095 
1221.000000	63.836503 
1220.000000	63.852143 
1219.000000	63.861536 
1218.000000	63.863515 
1217.000000	63.858056 
1216.000000	63.846945 
1215.000000	63.833165 
1214.000000	63.820195 
1213.000000	63.811516 
1212.000000	63.809514 
1211.000000	63.815212 
1210.000000	63.827919 
1209.000000	63.845467 
1208.000000	63.864684 
1207.000000	63.882303 
1206.000000	63.895416 
1205.000000	63.902068 
1204.000000	63.901495 
1203.000000	63.893985 
1202.000000	63.880515 
1201.000000	63.862490 
1200.000000	63.841366 
1199.000000	63.818550 
1198.000000	63.795089 
1197.000000	63.771939 
1196.000000	63.750171 
1195.000000	63.730716 
1194.000000	63.714504 
1193.000000	63.702535 
1192.000000	63.695621 
1191.000000	63.694405 
1190.000000	63.698863 
1189.000000	63.708257 
1188.000000	63.721227 
1187.000000	63.735747 
1186.000000	63.749313 
1185.000000	63.759517 
1184.000000	63.764214 
1183.000000	63.761949 
1182.000000	63.752341 
1181.000000	63.735961 
1180.000000	63.714241 
1179.000000	63.689184 
1178.000000	63.663053 
1177.000000	63.637971 
1176.000000	63.615703 
1175.000000	63.597440 
1174.000000	63.583683 
1173.000000	63.574409 
1172.000000	63.569188 
1171.000000	63.567185 
1170.000000	63.567495 
1169.000000	63.568949 
1168.000000	63.570380 
1167.000000	63.570666 
1166.000000	63.568973 
1165.000000	63.564777 
1164.000000	63.558268 
1163.000000	63.550186 
1162.000000	63.541936 
1161.000000	63.535189 
1160.000000	63.531661 
1159.000000	63.532733 
1158.000000	63.539099 
1157.000000	63.550519 
1156.000000	63.565874 
1155.000000	63.583302 
1154.000000	63.600516 
1153.000000	63.615179 
1152.000000	63.625383 
1151.000000	63.630008 
1150.000000	63.628935 
1149.000000	63.623070 
1148.000000	63.614249 
1147.000000	63.604831 
1146.000000	63.597226 
1145.000000	63.593411 
1144.000000	63.594722 
1143.000000	63.601469 
1142.000000	63.613104 
1141.000000	63.627934 
1140.000000	63.644027 
1139.000000	63.659048 
1138.000000	63.670992 
1137.000000	63.678431 
1136.000000	63.680577 
1135.000000	63.677382 
1134.000000	63.669490 
1133.000000	63.658070 
1132.000000	63.644528 
1131.000000	63.630509 
1130.000000	63.617634 
1129.000000	63.607382 
1128.000000	63.601207 
1127.000000	63.599848 
1126.000000	63.603353 
1125.000000	63.610887 
1124.000000	63.621020 
1123.000000	63.631725 
1122.000000	63.640856 
1121.000000	63.646531 
1120.000000	63.647365 
1119.000000	63.642978 
1118.000000	63.633775 
1117.000000	63.620972 
1116.000000	63.606309 
1115.000000	63.591718 
1114.000000	63.578772 
1113.000000	63.568830 
1112.000000	63.562369 
1111.000000	63.559269 
1110.000000	63.558793 
1109.000000	63.559794 
1108.000000	63.561081 
1107.000000	63.561654 
1106.000000	63.561248 
1105.000000	63.559794 
1104.000000	63.558530 
1103.000000	63.559079 
1102.000000	63.563728 
1101.000000	63.574504 
1100.000000	63.592720 
1099.000000	63.618612 
1098.000000	63.650822 
1097.000000	63.686537 
1096.000000	63.721799 
1095.000000	63.752198 
1094.000000	63.773775 
1093.000000	63.783860 
1092.000000	63.781452 
1091.000000	63.767409 
1090.000000	63.744282 
1089.000000	63.715982 
1088.000000	63.686871 
1087.000000	63.661146 
1086.000000	63.642215 
1085.000000	63.632035 
1084.000000	63.631272 
1083.000000	63.638997 
1082.000000	63.653182 
1081.000000	63.670969 
1080.000000	63.689231 
1079.000000	63.705229 
1078.000000	63.716578 
1077.000000	63.721895 
1076.000000	63.720583 
1075.000000	63.713049 
1074.000000	63.700604 
1073.000000	63.685202 
1072.000000	63.669061 
1071.000000	63.654541 
1070.000000	63.643765 
1069.000000	63.638496 
1068.000000	63.639926 
1067.000000	63.648462 
1066.000000	63.663601 
1065.000000	63.684129 
1064.000000	63.708305 
1063.000000	63.733744 
1062.000000	63.757777 
1061.000000	63.777828 
1060.000000	63.791418 
1059.000000	63.796854 
1058.000000	63.792872 
1057.000000	63.778710 
1056.000000	63.754200 
1055.000000	63.720130 
1054.000000	63.678550 
1053.000000	63.632488 
1052.000000	63.586091 
1051.000000	63.544273 
1050.000000	63.511681 
1049.000000	63.492274 
1048.000000	63.488006 
1047.000000	63.498640 
1046.000000	63.521385 
1045.000000	63.551640 
1044.000000	63.583707 
1043.000000	63.611817 
1042.000000	63.631272 
1041.000000	63.639044 
1040.000000	63.634228 
1039.000000	63.618040 
1038.000000	63.593363 
1037.000000	63.564348 
1036.000000	63.535690 
1035.000000	63.511919 
1034.000000	63.497161 
1033.000000	63.494539 
1032.000000	63.505983 
1031.000000	63.531661 
1030.000000	63.570213 
1029.000000	63.618230 
1028.000000	63.670921 
1027.000000	63.722276 
1026.000000	63.766002 
1025.000000	63.796615 
1024.000000	63.810253 
1023.000000	63.805794 
1022.000000	63.784885 
1021.000000	63.751888 
1020.000000	63.713145 
1019.000000	63.675522 
1018.000000	63.645029 
1017.000000	63.625788 
1016.000000	63.619422 
1015.000000	63.624930 
1014.000000	63.639283 
1013.000000	63.658499 
1012.000000	63.678646 
1011.000000	63.696432 
1010.000000	63.709926 
1009.000000	63.718414 
1008.000000	63.722276 
1007.000000	63.722395 
1006.000000	63.719964 
1005.000000	63.716244 
1004.000000	63.712239 
1003.000000	63.708829 
1002.000000	63.706827 
1001.000000	63.707041 
1000.000000	63.710021 
999.000000	 63.716363 
998.000000	 63.726234 
997.000000	 63.738989 
996.000000	 63.753342 
995.000000	 63.767719 
994.000000	 63.780260 
993.000000	 63.789176 
992.000000	 63.793396 
991.000000	 63.792920 
990.000000	 63.788843 
989.000000	 63.783073 
988.000000	 63.778209 
987.000000	 63.776850 
986.000000	 63.781213 
985.000000	 63.792395 
984.000000	 63.810467 
983.000000	 63.833951 
982.000000	 63.860416 
981.000000	 63.886880 
980.000000	 63.910555 
979.000000	 63.928890 
978.000000	 63.940286 
977.000000	 63.943839 
976.000000	 63.939452 
975.000000	 63.927364 
974.000000	 63.908362 
973.000000	 63.883280 
972.000000	 63.853573 
971.000000	 63.820815 
970.000000	 63.787245 
969.000000	 63.754844 
968.000000	 63.725709 
967.000000	 63.700890 
966.000000	 63.680744 
965.000000	 63.664078 
964.000000	 63.648700 
963.000000	 63.631772 
962.000000	 63.610506 
961.000000	 63.583469 
960.000000	 63.550829 
959.000000	 63.514876 
958.000000	 63.479495 
957.000000	 63.449215 
956.000000	 63.428235 
955.000000	 63.419198 
954.000000	 63.422513 
953.000000	 63.436317 
952.000000	 63.456916 
951.000000	 63.479638 
950.000000	 63.499832 
949.000000	 63.513803 
948.000000	 63.519477 
947.000000	 63.516283 
946.000000	 63.505363 
945.000000	 63.488888 
944.000000	 63.469719 
943.000000	 63.450622 
942.000000	 63.434052 
941.000000	 63.421869 
940.000000	 63.415050 
939.000000	 63.414263 
938.000000	 63.419461 
937.000000	 63.429832 
936.000000	 63.444304 
935.000000	 63.461351 
934.000000	 63.479495 
933.000000	 63.497114 
932.000000	 63.513016 
931.000000	 63.526439 
930.000000	 63.537168 
929.000000	 63.545417 
928.000000	 63.551974 
927.000000	 63.557887 
926.000000	 63.564348 
925.000000	 63.572287 
924.000000	 63.582444 
923.000000	 63.594937 
922.000000	 63.609147 
921.000000	 63.623428 
920.000000	 63.635516 
919.000000	 63.642954 
918.000000	 63.643693 
917.000000	 63.636755 
916.000000	 63.622450 
915.000000	 63.602685 
914.000000	 63.580584 
913.000000	 63.560032 
912.000000	 63.545036 
911.000000	 63.538622 
910.000000	 63.542246 
909.000000	 63.555383 
908.000000	 63.575696 
907.000000	 63.599348 
906.000000	 63.622045 
905.000000	 63.639664 
904.000000	 63.649368 
903.000000	 63.650274 
902.000000	 63.643598 
901.000000	 63.632202 
900.000000	 63.619732 
899.000000	 63.609790 
898.000000	 63.604998 
897.000000	 63.606238 
896.000000	 63.612604 
895.000000	 63.621711 
894.000000	 63.630580 
893.000000	 63.636565 
892.000000	 63.638377 
891.000000	 63.636374 
890.000000	 63.633060 
889.000000	 63.631868 
888.000000	 63.636612 
887.000000	 63.650298 
886.000000	 63.674116 
885.000000	 63.706970 
884.000000	 63.745570 
883.000000	 63.785052 
882.000000	 63.819980 
881.000000	 63.845705 
880.000000	 63.859057 
879.000000	 63.858842 
878.000000	 63.845968 
877.000000	 63.823032 
876.000000	 63.793516 
875.000000	 63.760972 
874.000000	 63.728451 
873.000000	 63.697981 
872.000000	 63.671112 
871.000000	 63.648796 
870.000000	 63.631677 
869.000000	 63.620281 
868.000000	 63.615155 
867.000000	 63.616633 
866.000000	 63.624477 
865.000000	 63.637995 
864.000000	 63.655543 
863.000000	 63.675189 
862.000000	 63.694739 
861.000000	 63.712048 
860.000000	 63.725399 
859.000000	 63.733601 
858.000000	 63.736295 
857.000000	 63.733983 
856.000000	 63.727760 
855.000000	 63.719201 
854.000000	 63.709926 
853.000000	 63.701629 
852.000000	 63.695955 
851.000000	 63.694000 
850.000000	 63.696098 
849.000000	 63.701677 
848.000000	 63.709235 
847.000000	 63.716459 
846.000000	 63.720726 
845.000000	 63.719487 
844.000000	 63.710713 
843.000000	 63.693690 
842.000000	 63.669276 
841.000000	 63.639640 
840.000000	 63.608288 
839.000000	 63.579177 
838.000000	 63.556694 
837.000000	 63.544702 
836.000000	 63.546061 
835.000000	 63.562130 
834.000000	 63.592004 
833.000000	 63.633155 
832.000000	 63.680744 
831.000000	 63.728594 
830.000000	 63.769602 
829.000000	 63.796782 
828.000000	 63.804602 
827.000000	 63.789868 
826.000000	 63.753128 
825.000000	 63.698792 
824.000000	 63.634729 
823.000000	 63.570928 
822.000000	 63.517451 
821.000000	 63.482260 
820.000000	 63.469839 
819.000000	 63.480114 
818.000000	 63.509130 
817.000000	 63.549828 
816.000000	 63.593912 
815.000000	 63.633465 
814.000000	 63.661646 
813.000000	 63.674116 
812.000000	 63.668727 
811.000000	 63.646173 
810.000000	 63.608980 
809.000000	 63.561558 
808.000000	 63.509416 
807.000000	 63.458180 
806.000000	 63.412809 
805.000000	 63.376975 
804.000000	 63.352870 
803.000000	 63.340950 
802.000000	 63.340330 
801.000000	 63.349032 
800.000000	 63.364481 
799.000000	 63.383936 
798.000000	 63.404870 
797.000000	 63.425016 
796.000000	 63.442444 
795.000000	 63.455939 
794.000000	 63.464999 
793.000000	 63.469862 
792.000000	 63.471341 
791.000000	 63.470721 
790.000000	 63.469552 
789.000000	 63.469839 
788.000000	 63.473320 
787.000000	 63.481330 
786.000000	 63.494229 
785.000000	 63.511395 
784.000000	 63.531231 
783.000000	 63.551425 
782.000000	 63.569545 
781.000000	 63.583064 
780.000000	 63.590478 
779.000000	 63.591265 
778.000000	 63.586378 
777.000000	 63.578081 
776.000000	 63.569450 
775.000000	 63.563632 
774.000000	 63.563060 
773.000000	 63.568949 
772.000000	 63.580322 
771.000000	 63.594460 
770.000000	 63.607048 
769.000000	 63.613462 
768.000000	 63.610172 
767.000000	 63.595747 
766.000000	 63.571476 
765.000000	 63.541245 
764.000000	 63.510751 
763.000000	 63.485980 
762.000000	 63.471770 
761.000000	 63.470196 
760.000000	 63.480186 
759.000000	 63.497853 
758.000000	 63.517498 
757.000000	 63.533163 
756.000000	 63.540244 
755.000000	 63.536596 
754.000000	 63.523030 
753.000000	 63.503074 
752.000000	 63.481569 
751.000000	 63.463258 
750.000000	 63.451361 
749.000000	 63.446569 
748.000000	 63.447141 
747.000000	 63.449454 
746.000000	 63.449263 
745.000000	 63.442945 
744.000000	 63.428807 
743.000000	 63.407325 
742.000000	 63.381099 
741.000000	 63.353848 
740.000000	 63.329339 
739.000000	 63.310170 
738.000000	 63.297295 
737.000000	 63.289833 
736.000000	 63.285851 
735.000000	 63.283109 
734.000000	 63.280057 
733.000000	 63.276743 
732.000000	 63.274908 
731.000000	 63.277006 
730.000000	 63.285684 
729.000000	 63.302421 
728.000000	 63.326930 
727.000000	 63.356661 
726.000000	 63.387393 
725.000000	 63.414335 
724.000000	 63.433265 
723.000000	 63.441991 
722.000000	 63.440203 
721.000000	 63.429522 
720.000000	 63.413119 
719.000000	 63.395071 
718.000000	 63.379073 
717.000000	 63.367462 
716.000000	 63.361430 
715.000000	 63.360810 
714.000000	 63.364481 
713.000000	 63.370585 
712.000000	 63.377165 
711.000000	 63.382196 
710.000000	 63.383650 
709.000000	 63.379168 
708.000000	 63.366723 
707.000000	 63.344454 
706.000000	 63.311362 
705.000000	 63.267230 
704.000000	 63.213014 
703.000000	 63.151121 
702.000000	 63.084793 
701.000000	 63.018822 
700.000000	 62.957906 
699.000000	 62.908124 
698.000000	 62.875318 
697.000000	 62.865591 
696.000000	 62.883567 
695.000000	 62.932062 
694.000000	 63.011217 
693.000000	 63.117146 
692.000000	 63.241696 
691.000000	 63.373422 
690.000000	 63.499021 
689.000000	 63.605880 
688.000000	 63.684439 
687.000000	 63.730168 
686.000000	 63.744139 
685.000000	 63.733482 
684.000000	 63.708758 
683.000000	 63.680648 
682.000000	 63.656687 
681.000000	 63.640117 
680.000000	 63.628983 
679.000000	 63.617849 
678.000000	 63.599872 
677.000000	 63.570547 
676.000000	 63.529324 
675.000000	 63.481044 
674.000000	 63.434028 
673.000000	 63.398003 
672.000000	 63.380599 
671.000000	 63.385081 
670.000000	 63.408613 
669.000000	 63.442277 
668.000000	 63.473558 
667.000000	 63.489603 
666.000000	 63.481402 
665.000000	 63.446164 
664.000000	 63.389205 
663.000000	 63.322830 
662.000000	 63.263392 
661.000000	 63.226962 
660.000000	 63.225984 
659.000000	 63.266062 
658.000000	 63.345098 
657.000000	 63.453793 
656.000000	 63.578510 
655.000000	 63.703799 
654.000000	 63.817453 
653.000000	 63.910865 
652.000000	 63.978719 
651.000000	 64.018273 
650.000000	 64.029288 
649.000000	 64.011740 
648.000000	 63.965082 
647.000000	 63.888406 
646.000000	 63.782453 
645.000000	 63.650202 
644.000000	 63.499307 
643.000000	 63.340950 
642.000000	 63.189506 
641.000000	 63.059663 
640.000000	 62.964129 
639.000000	 62.910532 
638.000000	 62.899541 
637.000000	 62.925219 
636.000000	 62.976145 
635.000000	 63.038349 
634.000000	 63.098955 
633.000000	 63.150262 
632.000000	 63.192486 
631.000000	 63.232898 
630.000000	 63.285160 
629.000000	 63.366866 
628.000000	 63.494992 
627.000000	 63.681054 
626.000000	 63.926005 
625.000000	 64.220786 
624.000000	 64.543795 
623.000000	 64.865446 
622.000000	 65.150737 
621.000000	 65.368413 
620.000000	 65.493869 
619.000000	 65.515279 
618.000000	 65.434217 
617.000000	 65.265893 
616.000000	 65.036010 
615.000000	 64.777517 
614.000000	 64.523673 
613.000000	 64.303708 
612.000000	 64.138388 
611.000000	 64.039564 
610.000000	 64.006876 
609.000000	 64.030313 
608.000000	 64.091420 
607.000000	 64.168047 
606.000000	 64.236927 
605.000000	 64.278006 
604.000000	 64.276170 
603.000000	 64.223647 
602.000000	 64.121055 
601.000000	 63.976263 
600.000000	 63.802051 
599.000000	 63.612771 
598.000000	 63.422274 
597.000000	 63.241052 
596.000000	 63.074898 
595.000000	 62.925887 
594.000000	 62.793707 
593.000000	 62.678623 
592.000000	 62.581324 
591.000000	 62.506580 
590.000000	 62.461161 
589.000000	 62.453889 
588.000000	 62.490558 
587.000000	 62.573313 
586.000000	 62.697625 
585.000000	 62.852692 
584.000000	 63.021969 
583.000000	 63.186216 
582.000000	 63.326597 
581.000000	 63.428544 
580.000000	 63.484239 
579.000000	 63.492894 
578.000000	 63.459968 
577.000000	 63.395404 
576.000000	 63.311219 
575.000000	 63.219761 
574.000000	 63.131570 
573.000000	 63.055133 
572.000000	 62.996029 
571.000000	 62.957525 
570.000000	 62.941193 
569.000000	 62.947487 
568.000000	 62.976813 
567.000000	 63.028073 
566.000000	 63.100314 
565.000000	 63.192057 
564.000000	 63.300657 
563.000000	 63.420748 
562.000000	 63.544559 
561.000000	 63.663339 
560.000000	 63.766050 
559.000000	 63.841080 
558.000000	 63.877511 
557.000000	 63.867926 
556.000000	 63.808822 
555.000000	 63.702225 
554.000000	 63.555407 
553.000000	 63.380193 
552.000000	 63.191795 
551.000000	 63.006353 
550.000000	 62.838053 
549.000000	 62.697315 
548.000000	 62.590074 
547.000000	 62.517786 
546.000000	 62.477302 
545.000000	 62.463378 
544.000000	 62.468886 
543.000000	 62.488508 
542.000000	 62.517094 
541.000000	 62.553620 
540.000000	 62.597751 
539.000000	 62.652683 
538.000000	 62.720632 
537.000000	 62.804627 
536.000000	 62.905979 
535.000000	 63.024091 
534.000000	 63.155508 
533.000000	 63.293862 
532.000000	 63.431358 
531.000000	 63.558316 
530.000000	 63.665103 
529.000000	 63.742446 
528.000000	 63.783502 
527.000000	 63.784313 
526.000000	 63.745212 
525.000000	 63.670706 
524.000000	 63.569402 
523.000000	 63.453245 
522.000000	 63.335657 
521.000000	 63.228917 
520.000000	 63.142299 
519.000000	 63.081789 
518.000000	 63.049173 
517.000000	 63.042068 
516.000000	 63.055372 
515.000000	 63.082885 
514.000000	 63.118004 
513.000000	 63.154482 
512.000000	 63.186907 
511.000000	 63.210010 
510.000000	 63.219690 
509.000000	 63.212800 
508.000000	 63.188076 
507.000000	 63.145589 
506.000000	 63.088345 
505.000000	 63.022017 
504.000000	 62.954187 
503.000000	 62.893319 
502.000000	 62.846755 
501.000000	 62.819385 
500.000000	 62.812113 
499.000000	 62.821698 
498.000000	 62.842082 
497.000000	 62.865853 
496.000000	 62.886309 
495.000000	 62.899112 
494.000000	 62.902379 
493.000000	 62.897276 
492.000000	 62.886929 
491.000000	 62.875747 
490.000000	 62.868380 
489.000000	 62.868666 
488.000000	 62.878370 
487.000000	 62.896656 
486.000000	 62.920808 
485.000000	 62.946224 
484.000000	 62.966752 
483.000000	 62.977075 
482.000000	 62.974309 
481.000000	 62.958812 
480.000000	 62.933826 
479.000000	 62.905716 
478.000000	 62.882471 
477.000000	 62.872052 
476.000000	 62.880492 
475.000000	 62.910056 
474.000000	 62.958359 
473.000000	 63.020324 
472.000000	 63.089466 
471.000000	 63.160133 
470.000000	 63.228058 
469.000000	 63.292622 
468.000000	 63.354372 
467.000000	 63.412690 
466.000000	 63.462686 
465.000000	 63.495445 
464.000000	 63.497829 
463.000000	 63.456511 
462.000000	 63.359951 
461.000000	 63.205432 
460.000000	 62.997412 
459.000000	 62.748265 
458.000000	 62.475562 
457.000000	 62.199854 
456.000000	 61.941003 
455.000000	 61.714506 
454.000000	 61.531305 
453.000000	 61.395287 
452.000000	 61.307692 
451.000000	 61.267852 
450.000000	 61.275291 
449.000000	 61.328125 
448.000000	 61.425971 
447.000000	 61.567783 
446.000000	 61.750388 
445.000000	 61.965966 
444.000000	 62.203669 
443.000000	 62.449336 
442.000000	 62.685990 
441.000000	 62.896251 
440.000000	 63.064885 
439.000000	 63.182401 
438.000000	 63.245344 
437.000000	 63.259863 
436.000000	 63.241815 
435.000000	 63.214659 
434.000000	 63.207554 
433.000000	 63.246130 
432.000000	 63.348865 
431.000000	 63.517332 
430.000000	 63.740682 
429.000000	 63.988661 
428.000000	 64.218807 
427.000000	 64.383888 
426.000000	 64.445471 
425.000000	 64.380049 
424.000000	 64.186620 
423.000000	 63.884663 
422.000000	 63.509130 
421.000000	 63.105869 
420.000000	 62.722682 
419.000000	 62.396907 
418.000000	 62.149405 
417.000000	 61.978244 
416.000000	 61.862730 
415.000000	 61.774897 
414.000000	 61.689114 
413.000000	 61.588287 
412.000000	 61.469984 
411.000000	 61.342382 
410.000000	 61.224269 
409.000000	 61.132645 
408.000000	 61.085367 
407.000000	 61.085057 
406.000000	 61.133384 
405.000000	 61.236286 
404.000000	 61.403894 
403.000000	 61.642050 
402.000000	 61.953878 
401.000000	 62.358355 
400.000000	 62.842440 
399.000000	 63.361597 
398.000000	 63.822793 
397.000000	 64.097118 
396.000000	 64.053463 
395.000000	 63.589978 
394.000000	 62.691307 
393.000000	 61.445450 
392.000000	 60.050988 
391.000000	 58.779072 
390.000000	 57.906818 
389.000000	 57.646775 
388.000000	 58.096456 
387.000000	 59.209704 
386.000000	 60.786151 
385.000000	 62.527394 
384.000000	 64.137172 
383.000000	 65.365266 
382.000000	 66.106319 
381.000000	 66.341972 
380.000000	 66.106748 
379.000000	 65.424442 
378.000000	 64.296245 
377.000000	 62.662363 
376.000000	 60.425829 
375.000000	 57.508111 
374.000000	 53.893661 
373.000000	 49.726915 
372.000000	 45.323324 
371.000000	 41.168284 
370.000000	 37.852954 

