PE IR       SPECTRUM    SPECTRUM    ASCII       PEDS        1.60        
  -1
BZ6CA3~1.ASC
17/04/07
17:40:37.00
17/04/07
17:40:37.00
tln
$BZ1503107-1_t0054$<tbV0>[-10.4,-2.6,8.0,0.0,27,1,0]
370.000000
64









2002,4.07    
MIRTGS : RIGHTBACK : INTERNAL 2
MIR : ON : INTERNAL 2
OPTKBR

0.200000
8
8.000000
FILLER
RATIO
SPECTRUM
UNLOCKED 256

DOUBLE
64
COMBINED
1
0
0


1.000000
RATIO


1
0
TRUE
51149
0
LEFT NOT FITTED RIGHT NOT FITTED 0
NONE
NONE
15600
12.000000
4.427000
51148
TRUE
1 0 8 72 0 0 0 0 

15798.010000






#HDR
-1
-1
#GR
CM-1
%T
0.00002384185791015625
0.0
5000.000000
-1.000000
4631
8
67.136693
45.094490
#DATA
5000.000000	64.839482 
4999.000000	64.776444 
4998.000000	64.763164 
4997.000000	64.798521 
4996.000000	64.867973 
4995.000000	64.949083 
4994.000000	65.018129 
4993.000000	65.057349 
4992.000000	65.060186 
4991.000000	65.031433 
4990.000000	64.987373 
4989.000000	64.949250 
4988.000000	64.939308 
4987.000000	64.973068 
4986.000000	65.058755 
4985.000000	65.195155 
4984.000000	65.374422 
4983.000000	65.583610 
4982.000000	65.808629 
4981.000000	66.034698 
4980.000000	66.245841 
4979.000000	66.424298 
4978.000000	66.550326 
4977.000000	66.603922 
4976.000000	66.568803 
4975.000000	66.435360 
4974.000000	66.205978 
4973.000000	65.894865 
4972.000000	65.529465 
4971.000000	65.144610 
4970.000000	64.777755 
4969.000000	64.462351 
4968.000000	64.222216 
4967.000000	64.069151 
4966.000000	64.001512 
4965.000000	64.008617 
4964.000000	64.074158 
4963.000000	64.180898 
4962.000000	64.312338 
4961.000000	64.455938 
4960.000000	64.601826 
4959.000000	64.742803 
4958.000000	64.871406 
4957.000000	64.983224 
4956.000000	65.075826 
4955.000000	65.150713 
4954.000000	65.212035 
4953.000000	65.266466 
4952.000000	65.319871 
4951.000000	65.375590 
4950.000000	65.431928 
4949.000000	65.482926 
4948.000000	65.518617 
4947.000000	65.529060 
4946.000000	65.506005 
4945.000000	65.446662 
4944.000000	65.353560 
4943.000000	65.236449 
4942.000000	65.108013 
4941.000000	64.980435 
4940.000000	64.863443 
4939.000000	64.763092 
4938.000000	64.680838 
4937.000000	64.614176 
4936.000000	64.559483 
4935.000000	64.514946 
4934.000000	64.479804 
4933.000000	64.454531 
4932.000000	64.439249 
4931.000000	64.432454 
4930.000000	64.431166 
4929.000000	64.430880 
4928.000000	64.426684 
4927.000000	64.414811 
4926.000000	64.395093 
4925.000000	64.371752 
4924.000000	64.352130 
4923.000000	64.345264 
4922.000000	64.359331 
4921.000000	64.399361 
4920.000000	64.464783 
4919.000000	64.550042 
4918.000000	64.646291 
4917.000000	64.743089 
4916.000000	64.831304 
4915.000000	64.904403 
4914.000000	64.959478 
4913.000000	64.996933 
4912.000000	65.019130 
4911.000000	65.029954 
4910.000000	65.033102 
4909.000000	65.032482 
4908.000000	65.032267 
4907.000000	65.036034 
4906.000000	65.046858 
4905.000000	65.066933 
4904.000000	65.097713 
4903.000000	65.138816 
4902.000000	65.188050 
4901.000000	65.241432 
4900.000000	65.293741 
4899.000000	65.339875 
4898.000000	65.375494 
4897.000000	65.398144 
4896.000000	65.406775 
4895.000000	65.402126 
4894.000000	65.385007 
4893.000000	65.356540 
4892.000000	65.316772 
4891.000000	65.265774 
4890.000000	65.203070 
4889.000000	65.129494 
4888.000000	65.047049 
4887.000000	64.959478 
4886.000000	64.872097 
4885.000000	64.790415 
4884.000000	64.720082 
4883.000000	64.666056 
4882.000000	64.631438 
4881.000000	64.616560 
4880.000000	64.619421 
4879.000000	64.635920 
4878.000000	64.660191 
4877.000000	64.685392 
4876.000000	64.704942 
4875.000000	64.713358 
4874.000000	64.706850 
4873.000000	64.684033 
4872.000000	64.646196 
4871.000000	64.597105 
4870.000000	64.542388 
4869.000000	64.488887 
4868.000000	64.443659 
4867.000000	64.412832 
4866.000000	64.400601 
4865.000000	64.408588 
4864.000000	64.435482 
4863.000000	64.477491 
4862.000000	64.529275 
4861.000000	64.585089 
4860.000000	64.638900 
4859.000000	64.685964 
4858.000000	64.723443 
4857.000000	64.749932 
4856.000000	64.764952 
4855.000000	64.768719 
4854.000000	64.762020 
4853.000000	64.745664 
4852.000000	64.720296 
4851.000000	64.687204 
4850.000000	64.648771 
4849.000000	64.608120 
4848.000000	64.569044 
4847.000000	64.535403 
4846.000000	64.510655 
4845.000000	64.496946 
4844.000000	64.494824 
4843.000000	64.502549 
4842.000000	64.517045 
4841.000000	64.534950 
4840.000000	64.553952 
4839.000000	64.572620 
4838.000000	64.591979 
4837.000000	64.614367 
4836.000000	64.643192 
4835.000000	64.681768 
4834.000000	64.731788 
4833.000000	64.792680 
4832.000000	64.861202 
4831.000000	64.932060 
4830.000000	64.998674 
4829.000000	65.054845 
4828.000000	65.095973 
4827.000000	65.120053 
4826.000000	65.128612 
4825.000000	65.126013 
4824.000000	65.118575 
4823.000000	65.112948 
4822.000000	65.113997 
4821.000000	65.123772 
4820.000000	65.140509 
4819.000000	65.158867 
4818.000000	65.170693 
4817.000000	65.166831 
4816.000000	65.139460 
4815.000000	65.084218 
4814.000000	65.001559 
4813.000000	64.897465 
4812.000000	64.782214 
4811.000000	64.668893 
4810.000000	64.571046 
4809.000000	64.500141 
4808.000000	64.462947 
4807.000000	64.461255 
4806.000000	64.492130 
4805.000000	64.548563 
4804.000000	64.620709 
4803.000000	64.698386 
4802.000000	64.772391 
4801.000000	64.836001 
4800.000000	64.884614 
4799.000000	64.916753 
4798.000000	64.932918 
4797.000000	64.935684 
4796.000000	64.928531 
4795.000000	64.915871 
4794.000000	64.902210 
4793.000000	64.891791 
4792.000000	64.887833 
4791.000000	64.891910 
4790.000000	64.903450 
4789.000000	64.919972 
4788.000000	64.937758 
4787.000000	64.952635 
4786.000000	64.960908 
4785.000000	64.960527 
4784.000000	64.950871 
4783.000000	64.932680 
4782.000000	64.907360 
4781.000000	64.876317 
4780.000000	64.840722 
4779.000000	64.800953 
4778.000000	64.757537 
4777.000000	64.711594 
4776.000000	64.665555 
4775.000000	64.623355 
4774.000000	64.589929 
4773.000000	64.570426 
4772.000000	64.568686 
4771.000000	64.586138 
4770.000000	64.620757 
4769.000000	64.667057 
4768.000000	64.717578 
4767.000000	64.764308 
4766.000000	64.800620 
4765.000000	64.822745 
4764.000000	64.830470 
4763.000000	64.826869 
4762.000000	64.817237 
4761.000000	64.807486 
4760.000000	64.802837 
4759.000000	64.806246 
4758.000000	64.818239 
4757.000000	64.836335 
4756.000000	64.856100 
4755.000000	64.872002 
4754.000000	64.878726 
4753.000000	64.872550 
4752.000000	64.851999 
4751.000000	64.818978 
4750.000000	64.777493 
4749.000000	64.734196 
4748.000000	64.696192 
4747.000000	64.670705 
4746.000000	64.663362 
4745.000000	64.677309 
4744.000000	64.712262 
4743.000000	64.764690 
4742.000000	64.828562 
4741.000000	64.896202 
4740.000000	64.959788 
4739.000000	65.012431 
4738.000000	65.049433 
4737.000000	65.068769 
4736.000000	65.070796 
4735.000000	65.058016 
4734.000000	65.033912 
4733.000000	65.002822 
4732.000000	64.968323 
4731.000000	64.933443 
4730.000000	64.899492 
4729.000000	64.866709 
4728.000000	64.834213 
4727.000000	64.801120 
4726.000000	64.767003 
4725.000000	64.732146 
4724.000000	64.698457 
4723.000000	64.668989 
4722.000000	64.647769 
4721.000000	64.638185 
4720.000000	64.642381 
4719.000000	64.660429 
4718.000000	64.689826 
4717.000000	64.725470 
4716.000000	64.760971 
4715.000000	64.789676 
4714.000000	64.806509 
4713.000000	64.808917 
4712.000000	64.797711 
4711.000000	64.776420 
4710.000000	64.750385 
4709.000000	64.725208 
4708.000000	64.704847 
4707.000000	64.691019 
4706.000000	64.682912 
4705.000000	64.678072 
4704.000000	64.673328 
4703.000000	64.666724 
4702.000000	64.658045 
4701.000000	64.650249 
4700.000000	64.648103 
4699.000000	64.658308 
4698.000000	64.687061 
4697.000000	64.738726 
4696.000000	64.814233 
4695.000000	64.909982 
4694.000000	65.018129 
4693.000000	65.127515 
4692.000000	65.226149 
4691.000000	65.302968 
4690.000000	65.350079 
4689.000000	65.364527 
4688.000000	65.348720 
4687.000000	65.309524 
4686.000000	65.256619 
4685.000000	65.200376 
4684.000000	65.149593 
4683.000000	65.110278 
4682.000000	65.084576 
4681.000000	65.071249 
4680.000000	65.066647 
4679.000000	65.066504 
4678.000000	65.067148 
4677.000000	65.066289 
4676.000000	65.063476 
4675.000000	65.059280 
4674.000000	65.055012 
4673.000000	65.051007 
4672.000000	65.046930 
4671.000000	65.041017 
4670.000000	65.031743 
4669.000000	65.017628 
4668.000000	64.999318 
4667.000000	64.979696 
4666.000000	64.963889 
4665.000000	64.957833 
4664.000000	64.967298 
4663.000000	64.995980 
4662.000000	65.044212 
4661.000000	65.108084 
4660.000000	65.180444 
4659.000000	65.251922 
4658.000000	65.312838 
4657.000000	65.355062 
4656.000000	65.373516 
4655.000000	65.366721 
4654.000000	65.336799 
4653.000000	65.288257 
4652.000000	65.226554 
4651.000000	65.157055 
4650.000000	65.084505 
4649.000000	65.013027 
4648.000000	64.946722 
4647.000000	64.889454 
4646.000000	64.845561 
4645.000000	64.818358 
4644.000000	64.809799 
4643.000000	64.819192 
4642.000000	64.842462 
4641.000000	64.873528 
4640.000000	64.904451 
4639.000000	64.928555 
4638.000000	64.941263 
4637.000000	64.941811 
4636.000000	64.932990 
4635.000000	64.920473 
4634.000000	64.910984 
4633.000000	64.909815 
4632.000000	64.918875 
4631.000000	64.936304 
4630.000000	64.956665 
4629.000000	64.973115 
4628.000000	64.979314 
4627.000000	64.971446 
4626.000000	64.949083 
4625.000000	64.915204 
4624.000000	64.874815 
4623.000000	64.833211 
4622.000000	64.794802 
4621.000000	64.761447 
4620.000000	64.732909 
4619.000000	64.707493 
4618.000000	64.682745 
4617.000000	64.656400 
4616.000000	64.627909 
4615.000000	64.597964 
4614.000000	64.570116 
4613.000000	64.549112 
4612.000000	64.540934 
4611.000000	64.550614 
4610.000000	64.581871 
4609.000000	64.635729 
4608.000000	64.709997 
4607.000000	64.799165 
4606.000000	64.895272 
4605.000000	64.989233 
4604.000000	65.071940 
4603.000000	65.135955 
4602.000000	65.176820 
4601.000000	65.193724 
4600.000000	65.189790 
4599.000000	65.170764 
4598.000000	65.143847 
4597.000000	65.115714 
4596.000000	65.091896 
4595.000000	65.074896 
4594.000000	65.065097 
4593.000000	65.059900 
4592.000000	65.056180 
4591.000000	65.049934 
4590.000000	65.037298 
4589.000000	65.015411 
4588.000000	64.982891 
4587.000000	64.940309 
4586.000000	64.889979 
4585.000000	64.835858 
4584.000000	64.782571 
4583.000000	64.734339 
4582.000000	64.694046 
4581.000000	64.662528 
4580.000000	64.638638 
4579.000000	64.619874 
4578.000000	64.603257 
4577.000000	64.586257 
4576.000000	64.567732 
4575.000000	64.548778 
4574.000000	64.532732 
4573.000000	64.523673 
4572.000000	64.525413 
4571.000000	64.540600 
4570.000000	64.569854 
4569.000000	64.611101 
4568.000000	64.660096 
4567.000000	64.711475 
4566.000000	64.759778 
4565.000000	64.800953 
4564.000000	64.832520 
4563.000000	64.852952 
4562.000000	64.862370 
4561.000000	64.861536 
4560.000000	64.852523 
4559.000000	64.838099 
4558.000000	64.821720 
4557.000000	64.807605 
4556.000000	64.799094 
4555.000000	64.798498 
4554.000000	64.805960 
4553.000000	64.819526 
4552.000000	64.835000 
4551.000000	64.846944 
4550.000000	64.850187 
4549.000000	64.841365 
4548.000000	64.819312 
4547.000000	64.785766 
4546.000000	64.744853 
4545.000000	64.702725 
4544.000000	64.665651 
4543.000000	64.639115 
4542.000000	64.626550 
4541.000000	64.629244 
4540.000000	64.646601 
4539.000000	64.676499 
4538.000000	64.716053 
4537.000000	64.761853 
4536.000000	64.810609 
4535.000000	64.858746 
4534.000000	64.902162 
4533.000000	64.936685 
4532.000000	64.958667 
4531.000000	64.965391 
4530.000000	64.955544 
4529.000000	64.929890 
4528.000000	64.891481 
4527.000000	64.845561 
4526.000000	64.798784 
4525.000000	64.758634 
4524.000000	64.732146 
4523.000000	64.724683 
4522.000000	64.738917 
4521.000000	64.774465 
4520.000000	64.827728 
4519.000000	64.892387 
4518.000000	64.960503 
4517.000000	65.023756 
4516.000000	65.075087 
4515.000000	65.109682 
4514.000000	65.125823 
4513.000000	65.124344 
4512.000000	65.108299 
4511.000000	65.082311 
4510.000000	65.051031 
4509.000000	65.018367 
4508.000000	64.986419 
4507.000000	64.956116 
4506.000000	64.926719 
4505.000000	64.897489 
4504.000000	64.867520 
4503.000000	64.836478 
4502.000000	64.805221 
4501.000000	64.776110 
4500.000000	64.751529 
4499.000000	64.733362 
4498.000000	64.721655 
4497.000000	64.714503 
4496.000000	64.708042 
4495.000000	64.697933 
4494.000000	64.680719 
4493.000000	64.655375 
4492.000000	64.624452 
4491.000000	64.593887 
4490.000000	64.570450 
4489.000000	64.560770 
4488.000000	64.569735 
4487.000000	64.599227 
4486.000000	64.647555 
4485.000000	64.709639 
4484.000000	64.779210 
4483.000000	64.848709 
4482.000000	64.911532 
4481.000000	64.961028 
4480.000000	64.991331 
4479.000000	64.997553 
4478.000000	64.976310 
4477.000000	64.926671 
4476.000000	64.851355 
4475.000000	64.755797 
4474.000000	64.647173 
4473.000000	64.535593 
4472.000000	64.433336 
4471.000000	64.351296 
4470.000000	64.297819 
4469.000000	64.275789 
4468.000000	64.283227 
4467.000000	64.315819 
4466.000000	64.369535 
4465.000000	64.441514 
4464.000000	64.532065 
4463.000000	64.646267 
4462.000000	64.791202 
4461.000000	64.967226 
4460.000000	65.168595 
4459.000000	65.391087 
4458.000000	65.621948 
4457.000000	65.841317 
4456.000000	66.021656 
4455.000000	66.128993 
4454.000000	66.136479 
4453.000000	66.027760 
4452.000000	65.813946 
4451.000000	65.534114 
4450.000000	65.252661 
4449.000000	65.049958 
4448.000000	64.994835 
4447.000000	65.127420 
4446.000000	65.441370 
4445.000000	65.883278 
4444.000000	66.364693 
4443.000000	66.783452 
4442.000000	67.056369 
4441.000000	67.136693 
4440.000000	67.026090 
4439.000000	66.760039 
4438.000000	66.396594 
4437.000000	65.980434 
4436.000000	65.514898 
4435.000000	64.958286 
4434.000000	64.230442 
4433.000000	63.255262 
4432.000000	61.996841 
4431.000000	60.496711 
4430.000000	58.886098 
4429.000000	57.365798 
4428.000000	56.160640 
4427.000000	55.467605 
4426.000000	55.390715 
4425.000000	55.924320 
4424.000000	56.942725 
4423.000000	58.238530 
4422.000000	59.566736 
4421.000000	60.708284 
4420.000000	61.513710 
4419.000000	61.932969 
4418.000000	62.009716 
4417.000000	61.862540 
4416.000000	61.640024 
4415.000000	61.483168 
4414.000000	61.486458 
4413.000000	61.687803 
4412.000000	62.063264 
4411.000000	62.553977 
4410.000000	63.081121 
4409.000000	63.573718 
4408.000000	63.981366 
4407.000000	64.280939 
4406.000000	64.477539 
4405.000000	64.587903 
4404.000000	64.638972 
4403.000000	64.657902 
4402.000000	64.666509 
4401.000000	64.678740 
4400.000000	64.699196 
4399.000000	64.735007 
4398.000000	64.785599 
4397.000000	64.846968 
4396.000000	64.911365 
4395.000000	64.971518 
4394.000000	65.019893 
4393.000000	65.050411 
4392.000000	65.060305 
4391.000000	65.050196 
4390.000000	65.024852 
4389.000000	64.992570 
4388.000000	64.956903 
4387.000000	64.916467 
4386.000000	64.869666 
4385.000000	64.816093 
4384.000000	64.759182 
4383.000000	64.706182 
4382.000000	64.666795 
4381.000000	64.650940 
4380.000000	64.663887 
4379.000000	64.705848 
4378.000000	64.773011 
4377.000000	64.857053 
4376.000000	64.945340 
4375.000000	65.024805 
4374.000000	65.085554 
4373.000000	65.121793 
4372.000000	65.131878 
4371.000000	65.119409 
4370.000000	65.091490 
4369.000000	65.057778 
4368.000000	65.027666 
4367.000000	65.009665 
4366.000000	65.010118 
4365.000000	65.032792 
4364.000000	65.078711 
4363.000000	65.146183 
4362.000000	65.231156 
4361.000000	65.327215 
4360.000000	65.425896 
4359.000000	65.516948 
4358.000000	65.589618 
4357.000000	65.634322 
4356.000000	65.644288 
4355.000000	65.617156 
4354.000000	65.555286 
4353.000000	65.466475 
4352.000000	65.361618 
4351.000000	65.253400 
4350.000000	65.152788 
4349.000000	65.067887 
4348.000000	65.001749 
4347.000000	64.953160 
4346.000000	64.917159 
4345.000000	64.886903 
4344.000000	64.856338 
4343.000000	64.822006 
4342.000000	64.783930 
4341.000000	64.744663 
4340.000000	64.709234 
4339.000000	64.682841 
4338.000000	64.670109 
4337.000000	64.673233 
4336.000000	64.692473 
4335.000000	64.725971 
4334.000000	64.770913 
4333.000000	64.824080 
4332.000000	64.882111 
4331.000000	64.941835 
4330.000000	64.999485 
4329.000000	65.050935 
4328.000000	65.092134 
4327.000000	65.119385 
4326.000000	65.129899 
4325.000000	65.122556 
4324.000000	65.098524 
4323.000000	65.060782 
4322.000000	65.014696 
4321.000000	64.965844 
4320.000000	64.919185 
4319.000000	64.878082 
4318.000000	64.844179 
4317.000000	64.817452 
4316.000000	64.796423 
4315.000000	64.779782 
4314.000000	64.767098 
4313.000000	64.759516 
4312.000000	64.759325 
4311.000000	64.769625 
4310.000000	64.792776 
4309.000000	64.829897 
4308.000000	64.879822 
4307.000000	64.938950 
4306.000000	65.001559 
4305.000000	65.060710 
4304.000000	65.109515 
4303.000000	65.142393 
4302.000000	65.156221 
4301.000000	65.151214 
4300.000000	65.130567 
4299.000000	65.100026 
4298.000000	65.066099 
4297.000000	65.035057 
4296.000000	65.011286 
4295.000000	64.996886 
4294.000000	64.990997 
4293.000000	64.990997 
4292.000000	64.992976 
4291.000000	64.993429 
4290.000000	64.989972 
4289.000000	64.981865 
4288.000000	64.970278 
4287.000000	64.957737 
4286.000000	64.947319 
4285.000000	64.941287 
4284.000000	64.940667 
4283.000000	64.944553 
4282.000000	64.950871 
4281.000000	64.956808 
4280.000000	64.959645 
4279.000000	64.957642 
4278.000000	64.950418 
4277.000000	64.939284 
4276.000000	64.926743 
4275.000000	64.916062 
4274.000000	64.910602 
4273.000000	64.913010 
4272.000000	64.924764 
4271.000000	64.945554 
4270.000000	64.973425 
4269.000000	65.005159 
4268.000000	65.036821 
4267.000000	65.064954 
4266.000000	65.087080 
4265.000000	65.102386 
4264.000000	65.111875 
4263.000000	65.117692 
4262.000000	65.122461 
4261.000000	65.127658 
4260.000000	65.133619 
4259.000000	65.138411 
4258.000000	65.138649 
4257.000000	65.130114 
4256.000000	65.109395 
4255.000000	65.074777 
4254.000000	65.027427 
4253.000000	64.971590 
4252.000000	64.914226 
4251.000000	64.863514 
4250.000000	64.827227 
4249.000000	64.811134 
4248.000000	64.817833 
4247.000000	64.846348 
4246.000000	64.892411 
4245.000000	64.949488 
4244.000000	65.009903 
4243.000000	65.066432 
4242.000000	65.113043 
4241.000000	65.145635 
4240.000000	65.162324 
4239.000000	65.162992 
4238.000000	65.149235 
4237.000000	65.123486 
4236.000000	65.088891 
4235.000000	65.049362 
4234.000000	65.009021 
4233.000000	64.972209 
4232.000000	64.943003 
4231.000000	64.925026 
4230.000000	64.920783 
4229.000000	64.931344 
4228.000000	64.956283 
4227.000000	64.993596 
4226.000000	65.039968 
4225.000000	65.091109 
4224.000000	65.142321 
4223.000000	65.189003 
4222.000000	65.227437 
4221.000000	65.254926 
4220.000000	65.270304 
4219.000000	65.273547 
4218.000000	65.266442 
4217.000000	65.251326 
4216.000000	65.231060 
4215.000000	65.207624 
4214.000000	65.183043 
4213.000000	65.158057 
4212.000000	65.132999 
4211.000000	65.107417 
4210.000000	65.080833 
4209.000000	65.053033 
4208.000000	65.024638 
4207.000000	64.996790 
4206.000000	64.971041 
4205.000000	64.948678 
4204.000000	64.930200 
4203.000000	64.915227 
4202.000000	64.902496 
4201.000000	64.890503 
4200.000000	64.878034 
4199.000000	64.864635 
4198.000000	64.850902 
4197.000000	64.838242 
4196.000000	64.828705 
4195.000000	64.823913 
4194.000000	64.825248 
4193.000000	64.833688 
4192.000000	64.850139 
4191.000000	64.875125 
4190.000000	64.908862 
4189.000000	64.951133 
4188.000000	65.000462 
4187.000000	65.054202 
4186.000000	65.108013 
4185.000000	65.155959 
4184.000000	65.191411 
4183.000000	65.208530 
4182.000000	65.203642 
4181.000000	65.176224 
4180.000000	65.129661 
4179.000000	65.071225 
4178.000000	65.010118 
4177.000000	64.955735 
4176.000000	64.915418 
4175.000000	64.893031 
4174.000000	64.888215 
4173.000000	64.896917 
4172.000000	64.912557 
4171.000000	64.927983 
4170.000000	64.937043 
4169.000000	64.936041 
4168.000000	64.924192 
4167.000000	64.903664 
4166.000000	64.878511 
4165.000000	64.854001 
4164.000000	64.834856 
4163.000000	64.824604 
4162.000000	64.824938 
4161.000000	64.835476 
4160.000000	64.854383 
4159.000000	64.878606 
4158.000000	64.904880 
4157.000000	64.930057 
4156.000000	64.951682 
4155.000000	64.968204 
4154.000000	64.978837 
4153.000000	64.983463 
4152.000000	64.982318 
4151.000000	64.975595 
4150.000000	64.963436 
4149.000000	64.945816 
4148.000000	64.922738 
4147.000000	64.894437 
4146.000000	64.861941 
4145.000000	64.827227 
4144.000000	64.793419 
4143.000000	64.764404 
4142.000000	64.744162 
4141.000000	64.736056 
4140.000000	64.742136 
4139.000000	64.762473 
4138.000000	64.795160 
4137.000000	64.836144 
4136.000000	64.880275 
4135.000000	64.921998 
4134.000000	64.956951 
4133.000000	64.982509 
4132.000000	64.998626 
4131.000000	65.007472 
4130.000000	65.012788 
4129.000000	65.018987 
4128.000000	65.029478 
4127.000000	65.045928 
4126.000000	65.067172 
4125.000000	65.089845 
4124.000000	65.108561 
4123.000000	65.117788 
4122.000000	65.112996 
4121.000000	65.092182 
4120.000000	65.056610 
4119.000000	65.010619 
4118.000000	64.960861 
4117.000000	64.914608 
4116.000000	64.877986 
4115.000000	64.854788 
4114.000000	64.845490 
4113.000000	64.847970 
4112.000000	64.857864 
4111.000000	64.870667 
4110.000000	64.882731 
4109.000000	64.892601 
4108.000000	64.901089 
4107.000000	64.910888 
4106.000000	64.924764 
4105.000000	64.944911 
4104.000000	64.971613 
4103.000000	65.002942 
4102.000000	65.034699 
4101.000000	65.061521 
4100.000000	65.078783 
4099.000000	65.083265 
4098.000000	65.074324 
4097.000000	65.053749 
4096.000000	65.025234 
4095.000000	64.993453 
4094.000000	64.962816 
4093.000000	64.936757 
4092.000000	64.917159 
4091.000000	64.904642 
4090.000000	64.898967 
4089.000000	64.899611 
4088.000000	64.906048 
4087.000000	64.918088 
4086.000000	64.935755 
4085.000000	64.958667 
4084.000000	64.985561 
4083.000000	65.014219 
4082.000000	65.041160 
4081.000000	65.062379 
4080.000000	65.073895 
4079.000000	65.072774 
4078.000000	65.057539 
4077.000000	65.028715 
4076.000000	64.988636 
4075.000000	64.941287 
4074.000000	64.891433 
4073.000000	64.843773 
4072.000000	64.802432 
4071.000000	64.770483 
4070.000000	64.749741 
4069.000000	64.740753 
4068.000000	64.743328 
4067.000000	64.756584 
4066.000000	64.779424 
4065.000000	64.810609 
4064.000000	64.848709 
4063.000000	64.891934 
4062.000000	64.937734 
4061.000000	64.982628 
4060.000000	65.022516 
4059.000000	65.053176 
4058.000000	65.070939 
4057.000000	65.073609 
4056.000000	65.060806 
4055.000000	65.034723 
4054.000000	64.999842 
4053.000000	64.962434 
4052.000000	64.929175 
4051.000000	64.906144 
4050.000000	64.897894 
4049.000000	64.906454 
4048.000000	64.931082 
4047.000000	64.968657 
4046.000000	65.014433 
4045.000000	65.063357 
4044.000000	65.110588 
4043.000000	65.152907 
4042.000000	65.188455 
4041.000000	65.217185 
4040.000000	65.240049 
4039.000000	65.258407 
4038.000000	65.273308 
4037.000000	65.285205 
4036.000000	65.293693 
4035.000000	65.298080 
4034.000000	65.297412 
4033.000000	65.291142 
4032.000000	65.279006 
4031.000000	65.261387 
4030.000000	65.238809 
4029.000000	65.212059 
4028.000000	65.181708 
4027.000000	65.148377 
4026.000000	65.112471 
4025.000000	65.074896 
4024.000000	65.036749 
4023.000000	64.999413 
4022.000000	64.964413 
4021.000000	64.933395 
4020.000000	64.907717 
4019.000000	64.887785 
4018.000000	64.873528 
4017.000000	64.864015 
4016.000000	64.858126 
4015.000000	64.854836 
4014.000000	64.853286 
4013.000000	64.852786 
4012.000000	64.852881 
4011.000000	64.853215 
4010.000000	64.853024 
4009.000000	64.851212 
4008.000000	64.846801 
4007.000000	64.839315 
4006.000000	64.829015 
4005.000000	64.817237 
4004.000000	64.806008 
4003.000000	64.798212 
4002.000000	64.796566 
4001.000000	64.803671 
4000.000000	64.820933 
3999.000000	64.848923 
3998.000000	64.887022 
3997.000000	64.933705 
3996.000000	64.986634 
3995.000000	65.042996 
3994.000000	65.099883 
3993.000000	65.154266 
3992.000000	65.203213 
3991.000000	65.243911 
3990.000000	65.274190 
3989.000000	65.292382 
3988.000000	65.297913 
3987.000000	65.291261 
3986.000000	65.274214 
3985.000000	65.249538 
3984.000000	65.220499 
3983.000000	65.190529 
3982.000000	65.162754 
3981.000000	65.139889 
3980.000000	65.123701 
3979.000000	65.115308 
3978.000000	65.114998 
3977.000000	65.122079 
3976.000000	65.135145 
3975.000000	65.152144 
3974.000000	65.170693 
3973.000000	65.188431 
3972.000000	65.203070 
3971.000000	65.212965 
3970.000000	65.217018 
3969.000000	65.214729 
3968.000000	65.205955 
3967.000000	65.191102 
3966.000000	65.170502 
3965.000000	65.144848 
3964.000000	65.114760 
3963.000000	65.080833 
3962.000000	65.043902 
3961.000000	65.005517 
3960.000000	64.967441 
3959.000000	64.931488 
3958.000000	64.899468 
3957.000000	64.873003 
3956.000000	64.853167 
3955.000000	64.840507 
3954.000000	64.835333 
3953.000000	64.837837 
3952.000000	64.848136 
3951.000000	64.866518 
3950.000000	64.892578 
3949.000000	64.925479 
3948.000000	64.963459 
3947.000000	65.004396 
3946.000000	65.045595 
3945.000000	65.084338 
3944.000000	65.118765 
3943.000000	65.147471 
3942.000000	65.170335 
3941.000000	65.187335 
3940.000000	65.199041 
3939.000000	65.205025 
3938.000000	65.204262 
3937.000000	65.194487 
3936.000000	65.173411 
3935.000000	65.139031 
3934.000000	65.090990 
3933.000000	65.031170 
3932.000000	64.963841 
3931.000000	64.895081 
3930.000000	64.831829 
3929.000000	64.780354 
3928.000000	64.745473 
3927.000000	64.729404 
3926.000000	64.731907 
3925.000000	64.750623 
3924.000000	64.781832 
3923.000000	64.821267 
3922.000000	64.864969 
3921.000000	64.909434 
3920.000000	64.952325 
3919.000000	64.991664 
3918.000000	65.026164 
3917.000000	65.054416 
3916.000000	65.075397 
3915.000000	65.088748 
3914.000000	65.094494 
3913.000000	65.093636 
3912.000000	65.087103 
3911.000000	65.076136 
3910.000000	65.061402 
3909.000000	65.043115 
3908.000000	65.020751 
3907.000000	64.993691 
3906.000000	64.961671 
3905.000000	64.925265 
3904.000000	64.886140 
3903.000000	64.847207 
3902.000000	64.812183 
3901.000000	64.785194 
3900.000000	64.769983 
3899.000000	64.769339 
3898.000000	64.784741 
3897.000000	64.816117 
3896.000000	64.861607 
3895.000000	64.917874 
3894.000000	64.980506 
3893.000000	65.044188 
3892.000000	65.103197 
3891.000000	65.151953 
3890.000000	65.185356 
3889.000000	65.200090 
3888.000000	65.195536 
3887.000000	65.173649 
3886.000000	65.139079 
3885.000000	65.098047 
3884.000000	65.057492 
3883.000000	65.023422 
3882.000000	64.999914 
3881.000000	64.988374 
3880.000000	64.987945 
3879.000000	64.995622 
3878.000000	65.007734 
3877.000000	65.020513 
3876.000000	65.031051 
3875.000000	65.037751 
3874.000000	65.040469 
3873.000000	65.040349 
3872.000000	65.039491 
3871.000000	65.040230 
3870.000000	65.044856 
3869.000000	65.055298 
3868.000000	65.072369 
3867.000000	65.096211 
3866.000000	65.125346 
3865.000000	65.157055 
3864.000000	65.187072 
3863.000000	65.210556 
3862.000000	65.222716 
3861.000000	65.219950 
3860.000000	65.200829 
3859.000000	65.166497 
3858.000000	65.120506 
3857.000000	65.068268 
3856.000000	65.015816 
3855.000000	64.968848 
3854.000000	64.931583 
3853.000000	64.906167 
3852.000000	64.892578 
3851.000000	64.889049 
3850.000000	64.892220 
3849.000000	64.898371 
3848.000000	64.903783 
3847.000000	64.905595 
3846.000000	64.902186 
3845.000000	64.893651 
3844.000000	64.881157 
3843.000000	64.866852 
3842.000000	64.853596 
3841.000000	64.844441 
3840.000000	64.841914 
3839.000000	64.847493 
3838.000000	64.861536 
3837.000000	64.883208 
3836.000000	64.910650 
3835.000000	64.941763 
3834.000000	64.974784 
3833.000000	65.008497 
3832.000000	65.042591 
3831.000000	65.076947 
3830.000000	65.111160 
3829.000000	65.144133 
3828.000000	65.173840 
3827.000000	65.197491 
3826.000000	65.212106 
3825.000000	65.215492 
3824.000000	65.206956 
3823.000000	65.187072 
3822.000000	65.158009 
3821.000000	65.122795 
3820.000000	65.084695 
3819.000000	65.046072 
3818.000000	65.008163 
3817.000000	64.971184 
3816.000000	64.934921 
3815.000000	64.899158 
3814.000000	64.864492 
3813.000000	64.832687 
3812.000000	64.806437 
3811.000000	64.788389 
3810.000000	64.780974 
3809.000000	64.784646 
3808.000000	64.798593 
3807.000000	64.820599 
3806.000000	64.847660 
3805.000000	64.876580 
3804.000000	64.904546 
3803.000000	64.929723 
3802.000000	64.950656 
3801.000000	64.966106 
3800.000000	64.975094 
3799.000000	64.976644 
3798.000000	64.969944 
3797.000000	64.954543 
3796.000000	64.931130 
3795.000000	64.901781 
3794.000000	64.870309 
3793.000000	64.841938 
3792.000000	64.822316 
3791.000000	64.816498 
3790.000000	64.827942 
3789.000000	64.857721 
3788.000000	64.903807 
3787.000000	64.961409 
3786.000000	65.023994 
3785.000000	65.084385 
3784.000000	65.135741 
3783.000000	65.173029 
3782.000000	65.193605 
3781.000000	65.197682 
3780.000000	65.187978 
3779.000000	65.168762 
3778.000000	65.145182 
3777.000000	65.121364 
3776.000000	65.100097 
3775.000000	65.081954 
3774.000000	65.065741 
3773.000000	65.049433 
3772.000000	65.031290 
3771.000000	65.010762 
3770.000000	64.989042 
3769.000000	64.969110 
3768.000000	64.955210 
3767.000000	64.951682 
3766.000000	64.961695 
3765.000000	64.986443 
3764.000000	65.024590 
3763.000000	65.072703 
3762.000000	65.125679 
3761.000000	65.177774 
3760.000000	65.223717 
3759.000000	65.259456 
3758.000000	65.282726 
3757.000000	65.293073 
3756.000000	65.291261 
3755.000000	65.278935 
3754.000000	65.257906 
3753.000000	65.230274 
3752.000000	65.197777 
3751.000000	65.162324 
3750.000000	65.125441 
3749.000000	65.088748 
3748.000000	65.053510 
3747.000000	65.021204 
3746.000000	64.992928 
3745.000000	64.969444 
3744.000000	64.951252 
3743.000000	64.938616 
3742.000000	64.931702 
3741.000000	64.930582 
3740.000000	64.935374 
3739.000000	64.945912 
3738.000000	64.962124 
3737.000000	64.983487 
3736.000000	65.009021 
3735.000000	65.036940 
3734.000000	65.064692 
3733.000000	65.089488 
3732.000000	65.108227 
3731.000000	65.118312 
3730.000000	65.118360 
3729.000000	65.108680 
3728.000000	65.091156 
3727.000000	65.069174 
3726.000000	65.047192 
3725.000000	65.030050 
3724.000000	65.021800 
3723.000000	65.025210 
3722.000000	65.041279 
3721.000000	65.069055 
3720.000000	65.105915 
3719.000000	65.147948 
3718.000000	65.190768 
3717.000000	65.230059 
3716.000000	65.262413 
3715.000000	65.285539 
3714.000000	65.298342 
3713.000000	65.301012 
3712.000000	65.294814 
3711.000000	65.281867 
3710.000000	65.264654 
3709.000000	65.245676 
3708.000000	65.227174 
3707.000000	65.211009 
3706.000000	65.198206 
3705.000000	65.189242 
3704.000000	65.183854 
3703.000000	65.181756 
3702.000000	65.182280 
3701.000000	65.184760 
3700.000000	65.188241 
3699.000000	65.191793 
3698.000000	65.194272 
3697.000000	65.194225 
3696.000000	65.190458 
3695.000000	65.181994 
3694.000000	65.168690 
3693.000000	65.151286 
3692.000000	65.131449 
3691.000000	65.111374 
3690.000000	65.093398 
3689.000000	65.079569 
3688.000000	65.070986 
3687.000000	65.067648 
3686.000000	65.068411 
3685.000000	65.071272 
3684.000000	65.074086 
3683.000000	65.075182 
3682.000000	65.073490 
3681.000000	65.069031 
3680.000000	65.062403 
3679.000000	65.054488 
3678.000000	65.046072 
3677.000000	65.037560 
3676.000000	65.028524 
3675.000000	65.018153 
3674.000000	65.005755 
3673.000000	64.991235 
3672.000000	64.974927 
3671.000000	64.958047 
3670.000000	64.942479 
3669.000000	64.930438 
3668.000000	64.923620 
3667.000000	64.923262 
3666.000000	64.929389 
3665.000000	64.941453 
3664.000000	64.958071 
3663.000000	64.977741 
3662.000000	64.998841 
3661.000000	65.020179 
3660.000000	65.040898 
3659.000000	65.060281 
3658.000000	65.077733 
3657.000000	65.092635 
3656.000000	65.104293 
3655.000000	65.112113 
3654.000000	65.115666 
3653.000000	65.115213 
3652.000000	65.111684 
3651.000000	65.106487 
3650.000000	65.101552 
3649.000000	65.098547 
3648.000000	65.099000 
3647.000000	65.103745 
3646.000000	65.113162 
3645.000000	65.127205 
3644.000000	65.145325 
3643.000000	65.166997 
3642.000000	65.191125 
3641.000000	65.216279 
3640.000000	65.240406 
3639.000000	65.260791 
3638.000000	65.274524 
3637.000000	65.278887 
3636.000000	65.271997 
3635.000000	65.253448 
3634.000000	65.224599 
3633.000000	65.188431 
3632.000000	65.148949 
3631.000000	65.110421 
3630.000000	65.076208 
3629.000000	65.048193 
3628.000000	65.026235 
3627.000000	65.008759 
3626.000000	64.993357 
3625.000000	64.977955 
3624.000000	64.961624 
3623.000000	64.945054 
3622.000000	64.930319 
3621.000000	64.920377 
3620.000000	64.917540 
3619.000000	64.923214 
3618.000000	64.936661 
3617.000000	64.955449 
3616.000000	64.975714 
3615.000000	64.993262 
3614.000000	65.004563 
3613.000000	65.007710 
3612.000000	65.002727 
3611.000000	64.991593 
3610.000000	64.977693 
3609.000000	64.964723 
3608.000000	64.955735 
3607.000000	64.952874 
3606.000000	64.956760 
3605.000000	64.966869 
3604.000000	64.981842 
3603.000000	64.999938 
3602.000000	65.019416 
3601.000000	65.038895 
3600.000000	65.057063 
3599.000000	65.072417 
3598.000000	65.083360 
3597.000000	65.088081 
3596.000000	65.085363 
3595.000000	65.074563 
3594.000000	65.056324 
3593.000000	65.032887 
3592.000000	65.007877 
3591.000000	64.985728 
3590.000000	64.970636 
3589.000000	64.965844 
3588.000000	64.972472 
3587.000000	64.989519 
3586.000000	65.013837 
3585.000000	65.040707 
3584.000000	65.065121 
3583.000000	65.082693 
3582.000000	65.090608 
3581.000000	65.088009 
3580.000000	65.076279 
3579.000000	65.058398 
3578.000000	65.038204 
3577.000000	65.019583 
3576.000000	65.005826 
3575.000000	64.998888 
3574.000000	64.999556 
3573.000000	65.007400 
3572.000000	65.021181 
3571.000000	65.038943 
3570.000000	65.058636 
3569.000000	65.078210 
3568.000000	65.095806 
3567.000000	65.109992 
3566.000000	65.119409 
3565.000000	65.123319 
3564.000000	65.121245 
3563.000000	65.113496 
3562.000000	65.100860 
3561.000000	65.084743 
3560.000000	65.067315 
3559.000000	65.050959 
3558.000000	65.038061 
3557.000000	65.030264 
3556.000000	65.028285 
3555.000000	65.031623 
3554.000000	65.038609 
3553.000000	65.046977 
3552.000000	65.054225 
3551.000000	65.058445 
3550.000000	65.058875 
3549.000000	65.055990 
3548.000000	65.051651 
3547.000000	65.048599 
3546.000000	65.049624 
3545.000000	65.056800 
3544.000000	65.070867 
3543.000000	65.091156 
3542.000000	65.115046 
3541.000000	65.139007 
3540.000000	65.158796 
3539.000000	65.170669 
3538.000000	65.171909 
3537.000000	65.161347 
3536.000000	65.139341 
3535.000000	65.107822 
3534.000000	65.069603 
3533.000000	65.028190 
3532.000000	64.986944 
3531.000000	64.948987 
3530.000000	64.916896 
3529.000000	64.892721 
3528.000000	64.877867 
3527.000000	64.873170 
3526.000000	64.879012 
3525.000000	64.895033 
3524.000000	64.920115 
3523.000000	64.952206 
3522.000000	64.988470 
3521.000000	65.025353 
3520.000000	65.059328 
3519.000000	65.087223 
3518.000000	65.107154 
3517.000000	65.118598 
3516.000000	65.122628 
3515.000000	65.121316 
3514.000000	65.117216 
3513.000000	65.112447 
3512.000000	65.108346 
3511.000000	65.104866 
3510.000000	65.100908 
3509.000000	65.094804 
3508.000000	65.085101 
3507.000000	65.070939 
3506.000000	65.052771 
3505.000000	65.031933 
3504.000000	65.010619 
3503.000000	64.991021 
3502.000000	64.974570 
3501.000000	64.961767 
3500.000000	64.952182 
3499.000000	64.944887 
3498.000000	64.938879 
3497.000000	64.933896 
3496.000000	64.930629 
3495.000000	64.930438 
3494.000000	64.934921 
3493.000000	64.945077 
3492.000000	64.960885 
3491.000000	64.980745 
3490.000000	65.002226 
3489.000000	65.022087 
3488.000000	65.037250 
3487.000000	65.046095 
3486.000000	65.048503 
3485.000000	65.046072 
3484.000000	65.041518 
3483.000000	65.037965 
3482.000000	65.037822 
3481.000000	65.042138 
3480.000000	65.050292 
3479.000000	65.060281 
3478.000000	65.069413 
3477.000000	65.075016 
3476.000000	65.075445 
3475.000000	65.070581 
3474.000000	65.061783 
3473.000000	65.051436 
3472.000000	65.042448 
3471.000000	65.037512 
3470.000000	65.038490 
3469.000000	65.046024 
3468.000000	65.059566 
3467.000000	65.077471 
3466.000000	65.097594 
3465.000000	65.117692 
3464.000000	65.135884 
3463.000000	65.150880 
3462.000000	65.161943 
3461.000000	65.168905 
3460.000000	65.172052 
3459.000000	65.171885 
3458.000000	65.169167 
3457.000000	65.164375 
3456.000000	65.158033 
3455.000000	65.149879 
3454.000000	65.139794 
3453.000000	65.126872 
3452.000000	65.110230 
3451.000000	65.088677 
3450.000000	65.061521 
3449.000000	65.028524 
3448.000000	64.990401 
3447.000000	64.948821 
3446.000000	64.906430 
3445.000000	64.866662 
3444.000000	64.833045 
3443.000000	64.808726 
3442.000000	64.795565 
3441.000000	64.793753 
3440.000000	64.801502 
3439.000000	64.815330 
3438.000000	64.830827 
3437.000000	64.843297 
3436.000000	64.849114 
3435.000000	64.846014 
3434.000000	64.834237 
3433.000000	64.816236 
3432.000000	64.796352 
3431.000000	64.779424 
3430.000000	64.770174 
3429.000000	64.772129 
3428.000000	64.786791 
3427.000000	64.813470 
3426.000000	64.849495 
3425.000000	64.891147 
3424.000000	64.934086 
3423.000000	64.974355 
3422.000000	65.008902 
3421.000000	65.035581 
3420.000000	65.053486 
3419.000000	65.062689 
3418.000000	65.063977 
3417.000000	65.058612 
3416.000000	65.048503 
3415.000000	65.035963 
3414.000000	65.023446 
3413.000000	65.013170 
3412.000000	65.007233 
3411.000000	65.006828 
3410.000000	65.012073 
3409.000000	65.021634 
3408.000000	65.033149 
3407.000000	65.043687 
3406.000000	65.050172 
3405.000000	65.050172 
3404.000000	65.042376 
3403.000000	65.026617 
3402.000000	65.003848 
3401.000000	64.975690 
3400.000000	64.944219 
3399.000000	64.911437 
3398.000000	64.879226 
3397.000000	64.849305 
3396.000000	64.823079 
3395.000000	64.802217 
3394.000000	64.788269 
3393.000000	64.782452 
3392.000000	64.785456 
3391.000000	64.797282 
3390.000000	64.817094 
3389.000000	64.843082 
3388.000000	64.872574 
3387.000000	64.902734 
3386.000000	64.931249 
3385.000000	64.956331 
3384.000000	64.977359 
3383.000000	64.994597 
3382.000000	65.009188 
3381.000000	65.022659 
3380.000000	65.036797 
3379.000000	65.053009 
3378.000000	65.072202 
3377.000000	65.094971 
3376.000000	65.120840 
3375.000000	65.148949 
3374.000000	65.177464 
3373.000000	65.204334 
3372.000000	65.227174 
3371.000000	65.243744 
3370.000000	65.252399 
3369.000000	65.252637 
3368.000000	65.245103 
3367.000000	65.231442 
3366.000000	65.213942 
3365.000000	65.195250 
3364.000000	65.177345 
3363.000000	65.161085 
3362.000000	65.146064 
3361.000000	65.130972 
3360.000000	65.113997 
3359.000000	65.093755 
3358.000000	65.070033 
3357.000000	65.044116 
3356.000000	65.018749 
3355.000000	64.997625 
3354.000000	64.984107 
3353.000000	64.980483 
3352.000000	64.987206 
3351.000000	65.002822 
3350.000000	65.023875 
3349.000000	65.046072 
3348.000000	65.065407 
3347.000000	65.079283 
3346.000000	65.086793 
3345.000000	65.088939 
3344.000000	65.088129 
3343.000000	65.087342 
3342.000000	65.088987 
3341.000000	65.094327 
3340.000000	65.103054 
3339.000000	65.113687 
3338.000000	65.124130 
3337.000000	65.132355 
3336.000000	65.137100 
3335.000000	65.138316 
3334.000000	65.137100 
3333.000000	65.135240 
3332.000000	65.134644 
3331.000000	65.136623 
3330.000000	65.141582 
3329.000000	65.148997 
3328.000000	65.157294 
3327.000000	65.164518 
3326.000000	65.168619 
3325.000000	65.167975 
3324.000000	65.161609 
3323.000000	65.149211 
3322.000000	65.131330 
3321.000000	65.108990 
3320.000000	65.083861 
3319.000000	65.057992 
3318.000000	65.034008 
3317.000000	65.014767 
3316.000000	65.003013 
3315.000000	65.001225 
3314.000000	65.011000 
3313.000000	65.032625 
3312.000000	65.064740 
3311.000000	65.104317 
3310.000000	65.146970 
3309.000000	65.187406 
3308.000000	65.220499 
3307.000000	65.241765 
3306.000000	65.248203 
3305.000000	65.238451 
3304.000000	65.213060 
3303.000000	65.174198 
3302.000000	65.125250 
3301.000000	65.070176 
3300.000000	65.013360 
3299.000000	64.959049 
3298.000000	64.911031 
3297.000000	64.872455 
3296.000000	64.845442 
3295.000000	64.831423 
3294.000000	64.830613 
3293.000000	64.842367 
3292.000000	64.864706 
3291.000000	64.895033 
3290.000000	64.930009 
3289.000000	64.966344 
3288.000000	65.000867 
3287.000000	65.031147 
3286.000000	65.055370 
3285.000000	65.072846 
3284.000000	65.083718 
3283.000000	65.088915 
3282.000000	65.089893 
3281.000000	65.088248 
3280.000000	65.085458 
3279.000000	65.082812 
3278.000000	65.081405 
3277.000000	65.081715 
3276.000000	65.083742 
3275.000000	65.086960 
3274.000000	65.090250 
3273.000000	65.092349 
3272.000000	65.091919 
3271.000000	65.087842 
3270.000000	65.079474 
3269.000000	65.067028 
3268.000000	65.051531 
3267.000000	65.034508 
3266.000000	65.017914 
3265.000000	65.003728 
3264.000000	64.993858 
3263.000000	64.989638 
3262.000000	64.991688 
3261.000000	64.999771 
3260.000000	65.012788 
3259.000000	65.028738 
3258.000000	65.044832 
3257.000000	65.057826 
3256.000000	65.064525 
3255.000000	65.062260 
3254.000000	65.049433 
3253.000000	65.026116 
3252.000000	64.994287 
3251.000000	64.958095 
3250.000000	64.923048 
3249.000000	64.895200 
3248.000000	64.879846 
3247.000000	64.880561 
3246.000000	64.898109 
3245.000000	64.930295 
3244.000000	64.972519 
3243.000000	65.018248 
3242.000000	65.060591 
3241.000000	65.093612 
3240.000000	65.112805 
3239.000000	65.116643 
3238.000000	65.105795 
3237.000000	65.083718 
3236.000000	65.055131 
3235.000000	65.025663 
3234.000000	65.000653 
3233.000000	64.984297 
3232.000000	64.979076 
3231.000000	64.985108 
3230.000000	65.000748 
3229.000000	65.022492 
3228.000000	65.045857 
3227.000000	65.066170 
3226.000000	65.079402 
3225.000000	65.083003 
3224.000000	65.076351 
3223.000000	65.060830 
3222.000000	65.039300 
3221.000000	65.015459 
3220.000000	64.992976 
3219.000000	64.974713 
3218.000000	64.962244 
3217.000000	64.955735 
3216.000000	64.954304 
3215.000000	64.956450 
3214.000000	64.961004 
3213.000000	64.967322 
3212.000000	64.975929 
3211.000000	64.987587 
3210.000000	65.003395 
3209.000000	65.023946 
3208.000000	65.048718 
3207.000000	65.075802 
3206.000000	65.102291 
3205.000000	65.124630 
3204.000000	65.139579 
3203.000000	65.145254 
3202.000000	65.141224 
3201.000000	65.128684 
3200.000000	65.110206 
3199.000000	65.089201 
3198.000000	65.069174 
3197.000000	65.052962 
3196.000000	65.042161 
3195.000000	65.036988 
3194.000000	65.036487 
3193.000000	65.038895 
3192.000000	65.041923 
3191.000000	65.043520 
3190.000000	65.042233 
3189.000000	65.037488 
3188.000000	65.029525 
3187.000000	65.019273 
3186.000000	65.007781 
3185.000000	64.996147 
3184.000000	64.985322 
3183.000000	64.975953 
3182.000000	64.968299 
3181.000000	64.962673 
3180.000000	64.959430 
3179.000000	64.959144 
3178.000000	64.962553 
3177.000000	64.970397 
3176.000000	64.983010 
3175.000000	65.000152 
3174.000000	65.020656 
3173.000000	65.042519 
3172.000000	65.063095 
3171.000000	65.079331 
3170.000000	65.088272 
3169.000000	65.087819 
3168.000000	65.077018 
3167.000000	65.056347 
3166.000000	65.027570 
3165.000000	64.993572 
3164.000000	64.958024 
3163.000000	64.924812 
3162.000000	64.897561 
3161.000000	64.879012 
3160.000000	64.870834 
3159.000000	64.873409 
3158.000000	64.885973 
3157.000000	64.906477 
3156.000000	64.932346 
3155.000000	64.960265 
3154.000000	64.987397 
3153.000000	65.010976 
3152.000000	65.029335 
3151.000000	65.041828 
3150.000000	65.049076 
3149.000000	65.052533 
3148.000000	65.054368 
3147.000000	65.056681 
3146.000000	65.061497 
3145.000000	65.069961 
3144.000000	65.082240 
3143.000000	65.097594 
3142.000000	65.114378 
3141.000000	65.130305 
3140.000000	65.142893 
3139.000000	65.149688 
3138.000000	65.148901 
3137.000000	65.139746 
3136.000000	65.122389 
3135.000000	65.098381 
3134.000000	65.070486 
3133.000000	65.041923 
3132.000000	65.016031 
3131.000000	64.995336 
3130.000000	64.981603 
3129.000000	64.974904 
3128.000000	64.973974 
3127.000000	64.976191 
3126.000000	64.978456 
3125.000000	64.977717 
3124.000000	64.971971 
3123.000000	64.960503 
3122.000000	64.943790 
3121.000000	64.923667 
3120.000000	64.902758 
3119.000000	64.883661 
3118.000000	64.868474 
3117.000000	64.858317 
3116.000000	64.853239 
3115.000000	64.852380 
3114.000000	64.854526 
3113.000000	64.858388 
3112.000000	64.863133 
3111.000000	64.868497 
3110.000000	64.875149 
3109.000000	64.884161 
3108.000000	64.896988 
3107.000000	64.914894 
3106.000000	64.938497 
3105.000000	64.967536 
3104.000000	65.000891 
3103.000000	65.036654 
3102.000000	65.072083 
3101.000000	65.103912 
3100.000000	65.128517 
3099.000000	65.142869 
3098.000000	65.144634 
3097.000000	65.132641 
3096.000000	65.107274 
3095.000000	65.070652 
3094.000000	65.026450 
3093.000000	64.979529 
3092.000000	64.935302 
3091.000000	64.898967 
3090.000000	64.874577 
3089.000000	64.864349 
3088.000000	64.868450 
3087.000000	64.884948 
3086.000000	64.910221 
3085.000000	64.939904 
3084.000000	64.969515 
3083.000000	64.995622 
3082.000000	65.015983 
3081.000000	65.030336 
3080.000000	65.039587 
3079.000000	65.045881 
3078.000000	65.051507 
3077.000000	65.058469 
3076.000000	65.067934 
3075.000000	65.079593 
3074.000000	65.092253 
3073.000000	65.103697 
3072.000000	65.111541 
3071.000000	65.113902 
3070.000000	65.110087 
3069.000000	65.100574 
3068.000000	65.087080 
3067.000000	65.072131 
3066.000000	65.058422 
3065.000000	65.048122 
3064.000000	65.042424 
3063.000000	65.041017 
3062.000000	65.042304 
3061.000000	65.044116 
3060.000000	65.044236 
3059.000000	65.040969 
3058.000000	65.033817 
3057.000000	65.023422 
3056.000000	65.011477 
3055.000000	65.000176 
3054.000000	64.991497 
3053.000000	64.986538 
3052.000000	64.985394 
3051.000000	64.987158 
3050.000000	64.990210 
3049.000000	64.992785 
3048.000000	64.993190 
3047.000000	64.990639 
3046.000000	64.984941 
3045.000000	64.976716 
3044.000000	64.966917 
3043.000000	64.956545 
3042.000000	64.946532 
3041.000000	64.937472 
3040.000000	64.929842 
3039.000000	64.923882 
3038.000000	64.920020 
3037.000000	64.918732 
3036.000000	64.920425 
3035.000000	64.925336 
3034.000000	64.933252 
3033.000000	64.943647 
3032.000000	64.955353 
3031.000000	64.967060 
3030.000000	64.977312 
3029.000000	64.984917 
3028.000000	64.989280 
3027.000000	64.990186 
3026.000000	64.988231 
3025.000000	64.984083 
3024.000000	64.978528 
3023.000000	64.972209 
3022.000000	64.965462 
3021.000000	64.958500 
3020.000000	64.951324 
3019.000000	64.944076 
3018.000000	64.937305 
3017.000000	64.932012 
3016.000000	64.929556 
3015.000000	64.931607 
3014.000000	64.939570 
3013.000000	64.954471 
3012.000000	64.976525 
3011.000000	65.005064 
3010.000000	65.038275 
3009.000000	65.073585 
3008.000000	65.107798 
3007.000000	65.137505 
3006.000000	65.159726 
3005.000000	65.172505 
3004.000000	65.175104 
3003.000000	65.168261 
3002.000000	65.153861 
3001.000000	65.134930 
3000.000000	65.114545 
2999.000000	65.095663 
2998.000000	65.080308 
2997.000000	65.069627 
2996.000000	65.063428 
2995.000000	65.060591 
2994.000000	65.059423 
2993.000000	65.058279 
2992.000000	65.055727 
2991.000000	65.051126 
2990.000000	65.044426 
2989.000000	65.036249 
2988.000000	65.027546 
2987.000000	65.019202 
2986.000000	65.011811 
2985.000000	65.005445 
2984.000000	64.999508 
2983.000000	64.993023 
2982.000000	64.984560 
2981.000000	64.972734 
2980.000000	64.956307 
2979.000000	64.934682 
2978.000000	64.908313 
2977.000000	64.878511 
2976.000000	64.847278 
2975.000000	64.816975 
2974.000000	64.790153 
2973.000000	64.768719 
2972.000000	64.753651 
2971.000000	64.744853 
2970.000000	64.741182 
2969.000000	64.741039 
2968.000000	64.742374 
2967.000000	64.743733 
2966.000000	64.743995 
2965.000000	64.743161 
2964.000000	64.741849 
2963.000000	64.741539 
2962.000000	64.743876 
2961.000000	64.750599 
2960.000000	64.762806 
2959.000000	64.781045 
2958.000000	64.805030 
2957.000000	64.833760 
2956.000000	64.865612 
2955.000000	64.898467 
2954.000000	64.929842 
2953.000000	64.957261 
2952.000000	64.978408 
2951.000000	64.991307 
2950.000000	64.994573 
2949.000000	64.987921 
2948.000000	64.971899 
2947.000000	64.948153 
2946.000000	64.919066 
2945.000000	64.887785 
2944.000000	64.857411 
2943.000000	64.830708 
2942.000000	64.809656 
2941.000000	64.795327 
2940.000000	64.787983 
2939.000000	64.786887 
2938.000000	64.790964 
2937.000000	64.798951 
2936.000000	64.809799 
2935.000000	64.822721 
2934.000000	64.837169 
2933.000000	64.852666 
2932.000000	64.868450 
2931.000000	64.883565 
2930.000000	64.896678 
2929.000000	64.906263 
2928.000000	64.911055 
2927.000000	64.910030 
2926.000000	64.903140 
2925.000000	64.890885 
2924.000000	64.874505 
2923.000000	64.855599 
2922.000000	64.835762 
2921.000000	64.816498 
2920.000000	64.798855 
2919.000000	64.783501 
2918.000000	64.771056 
2917.000000	64.761948 
2916.000000	64.756560 
2915.000000	64.755153 
2914.000000	64.757990 
2913.000000	64.765119 
2912.000000	64.775919 
2911.000000	64.789271 
2910.000000	64.803504 
2909.000000	64.816570 
2908.000000	64.826321 
2907.000000	64.830803 
2906.000000	64.828681 
2905.000000	64.819526 
2904.000000	64.804029 
2903.000000	64.783740 
2902.000000	64.760994 
2901.000000	64.738798 
2900.000000	64.720129 
2899.000000	64.707684 
2898.000000	64.703631 
2897.000000	64.709162 
2896.000000	64.724469 
2895.000000	64.748549 
2894.000000	64.779543 
2893.000000	64.814972 
2892.000000	64.852094 
2891.000000	64.888238 
2890.000000	64.921498 
2889.000000	64.950418 
2888.000000	64.974284 
2887.000000	64.993143 
2886.000000	65.007233 
2885.000000	65.016841 
2884.000000	65.021967 
2883.000000	65.022611 
2882.000000	65.018510 
2881.000000	65.009737 
2880.000000	64.996719 
2879.000000	64.980697 
2878.000000	64.963436 
2877.000000	64.947438 
2876.000000	64.935016 
2875.000000	64.928054 
2874.000000	64.927291 
2873.000000	64.932370 
2872.000000	64.941763 
2871.000000	64.953184 
2870.000000	64.964246 
2869.000000	64.973068 
2868.000000	64.978623 
2867.000000	64.981150 
2866.000000	64.981436 
2865.000000	64.981126 
2864.000000	64.981389 
2863.000000	64.983177 
2862.000000	64.986824 
2861.000000	64.992117 
2860.000000	64.998435 
2859.000000	65.004992 
2858.000000	65.011382 
2857.000000	65.017104 
2856.000000	65.021920 
2855.000000	65.025258 
2854.000000	65.026211 
2853.000000	65.023660 
2852.000000	65.016293 
2851.000000	65.003395 
2850.000000	64.985156 
2849.000000	64.963126 
2848.000000	64.939975 
2847.000000	64.919018 
2846.000000	64.903402 
2845.000000	64.895367 
2844.000000	64.895486 
2843.000000	64.902615 
2842.000000	64.914107 
2841.000000	64.926528 
2840.000000	64.936327 
2839.000000	64.940929 
2838.000000	64.939165 
2837.000000	64.931464 
2836.000000	64.919710 
2835.000000	64.906644 
2834.000000	64.895248 
2833.000000	64.888000 
2832.000000	64.886474 
2831.000000	64.891242 
2830.000000	64.901852 
2829.000000	64.916968 
2828.000000	64.934778 
2827.000000	64.953494 
2826.000000	64.971303 
2825.000000	64.986562 
2824.000000	64.998030 
2823.000000	65.004897 
2822.000000	65.006804 
2821.000000	65.003824 
2820.000000	64.996361 
2819.000000	64.985179 
2818.000000	64.971232 
2817.000000	64.955973 
2816.000000	64.941000 
2815.000000	64.928221 
2814.000000	64.919590 
2813.000000	64.917159 
2812.000000	64.922356 
2811.000000	64.935946 
2810.000000	64.957737 
2809.000000	64.986181 
2808.000000	65.018677 
2807.000000	65.051603 
2806.000000	65.080857 
2805.000000	65.102458 
2804.000000	65.113186 
2803.000000	65.111207 
2802.000000	65.096473 
2801.000000	65.070819 
2800.000000	65.037560 
2799.000000	65.001106 
2798.000000	64.966130 
2797.000000	64.936923 
2796.000000	64.916634 
2795.000000	64.906859 
2794.000000	64.907431 
2793.000000	64.916586 
2792.000000	64.931654 
2791.000000	64.949107 
2790.000000	64.965701 
2789.000000	64.978766 
2788.000000	64.986801 
2787.000000	64.989495 
2786.000000	64.987730 
2785.000000	64.983177 
2784.000000	64.977908 
2783.000000	64.973950 
2782.000000	64.972853 
2781.000000	64.975214 
2780.000000	64.980769 
2779.000000	64.988517 
2778.000000	64.996719 
2777.000000	65.003538 
2776.000000	65.007233 
2775.000000	65.006566 
2774.000000	65.001082 
2773.000000	64.991211 
2772.000000	64.978218 
2771.000000	64.963841 
2770.000000	64.950084 
2769.000000	64.938759 
2768.000000	64.931225 
2767.000000	64.928174 
2766.000000	64.929604 
2765.000000	64.934825 
2764.000000	64.942717 
2763.000000	64.952135 
2762.000000	64.961886 
2761.000000	64.971423 
2760.000000	64.980268 
2759.000000	64.988565 
2758.000000	64.996862 
2757.000000	65.005850 
2756.000000	65.016198 
2755.000000	65.028119 
2754.000000	65.041565 
2753.000000	65.056085 
2752.000000	65.070796 
2751.000000	65.084552 
2750.000000	65.096163 
2749.000000	65.104603 
2748.000000	65.109229 
2747.000000	65.109729 
2746.000000	65.106272 
2745.000000	65.099406 
2744.000000	65.089988 
2743.000000	65.078997 
2742.000000	65.067315 
2741.000000	65.055894 
2740.000000	65.045595 
2739.000000	65.037059 
2738.000000	65.030670 
2737.000000	65.026688 
2736.000000	65.025162 
2735.000000	65.025758 
2734.000000	65.027785 
2733.000000	65.030169 
2732.000000	65.031480 
2731.000000	65.030527 
2730.000000	65.026211 
2729.000000	65.017962 
2728.000000	65.005922 
2727.000000	64.990878 
2726.000000	64.974474 
2725.000000	64.958548 
2724.000000	64.944958 
2723.000000	64.935302 
2722.000000	64.930462 
2721.000000	64.930462 
2720.000000	64.934539 
2719.000000	64.941430 
2718.000000	64.949560 
2717.000000	64.957571 
2716.000000	64.964795 
2715.000000	64.971113 
2714.000000	64.977169 
2713.000000	64.983892 
2712.000000	64.992165 
2711.000000	65.002298 
2710.000000	65.013933 
2709.000000	65.025639 
2708.000000	65.035510 
2707.000000	65.041208 
2706.000000	65.040802 
2705.000000	65.033125 
2704.000000	65.018153 
2703.000000	64.997076 
2702.000000	64.972233 
2701.000000	64.946556 
2700.000000	64.923095 
2699.000000	64.904499 
2698.000000	64.892697 
2697.000000	64.888501 
2696.000000	64.891862 
2695.000000	64.901638 
2694.000000	64.916300 
2693.000000	64.933848 
2692.000000	64.952206 
2691.000000	64.969491 
2690.000000	64.984107 
2689.000000	64.995050 
2688.000000	65.001916 
2687.000000	65.004897 
2686.000000	65.004611 
2685.000000	65.001964 
2684.000000	64.997959 
2683.000000	64.993405 
2682.000000	64.988875 
2681.000000	64.984488 
2680.000000	64.980149 
2679.000000	64.975547 
2678.000000	64.970445 
2677.000000	64.964675 
2676.000000	64.958453 
2675.000000	64.952063 
2674.000000	64.946198 
2673.000000	64.941477 
2672.000000	64.938545 
2671.000000	64.937806 
2670.000000	64.939332 
2669.000000	64.942836 
2668.000000	64.947628 
2667.000000	64.952850 
2666.000000	64.957356 
2665.000000	64.960098 
2664.000000	64.960050 
2663.000000	64.956450 
2662.000000	64.949250 
2661.000000	64.938950 
2660.000000	64.926767 
2659.000000	64.914226 
2658.000000	64.903044 
2657.000000	64.894700 
2656.000000	64.890122 
2655.000000	64.889693 
2654.000000	64.893269 
2653.000000	64.900279 
2652.000000	64.909768 
2651.000000	64.920830 
2650.000000	64.932370 
2649.000000	64.943504 
2648.000000	64.953231 
2647.000000	64.960718 
2646.000000	64.965248 
2645.000000	64.966607 
2644.000000	64.964818 
2643.000000	64.960575 
2642.000000	64.955091 
2641.000000	64.949870 
2640.000000	64.946508 
2639.000000	64.946126 
2638.000000	64.949107 
2637.000000	64.954876 
2636.000000	64.962148 
2635.000000	64.969420 
2634.000000	64.975285 
2633.000000	64.978861 
2632.000000	64.979982 
2631.000000	64.979052 
2630.000000	64.976811 
2629.000000	64.973640 
2628.000000	64.969539 
2627.000000	64.963984 
2626.000000	64.956116 
2625.000000	64.945173 
2624.000000	64.930844 
2623.000000	64.913582 
2622.000000	64.894819 
2621.000000	64.876484 
2620.000000	64.860963 
2619.000000	64.850187 
2618.000000	64.845585 
2617.000000	64.847326 
2616.000000	64.854836 
2615.000000	64.866876 
2614.000000	64.882040 
2613.000000	64.898991 
2612.000000	64.916467 
2611.000000	64.933562 
2610.000000	64.949345 
2609.000000	64.962911 
2608.000000	64.973258 
2607.000000	64.979386 
2606.000000	64.980506 
2605.000000	64.976334 
2604.000000	64.967155 
2603.000000	64.954090 
2602.000000	64.938807 
2601.000000	64.923334 
2600.000000	64.909934 
2599.000000	64.900612 
2598.000000	64.896869 
2597.000000	64.899325 
2596.000000	64.907717 
2595.000000	64.920949 
2594.000000	64.937376 
2593.000000	64.954686 
2592.000000	64.970397 
2591.000000	64.982175 
2590.000000	64.987969 
2589.000000	64.986538 
2588.000000	64.977550 
2587.000000	64.961862 
2586.000000	64.941430 
2585.000000	64.918994 
2584.000000	64.897704 
2583.000000	64.880514 
2582.000000	64.869809 
2581.000000	64.866685 
2580.000000	64.871120 
2579.000000	64.881587 
2578.000000	64.895677 
2577.000000	64.910244 
2576.000000	64.922118 
2575.000000	64.928460 
2574.000000	64.927601 
2573.000000	64.918971 
2572.000000	64.903545 
2571.000000	64.883327 
2570.000000	64.861130 
2569.000000	64.839982 
2568.000000	64.822626 
2567.000000	64.810872 
2566.000000	64.805507 
2565.000000	64.806199 
2564.000000	64.811468 
2563.000000	64.819359 
2562.000000	64.827513 
2561.000000	64.834141 
2560.000000	64.838027 
2559.000000	64.838838 
2558.000000	64.837050 
2557.000000	64.833855 
2556.000000	64.830803 
2555.000000	64.829349 
2554.000000	64.830541 
2553.000000	64.834809 
2552.000000	64.841890 
2551.000000	64.851069 
2550.000000	64.861178 
2549.000000	64.870905 
2548.000000	64.879179 
2547.000000	64.885187 
2546.000000	64.888548 
2545.000000	64.889192 
2544.000000	64.887213 
2543.000000	64.882946 
2542.000000	64.876580 
2541.000000	64.868330 
2540.000000	64.858388 
2539.000000	64.846968 
2538.000000	64.834499 
2537.000000	64.821457 
2536.000000	64.808726 
2535.000000	64.797163 
2534.000000	64.787578 
2533.000000	64.780545 
2532.000000	64.776277 
2531.000000	64.774537 
2530.000000	64.774894 
2529.000000	64.776802 
2528.000000	64.779639 
2527.000000	64.783120 
2526.000000	64.787220 
2525.000000	64.792275 
2524.000000	64.798855 
2523.000000	64.807677 
2522.000000	64.819240 
2521.000000	64.833784 
2520.000000	64.850974 
2519.000000	64.869976 
2518.000000	64.889407 
2517.000000	64.907598 
2516.000000	64.922904 
2515.000000	64.934015 
2514.000000	64.940142 
2513.000000	64.941358 
2512.000000	64.938449 
2511.000000	64.932727 
2510.000000	64.925551 
2509.000000	64.918231 
2508.000000	64.911651 
2507.000000	64.906120 
2506.000000	64.901399 
2505.000000	64.896965 
2504.000000	64.892339 
2503.000000	64.887619 
2502.000000	64.883542 
2501.000000	64.881372 
2500.000000	64.882612 
2499.000000	64.888620 
2498.000000	64.899969 
2497.000000	64.916014 
2496.000000	64.935088 
2495.000000	64.954662 
2494.000000	64.971780 
2493.000000	64.983797 
2492.000000	64.989042 
2491.000000	64.987349 
2490.000000	64.979982 
2489.000000	64.969611 
2488.000000	64.959669 
2487.000000	64.953541 
2486.000000	64.953875 
2485.000000	64.961671 
2484.000000	64.976334 
2483.000000	64.995193 
2482.000000	65.014576 
2481.000000	65.030026 
2480.000000	65.037655 
2479.000000	65.034580 
2478.000000	65.019869 
2477.000000	64.994382 
2476.000000	64.960646 
2475.000000	64.922237 
2474.000000	64.882993 
2473.000000	64.846301 
2472.000000	64.814543 
2471.000000	64.788794 
2470.000000	64.769005 
2469.000000	64.754390 
2468.000000	64.744114 
2467.000000	64.737510 
2466.000000	64.734625 
2465.000000	64.735937 
2464.000000	64.742350 
2463.000000	64.754295 
2462.000000	64.771699 
2461.000000	64.793562 
2460.000000	64.817929 
2459.000000	64.842271 
2458.000000	64.863896 
2457.000000	64.880490 
2456.000000	64.890909 
2455.000000	64.895319 
2454.000000	64.895057 
2453.000000	64.892458 
2452.000000	64.890003 
2451.000000	64.889979 
2450.000000	64.893507 
2449.000000	64.900445 
2448.000000	64.909338 
2447.000000	64.917898 
2446.000000	64.923501 
2445.000000	64.924240 
2444.000000	64.919328 
2443.000000	64.909529 
2442.000000	64.896941 
2441.000000	64.884662 
2440.000000	64.876079 
2439.000000	64.874053 
2438.000000	64.880275 
2437.000000	64.894604 
2436.000000	64.915442 
2435.000000	64.939785 
2434.000000	64.964151 
2433.000000	64.984989 
2432.000000	64.999580 
2431.000000	65.006256 
2430.000000	65.004754 
2429.000000	64.995956 
2428.000000	64.981651 
2427.000000	64.964103 
2426.000000	64.945793 
2425.000000	64.928722 
2424.000000	64.914512 
2423.000000	64.903664 
2422.000000	64.895963 
2421.000000	64.890217 
2420.000000	64.884853 
2419.000000	64.878129 
2418.000000	64.868736 
2417.000000	64.855980 
2416.000000	64.840316 
2415.000000	64.823317 
2414.000000	64.807510 
2413.000000	64.795827 
2412.000000	64.790821 
2411.000000	64.794182 
2410.000000	64.806365 
2409.000000	64.826178 
2408.000000	64.851212 
2407.000000	64.878368 
2406.000000	64.904308 
2405.000000	64.926362 
2404.000000	64.942765 
2403.000000	64.952969 
2402.000000	64.957356 
2401.000000	64.956903 
2400.000000	64.952826 
2399.000000	64.946341 
2398.000000	64.938211 
2397.000000	64.929103 
2396.000000	64.919257 
2395.000000	64.908933 
2394.000000	64.898324 
2393.000000	64.887976 
2392.000000	64.878201 
2391.000000	64.869189 
2390.000000	64.860916 
2389.000000	64.853167 
2388.000000	64.845514 
2387.000000	64.837718 
2386.000000	64.829611 
2385.000000	64.821434 
2384.000000	64.813685 
2383.000000	64.807105 
2382.000000	64.802479 
2381.000000	64.800477 
2380.000000	64.801478 
2379.000000	64.805531 
2378.000000	64.812421 
2377.000000	64.821457 
2376.000000	64.831829 
2375.000000	64.842438 
2374.000000	64.851951 
2373.000000	64.859080 
2372.000000	64.862728 
2371.000000	64.862132 
2370.000000	64.857149 
2369.000000	64.848279 
2368.000000	64.836835 
2367.000000	64.824581 
2366.000000	64.813494 
2365.000000	64.805269 
2364.000000	64.801025 
2363.000000	64.800834 
2362.000000	64.803886 
2361.000000	64.808630 
2360.000000	64.813256 
2359.000000	64.816236 
2358.000000	64.816641 
2357.000000	64.814496 
2356.000000	64.810466 
2355.000000	64.805769 
2354.000000	64.801859 
2353.000000	64.799714 
2352.000000	64.799809 
2351.000000	64.802026 
2350.000000	64.805412 
2349.000000	64.808845 
2348.000000	64.810919 
2347.000000	64.810752 
2346.000000	64.807653 
2345.000000	64.801454 
2344.000000	64.792418 
2343.000000	64.780974 
2342.000000	64.767646 
2341.000000	64.753174 
2340.000000	64.738225 
2339.000000	64.723491 
2338.000000	64.709734 
2337.000000	64.697647 
2336.000000	64.687943 
2335.000000	64.681243 
2334.000000	64.677953 
2333.000000	64.678239 
2332.000000	64.681982 
2331.000000	64.688801 
2330.000000	64.697980 
2329.000000	64.708685 
2328.000000	64.720010 
2327.000000	64.731144 
2326.000000	64.741563 
2325.000000	64.751148 
2324.000000	64.759969 
2323.000000	64.768266 
2322.000000	64.776158 
2321.000000	64.783549 
2320.000000	64.790177 
2319.000000	64.795279 
2318.000000	64.797925 
2317.000000	64.797091 
2316.000000	64.792275 
2315.000000	64.783477 
2314.000000	64.771485 
2313.000000	64.757800 
2312.000000	64.744448 
2311.000000	64.733648 
2310.000000	64.727306 
2309.000000	64.726614 
2308.000000	64.732003 
2307.000000	64.742827 
2306.000000	64.757823 
2305.000000	64.775252 
2304.000000	64.793276 
2303.000000	64.810061 
2302.000000	64.824199 
2301.000000	64.834547 
2300.000000	64.840602 
2299.000000	64.842152 
2298.000000	64.839792 
2297.000000	64.834308 
2296.000000	64.826941 
2295.000000	64.819216 
2294.000000	64.812731 
2293.000000	64.809083 
2292.000000	64.809346 
2291.000000	64.814257 
2290.000000	64.823627 
2289.000000	64.836573 
2288.000000	64.851427 
2287.000000	64.865994 
2286.000000	64.877748 
2285.000000	64.884424 
2284.000000	64.884448 
2283.000000	64.877271 
2282.000000	64.863634 
2281.000000	64.845395 
2280.000000	64.825296 
2279.000000	64.806485 
2278.000000	64.791870 
2277.000000	64.783525 
2276.000000	64.782238 
2275.000000	64.787244 
2274.000000	64.796519 
2273.000000	64.807009 
2272.000000	64.815640 
2271.000000	64.819908 
2270.000000	64.818310 
2269.000000	64.810729 
2268.000000	64.798474 
2267.000000	64.783906 
2266.000000	64.769887 
2265.000000	64.759206 
2264.000000	64.753913 
2263.000000	64.754962 
2262.000000	64.762306 
2261.000000	64.774465 
2260.000000	64.789104 
2259.000000	64.803481 
2258.000000	64.814901 
2257.000000	64.821481 
2256.000000	64.822316 
2255.000000	64.817643 
2254.000000	64.808726 
2253.000000	64.797472 
2252.000000	64.785766 
2251.000000	64.775156 
2250.000000	64.766454 
2249.000000	64.759540 
2248.000000	64.753794 
2247.000000	64.748167 
2246.000000	64.741969 
2245.000000	64.734959 
2244.000000	64.727711 
2243.000000	64.721393 
2242.000000	64.717555 
2241.000000	64.717435 
2240.000000	64.721703 
2239.000000	64.730095 
2238.000000	64.741587 
2237.000000	64.754557 
2236.000000	64.767384 
2235.000000	64.778757 
2234.000000	64.788150 
2233.000000	64.795875 
2232.000000	64.802908 
2231.000000	64.810562 
2230.000000	64.820003 
2229.000000	64.831876 
2228.000000	64.846014 
2227.000000	64.861178 
2226.000000	64.875292 
2225.000000	64.885926 
2224.000000	64.890670 
2223.000000	64.887762 
2222.000000	64.876413 
2221.000000	64.857220 
2220.000000	64.832067 
2219.000000	64.803862 
2218.000000	64.776110 
2217.000000	64.752411 
2216.000000	64.735603 
2215.000000	64.727497 
2214.000000	64.728713 
2213.000000	64.738440 
2212.000000	64.754819 
2211.000000	64.775204 
2210.000000	64.796423 
2209.000000	64.815640 
2208.000000	64.830517 
2207.000000	64.839792 
2206.000000	64.843010 
2205.000000	64.840817 
2204.000000	64.834356 
2203.000000	64.825272 
2202.000000	64.815163 
2201.000000	64.805388 
2200.000000	64.796805 
2199.000000	64.789652 
2198.000000	64.783740 
2197.000000	64.778542 
2196.000000	64.773225 
2195.000000	64.766979 
2194.000000	64.759016 
2193.000000	64.748620 
2192.000000	64.735341 
2191.000000	64.718699 
2190.000000	64.698886 
2189.000000	64.676427 
2188.000000	64.652776 
2187.000000	64.629983 
2186.000000	64.610934 
2185.000000	64.598703 
2184.000000	64.596009 
2183.000000	64.604568 
2182.000000	64.624357 
2181.000000	64.653372 
2180.000000	64.687943 
2179.000000	64.723110 
2178.000000	64.753603 
2177.000000	64.774894 
2176.000000	64.784216 
2175.000000	64.781093 
2174.000000	64.767503 
2173.000000	64.747095 
2172.000000	64.724540 
2171.000000	64.704179 
2170.000000	64.689493 
2169.000000	64.682054 
2168.000000	64.681839 
2167.000000	64.687228 
2166.000000	64.696025 
2165.000000	64.706063 
2164.000000	64.715719 
2163.000000	64.724349 
2162.000000	64.732122 
2161.000000	64.739775 
2160.000000	64.747953 
2159.000000	64.757037 
2158.000000	64.766836 
2157.000000	64.776587 
2156.000000	64.785051 
2155.000000	64.790940 
2154.000000	64.793515 
2153.000000	64.792370 
2152.000000	64.787602 
2151.000000	64.779901 
2150.000000	64.770102 
2149.000000	64.759469 
2148.000000	64.749240 
2147.000000	64.740586 
2146.000000	64.734506 
2145.000000	64.731740 
2144.000000	64.732694 
2143.000000	64.737200 
2142.000000	64.744377 
2141.000000	64.752793 
2140.000000	64.760637 
2139.000000	64.766073 
2138.000000	64.767599 
2137.000000	64.764642 
2136.000000	64.757609 
2135.000000	64.748048 
2134.000000	64.738249 
2133.000000	64.730763 
2132.000000	64.727759 
2131.000000	64.730429 
2130.000000	64.738774 
2129.000000	64.751577 
2128.000000	64.766669 
2127.000000	64.781641 
2126.000000	64.794111 
2125.000000	64.802455 
2124.000000	64.805984 
2123.000000	64.804935 
2122.000000	64.800477 
2121.000000	64.794373 
2120.000000	64.788413 
2119.000000	64.784026 
2118.000000	64.782047 
2117.000000	64.782428 
2116.000000	64.784502 
2115.000000	64.786982 
2114.000000	64.788317 
2113.000000	64.787077 
2112.000000	64.782190 
2111.000000	64.773368 
2110.000000	64.761018 
2109.000000	64.746499 
2108.000000	64.731431 
2107.000000	64.718031 
2106.000000	64.708352 
2105.000000	64.704084 
2104.000000	64.706277 
2103.000000	64.715003 
2102.000000	64.729547 
2101.000000	64.748382 
2100.000000	64.769506 
2099.000000	64.790511 
2098.000000	64.808988 
2097.000000	64.822793 
2096.000000	64.830303 
2095.000000	64.830541 
2094.000000	64.823365 
2093.000000	64.809489 
2092.000000	64.790415 
2091.000000	64.768290 
2090.000000	64.745783 
2089.000000	64.725637 
2088.000000	64.710283 
2087.000000	64.701294 
2086.000000	64.699316 
2085.000000	64.703631 
2084.000000	64.712619 
2083.000000	64.723610 
2082.000000	64.733719 
2081.000000	64.740252 
2080.000000	64.741301 
2079.000000	64.736127 
2078.000000	64.725279 
2077.000000	64.710307 
2076.000000	64.693236 
2075.000000	64.676260 
2074.000000	64.661121 
2073.000000	64.648866 
2072.000000	64.639949 
2071.000000	64.634466 
2070.000000	64.632415 
2069.000000	64.633846 
2068.000000	64.638900 
2067.000000	64.647746 
2066.000000	64.660239 
2065.000000	64.675569 
2064.000000	64.692211 
2063.000000	64.708161 
2062.000000	64.721202 
2061.000000	64.729475 
2060.000000	64.731836 
2059.000000	64.728236 
2058.000000	64.719915 
2057.000000	64.708876 
2056.000000	64.697194 
2055.000000	64.686632 
2054.000000	64.678096 
2053.000000	64.671349 
2052.000000	64.665317 
2051.000000	64.658546 
2050.000000	64.649820 
2049.000000	64.638733 
2048.000000	64.625787 
2047.000000	64.612412 
2046.000000	64.600610 
2045.000000	64.592337 
2044.000000	64.588928 
2043.000000	64.590716 
2042.000000	64.597010 
2041.000000	64.606118 
2040.000000	64.615821 
2039.000000	64.624118 
2038.000000	64.629626 
2037.000000	64.631938 
2036.000000	64.631605 
2035.000000	64.629888 
2034.000000	64.628267 
2033.000000	64.627885 
2032.000000	64.629507 
2031.000000	64.632821 
2030.000000	64.637064 
2029.000000	64.641189 
2028.000000	64.644312 
2027.000000	64.646029 
2026.000000	64.646577 
2025.000000	64.646768 
2024.000000	64.647626 
2023.000000	64.650201 
2022.000000	64.654994 
2021.000000	64.661741 
2020.000000	64.669537 
2019.000000	64.677143 
2018.000000	64.683294 
2017.000000	64.687180 
2016.000000	64.688682 
2015.000000	64.688491 
2014.000000	64.687824 
2013.000000	64.688038 
2012.000000	64.690256 
2011.000000	64.694976 
2010.000000	64.702129 
2009.000000	64.710855 
2008.000000	64.720010 
2007.000000	64.728212 
2006.000000	64.734339 
2005.000000	64.737629 
2004.000000	64.737653 
2003.000000	64.734387 
2002.000000	64.727807 
2001.000000	64.718174 
2000.000000	64.705848 
1999.000000	64.691209 
1998.000000	64.674925 
1997.000000	64.657807 
1996.000000	64.640855 
1995.000000	64.625120 
1994.000000	64.611673 
1993.000000	64.601349 
1992.000000	64.594507 
1991.000000	64.591312 
1990.000000	64.591670 
1989.000000	64.595270 
1988.000000	64.601707 
1987.000000	64.610624 
1986.000000	64.621400 
1985.000000	64.633274 
1984.000000	64.645171 
1983.000000	64.655733 
1982.000000	64.663386 
1981.000000	64.666748 
1980.000000	64.664912 
1979.000000	64.657711 
1978.000000	64.645934 
1977.000000	64.631295 
1976.000000	64.615988 
1975.000000	64.602136 
1974.000000	64.591455 
1973.000000	64.584660 
1972.000000	64.581441 
1971.000000	64.580512 
1970.000000	64.580106 
1969.000000	64.578366 
1968.000000	64.573955 
1967.000000	64.566111 
1966.000000	64.555072 
1965.000000	64.541792 
1964.000000	64.527678 
1963.000000	64.514207 
1962.000000	64.502716 
1961.000000	64.494061 
1960.000000	64.488720 
1959.000000	64.486694 
1958.000000	64.487695 
1957.000000	64.491224 
1956.000000	64.496684 
1955.000000	64.503407 
1954.000000	64.510583 
1953.000000	64.517593 
1952.000000	64.523887 
1951.000000	64.529371 
1950.000000	64.534163 
1949.000000	64.538764 
1948.000000	64.543771 
1947.000000	64.549899 
1946.000000	64.557552 
1945.000000	64.566850 
1944.000000	64.577484 
1943.000000	64.588928 
1942.000000	64.600443 
1941.000000	64.611387 
1940.000000	64.621400 
1939.000000	64.630246 
1938.000000	64.638113 
1937.000000	64.645171 
1936.000000	64.651513 
1935.000000	64.657092 
1934.000000	64.661598 
1933.000000	64.664697 
1932.000000	64.666056 
1931.000000	64.665555 
1930.000000	64.663434 
1929.000000	64.660239 
1928.000000	64.656662 
1927.000000	64.653325 
1926.000000	64.650750 
1925.000000	64.649128 
1924.000000	64.648318 
1923.000000	64.648008 
1922.000000	64.647984 
1921.000000	64.648008 
1920.000000	64.648103 
1919.000000	64.648294 
1918.000000	64.648699 
1917.000000	64.649367 
1916.000000	64.650130 
1915.000000	64.650535 
1914.000000	64.650058 
1913.000000	64.648294 
1912.000000	64.645147 
1911.000000	64.640736 
1910.000000	64.635562 
1909.000000	64.630389 
1908.000000	64.625692 
1907.000000	64.621710 
1906.000000	64.618182 
1905.000000	64.614415 
1904.000000	64.609599 
1903.000000	64.603066 
1902.000000	64.594531 
1901.000000	64.584517 
1900.000000	64.574313 
1899.000000	64.565491 
1898.000000	64.559769 
1897.000000	64.558315 
1896.000000	64.561438 
1895.000000	64.568328 
1894.000000	64.577293 
1893.000000	64.585947 
1892.000000	64.592027 
1891.000000	64.593672 
1890.000000	64.590024 
1889.000000	64.581322 
1888.000000	64.568853 
1887.000000	64.554452 
1886.000000	64.540219 
1885.000000	64.528107 
1884.000000	64.519309 
1883.000000	64.514446 
1882.000000	64.513301 
1881.000000	64.515209 
1880.000000	64.519357 
1879.000000	64.524960 
1878.000000	64.531421 
1877.000000	64.538431 
1876.000000	64.545679 
1875.000000	64.552950 
1874.000000	64.559912 
1873.000000	64.566063 
1872.000000	64.570665 
1871.000000	64.573144 
1870.000000	64.573097 
1869.000000	64.570474 
1868.000000	64.565873 
1867.000000	64.560246 
1866.000000	64.555025 
1865.000000	64.551615 
1864.000000	64.550971 
1863.000000	64.553618 
1862.000000	64.559268 
1861.000000	64.566922 
1860.000000	64.575171 
1859.000000	64.582514 
1858.000000	64.587879 
1857.000000	64.590883 
1856.000000	64.591836 
1855.000000	64.591693 
1854.000000	64.591789 
1853.000000	64.593315 
1852.000000	64.597129 
1851.000000	64.603281 
1850.000000	64.611196 
1849.000000	64.619636 
1848.000000	64.627242 
1847.000000	64.632725 
1846.000000	64.635276 
1845.000000	64.634633 
1844.000000	64.631128 
1843.000000	64.625406 
1842.000000	64.618277 
1841.000000	64.610242 
1840.000000	64.601397 
1839.000000	64.591550 
1838.000000	64.580321 
1837.000000	64.567160 
1836.000000	64.552068 
1835.000000	64.535450 
1834.000000	64.518356 
1833.000000	64.502310 
1832.000000	64.489030 
1831.000000	64.480185 
1830.000000	64.476776 
1829.000000	64.479064 
1828.000000	64.486074 
1827.000000	64.495992 
1826.000000	64.506435 
1825.000000	64.514970 
1824.000000	64.519786 
1823.000000	64.520096 
1822.000000	64.516186 
1821.000000	64.509463 
1820.000000	64.501953 
1819.000000	64.495706 
1818.000000	64.492273 
1817.000000	64.492344 
1816.000000	64.495587 
1815.000000	64.500904 
1814.000000	64.506435 
1813.000000	64.510607 
1812.000000	64.512085 
1811.000000	64.510369 
1810.000000	64.505863 
1809.000000	64.499330 
1808.000000	64.492011 
1807.000000	64.484977 
1806.000000	64.479017 
1805.000000	64.474463 
1804.000000	64.471149 
1803.000000	64.468836 
1802.000000	64.467048 
1801.000000	64.465427 
1800.000000	64.463782 
1799.000000	64.462065 
1798.000000	64.460515 
1797.000000	64.459419 
1796.000000	64.458990 
1795.000000	64.459276 
1794.000000	64.460134 
1793.000000	64.461207 
1792.000000	64.461898 
1791.000000	64.461636 
1790.000000	64.459896 
1789.000000	64.456582 
1788.000000	64.451861 
1787.000000	64.446544 
1786.000000	64.441537 
1785.000000	64.438128 
1784.000000	64.437365 
1783.000000	64.440107 
1782.000000	64.446568 
1781.000000	64.456558 
1780.000000	64.469170 
1779.000000	64.483261 
1778.000000	64.497518 
1777.000000	64.510607 
1776.000000	64.521479 
1775.000000	64.529442 
1774.000000	64.534187 
1773.000000	64.535689 
1772.000000	64.534139 
1771.000000	64.529824 
1770.000000	64.523124 
1769.000000	64.514422 
1768.000000	64.504241 
1767.000000	64.493131 
1766.000000	64.481687 
1765.000000	64.470577 
1764.000000	64.460301 
1763.000000	64.451098 
1762.000000	64.443039 
1761.000000	64.435744 
1760.000000	64.428853 
1759.000000	64.421916 
1758.000000	64.414477 
1757.000000	64.406347 
1756.000000	64.397478 
1755.000000	64.387965 
1754.000000	64.377832 
1753.000000	64.366865 
1752.000000	64.354658 
1751.000000	64.340591 
1750.000000	64.323782 
1749.000000	64.303803 
1748.000000	64.280581 
1747.000000	64.254617 
1746.000000	64.227056 
1745.000000	64.199590 
1744.000000	64.173936 
1743.000000	64.151549 
1742.000000	64.133381 
1741.000000	64.119601 
1740.000000	64.109706 
1739.000000	64.102673 
1738.000000	64.097499 
1737.000000	64.093494 
1736.000000	64.090204 
1735.000000	64.087796 
1734.000000	64.086675 
1733.000000	64.087367 
1732.000000	64.090037 
1731.000000	64.094471 
1730.000000	64.099907 
1729.000000	64.105319 
1728.000000	64.109563 
1727.000000	64.111733 
1726.000000	64.111518 
1725.000000	64.109492 
1724.000000	64.106678 
1723.000000	64.104628 
1722.000000	64.104866 
1721.000000	64.108800 
1720.000000	64.117145 
1719.000000	64.130043 
1718.000000	64.146947 
1717.000000	64.166927 
1716.000000	64.188838 
1715.000000	64.211559 
1714.000000	64.234280 
1713.000000	64.256453 
1712.000000	64.277672 
1711.000000	64.297795 
1710.000000	64.316534 
1709.000000	64.333701 
1708.000000	64.349007 
1707.000000	64.362287 
1706.000000	64.373469 
1705.000000	64.382743 
1704.000000	64.390683 
1703.000000	64.398026 
1702.000000	64.405345 
1701.000000	64.413070 
1700.000000	64.421081 
1699.000000	64.428925 
1698.000000	64.435768 
1697.000000	64.440679 
1696.000000	64.442777 
1695.000000	64.441680 
1694.000000	64.437532 
1693.000000	64.431047 
1692.000000	64.423251 
1691.000000	64.415216 
1690.000000	64.407825 
1689.000000	64.401602 
1688.000000	64.396333 
1687.000000	64.391326 
1686.000000	64.385628 
1685.000000	64.378142 
1684.000000	64.368033 
1683.000000	64.354729 
1682.000000	64.338445 
1681.000000	64.319968 
1680.000000	64.300394 
1679.000000	64.281272 
1678.000000	64.264273 
1677.000000	64.251112 
1676.000000	64.243054 
1675.000000	64.241313 
1674.000000	64.246225 
1673.000000	64.257884 
1672.000000	64.275383 
1671.000000	64.297389 
1670.000000	64.322018 
1669.000000	64.347124 
1668.000000	64.370560 
1667.000000	64.390468 
1666.000000	64.405417 
1665.000000	64.414739 
1664.000000	64.418530 
1663.000000	64.417481 
1662.000000	64.412736 
1661.000000	64.405679 
1660.000000	64.397668 
1659.000000	64.389562 
1658.000000	64.381718 
1657.000000	64.374160 
1656.000000	64.366674 
1655.000000	64.359164 
1654.000000	64.351725 
1653.000000	64.344787 
1652.000000	64.339184 
1651.000000	64.335799 
1650.000000	64.335370 
1649.000000	64.337992 
1648.000000	64.343142 
1647.000000	64.349603 
1646.000000	64.355683 
1645.000000	64.359688 
1644.000000	64.360237 
1643.000000	64.356637 
1642.000000	64.348912 
1641.000000	64.337873 
1640.000000	64.324760 
1639.000000	64.310932 
1638.000000	64.297509 
1637.000000	64.285111 
1636.000000	64.274168 
1635.000000	64.264822 
1634.000000	64.257359 
1633.000000	64.252161 
1632.000000	64.249682 
1631.000000	64.250302 
1630.000000	64.253950 
1629.000000	64.260077 
1628.000000	64.267230 
1627.000000	64.273476 
1626.000000	64.276528 
1625.000000	64.274454 
1624.000000	64.266061 
1623.000000	64.251422 
1622.000000	64.231824 
1621.000000	64.210057 
1620.000000	64.189624 
1619.000000	64.174127 
1618.000000	64.166545 
1617.000000	64.168524 
1616.000000	64.180111 
1615.000000	64.199542 
1614.000000	64.223694 
1613.000000	64.248704 
1612.000000	64.271092 
1611.000000	64.288234 
1610.000000	64.298892 
1609.000000	64.303493 
1608.000000	64.303922 
1607.000000	64.302778 
1606.000000	64.302730 
1605.000000	64.305782 
1604.000000	64.312505 
1603.000000	64.322328 
1602.000000	64.333486 
1601.000000	64.343619 
1600.000000	64.350581 
1599.000000	64.352917 
1598.000000	64.350271 
1597.000000	64.343357 
1596.000000	64.333772 
1595.000000	64.323306 
1594.000000	64.313697 
1593.000000	64.306068 
1592.000000	64.300751 
1591.000000	64.297652 
1590.000000	64.295744 
1589.000000	64.294028 
1588.000000	64.291071 
1587.000000	64.286017 
1586.000000	64.278149 
1585.000000	64.267134 
1584.000000	64.253139 
1583.000000	64.236474 
1582.000000	64.217805 
1581.000000	64.198112 
1580.000000	64.178609 
1579.000000	64.160442 
1578.000000	64.144849 
1577.000000	64.133048 
1576.000000	64.125728 
1575.000000	64.123392 
1574.000000	64.125871 
1573.000000	64.132642 
1572.000000	64.142751 
1571.000000	64.155125 
1570.000000	64.168429 
1569.000000	64.181590 
1568.000000	64.193630 
1567.000000	64.203906 
1566.000000	64.212274 
1565.000000	64.218783 
1564.000000	64.223718 
1563.000000	64.227414 
1562.000000	64.229989 
1561.000000	64.231133 
1560.000000	64.230442 
1559.000000	64.227271 
1558.000000	64.221072 
1557.000000	64.211583 
1556.000000	64.199185 
1555.000000	64.184856 
1554.000000	64.170265 
1553.000000	64.157462 
1552.000000	64.148497 
1551.000000	64.145088 
1550.000000	64.148211 
1549.000000	64.157938 
1548.000000	64.173626 
1547.000000	64.193868 
1546.000000	64.216804 
1545.000000	64.240431 
1544.000000	64.262819 
1543.000000	64.282274 
1542.000000	64.297413 
1541.000000	64.307045 
1540.000000	64.310574 
1539.000000	64.308047 
1538.000000	64.300060 
1537.000000	64.287972 
1536.000000	64.273571 
1535.000000	64.258933 
1534.000000	64.246082 
1533.000000	64.236617 
1532.000000	64.231085 
1531.000000	64.229226 
1530.000000	64.229893 
1529.000000	64.231348 
1528.000000	64.231920 
1527.000000	64.230394 
1526.000000	64.226317 
1525.000000	64.220166 
1524.000000	64.213275 
1523.000000	64.207243 
1522.000000	64.203715 
1521.000000	64.203810 
1520.000000	64.207959 
1519.000000	64.215707 
1518.000000	64.225983 
1517.000000	64.237284 
1516.000000	64.247989 
1515.000000	64.256930 
1514.000000	64.263176 
1513.000000	64.266467 
1512.000000	64.266872 
1511.000000	64.265036 
1510.000000	64.261436 
1509.000000	64.256715 
1508.000000	64.251351 
1507.000000	64.245605 
1506.000000	64.239740 
1505.000000	64.233732 
1504.000000	64.227247 
1503.000000	64.220094 
1502.000000	64.212131 
1501.000000	64.203882 
1500.000000	64.196419 
1499.000000	64.191436 
1498.000000	64.190721 
1497.000000	64.195466 
1496.000000	64.205789 
1495.000000	64.220261 
1494.000000	64.236235 
1493.000000	64.250445 
1492.000000	64.259958 
1491.000000	64.262819 
1490.000000	64.258670 
1489.000000	64.248681 
1488.000000	64.235019 
1487.000000	64.220333 
1486.000000	64.206981 
1485.000000	64.196658 
1484.000000	64.189910 
1483.000000	64.186429 
1482.000000	64.185023 
1481.000000	64.184260 
1480.000000	64.182734 
1479.000000	64.179348 
1478.000000	64.173889 
1477.000000	64.166665 
1476.000000	64.158654 
1475.000000	64.150834 
1474.000000	64.144182 
1473.000000	64.139389 
1472.000000	64.136672 
1471.000000	64.135742 
1470.000000	64.135956 
1469.000000	64.136719 
1468.000000	64.137506 
1467.000000	64.137959 
1466.000000	64.137911 
1465.000000	64.137482 
1464.000000	64.136767 
1463.000000	64.136075 
1462.000000	64.135479 
1461.000000	64.135026 
1460.000000	64.134812 
1459.000000	64.134812 
1458.000000	64.134979 
1457.000000	64.135241 
1456.000000	64.135670 
1455.000000	64.135956 
1454.000000	64.135575 
1453.000000	64.133453 
1452.000000	64.128541 
1451.000000	64.119696 
1450.000000	64.105987 
1449.000000	64.087152 
1448.000000	64.063572 
1447.000000	64.036655 
1446.000000	64.008355 
1445.000000	63.981056 
1444.000000	63.957166 
1443.000000	63.938736 
1442.000000	63.927268 
1441.000000	63.923263 
1440.000000	63.926434 
1439.000000	63.935828 
1438.000000	63.950133 
1437.000000	63.967680 
1436.000000	63.987088 
1435.000000	64.007282 
1434.000000	64.027762 
1433.000000	64.048314 
1432.000000	64.069199 
1431.000000	64.090776 
1430.000000	64.113306 
1429.000000	64.136981 
1428.000000	64.161562 
1427.000000	64.186525 
1426.000000	64.210939 
1425.000000	64.233779 
1424.000000	64.253759 
1423.000000	64.269757 
1422.000000	64.280676 
1421.000000	64.285874 
1420.000000	64.285111 
1419.000000	64.278721 
1418.000000	64.267373 
1417.000000	64.252161 
1416.000000	64.234375 
1415.000000	64.215135 
1414.000000	64.195513 
1413.000000	64.176249 
1412.000000	64.158010 
1411.000000	64.141440 
1410.000000	64.127230 
1409.000000	64.116048 
1408.000000	64.108681 
1407.000000	64.105939 
1406.000000	64.108061 
1405.000000	64.114975 
1404.000000	64.125776 
1403.000000	64.139008 
1402.000000	64.152693 
1401.000000	64.164710 
1400.000000	64.173245 
1399.000000	64.177083 
1398.000000	64.175677 
1397.000000	64.169287 
1396.000000	64.158678 
1395.000000	64.144945 
1394.000000	64.129233 
1393.000000	64.112615 
1392.000000	64.095997 
1391.000000	64.080071 
1390.000000	64.065504 
1389.000000	64.052700 
1388.000000	64.041900 
1387.000000	64.033079 
1386.000000	64.026045 
1385.000000	64.020347 
1384.000000	64.015531 
1383.000000	64.011049 
1382.000000	64.006686 
1381.000000	64.002537 
1380.000000	63.999152 
1379.000000	63.997292 
1378.000000	63.997840 
1377.000000	64.001560 
1376.000000	64.008927 
1375.000000	64.019513 
1374.000000	64.032554 
1373.000000	64.046669 
1372.000000	64.060378 
1371.000000	64.072299 
1370.000000	64.081811 
1369.000000	64.089012 
1368.000000	64.094805 
1367.000000	64.100670 
1366.000000	64.108061 
1365.000000	64.118051 
1364.000000	64.131021 
1363.000000	64.146447 
1362.000000	64.163017 
1361.000000	64.178633 
1360.000000	64.191293 
1359.000000	64.199185 
1358.000000	64.201164 
1357.000000	64.196658 
1356.000000	64.186048 
1355.000000	64.170122 
1354.000000	64.150094 
1353.000000	64.127159 
1352.000000	64.102697 
1351.000000	64.077782 
1350.000000	64.053535 
1349.000000	64.030838 
1348.000000	64.010524 
1347.000000	63.993382 
1346.000000	63.979959 
1345.000000	63.970589 
1344.000000	63.965058 
1343.000000	63.962984 
1342.000000	63.963818 
1341.000000	63.966870 
1340.000000	63.971567 
1339.000000	63.977575 
1338.000000	63.984632 
1337.000000	63.992619 
1336.000000	64.001369 
1335.000000	64.010643 
1334.000000	64.020061 
1333.000000	64.029049 
1332.000000	64.037108 
1331.000000	64.043807 
1330.000000	64.048981 
1329.000000	64.052915 
1328.000000	64.056086 
1327.000000	64.059233 
1326.000000	64.063119 
1325.000000	64.068269 
1324.000000	64.074969 
1323.000000	64.082717 
1322.000000	64.090704 
1321.000000	64.098000 
1320.000000	64.103603 
1319.000000	64.106822 
1318.000000	64.107680 
1317.000000	64.106750 
1316.000000	64.105057 
1315.000000	64.103889 
1314.000000	64.104366 
1313.000000	64.107203 
1312.000000	64.112496 
1311.000000	64.119720 
1310.000000	64.127874 
1309.000000	64.135694 
1308.000000	64.141941 
1307.000000	64.145755 
1306.000000	64.146685 
1305.000000	64.144873 
1304.000000	64.141058 
1303.000000	64.136075 
1302.000000	64.131069 
1301.000000	64.126920 
1300.000000	64.124345 
1299.000000	64.123821 
1298.000000	64.125418 
1297.000000	64.128828 
1296.000000	64.133524 
1295.000000	64.138770 
1294.000000	64.143610 
1293.000000	64.147138 
1292.000000	64.148736 
1291.000000	64.147901 
1290.000000	64.144492 
1289.000000	64.138388 
1288.000000	64.129853 
1287.000000	64.119100 
1286.000000	64.106392 
1285.000000	64.092206 
1284.000000	64.077186 
1283.000000	64.062142 
1282.000000	64.048004 
1281.000000	64.035630 
1280.000000	64.025568 
1279.000000	64.017915 
1278.000000	64.012360 
1277.000000	64.008116 
1276.000000	64.004397 
1275.000000	64.000558 
1274.000000	63.996267 
1273.000000	63.991785 
1272.000000	63.987994 
1271.000000	63.985919 
1270.000000	63.986706 
1269.000000	63.991022 
1268.000000	63.998794 
1267.000000	64.009165 
1266.000000	64.020586 
1265.000000	64.031100 
1264.000000	64.038825 
1263.000000	64.042377 
1262.000000	64.040946 
1261.000000	64.034557 
1260.000000	64.023876 
1259.000000	64.010047 
1258.000000	63.994646 
1257.000000	63.979125 
1256.000000	63.964939 
1255.000000	63.953375 
1254.000000	63.945317 
1253.000000	63.941335 
1252.000000	63.941740 
1251.000000	63.946509 
1250.000000	63.955354 
1249.000000	63.967585 
1248.000000	63.982272 
1247.000000	63.998246 
1246.000000	64.014220 
1245.000000	64.028596 
1244.000000	64.040017 
1243.000000	64.047169 
1242.000000	64.049077 
1241.000000	64.045238 
1240.000000	64.035701 
1239.000000	64.021158 
1238.000000	64.002752 
1237.000000	63.981866 
1236.000000	63.960146 
1235.000000	63.938903 
1234.000000	63.919329 
1233.000000	63.901948 
1232.000000	63.886737 
1231.000000	63.873434 
1230.000000	63.861632 
1229.000000	63.851094 
1228.000000	63.841867 
1227.000000	63.834404 
1226.000000	63.829445 
1225.000000	63.827872 
1224.000000	63.830351 
1223.000000	63.837122 
1222.000000	63.847756 
1221.000000	63.861203 
1220.000000	63.876152 
1219.000000	63.891005 
1218.000000	63.904500 
1217.000000	63.915896 
1216.000000	63.925242 
1215.000000	63.933372 
1214.000000	63.941240 
1213.000000	63.950204 
1212.000000	63.960623 
1211.000000	63.972258 
1210.000000	63.983488 
1209.000000	63.992071 
1208.000000	63.995265 
1207.000000	63.990569 
1206.000000	63.976526 
1205.000000	63.953304 
1204.000000	63.922691 
1203.000000	63.887929 
1202.000000	63.853049 
1201.000000	63.822221 
1200.000000	63.798975 
1199.000000	63.785481 
1198.000000	63.782358 
1197.000000	63.788700 
1196.000000	63.802576 
1195.000000	63.821697 
1194.000000	63.843798 
1193.000000	63.867139 
1192.000000	63.890552 
1191.000000	63.913631 
1190.000000	63.936018 
1189.000000	63.957309 
1188.000000	63.976693 
1187.000000	63.993096 
1186.000000	64.005184 
1185.000000	64.011669 
1184.000000	64.011907 
1183.000000	64.006090 
1182.000000	63.995575 
1181.000000	63.982605 
1180.000000	63.970279 
1179.000000	63.961696 
1178.000000	63.959407 
1177.000000	63.964653 
1176.000000	63.976979 
1175.000000	63.994193 
1174.000000	64.012646 
1173.000000	64.027905 
1172.000000	64.035463 
1171.000000	64.032053 
1170.000000	64.016127 
1169.000000	63.987874 
1168.000000	63.949251 
1167.000000	63.903617 
1166.000000	63.855433 
1165.000000	63.809251 
1164.000000	63.769125 
1163.000000	63.738203 
1162.000000	63.717865 
1161.000000	63.707995 
1160.000000	63.706684 
1159.000000	63.710856 
1158.000000	63.717103 
1157.000000	63.722538 
1156.000000	63.725566 
1155.000000	63.725686 
1154.000000	63.723587 
1153.000000	63.720154 
1152.000000	63.716268 
1151.000000	63.712286 
1150.000000	63.708519 
1149.000000	63.705277 
1148.000000	63.703680 
1147.000000	63.705348 
1146.000000	63.712263 
1145.000000	63.726282 
1144.000000	63.748478 
1143.000000	63.778519 
1142.000000	63.814854 
1141.000000	63.854598 
1140.000000	63.894271 
1139.000000	63.930153 
1138.000000	63.959097 
1137.000000	63.978695 
1136.000000	63.987898 
1135.000000	63.986873 
1134.000000	63.976931 
1133.000000	63.960218 
1132.000000	63.939762 
1131.000000	63.918685 
1130.000000	63.899755 
1129.000000	63.885092 
1128.000000	63.876175 
1127.000000	63.873171 
1126.000000	63.875317 
1125.000000	63.880562 
1124.000000	63.886332 
1123.000000	63.889956 
1122.000000	63.889288 
1121.000000	63.883185 
1120.000000	63.871741 
1119.000000	63.856577 
1118.000000	63.840389 
1117.000000	63.826322 
1116.000000	63.816952 
1115.000000	63.813614 
1114.000000	63.815903 
1113.000000	63.821673 
1112.000000	63.827610 
1111.000000	63.830161 
1110.000000	63.826441 
1109.000000	63.815188 
1108.000000	63.797187 
1107.000000	63.775134 
1106.000000	63.753151 
1105.000000	63.735532 
1104.000000	63.726139 
1103.000000	63.727402 
1102.000000	63.739800 
1101.000000	63.761973 
1100.000000	63.790678 
1099.000000	63.821721 
1098.000000	63.850498 
1097.000000	63.872885 
1096.000000	63.885760 
1095.000000	63.887453 
1094.000000	63.877868 
1093.000000	63.858294 
1092.000000	63.831233 
1091.000000	63.799977 
1090.000000	63.768005 
1089.000000	63.738560 
1088.000000	63.714432 
1087.000000	63.697409 
1086.000000	63.688373 
1085.000000	63.687396 
1084.000000	63.693761 
1083.000000	63.706493 
1082.000000	63.724136 
1081.000000	63.745331 
1080.000000	63.768625 
1079.000000	63.792467 
1078.000000	63.815140 
1077.000000	63.834762 
1076.000000	63.849544 
1075.000000	63.857936 
1074.000000	63.858938 
1073.000000	63.852453 
1072.000000	63.839387 
1071.000000	63.821625 
1070.000000	63.801884 
1069.000000	63.783097 
1068.000000	63.767766 
1067.000000	63.757705 
1066.000000	63.753533 
1065.000000	63.754820 
1064.000000	63.760256 
1063.000000	63.768148 
1062.000000	63.776731 
1061.000000	63.784432 
1060.000000	63.790106 
1059.000000	63.793301 
1058.000000	63.793921 
1057.000000	63.792300 
1056.000000	63.788771 
1055.000000	63.783812 
1054.000000	63.777780 
1053.000000	63.770699 
1052.000000	63.762211 
1051.000000	63.751745 
1050.000000	63.738679 
1049.000000	63.722825 
1048.000000	63.704419 
1047.000000	63.684248 
1046.000000	63.663935 
1045.000000	63.645839 
1044.000000	63.632631 
1043.000000	63.626670 
1042.000000	63.629484 
1041.000000	63.641428 
1040.000000	63.661289 
1039.000000	63.686633 
1038.000000	63.714122 
1037.000000	63.740110 
1036.000000	63.761496 
1035.000000	63.776326 
1034.000000	63.784050 
1033.000000	63.785552 
1032.000000	63.782763 
1031.000000	63.777852 
1030.000000	63.772940 
1029.000000	63.769173 
1028.000000	63.767099 
1027.000000	63.766050 
1026.000000	63.764953 
1025.000000	63.762378 
1024.000000	63.757419 
1023.000000	63.749599 
1022.000000	63.739275 
1021.000000	63.727355 
1020.000000	63.715076 
1019.000000	63.704133 
1018.000000	63.695979 
1017.000000	63.692259 
1016.000000	63.694286 
1015.000000	63.703131 
1014.000000	63.719344 
1013.000000	63.742899 
1012.000000	63.773012 
1011.000000	63.807821 
1010.000000	63.844537 
1009.000000	63.879466 
1008.000000	63.908743 
1007.000000	63.929009 
1006.000000	63.938117 
1005.000000	63.935637 
1004.000000	63.923192 
1003.000000	63.904094 
1002.000000	63.882899 
1001.000000	63.864374 
1000.000000	63.852429 
999.000000	 63.849544 
998.000000	 63.855957 
997.000000	 63.869905 
996.000000	 63.887882 
995.000000	 63.905715 
994.000000	 63.919401 
993.000000	 63.925957 
992.000000	 63.924169 
991.000000	 63.914942 
990.000000	 63.901019 
989.000000	 63.886046 
988.000000	 63.873982 
987.000000	 63.868236 
986.000000	 63.870811 
985.000000	 63.881969 
984.000000	 63.899922 
983.000000	 63.921618 
982.000000	 63.943076 
981.000000	 63.960576 
980.000000	 63.971567 
979.000000	 63.975214 
978.000000	 63.972139 
977.000000	 63.964271 
976.000000	 63.954091 
975.000000	 63.943648 
974.000000	 63.934206 
973.000000	 63.925504 
972.000000	 63.916373 
971.000000	 63.904881 
970.000000	 63.889598 
969.000000	 63.869524 
968.000000	 63.844776 
967.000000	 63.816308 
966.000000	 63.786029 
965.000000	 63.755798 
964.000000	 63.727045 
963.000000	 63.700675 
962.000000	 63.676762 
961.000000	 63.655090 
960.000000	 63.635396 
959.000000	 63.617730 
958.000000	 63.602662 
957.000000	 63.590741 
956.000000	 63.582372 
955.000000	 63.577342 
954.000000	 63.574719 
953.000000	 63.572955 
952.000000	 63.570380 
951.000000	 63.565635 
950.000000	 63.558173 
949.000000	 63.548493 
948.000000	 63.538074 
947.000000	 63.528871 
946.000000	 63.523101 
945.000000	 63.522386 
944.000000	 63.527798 
943.000000	 63.539028 
942.000000	 63.555145 
941.000000	 63.574433 
940.000000	 63.595151 
939.000000	 63.615918 
938.000000	 63.635945 
937.000000	 63.655090 
936.000000	 63.673806 
935.000000	 63.692855 
934.000000	 63.712859 
933.000000	 63.733887 
932.000000	 63.755512 
931.000000	 63.776826 
930.000000	 63.796472 
929.000000	 63.812994 
928.000000	 63.825392 
927.000000	 63.833475 
926.000000	 63.837957 
925.000000	 63.840222 
924.000000	 63.842368 
923.000000	 63.846135 
922.000000	 63.852643 
921.000000	 63.861441 
920.000000	 63.870906 
919.000000	 63.878154 
918.000000	 63.880157 
917.000000	 63.874053 
916.000000	 63.858556 
915.000000	 63.833928 
914.000000	 63.802218 
913.000000	 63.766932 
912.000000	 63.732171 
911.000000	 63.701891 
910.000000	 63.678956 
909.000000	 63.664793 
908.000000	 63.659381 
907.000000	 63.661313 
906.000000	 63.668513 
905.000000	 63.678693 
904.000000	 63.690018 
903.000000	 63.701200 
902.000000	 63.711881 
901.000000	 63.721847 
900.000000	 63.731098 
899.000000	 63.739585 
898.000000	 63.747167 
897.000000	 63.753318 
896.000000	 63.757514 
895.000000	 63.759613 
894.000000	 63.760066 
893.000000	 63.759756 
892.000000	 63.759994 
891.000000	 63.761997 
890.000000	 63.767051 
889.000000	 63.775849 
888.000000	 63.788580 
887.000000	 63.804674 
886.000000	 63.823342 
885.000000	 63.843727 
884.000000	 63.865041 
883.000000	 63.886904 
882.000000	 63.909101 
881.000000	 63.931560 
880.000000	 63.953852 
879.000000	 63.975024 
878.000000	 63.993453 
877.000000	 64.007210 
876.000000	 64.014172 
875.000000	 64.012432 
874.000000	 64.000940 
873.000000	 63.979530 
872.000000	 63.949179 
871.000000	 63.911843 
870.000000	 63.869833 
869.000000	 63.825988 
868.000000	 63.783025 
867.000000	 63.743662 
866.000000	 63.710212 
865.000000	 63.684678 
864.000000	 63.668775 
863.000000	 63.663816 
862.000000	 63.670134 
861.000000	 63.687157 
860.000000	 63.713240 
859.000000	 63.745594 
858.000000	 63.780188 
857.000000	 63.812541 
856.000000	 63.838076 
855.000000	 63.853240 
854.000000	 63.856005 
853.000000	 63.846516 
852.000000	 63.827085 
851.000000	 63.802003 
850.000000	 63.776493 
849.000000	 63.755774 
848.000000	 63.743710 
847.000000	 63.742184 
846.000000	 63.750624 
845.000000	 63.766503 
844.000000	 63.786005 
843.000000	 63.804936 
842.000000	 63.819837 
841.000000	 63.828516 
840.000000	 63.830494 
839.000000	 63.826656 
838.000000	 63.818764 
837.000000	 63.808774 
836.000000	 63.798022 
835.000000	 63.787245 
834.000000	 63.776326 
833.000000	 63.764500 
832.000000	 63.751006 
831.000000	 63.735532 
830.000000	 63.718724 
829.000000	 63.702297 
828.000000	 63.688635 
827.000000	 63.680219 
826.000000	 63.678836 
825.000000	 63.685059 
824.000000	 63.697862 
823.000000	 63.714599 
822.000000	 63.731622 
821.000000	 63.745021 
820.000000	 63.751626 
819.000000	 63.749670 
818.000000	 63.738703 
817.000000	 63.720130 
816.000000	 63.696455 
815.000000	 63.671064 
814.000000	 63.647127 
813.000000	 63.627386 
812.000000	 63.613748 
811.000000	 63.606905 
810.000000	 63.606739 
809.000000	 63.612127 
808.000000	 63.621068 
807.000000	 63.631224 
806.000000	 63.640046 
805.000000	 63.645219 
804.000000	 63.645029 
803.000000	 63.638854 
802.000000	 63.627099 
801.000000	 63.611626 
800.000000	 63.595199 
799.000000	 63.581132 
798.000000	 63.572669 
797.000000	 63.572144 
796.000000	 63.580632 
795.000000	 63.597750 
794.000000	 63.621664 
793.000000	 63.649749 
792.000000	 63.679289 
791.000000	 63.708567 
790.000000	 63.736963 
789.000000	 63.765001 
788.000000	 63.793540 
787.000000	 63.823413 
786.000000	 63.854146 
785.000000	 63.883781 
784.000000	 63.908648 
783.000000	 63.924694 
782.000000	 63.928055 
781.000000	 63.916707 
780.000000	 63.890743 
779.000000	 63.852882 
778.000000	 63.807821 
777.000000	 63.761615 
776.000000	 63.720202 
775.000000	 63.688135 
774.000000	 63.667917 
773.000000	 63.659811 
772.000000	 63.661742 
771.000000	 63.670110 
770.000000	 63.680791 
769.000000	 63.689970 
768.000000	 63.694715 
767.000000	 63.693261 
766.000000	 63.684964 
765.000000	 63.669800 
764.000000	 63.648200 
763.000000	 63.620543 
762.000000	 63.587164 
761.000000	 63.548088 
760.000000	 63.503575 
759.000000	 63.454294 
758.000000	 63.401651 
757.000000	 63.348197 
756.000000	 63.297271 
755.000000	 63.253140 
754.000000	 63.219809 
753.000000	 63.201093 
752.000000	 63.198924 
751.000000	 63.213992 
750.000000	 63.244533 
749.000000	 63.287782 
748.000000	 63.339805 
747.000000	 63.396739 
746.000000	 63.455176 
745.000000	 63.512277 
744.000000	 63.565754 
743.000000	 63.613748 
742.000000	 63.654589 
741.000000	 63.686394 
740.000000	 63.707041 
739.000000	 63.714623 
738.000000	 63.707900 
737.000000	 63.687252 
736.000000	 63.654947 
735.000000	 63.615274 
734.000000	 63.574123 
733.000000	 63.538336 
732.000000	 63.514494 
731.000000	 63.507914 
730.000000	 63.521575 
729.000000	 63.555431 
728.000000	 63.606333 
727.000000	 63.668799 
726.000000	 63.735604 
725.000000	 63.799023 
724.000000	 63.852024 
723.000000	 63.889360 
722.000000	 63.908457 
721.000000	 63.909363 
720.000000	 63.894963 
719.000000	 63.870143 
718.000000	 63.840866 
717.000000	 63.812804 
716.000000	 63.790202 
715.000000	 63.774895 
714.000000	 63.765931 
713.000000	 63.759922 
712.000000	 63.751602 
711.000000	 63.735413 
710.000000	 63.706922 
709.000000	 63.664484 
708.000000	 63.609695 
707.000000	 63.547444 
706.000000	 63.485121 
705.000000	 63.430953 
704.000000	 63.391757 
703.000000	 63.371419 
702.000000	 63.370037 
701.000000	 63.383936 
700.000000	 63.406062 
699.000000	 63.428616 
698.000000	 63.444685 
697.000000	 63.450646 
696.000000	 63.446140 
695.000000	 63.435077 
694.000000	 63.423943 
693.000000	 63.419961 
692.000000	 63.428878 
691.000000	 63.452577 
690.000000	 63.488245 
689.000000	 63.529324 
688.000000	 63.567304 
687.000000	 63.593888 
686.000000	 63.603472 
685.000000	 63.594985 
684.000000	 63.572120 
683.000000	 63.541817 
682.000000	 63.511991 
681.000000	 63.489460 
680.000000	 63.477587 
679.000000	 63.475441 
678.000000	 63.477635 
677.000000	 63.477134 
676.000000	 63.466143 
675.000000	 63.439440 
674.000000	 63.395237 
673.000000	 63.335227 
672.000000	 63.264894 
671.000000	 63.191509 
670.000000	 63.123679 
669.000000	 63.068246 
668.000000	 63.031601 
667.000000	 63.018345 
666.000000	 63.031744 
665.000000	 63.073182 
664.000000	 63.142275 
663.000000	 63.236522 
662.000000	 63.350009 
661.000000	 63.473892 
660.000000	 63.597035 
659.000000	 63.707780 
658.000000	 63.795900 
657.000000	 63.854598 
656.000000	 63.882923 
655.000000	 63.885068 
654.000000	 63.870716 
653.000000	 63.850307 
652.000000	 63.832759 
651.000000	 63.821125 
650.000000	 63.813471 
649.000000	 63.801717 
648.000000	 63.775062 
647.000000	 63.723063 
646.000000	 63.640260 
645.000000	 63.527321 
644.000000	 63.392639 
643.000000	 63.249802 
642.000000	 63.114213 
641.000000	 62.999582 
640.000000	 62.914514 
639.000000	 62.861061 
638.000000	 62.834835 
637.000000	 62.825989 
636.000000	 62.822365 
635.000000	 62.812805 
634.000000	 62.790441 
633.000000	 62.753343 
632.000000	 62.705397 
631.000000	 62.653851 
630.000000	 62.608480 
629.000000	 62.579226 
628.000000	 62.574887 
627.000000	 62.601470 
626.000000	 62.660884 
625.000000	 62.751436 
624.000000	 62.866783 
623.000000	 62.997674 
622.000000	 63.131308 
621.000000	 63.253545 
620.000000	 63.349580 
619.000000	 63.405966 
618.000000	 63.413381 
617.000000	 63.367938 
616.000000	 63.273906 
615.000000	 63.142991 
614.000000	 62.994694 
613.000000	 62.852787 
612.000000	 62.742710 
611.000000	 62.687277 
610.000000	 62.701344 
609.000000	 62.788820 
608.000000	 62.941431 
607.000000	 63.140296 
606.000000	 63.358068 
605.000000	 63.564920 
604.000000	 63.733863 
603.000000	 63.846826 
602.000000	 63.898777 
601.000000	 63.897776 
600.000000	 63.862991 
599.000000	 63.817644 
598.000000	 63.784265 
597.000000	 63.775753 
596.000000	 63.794517 
595.000000	 63.829088 
594.000000	 63.860392 
593.000000	 63.865661 
592.000000	 63.826155 
591.000000	 63.733029 
590.000000	 63.591384 
589.000000	 63.419580 
588.000000	 63.243961 
587.000000	 63.094162 
586.000000	 62.995028 
585.000000	 62.962102 
584.000000	 62.997722 
583.000000	 63.092708 
582.000000	 63.228893 
581.000000	 63.384580 
580.000000	 63.539600 
579.000000	 63.677954 
578.000000	 63.789820 
577.000000	 63.870859 
576.000000	 63.920974 
575.000000	 63.942551 
574.000000	 63.938379 
573.000000	 63.911128 
572.000000	 63.862204 
571.000000	 63.795113 
570.000000	 63.712811 
569.000000	 63.619995 
568.000000	 63.520359 
567.000000	 63.417220 
566.000000	 63.312673 
565.000000	 63.207840 
564.000000	 63.104295 
563.000000	 63.004493 
562.000000	 62.913298 
561.000000	 62.837839 
560.000000	 62.786030 
559.000000	 62.764143 
558.000000	 62.775444 
557.000000	 62.818193 
556.000000	 62.885832 
555.000000	 62.967157 
554.000000	 63.051152 
553.000000	 63.129091 
552.000000	 63.197422 
551.000000	 63.257217 
550.000000	 63.313484 
549.000000	 63.370895 
548.000000	 63.430261 
547.000000	 63.485884 
546.000000	 63.524699 
545.000000	 63.529896 
544.000000	 63.486909 
543.000000	 63.388252 
542.000000	 63.238859 
541.000000	 63.055276 
540.000000	 62.862992 
539.000000	 62.691092 
538.000000	 62.564396 
537.000000	 62.499833 
536.000000	 62.501406 
535.000000	 62.562656 
534.000000	 62.668466 
533.000000	 62.801313 
532.000000	 62.945365 
531.000000	 63.090610 
530.000000	 63.233113 
529.000000	 63.374567 
528.000000	 63.518428 
527.000000	 63.667106 
526.000000	 63.818454 
525.000000	 63.965845 
524.000000	 64.098262 
523.000000	 64.203739 
522.000000	 64.271354 
521.000000	 64.294695 
520.000000	 64.272499 
519.000000	 64.209270 
518.000000	 64.113783 
517.000000	 63.997530 
516.000000	 63.872742 
515.000000	 63.751268 
514.000000	 63.642978 
513.000000	 63.556218 
512.000000	 63.495612 
511.000000	 63.463687 
510.000000	 63.458228 
509.000000	 63.473248 
508.000000	 63.499307 
507.000000	 63.523817 
506.000000	 63.535928 
505.000000	 63.527917 
504.000000	 63.497972 
503.000000	 63.449859 
502.000000	 63.392472 
501.000000	 63.337182 
500.000000	 63.293981 
499.000000	 63.268756 
498.000000	 63.262391 
497.000000	 63.270854 
496.000000	 63.286805 
495.000000	 63.302206 
494.000000	 63.310694 
493.000000	 63.309288 
492.000000	 63.298773 
491.000000	 63.283205 
490.000000	 63.268136 
489.000000	 63.258767 
488.000000	 63.258266 
487.000000	 63.266110 
486.000000	 63.279223 
485.000000	 63.290691 
484.000000	 63.293242 
483.000000	 63.277626 
482.000000	 63.236117 
481.000000	 63.162207 
480.000000	 63.051557 
479.000000	 62.905287 
478.000000	 62.730479 
477.000000	 62.540960 
476.000000	 62.355279 
475.000000	 62.194919 
474.000000	 62.080407 
473.000000	 62.027502 
472.000000	 62.044072 
471.000000	 62.128853 
470.000000	 62.271738 
469.000000	 62.455868 
468.000000	 62.660789 
467.000000	 62.864565 
466.000000	 63.048028 
465.000000	 63.196802 
464.000000	 63.303041 
463.000000	 63.366627 
462.000000	 63.391613 
461.000000	 63.386988 
460.000000	 63.358855 
459.000000	 63.310289 
458.000000	 63.237285 
457.000000	 63.133931 
456.000000	 62.991213 
455.000000	 62.802624 
454.000000	 62.567162 
453.000000	 62.293481 
452.000000	 61.998939 
451.000000	 61.707448 
450.000000	 61.445355 
449.000000	 61.235451 
448.000000	 61.093950 
447.000000	 61.027503 
446.000000	 61.032581 
445.000000	 61.096906 
444.000000	 61.205434 
443.000000	 61.343383 
442.000000	 61.498355 
441.000000	 61.660838 
440.000000	 61.821675 
439.000000	 61.972546 
438.000000	 62.099599 
437.000000	 62.189579 
436.000000	 62.236666 
435.000000	 62.243771 
434.000000	 62.218475 
433.000000	 62.176275 
432.000000	 62.142467 
431.000000	 62.142181 
430.000000	 62.195229 
429.000000	 62.309384 
428.000000	 62.476897 
427.000000	 62.676835 
426.000000	 62.885832 
425.000000	 63.073968 
424.000000	 63.211464 
423.000000	 63.272929 
422.000000	 63.243913 
421.000000	 63.118052 
420.000000	 62.898588 
419.000000	 62.597894 
418.000000	 62.235784 
417.000000	 61.845779 
416.000000	 61.467266 
415.000000	 61.145639 
414.000000	 60.913062 
413.000000	 60.781049 
412.000000	 60.722374 
411.000000	 60.674190 
410.000000	 60.542058 
409.000000	 60.214614 
408.000000	 59.600090 
407.000000	 58.641529 
406.000000	 57.360839 
405.000000	 55.853390 
404.000000	 54.298853 
403.000000	 52.908468 
402.000000	 51.910591 
401.000000	 51.503181 
400.000000	 51.802921 
399.000000	 52.811264 
398.000000	 54.406595 
397.000000	 56.370282 
396.000000	 58.410668 
395.000000	 60.214591 
394.000000	 61.520719 
393.000000	 62.170696 
392.000000	 62.122726 
391.000000	 61.448144 
390.000000	 60.317230 
389.000000	 58.955287 
388.000000	 57.590866 
387.000000	 56.413221 
386.000000	 55.556559 
385.000000	 55.078840 
384.000000	 54.996347 
383.000000	 55.267953 
382.000000	 55.809974 
381.000000	 56.498217 
380.000000	 57.211494 
379.000000	 57.814049 
378.000000	 58.159089 
377.000000	 58.109784 
376.000000	 57.562160 
375.000000	 56.459569 
374.000000	 54.815101 
373.000000	 52.700948 
372.000000	 50.276112 
371.000000	 47.696685 
370.000000	 45.094490 

