PE IR       SPECTRUM    SPECTRUM    ASCII       PEDS        1.60        
  -1
BZ6DA3~1.ASC
17/04/07
17:45:15.00
17/04/07
17:45:15.00
tln
$BZ1503107-1_t0055$<tbV0>[-13.0,-2.6,8.0,0.0,27,1,0]
370.000000
64









2002,4.07    
MIRTGS : RIGHTBACK : INTERNAL 2
MIR : ON : INTERNAL 2
OPTKBR

0.200000
8
8.000000
FILLER
RATIO
SPECTRUM
UNLOCKED 256

DOUBLE
64
COMBINED
1
0
0


1.000000
RATIO


1
0
TRUE
51149
0
LEFT NOT FITTED RIGHT NOT FITTED 0
NONE
NONE
15600
12.000000
4.427000
51148
TRUE
1 0 8 72 0 0 0 0 

15798.010000






#HDR
-1
-1
#GR
CM-1
%T
0.00002384185791015625
0.0
5000.000000
-1.000000
4631
8
78.666210
51.739192
#DATA
5000.000000	66.871762 
4999.000000	66.972851 
4998.000000	67.028856 
4997.000000	67.030215 
4996.000000	66.975617 
4995.000000	66.873407 
4994.000000	66.740059 
4993.000000	66.593527 
4992.000000	66.455197 
4991.000000	66.346621 
4990.000000	66.286635 
4989.000000	66.288542 
4988.000000	66.357946 
4987.000000	66.492962 
4986.000000	66.680264 
4985.000000	66.897034 
4984.000000	67.112469 
4983.000000	67.293334 
4982.000000	67.408823 
4981.000000	67.437124 
4980.000000	67.370867 
4979.000000	67.219448 
4978.000000	67.006993 
4977.000000	66.767430 
4976.000000	66.539454 
4975.000000	66.356277 
4974.000000	66.240954 
4973.000000	66.198897 
4972.000000	66.220045 
4971.000000	66.279315 
4970.000000	66.345882 
4969.000000	66.388058 
4968.000000	66.381382 
4967.000000	66.312503 
4966.000000	66.180753 
4965.000000	65.996670 
4964.000000	65.776920 
4963.000000	65.540552 
4962.000000	65.304517 
4961.000000	65.080618 
4960.000000	64.874553 
4959.000000	64.687609 
4958.000000	64.519309 
4957.000000	64.368748 
4956.000000	64.237070 
4955.000000	64.126420 
4954.000000	64.040517 
4953.000000	63.983559 
4952.000000	63.960146 
4951.000000	63.971614 
4950.000000	64.017462 
4949.000000	64.095115 
4948.000000	64.201235 
4947.000000	64.330577 
4946.000000	64.477396 
4945.000000	64.634156 
4944.000000	64.793443 
4943.000000	64.947414 
4942.000000	65.089917 
4941.000000	65.215826 
4940.000000	65.323162 
4939.000000	65.413403 
4938.000000	65.490555 
4937.000000	65.560841 
4936.000000	65.629506 
4935.000000	65.700840 
4934.000000	65.774536 
4933.000000	65.846419 
4932.000000	65.909194 
4931.000000	65.955400 
4930.000000	65.977573 
4929.000000	65.970253 
4928.000000	65.932512 
4927.000000	65.868067 
4926.000000	65.783238 
4925.000000	65.685439 
4924.000000	65.582084 
4923.000000	65.479040 
4922.000000	65.379691 
4921.000000	65.285539 
4920.000000	65.197443 
4919.000000	65.116357 
4918.000000	65.044784 
4917.000000	64.986062 
4916.000000	64.943051 
4915.000000	64.917349 
4914.000000	64.907979 
4913.000000	64.911341 
4912.000000	64.919495 
4911.000000	64.924645 
4910.000000	64.920592 
4909.000000	64.905261 
4908.000000	64.880418 
4907.000000	64.852690 
4906.000000	64.831519 
4905.000000	64.826273 
4904.000000	64.843273 
4903.000000	64.884233 
4902.000000	64.945530 
4901.000000	65.019321 
4900.000000	65.095520 
4899.000000	65.164566 
4898.000000	65.219736 
4897.000000	65.258407 
4896.000000	65.281939 
4895.000000	65.293741 
4894.000000	65.297937 
4893.000000	65.297865 
4892.000000	65.294885 
4891.000000	65.288782 
4890.000000	65.277600 
4889.000000	65.260601 
4888.000000	65.237069 
4887.000000	65.207624 
4886.000000	65.173387 
4885.000000	65.135836 
4884.000000	65.096521 
4883.000000	65.056467 
4882.000000	65.016698 
4881.000000	64.978480 
4880.000000	64.943504 
4879.000000	64.913821 
4878.000000	64.891839 
4877.000000	64.879465 
4876.000000	64.877891 
4875.000000	64.886879 
4874.000000	64.904570 
4873.000000	64.927935 
4872.000000	64.953637 
4871.000000	64.978647 
4870.000000	65.000820 
4869.000000	65.019011 
4868.000000	65.033221 
4867.000000	65.043687 
4866.000000	65.049743 
4865.000000	65.049862 
4864.000000	65.042614 
4863.000000	65.026545 
4862.000000	65.001225 
4861.000000	64.967370 
4860.000000	64.926981 
4859.000000	64.883446 
4858.000000	64.840722 
4857.000000	64.803409 
4856.000000	64.775657 
4855.000000	64.761114 
4854.000000	64.761734 
4853.000000	64.777922 
4852.000000	64.808106 
4851.000000	64.849114 
4850.000000	64.896798 
4849.000000	64.946603 
4848.000000	64.994239 
4847.000000	65.036654 
4846.000000	65.071892 
4845.000000	65.099215 
4844.000000	65.118169 
4843.000000	65.128445 
4842.000000	65.128993 
4841.000000	65.117907 
4840.000000	65.092682 
4839.000000	65.051460 
4838.000000	64.994001 
4837.000000	64.923048 
4836.000000	64.844202 
4835.000000	64.766120 
4834.000000	64.697837 
4833.000000	64.646840 
4832.000000	64.616966 
4831.000000	64.607191 
4830.000000	64.612126 
4829.000000	64.623260 
4828.000000	64.631724 
4827.000000	64.630675 
4826.000000	64.617681 
4825.000000	64.594841 
4824.000000	64.568471 
4823.000000	64.546775 
4822.000000	64.537429 
4821.000000	64.544916 
4820.000000	64.569282 
4819.000000	64.605760 
4818.000000	64.646720 
4817.000000	64.683723 
4816.000000	64.709568 
4815.000000	64.720416 
4814.000000	64.716434 
4813.000000	64.701938 
4812.000000	64.683079 
4811.000000	64.666962 
4810.000000	64.659595 
4809.000000	64.664840 
4808.000000	64.684247 
4807.000000	64.716291 
4806.000000	64.757561 
4805.000000	64.802718 
4804.000000	64.846634 
4803.000000	64.884352 
4802.000000	64.911794 
4801.000000	64.926695 
4800.000000	64.928817 
4799.000000	64.919877 
4798.000000	64.903044 
4797.000000	64.882612 
4796.000000	64.863181 
4795.000000	64.848208 
4794.000000	64.839386 
4793.000000	64.835977 
4792.000000	64.835143 
4791.000000	64.832329 
4790.000000	64.822816 
4789.000000	64.802956 
4788.000000	64.771461 
4787.000000	64.730191 
4786.000000	64.683842 
4785.000000	64.638805 
4784.000000	64.602088 
4783.000000	64.579439 
4782.000000	64.574503 
4781.000000	64.587211 
4780.000000	64.614558 
4779.000000	64.651536 
4778.000000	64.692354 
4777.000000	64.731860 
4776.000000	64.766526 
4775.000000	64.794826 
4774.000000	64.817428 
4773.000000	64.836311 
4772.000000	64.854097 
4771.000000	64.872813 
4770.000000	64.893674 
4769.000000	64.916682 
4768.000000	64.940357 
4767.000000	64.962267 
4766.000000	64.979600 
4765.000000	64.990043 
4764.000000	64.992165 
4763.000000	64.985775 
4762.000000	64.972186 
4761.000000	64.953327 
4760.000000	64.931631 
4759.000000	64.908647 
4758.000000	64.885210 
4757.000000	64.860725 
4756.000000	64.833235 
4755.000000	64.800477 
4754.000000	64.760279 
4753.000000	64.712762 
4752.000000	64.660096 
4751.000000	64.607810 
4750.000000	64.563393 
4749.000000	64.535760 
4748.000000	64.532756 
4747.000000	64.559936 
4746.000000	64.618134 
4745.000000	64.703655 
4744.000000	64.808511 
4743.000000	64.921522 
4742.000000	65.030074 
4741.000000	65.122222 
4740.000000	65.188574 
4739.000000	65.223526 
4738.000000	65.226244 
4737.000000	65.200281 
4736.000000	65.152764 
4735.000000	65.093135 
4734.000000	65.031170 
4733.000000	64.975881 
4732.000000	64.933490 
4731.000000	64.907526 
4730.000000	64.897847 
4729.000000	64.901828 
4728.000000	64.914774 
4727.000000	64.931631 
4726.000000	64.948177 
4725.000000	64.961433 
4724.000000	64.970564 
4723.000000	64.976358 
4722.000000	64.980912 
4721.000000	64.985823 
4720.000000	64.992117 
4719.000000	64.999580 
4718.000000	65.007400 
4717.000000	65.014481 
4716.000000	65.020370 
4715.000000	65.025472 
4714.000000	65.031290 
4713.000000	65.040135 
4712.000000	65.053963 
4711.000000	65.073347 
4710.000000	65.097117 
4709.000000	65.122222 
4708.000000	65.143847 
4707.000000	65.156674 
4706.000000	65.156507 
4705.000000	65.141582 
4704.000000	65.113019 
4703.000000	65.075111 
4702.000000	65.034151 
4701.000000	64.997887 
4700.000000	64.973449 
4699.000000	64.966678 
4698.000000	64.981079 
4697.000000	65.016889 
4696.000000	65.071582 
4695.000000	65.139245 
4694.000000	65.212130 
4693.000000	65.280818 
4692.000000	65.335631 
4691.000000	65.368652 
4690.000000	65.374994 
4689.000000	65.354299 
4688.000000	65.310549 
4687.000000	65.252208 
4686.000000	65.190267 
4685.000000	65.136218 
4684.000000	65.099430 
4683.000000	65.084791 
4682.000000	65.091609 
4681.000000	65.114140 
4680.000000	65.143108 
4679.000000	65.168309 
4678.000000	65.181183 
4677.000000	65.177440 
4676.000000	65.157294 
4675.000000	65.125036 
4674.000000	65.087246 
4673.000000	65.050101 
4672.000000	65.017914 
4671.000000	64.991807 
4670.000000	64.969491 
4669.000000	64.947104 
4668.000000	64.920091 
4667.000000	64.885568 
4666.000000	64.843082 
4665.000000	64.795064 
4664.000000	64.746356 
4663.000000	64.702463 
4662.000000	64.668393 
4661.000000	64.646887 
4660.000000	64.638686 
4659.000000	64.642429 
4658.000000	64.655756 
4657.000000	64.676189 
4656.000000	64.702510 
4655.000000	64.735054 
4654.000000	64.775180 
4653.000000	64.824485 
4652.000000	64.883828 
4651.000000	64.952468 
4650.000000	65.027356 
4649.000000	65.103435 
4648.000000	65.174746 
4647.000000	65.235042 
4646.000000	65.279483 
4645.000000	65.305018 
4644.000000	65.311312 
4643.000000	65.300154 
4642.000000	65.275621 
4641.000000	65.242743 
4640.000000	65.206503 
4639.000000	65.171527 
4638.000000	65.141868 
4637.000000	65.120291 
4636.000000	65.108513 
4635.000000	65.106797 
4634.000000	65.114140 
4633.000000	65.127825 
4632.000000	65.143704 
4631.000000	65.156531 
4630.000000	65.160894 
4629.000000	65.152049 
4628.000000	65.126967 
4627.000000	65.085101 
4626.000000	65.028429 
4625.000000	64.961528 
4624.000000	64.890360 
4623.000000	64.820718 
4622.000000	64.757633 
4621.000000	64.704537 
4620.000000	64.663290 
4619.000000	64.634084 
4618.000000	64.616560 
4617.000000	64.610290 
4616.000000	64.615321 
4615.000000	64.631485 
4614.000000	64.658665 
4613.000000	64.695644 
4612.000000	64.739942 
4611.000000	64.787220 
4610.000000	64.832043 
4609.000000	64.868330 
4608.000000	64.891505 
4607.000000	64.899373 
4606.000000	64.892840 
4605.000000	64.875459 
4604.000000	64.852714 
4603.000000	64.830541 
4602.000000	64.813327 
4601.000000	64.802980 
4600.000000	64.797973 
4599.000000	64.794445 
4598.000000	64.787507 
4597.000000	64.773344 
4596.000000	64.750719 
4595.000000	64.721441 
4594.000000	64.690232 
4593.000000	64.663219 
4592.000000	64.646339 
4591.000000	64.643383 
4590.000000	64.653897 
4589.000000	64.674234 
4588.000000	64.698171 
4587.000000	64.719748 
4586.000000	64.734435 
4585.000000	64.741659 
4584.000000	64.744949 
4583.000000	64.751076 
4582.000000	64.768028 
4581.000000	64.802074 
4580.000000	64.855623 
4579.000000	64.925551 
4578.000000	65.003514 
4577.000000	65.077519 
4576.000000	65.134477 
4575.000000	65.163421 
4574.000000	65.157938 
4573.000000	65.117502 
4572.000000	65.047764 
4571.000000	64.958596 
4570.000000	64.862680 
4569.000000	64.772462 
4568.000000	64.698934 
4567.000000	64.650177 
4566.000000	64.631128 
4565.000000	64.643645 
4564.000000	64.686751 
4563.000000	64.757251 
4562.000000	64.849901 
4561.000000	64.957237 
4560.000000	65.070915 
4559.000000	65.181803 
4558.000000	65.281629 
4557.000000	65.363264 
4556.000000	65.422368 
4555.000000	65.457367 
4554.000000	65.469932 
4553.000000	65.464353 
4552.000000	65.445899 
4551.000000	65.419816 
4550.000000	65.390300 
4549.000000	65.359926 
4548.000000	65.329527 
4547.000000	65.298676 
4546.000000	65.266394 
4545.000000	65.231895 
4544.000000	65.195608 
4543.000000	65.159177 
4542.000000	65.124559 
4541.000000	65.094017 
4540.000000	65.069484 
4539.000000	65.051984 
4538.000000	65.041327 
4537.000000	65.036129 
4536.000000	65.033960 
4535.000000	65.032124 
4534.000000	65.027785 
4533.000000	65.019536 
4532.000000	65.007042 
4531.000000	64.992284 
4530.000000	64.977836 
4529.000000	64.968299 
4528.000000	64.968800 
4527.000000	64.983963 
4526.000000	65.016317 
4525.000000	65.065956 
4524.000000	65.130019 
4523.000000	65.202212 
4522.000000	65.273666 
4521.000000	65.334272 
4520.000000	65.374088 
4519.000000	65.385818 
4518.000000	65.365600 
4517.000000	65.314149 
4516.000000	65.236234 
4515.000000	65.140509 
4514.000000	65.036964 
4513.000000	64.935040 
4512.000000	64.841938 
4511.000000	64.762306 
4510.000000	64.697813 
4509.000000	64.647936 
4508.000000	64.610981 
4507.000000	64.585900 
4506.000000	64.571738 
4505.000000	64.567160 
4504.000000	64.570522 
4503.000000	64.578676 
4502.000000	64.587664 
4501.000000	64.592623 
4500.000000	64.589238 
4499.000000	64.574456 
4498.000000	64.546895 
4497.000000	64.507102 
4496.000000	64.457678 
4495.000000	64.402961 
4494.000000	64.348840 
4493.000000	64.301657 
4492.000000	64.266443 
4491.000000	64.246249 
4490.000000	64.241433 
4489.000000	64.250326 
4488.000000	64.268374 
4487.000000	64.291381 
4486.000000	64.315748 
4485.000000	64.341330 
4484.000000	64.371204 
4483.000000	64.410948 
4482.000000	64.465475 
4481.000000	64.537954 
4480.000000	64.627599 
4479.000000	64.729595 
4478.000000	64.836287 
4477.000000	64.938092 
4476.000000	65.023589 
4475.000000	65.087008 
4474.000000	65.132045 
4473.000000	65.165829 
4472.000000	65.195393 
4471.000000	65.228891 
4470.000000	65.272665 
4469.000000	65.324616 
4468.000000	65.374565 
4467.000000	65.403914 
4466.000000	65.390300 
4465.000000	65.326023 
4464.000000	65.217304 
4463.000000	65.068078 
4462.000000	64.888668 
4461.000000	64.698147 
4460.000000	64.522767 
4459.000000	64.394426 
4458.000000	64.341330 
4457.000000	64.383769 
4456.000000	64.522576 
4455.000000	64.742517 
4454.000000	65.003037 
4453.000000	65.249490 
4452.000000	65.413498 
4451.000000	65.438103 
4450.000000	65.267848 
4449.000000	64.867663 
4448.000000	64.211177 
4447.000000	63.291406 
4446.000000	62.112784 
4445.000000	60.699868 
4444.000000	59.104537 
4443.000000	57.419848 
4442.000000	55.794262 
4441.000000	54.431962 
4440.000000	53.606295 
4439.000000	53.604292 
4438.000000	54.680442 
4437.000000	56.959080 
4436.000000	60.359764 
4435.000000	64.574003 
4434.000000	69.075322 
4433.000000	73.235702 
4432.000000	76.461648 
4431.000000	78.321003 
4430.000000	78.666210 
4429.000000	77.618145 
4428.000000	75.525021 
4427.000000	72.853708 
4426.000000	70.068860 
4425.000000	67.537641 
4424.000000	65.484571 
4423.000000	63.970494 
4422.000000	62.963557 
4421.000000	62.347960 
4420.000000	62.007045 
4419.000000	61.840128 
4418.000000	61.792016 
4417.000000	61.852097 
4416.000000	62.036895 
4415.000000	62.366437 
4414.000000	62.839746 
4413.000000	63.423752 
4412.000000	64.053416 
4411.000000	64.650344 
4410.000000	65.138888 
4409.000000	65.469241 
4408.000000	65.624976 
4407.000000	65.624833 
4406.000000	65.513753 
4405.000000	65.350151 
4404.000000	65.189957 
4403.000000	65.067291 
4402.000000	64.995789 
4401.000000	64.985442 
4400.000000	65.029811 
4399.000000	65.114974 
4398.000000	65.221047 
4397.000000	65.330100 
4396.000000	65.425896 
4395.000000	65.497827 
4394.000000	65.537261 
4393.000000	65.532040 
4392.000000	65.481925 
4391.000000	65.400147 
4390.000000	65.303921 
4389.000000	65.210652 
4388.000000	65.134692 
4387.000000	65.084147 
4386.000000	65.061163 
4385.000000	65.062403 
4384.000000	65.081763 
4383.000000	65.111851 
4382.000000	65.146517 
4381.000000	65.181398 
4380.000000	65.210843 
4379.000000	65.230345 
4378.000000	65.237569 
4377.000000	65.232133 
4376.000000	65.213632 
4375.000000	65.183544 
4374.000000	65.144801 
4373.000000	65.102148 
4372.000000	65.062069 
4371.000000	65.031528 
4370.000000	65.016889 
4369.000000	65.022492 
4368.000000	65.049862 
4367.000000	65.096640 
4366.000000	65.156960 
4365.000000	65.222191 
4364.000000	65.282487 
4363.000000	65.329384 
4362.000000	65.357375 
4361.000000	65.364956 
4360.000000	65.354466 
4359.000000	65.330672 
4358.000000	65.299296 
4357.000000	65.265774 
4356.000000	65.234041 
4355.000000	65.206146 
4354.000000	65.182352 
4353.000000	65.162706 
4352.000000	65.146589 
4351.000000	65.134000 
4350.000000	65.124869 
4349.000000	65.118861 
4348.000000	65.115499 
4347.000000	65.113663 
4346.000000	65.112137 
4345.000000	65.109133 
4344.000000	65.103459 
4343.000000	65.094757 
4342.000000	65.084004 
4341.000000	65.072941 
4340.000000	65.063786 
4339.000000	65.058517 
4338.000000	65.058374 
4337.000000	65.063524 
4336.000000	65.073227 
4335.000000	65.086245 
4334.000000	65.101361 
4333.000000	65.117573 
4332.000000	65.133976 
4331.000000	65.149831 
4330.000000	65.164303 
4329.000000	65.176653 
4328.000000	65.186452 
4327.000000	65.193247 
4326.000000	65.197706 
4325.000000	65.200066 
4324.000000	65.200281 
4323.000000	65.196967 
4322.000000	65.188074 
4321.000000	65.170550 
4320.000000	65.141415 
4319.000000	65.098619 
4318.000000	65.042233 
4317.000000	64.974832 
4316.000000	64.901471 
4315.000000	64.829182 
4314.000000	64.765667 
4313.000000	64.717745 
4312.000000	64.689970 
4311.000000	64.683961 
4310.000000	64.698028 
4309.000000	64.728331 
4308.000000	64.769887 
4307.000000	64.817738 
4306.000000	64.868164 
4305.000000	64.918589 
4304.000000	64.967894 
4303.000000	65.015363 
4302.000000	65.060281 
4301.000000	65.101814 
4300.000000	65.138435 
4299.000000	65.168666 
4298.000000	65.190553 
4297.000000	65.202641 
4296.000000	65.203833 
4295.000000	65.194177 
4294.000000	65.174961 
4293.000000	65.148591 
4292.000000	65.118598 
4291.000000	65.089392 
4290.000000	65.065383 
4289.000000	65.050506 
4288.000000	65.047335 
4287.000000	65.056848 
4286.000000	65.077733 
4285.000000	65.106654 
4284.000000	65.138959 
4283.000000	65.169453 
4282.000000	65.193629 
4281.000000	65.208101 
4280.000000	65.211582 
4279.000000	65.204620 
4278.000000	65.189194 
4277.000000	65.167856 
4276.000000	65.143036 
4275.000000	65.116524 
4274.000000	65.089845 
4273.000000	65.064287 
4272.000000	65.041208 
4271.000000	65.021991 
4270.000000	65.008258 
4269.000000	65.001153 
4268.000000	65.000891 
4267.000000	65.006589 
4266.000000	65.016150 
4265.000000	65.026569 
4264.000000	65.034508 
4263.000000	65.037131 
4262.000000	65.032553 
4261.000000	65.020608 
4260.000000	65.002560 
4259.000000	64.981222 
4258.000000	64.960026 
4257.000000	64.942193 
4256.000000	64.930081 
4255.000000	64.924740 
4254.000000	64.925813 
4253.000000	64.931750 
4252.000000	64.940381 
4251.000000	64.949560 
4250.000000	64.957833 
4249.000000	64.964461 
4248.000000	64.969491 
4247.000000	64.973664 
4246.000000	64.978027 
4245.000000	64.983463 
4244.000000	64.990878 
4243.000000	65.000486 
4242.000000	65.012216 
4241.000000	65.026283 
4240.000000	65.042662 
4239.000000	65.061545 
4238.000000	65.082454 
4237.000000	65.105104 
4236.000000	65.127754 
4235.000000	65.147686 
4234.000000	65.160989 
4233.000000	65.163755 
4232.000000	65.152573 
4231.000000	65.125608 
4230.000000	65.083384 
4229.000000	65.029358 
4228.000000	64.969110 
4227.000000	64.909529 
4226.000000	64.857339 
4225.000000	64.817857 
4224.000000	64.793992 
4223.000000	64.785957 
4222.000000	64.791297 
4221.000000	64.806032 
4220.000000	64.825773 
4219.000000	64.847016 
4218.000000	64.867234 
4217.000000	64.885783 
4216.000000	64.903426 
4215.000000	64.922094 
4214.000000	64.943242 
4213.000000	64.968061 
4212.000000	64.996743 
4211.000000	65.028810 
4210.000000	65.063238 
4209.000000	65.099048 
4208.000000	65.135693 
4207.000000	65.172719 
4206.000000	65.209937 
4205.000000	65.246486 
4204.000000	65.280842 
4203.000000	65.310215 
4202.000000	65.331053 
4201.000000	65.339660 
4200.000000	65.333318 
4199.000000	65.311121 
4198.000000	65.274620 
4197.000000	65.227866 
4196.000000	65.176630 
4195.000000	65.127325 
4194.000000	65.085577 
4193.000000	65.054607 
4192.000000	65.034818 
4191.000000	65.023970 
4190.000000	65.018057 
4189.000000	65.012812 
4188.000000	65.005087 
4187.000000	64.993596 
4186.000000	64.979577 
4185.000000	64.965748 
4184.000000	64.955449 
4183.000000	64.950871 
4182.000000	64.952468 
4181.000000	64.958453 
4180.000000	64.965152 
4179.000000	64.968204 
4178.000000	64.963603 
4177.000000	64.949011 
4176.000000	64.924240 
4175.000000	64.891195 
4174.000000	64.852976 
4173.000000	64.813089 
4172.000000	64.774274 
4171.000000	64.738106 
4170.000000	64.704895 
4169.000000	64.674496 
4168.000000	64.647150 
4167.000000	64.624118 
4166.000000	64.607930 
4165.000000	64.601945 
4164.000000	64.609599 
4163.000000	64.633035 
4162.000000	64.671897 
4161.000000	64.723157 
4160.000000	64.781022 
4159.000000	64.838171 
4158.000000	64.886951 
4157.000000	64.921259 
4156.000000	64.937901 
4155.000000	64.937376 
4154.000000	64.923071 
4153.000000	64.900755 
4152.000000	64.877080 
4151.000000	64.857816 
4150.000000	64.846730 
4149.000000	64.844870 
4148.000000	64.850997 
4147.000000	64.862108 
4146.000000	64.874815 
4145.000000	64.886379 
4144.000000	64.895415 
4143.000000	64.901828 
4142.000000	64.906668 
4141.000000	64.911413 
4140.000000	64.917373 
4139.000000	64.924979 
4138.000000	64.933657 
4137.000000	64.942073 
4136.000000	64.948701 
4135.000000	64.952182 
4134.000000	64.952278 
4133.000000	64.949917 
4132.000000	64.947581 
4131.000000	64.948797 
4130.000000	64.957427 
4129.000000	64.976954 
4128.000000	65.008831 
4127.000000	65.052270 
4126.000000	65.103340 
4125.000000	65.155744 
4124.000000	65.201735 
4123.000000	65.233850 
4122.000000	65.246582 
4121.000000	65.237689 
4120.000000	65.209150 
4119.000000	65.166616 
4118.000000	65.118575 
4117.000000	65.074181 
4116.000000	65.041470 
4115.000000	65.025091 
4114.000000	65.025806 
4113.000000	65.040063 
4112.000000	65.061521 
4111.000000	65.082836 
4110.000000	65.097212 
4109.000000	65.100574 
4108.000000	65.091872 
4107.000000	65.073800 
4106.000000	65.050840 
4105.000000	65.028858 
4104.000000	65.013122 
4103.000000	65.007472 
4102.000000	65.013289 
4101.000000	65.029454 
4100.000000	65.053272 
4099.000000	65.080761 
4098.000000	65.107917 
4097.000000	65.131139 
4096.000000	65.148043 
4095.000000	65.157437 
4094.000000	65.159201 
4093.000000	65.154218 
4092.000000	65.143918 
4091.000000	65.130090 
4090.000000	65.114545 
4089.000000	65.098762 
4088.000000	65.083456 
4087.000000	65.069031 
4086.000000	65.055179 
4085.000000	65.041017 
4084.000000	65.025520 
4083.000000	65.007638 
4082.000000	64.987158 
4081.000000	64.964580 
4080.000000	64.941287 
4079.000000	64.919066 
4078.000000	64.899778 
4077.000000	64.884614 
4076.000000	64.873933 
4075.000000	64.866876 
4074.000000	64.862012 
4073.000000	64.857459 
4072.000000	64.852023 
4071.000000	64.845371 
4070.000000	64.838719 
4069.000000	64.834165 
4068.000000	64.834737 
4067.000000	64.843106 
4066.000000	64.861345 
4065.000000	64.890170 
4064.000000	64.928793 
4063.000000	64.974784 
4062.000000	65.024352 
4061.000000	65.072655 
4060.000000	65.114974 
4059.000000	65.147042 
4058.000000	65.165400 
4057.000000	65.168237 
4056.000000	65.155458 
4055.000000	65.129041 
4054.000000	65.092968 
4053.000000	65.052604 
4052.000000	65.014243 
4051.000000	64.983296 
4050.000000	64.963984 
4049.000000	64.957928 
4048.000000	64.964246 
4047.000000	64.979720 
4046.000000	64.999842 
4045.000000	65.019726 
4044.000000	65.035319 
4043.000000	65.044331 
4042.000000	65.046238 
4041.000000	65.042471 
4040.000000	65.035438 
4039.000000	65.028500 
4038.000000	65.025019 
4037.000000	65.028214 
4036.000000	65.040326 
4035.000000	65.062713 
4034.000000	65.095281 
4033.000000	65.136694 
4032.000000	65.184020 
4031.000000	65.232944 
4030.000000	65.278005 
4029.000000	65.313363 
4028.000000	65.333509 
4027.000000	65.334630 
4026.000000	65.315389 
4025.000000	65.277647 
4024.000000	65.225601 
4023.000000	65.165591 
4022.000000	65.104365 
4021.000000	65.048527 
4020.000000	65.002632 
4019.000000	64.968872 
4018.000000	64.946866 
4017.000000	64.934349 
4016.000000	64.927625 
4015.000000	64.922976 
4014.000000	64.917397 
4013.000000	64.909029 
4012.000000	64.898061 
4011.000000	64.886331 
4010.000000	64.876890 
4009.000000	64.872884 
4008.000000	64.876961 
4007.000000	64.890360 
4006.000000	64.912629 
4005.000000	64.941573 
4004.000000	64.973568 
4003.000000	65.004396 
4002.000000	65.029883 
4001.000000	65.047073 
4000.000000	65.055012 
3999.000000	65.054941 
3998.000000	65.049672 
3997.000000	65.043330 
3996.000000	65.040087 
3995.000000	65.043234 
3994.000000	65.054678 
3993.000000	65.074133 
3992.000000	65.099620 
3991.000000	65.127611 
3990.000000	65.154385 
3989.000000	65.176129 
3988.000000	65.189671 
3987.000000	65.193104 
3986.000000	65.186119 
3985.000000	65.170097 
3984.000000	65.147876 
3983.000000	65.123319 
3982.000000	65.100646 
3981.000000	65.084004 
3980.000000	65.076303 
3979.000000	65.079045 
3978.000000	65.091609 
3977.000000	65.111446 
3976.000000	65.134644 
3975.000000	65.156626 
3974.000000	65.173316 
3973.000000	65.182352 
3972.000000	65.183377 
3971.000000	65.178155 
3970.000000	65.169835 
3969.000000	65.161919 
3968.000000	65.157246 
3967.000000	65.157008 
3966.000000	65.160703 
3965.000000	65.166234 
3964.000000	65.170836 
3963.000000	65.172004 
3962.000000	65.168428 
3961.000000	65.160655 
3960.000000	65.150499 
3959.000000	65.140295 
3958.000000	65.132379 
3957.000000	65.128207 
3956.000000	65.127825 
3955.000000	65.129780 
3954.000000	65.131926 
3953.000000	65.131926 
3952.000000	65.128445 
3951.000000	65.121221 
3950.000000	65.110826 
3949.000000	65.098547 
3948.000000	65.085577 
3947.000000	65.073132 
3946.000000	65.061974 
3945.000000	65.052771 
3944.000000	65.046405 
3943.000000	65.043973 
3942.000000	65.046644 
3941.000000	65.055084 
3940.000000	65.069484 
3939.000000	65.088391 
3938.000000	65.108823 
3937.000000	65.126013 
3936.000000	65.134406 
3935.000000	65.128517 
3934.000000	65.104413 
3933.000000	65.060687 
3932.000000	64.999318 
3931.000000	64.925813 
3930.000000	64.848446 
3929.000000	64.776873 
3928.000000	64.720296 
3927.000000	64.685821 
3926.000000	64.677000 
3925.000000	64.693403 
3924.000000	64.730882 
3923.000000	64.782166 
3922.000000	64.838933 
3921.000000	64.892911 
3920.000000	64.938545 
3919.000000	64.973187 
3918.000000	64.997911 
3917.000000	65.016412 
3916.000000	65.033793 
3915.000000	65.054607 
3914.000000	65.081501 
3913.000000	65.114569 
3912.000000	65.150570 
3911.000000	65.184450 
3910.000000	65.209960 
3909.000000	65.221953 
3908.000000	65.216851 
3907.000000	65.193724 
3906.000000	65.154170 
3905.000000	65.102171 
3904.000000	65.043401 
3903.000000	64.984202 
3902.000000	64.930772 
3901.000000	64.888548 
3900.000000	64.861655 
3899.000000	64.852380 
3898.000000	64.861583 
3897.000000	64.888477 
3896.000000	64.930582 
3895.000000	64.983892 
3894.000000	65.043282 
3893.000000	65.103030 
3892.000000	65.157151 
3891.000000	65.200495 
3890.000000	65.228676 
3889.000000	65.239167 
3888.000000	65.231728 
3887.000000	65.208458 
3886.000000	65.173316 
3885.000000	65.131711 
3884.000000	65.090060 
3883.000000	65.054225 
3882.000000	65.029096 
3881.000000	65.017151 
3880.000000	65.018415 
3879.000000	65.030217 
3878.000000	65.048146 
3877.000000	65.067005 
3876.000000	65.082263 
3875.000000	65.090942 
3874.000000	65.092420 
3873.000000	65.088677 
3872.000000	65.083575 
3871.000000	65.081930 
3870.000000	65.088057 
3869.000000	65.104269 
3868.000000	65.130043 
3867.000000	65.162682 
3866.000000	65.197157 
3865.000000	65.227627 
3864.000000	65.248298 
3863.000000	65.255141 
3862.000000	65.246295 
3861.000000	65.222358 
3860.000000	65.186262 
3859.000000	65.142083 
3858.000000	65.095210 
3857.000000	65.051293 
3856.000000	65.015769 
3855.000000	64.993357 
3854.000000	64.986944 
3853.000000	64.997577 
3852.000000	65.023756 
3851.000000	65.061569 
3850.000000	65.104722 
3849.000000	65.145587 
3848.000000	65.176415 
3847.000000	65.191054 
3846.000000	65.186524 
3845.000000	65.163922 
3844.000000	65.128350 
3843.000000	65.088105 
3842.000000	65.053176 
3841.000000	65.033006 
3840.000000	65.034341 
3839.000000	65.059471 
3838.000000	65.106272 
3837.000000	65.168213 
3836.000000	65.236210 
3835.000000	65.300393 
3834.000000	65.352249 
3833.000000	65.385866 
3832.000000	65.398883 
3831.000000	65.392303 
3830.000000	65.369367 
3829.000000	65.335083 
3828.000000	65.294671 
3827.000000	65.253138 
3826.000000	65.214920 
3825.000000	65.183472 
3824.000000	65.161609 
3823.000000	65.150904 
3822.000000	65.151977 
3821.000000	65.163540 
3820.000000	65.182590 
3819.000000	65.204548 
3818.000000	65.223932 
3817.000000	65.235161 
3816.000000	65.233588 
3815.000000	65.216612 
3814.000000	65.184259 
3813.000000	65.139365 
3812.000000	65.087056 
3811.000000	65.033435 
3810.000000	64.984869 
3809.000000	64.946508 
3808.000000	64.922094 
3807.000000	64.913606 
3806.000000	64.920902 
3805.000000	64.942431 
3804.000000	64.974832 
3803.000000	65.013885 
3802.000000	65.054106 
3801.000000	65.089225 
3800.000000	65.112996 
3799.000000	65.119910 
3798.000000	65.106296 
3797.000000	65.071201 
3796.000000	65.016794 
3795.000000	64.948320 
3794.000000	64.873766 
3793.000000	64.802622 
3792.000000	64.744377 
3791.000000	64.706850 
3790.000000	64.695239 
3789.000000	64.711022 
3788.000000	64.752078 
3787.000000	64.812946 
3786.000000	64.885783 
3785.000000	64.962100 
3784.000000	65.033483 
3783.000000	65.093278 
3782.000000	65.136599 
3781.000000	65.161395 
3780.000000	65.167737 
3779.000000	65.158057 
3778.000000	65.136408 
3777.000000	65.107727 
3776.000000	65.077280 
3775.000000	65.049624 
3774.000000	65.028738 
3773.000000	65.016841 
3772.000000	65.014743 
3771.000000	65.021443 
3770.000000	65.034723 
3769.000000	65.051817 
3768.000000	65.070247 
3767.000000	65.088367 
3766.000000	65.105581 
3765.000000	65.122246 
3764.000000	65.139460 
3763.000000	65.158486 
3762.000000	65.180015 
3761.000000	65.203547 
3760.000000	65.226912 
3759.000000	65.247106 
3758.000000	65.260410 
3757.000000	65.263533 
3756.000000	65.254330 
3755.000000	65.232253 
3754.000000	65.198945 
3753.000000	65.158128 
3752.000000	65.115022 
3751.000000	65.075087 
3750.000000	65.043234 
3749.000000	65.023016 
3748.000000	65.015482 
3747.000000	65.019536 
3746.000000	65.031695 
3745.000000	65.047097 
3744.000000	65.060424 
3743.000000	65.067267 
3742.000000	65.064930 
3741.000000	65.053105 
3740.000000	65.034008 
3739.000000	65.011572 
3738.000000	64.990878 
3737.000000	64.976787 
3736.000000	64.972615 
3735.000000	64.979195 
3734.000000	64.994645 
3733.000000	65.014672 
3732.000000	65.033435 
3731.000000	65.045309 
3730.000000	65.046048 
3729.000000	65.034461 
3728.000000	65.012121 
3727.000000	64.983677 
3726.000000	64.955139 
3725.000000	64.932990 
3724.000000	64.922213 
3723.000000	64.925360 
3722.000000	64.942240 
3721.000000	64.969921 
3720.000000	65.004014 
3719.000000	65.039277 
3718.000000	65.070843 
3717.000000	65.095210 
3716.000000	65.110731 
3715.000000	65.117454 
3714.000000	65.116882 
3713.000000	65.111351 
3712.000000	65.103340 
3711.000000	65.095114 
3710.000000	65.088176 
3709.000000	65.083217 
3708.000000	65.080142 
3707.000000	65.078258 
3706.000000	65.076470 
3705.000000	65.073537 
3704.000000	65.068411 
3703.000000	65.060830 
3702.000000	65.051269 
3701.000000	65.040683 
3700.000000	65.030574 
3699.000000	65.022587 
3698.000000	65.018200 
3697.000000	65.018272 
3696.000000	65.023136 
3695.000000	65.032744 
3694.000000	65.046668 
3693.000000	65.064311 
3692.000000	65.085005 
3691.000000	65.107822 
3690.000000	65.131998 
3689.000000	65.156698 
3688.000000	65.181350 
3687.000000	65.205550 
3686.000000	65.229201 
3685.000000	65.252137 
3684.000000	65.274095 
3683.000000	65.294218 
3682.000000	65.311264 
3681.000000	65.323066 
3680.000000	65.327000 
3679.000000	65.320181 
3678.000000	65.300679 
3677.000000	65.267825 
3676.000000	65.222883 
3675.000000	65.169072 
3674.000000	65.111351 
3673.000000	65.055394 
3672.000000	65.006136 
3671.000000	64.967179 
3670.000000	64.939904 
3669.000000	64.923882 
3668.000000	64.917039 
3667.000000	64.917039 
3666.000000	64.921760 
3665.000000	64.930224 
3664.000000	64.942455 
3663.000000	64.959073 
3662.000000	64.980387 
3661.000000	65.006136 
3660.000000	65.034914 
3659.000000	65.064215 
3658.000000	65.090751 
3657.000000	65.111446 
3656.000000	65.124273 
3655.000000	65.128755 
3654.000000	65.126085 
3653.000000	65.118885 
3652.000000	65.110588 
3651.000000	65.104413 
3650.000000	65.102791 
3649.000000	65.106987 
3648.000000	65.117025 
3647.000000	65.132164 
3646.000000	65.151357 
3645.000000	65.173268 
3644.000000	65.196943 
3643.000000	65.221858 
3642.000000	65.247511 
3641.000000	65.272927 
3640.000000	65.296673 
3639.000000	65.316796 
3638.000000	65.330934 
3637.000000	65.336751 
3636.000000	65.332484 
3635.000000	65.317630 
3634.000000	65.293192 
3633.000000	65.261936 
3632.000000	65.227818 
3631.000000	65.195155 
3630.000000	65.167975 
3629.000000	65.149307 
3628.000000	65.140342 
3627.000000	65.140509 
3626.000000	65.148019 
3625.000000	65.160560 
3624.000000	65.175485 
3623.000000	65.190982 
3622.000000	65.206098 
3621.000000	65.221071 
3620.000000	65.236639 
3619.000000	65.253829 
3618.000000	65.273237 
3617.000000	65.294647 
3616.000000	65.317034 
3615.000000	65.338492 
3614.000000	65.356922 
3613.000000	65.369892 
3612.000000	65.375614 
3611.000000	65.372872 
3610.000000	65.361595 
3609.000000	65.342402 
3608.000000	65.316605 
3607.000000	65.286016 
3606.000000	65.252590 
3605.000000	65.218448 
3604.000000	65.185570 
3603.000000	65.155482 
3602.000000	65.129256 
3601.000000	65.107488 
3600.000000	65.090370 
3599.000000	65.077543 
3598.000000	65.068483 
3597.000000	65.062570 
3596.000000	65.059447 
3595.000000	65.059113 
3594.000000	65.061831 
3593.000000	65.067958 
3592.000000	65.077638 
3591.000000	65.090465 
3590.000000	65.105223 
3589.000000	65.119767 
3588.000000	65.131354 
3587.000000	65.137124 
3586.000000	65.134787 
3585.000000	65.123200 
3584.000000	65.102934 
3583.000000	65.076208 
3582.000000	65.046644 
3581.000000	65.018653 
3580.000000	64.996623 
3579.000000	64.984226 
3578.000000	64.983558 
3577.000000	64.994859 
3576.000000	65.016412 
3575.000000	65.044951 
3574.000000	65.076470 
3573.000000	65.106844 
3572.000000	65.132427 
3571.000000	65.150690 
3570.000000	65.160560 
3569.000000	65.162420 
3568.000000	65.157532 
3567.000000	65.147829 
3566.000000	65.135669 
3565.000000	65.123391 
3564.000000	65.113258 
3563.000000	65.107059 
3562.000000	65.106248 
3561.000000	65.111708 
3560.000000	65.123820 
3559.000000	65.142107 
3558.000000	65.165352 
3557.000000	65.191555 
3556.000000	65.218091 
3555.000000	65.242052 
3554.000000	65.260577 
3553.000000	65.271091 
3552.000000	65.272021 
3551.000000	65.262937 
3550.000000	65.244889 
3549.000000	65.220284 
3548.000000	65.192461 
3547.000000	65.165638 
3546.000000	65.144133 
3545.000000	65.131688 
3544.000000	65.130901 
3543.000000	65.142822 
3542.000000	65.166449 
3541.000000	65.199112 
3540.000000	65.236544 
3539.000000	65.273714 
3538.000000	65.305256 
3537.000000	65.326762 
3536.000000	65.335249 
3535.000000	65.329599 
3534.000000	65.310764 
3533.000000	65.281248 
3532.000000	65.244913 
3531.000000	65.206027 
3530.000000	65.168642 
3529.000000	65.136051 
3528.000000	65.110540 
3527.000000	65.093350 
3526.000000	65.084934 
3525.000000	65.085458 
3524.000000	65.094828 
3523.000000	65.112590 
3522.000000	65.138053 
3521.000000	65.170025 
3520.000000	65.206336 
3519.000000	65.244317 
3518.000000	65.280675 
3517.000000	65.312218 
3516.000000	65.336394 
3515.000000	65.351748 
3514.000000	65.358042 
3513.000000	65.356254 
3512.000000	65.348529 
3511.000000	65.337252 
3510.000000	65.325140 
3509.000000	65.314149 
3508.000000	65.305519 
3507.000000	65.299391 
3506.000000	65.295338 
3505.000000	65.292215 
3504.000000	65.288758 
3503.000000	65.283966 
3502.000000	65.277361 
3501.000000	65.269064 
3500.000000	65.259814 
3499.000000	65.250635 
3498.000000	65.242505 
3497.000000	65.236282 
3496.000000	65.232372 
3495.000000	65.230774 
3494.000000	65.230941 
3493.000000	65.232133 
3492.000000	65.233540 
3491.000000	65.234541 
3490.000000	65.234875 
3489.000000	65.234470 
3488.000000	65.233254 
3487.000000	65.231251 
3486.000000	65.228295 
3485.000000	65.223979 
3484.000000	65.217638 
3483.000000	65.208816 
3482.000000	65.197229 
3481.000000	65.183115 
3480.000000	65.167045 
3479.000000	65.150237 
3478.000000	65.133857 
3477.000000	65.119242 
3476.000000	65.107345 
3475.000000	65.098547 
3474.000000	65.092730 
3473.000000	65.089344 
3472.000000	65.087580 
3471.000000	65.086746 
3470.000000	65.086317 
3469.000000	65.086126 
3468.000000	65.086007 
3467.000000	65.085983 
3466.000000	65.085911 
3465.000000	65.085601 
3464.000000	65.085053 
3463.000000	65.084314 
3462.000000	65.083765 
3461.000000	65.083980 
3460.000000	65.085673 
3459.000000	65.089368 
3458.000000	65.095257 
3457.000000	65.103220 
3456.000000	65.112352 
3455.000000	65.121626 
3454.000000	65.129995 
3453.000000	65.136718 
3452.000000	65.141487 
3451.000000	65.144562 
3450.000000	65.146613 
3449.000000	65.148234 
3448.000000	65.149521 
3447.000000	65.150117 
3446.000000	65.149211 
3445.000000	65.146017 
3444.000000	65.140056 
3443.000000	65.131664 
3442.000000	65.122032 
3441.000000	65.112781 
3440.000000	65.105652 
3439.000000	65.101623 
3438.000000	65.100717 
3437.000000	65.101933 
3436.000000	65.103554 
3435.000000	65.103530 
3434.000000	65.100622 
3433.000000	65.094304 
3432.000000	65.085721 
3431.000000	65.077161 
3430.000000	65.071868 
3429.000000	65.072870 
3428.000000	65.082550 
3427.000000	65.101766 
3426.000000	65.129494 
3425.000000	65.163064 
3424.000000	65.198540 
3423.000000	65.231513 
3422.000000	65.257811 
3421.000000	65.274143 
3420.000000	65.278768 
3419.000000	65.271568 
3418.000000	65.254211 
3417.000000	65.229558 
3416.000000	65.201187 
3415.000000	65.172648 
3414.000000	65.146684 
3413.000000	65.124750 
3412.000000	65.106821 
3411.000000	65.091776 
3410.000000	65.077948 
3409.000000	65.064072 
3408.000000	65.049576 
3407.000000	65.035247 
3406.000000	65.022611 
3405.000000	65.013837 
3404.000000	65.010619 
3403.000000	65.014052 
3402.000000	65.023612 
3401.000000	65.037608 
3400.000000	65.053129 
3399.000000	65.067148 
3398.000000	65.077066 
3397.000000	65.081739 
3396.000000	65.081191 
3395.000000	65.077114 
3394.000000	65.071916 
3393.000000	65.068149 
3392.000000	65.067625 
3391.000000	65.071058 
3390.000000	65.077996 
3389.000000	65.086770 
3388.000000	65.095329 
3387.000000	65.101766 
3386.000000	65.105032 
3385.000000	65.105128 
3384.000000	65.103316 
3383.000000	65.101718 
3382.000000	65.102791 
3381.000000	65.108919 
3380.000000	65.121817 
3379.000000	65.141844 
3378.000000	65.167880 
3377.000000	65.197777 
3376.000000	65.228080 
3375.000000	65.255093 
3374.000000	65.274906 
3373.000000	65.284538 
3372.000000	65.282058 
3371.000000	65.267062 
3370.000000	65.240883 
3369.000000	65.206265 
3368.000000	65.167140 
3367.000000	65.127849 
3366.000000	65.092325 
3365.000000	65.063476 
3364.000000	65.042352 
3363.000000	65.028095 
3362.000000	65.018081 
3361.000000	65.009117 
3360.000000	64.998006 
3359.000000	64.982843 
3358.000000	64.963412 
3357.000000	64.941573 
3356.000000	64.920568 
3355.000000	64.904403 
3354.000000	64.896416 
3353.000000	64.898562 
3352.000000	64.910745 
3351.000000	64.930844 
3350.000000	64.955425 
3349.000000	64.980363 
3348.000000	65.002226 
3347.000000	65.018844 
3346.000000	65.029597 
3345.000000	65.035414 
3344.000000	65.038037 
3343.000000	65.039610 
3342.000000	65.041661 
3341.000000	65.045523 
3340.000000	65.052056 
3339.000000	65.061855 
3338.000000	65.075564 
3337.000000	65.093564 
3336.000000	65.115952 
3335.000000	65.142059 
3334.000000	65.170502 
3333.000000	65.198969 
3332.000000	65.224313 
3331.000000	65.243339 
3330.000000	65.253448 
3329.000000	65.253043 
3328.000000	65.242099 
3327.000000	65.222239 
3326.000000	65.196228 
3325.000000	65.167427 
3324.000000	65.139126 
3323.000000	65.113830 
3322.000000	65.093278 
3321.000000	65.078306 
3320.000000	65.069079 
3319.000000	65.065360 
3318.000000	65.066742 
3317.000000	65.072774 
3316.000000	65.082883 
3315.000000	65.096116 
3314.000000	65.111279 
3313.000000	65.127015 
3312.000000	65.141940 
3311.000000	65.154552 
3310.000000	65.163493 
3309.000000	65.167570 
3308.000000	65.165948 
3307.000000	65.158176 
3306.000000	65.144228 
3305.000000	65.124797 
3304.000000	65.101265 
3303.000000	65.075659 
3302.000000	65.050697 
3301.000000	65.029358 
3300.000000	65.014314 
3299.000000	65.007472 
3298.000000	65.009617 
3297.000000	65.020036 
3296.000000	65.036368 
3295.000000	65.055394 
3294.000000	65.073418 
3293.000000	65.087318 
3292.000000	65.095186 
3291.000000	65.096807 
3290.000000	65.093421 
3289.000000	65.087270 
3288.000000	65.081167 
3287.000000	65.077495 
3286.000000	65.077614 
3285.000000	65.081596 
3284.000000	65.088462 
3283.000000	65.096497 
3282.000000	65.103721 
3281.000000	65.108609 
3280.000000	65.110421 
3279.000000	65.109276 
3278.000000	65.105891 
3277.000000	65.101242 
3276.000000	65.095949 
3275.000000	65.089964 
3274.000000	65.082621 
3273.000000	65.072917 
3272.000000	65.059804 
3271.000000	65.042948 
3270.000000	65.022778 
3269.000000	65.000796 
3268.000000	64.979219 
3267.000000	64.960336 
3266.000000	64.946126 
3265.000000	64.937686 
3264.000000	64.935445 
3263.000000	64.938998 
3262.000000	64.947748 
3261.000000	64.961004 
3260.000000	64.978027 
3259.000000	64.998364 
3258.000000	65.021324 
3257.000000	65.045690 
3256.000000	65.069556 
3255.000000	65.090441 
3254.000000	65.105581 
3253.000000	65.112566 
3252.000000	65.110015 
3251.000000	65.098214 
3250.000000	65.079188 
3249.000000	65.056467 
3248.000000	65.034317 
3247.000000	65.016889 
3246.000000	65.007138 
3245.000000	65.006518 
3244.000000	65.014648 
3243.000000	65.029549 
3242.000000	65.048289 
3241.000000	65.067648 
3240.000000	65.084648 
3239.000000	65.096950 
3238.000000	65.103197 
3237.000000	65.103292 
3236.000000	65.097737 
3235.000000	65.088081 
3234.000000	65.076303 
3233.000000	65.064382 
3232.000000	65.054035 
3231.000000	65.046358 
3230.000000	65.041804 
3229.000000	65.040087 
3228.000000	65.040302 
3227.000000	65.041184 
3226.000000	65.041327 
3225.000000	65.039658 
3224.000000	65.035748 
3223.000000	65.029859 
3222.000000	65.022897 
3221.000000	65.016102 
3220.000000	65.010809 
3219.000000	65.008020 
3218.000000	65.008306 
3217.000000	65.011715 
3216.000000	65.017962 
3215.000000	65.026402 
3214.000000	65.036654 
3213.000000	65.048217 
3212.000000	65.061163 
3211.000000	65.075445 
3210.000000	65.091300 
3209.000000	65.108919 
3208.000000	65.128064 
3207.000000	65.148282 
3206.000000	65.168309 
3205.000000	65.186452 
3204.000000	65.200710 
3203.000000	65.209531 
3202.000000	65.211772 
3201.000000	65.207409 
3200.000000	65.197634 
3199.000000	65.184903 
3198.000000	65.172481 
3197.000000	65.163779 
3196.000000	65.161681 
3195.000000	65.167546 
3194.000000	65.181088 
3193.000000	65.199804 
3192.000000	65.219759 
3191.000000	65.236234 
3190.000000	65.244841 
3189.000000	65.242791 
3188.000000	65.229010 
3187.000000	65.204906 
3186.000000	65.173530 
3185.000000	65.139317 
3184.000000	65.106773 
3183.000000	65.080022 
3182.000000	65.062141 
3181.000000	65.054583 
3180.000000	65.057492 
3179.000000	65.069627 
3178.000000	65.088915 
3177.000000	65.112471 
3176.000000	65.136981 
3175.000000	65.159320 
3174.000000	65.176677 
3173.000000	65.186858 
3172.000000	65.188527 
3171.000000	65.181565 
3170.000000	65.167069 
3169.000000	65.147137 
3168.000000	65.124416 
3167.000000	65.101718 
3166.000000	65.081453 
3165.000000	65.065217 
3164.000000	65.053677 
3163.000000	65.046572 
3162.000000	65.043067 
3161.000000	65.042090 
3160.000000	65.042805 
3159.000000	65.044665 
3158.000000	65.047454 
3157.000000	65.051126 
3156.000000	65.055632 
3155.000000	65.060353 
3154.000000	65.064406 
3153.000000	65.066647 
3152.000000	65.066075 
3151.000000	65.062046 
3150.000000	65.054583 
3149.000000	65.044593 
3148.000000	65.033411 
3147.000000	65.022563 
3146.000000	65.013122 
3145.000000	65.005421 
3144.000000	64.999079 
3143.000000	64.993095 
3142.000000	64.986276 
3141.000000	64.977860 
3140.000000	64.967727 
3139.000000	64.956855 
3138.000000	64.946937 
3137.000000	64.940190 
3136.000000	64.938664 
3135.000000	64.943766 
3134.000000	64.956068 
3133.000000	64.975237 
3132.000000	64.999914 
3131.000000	65.028095 
3130.000000	65.057802 
3129.000000	65.086889 
3128.000000	65.113139 
3127.000000	65.134358 
3126.000000	65.148496 
3125.000000	65.153980 
3124.000000	65.149903 
3123.000000	65.136408 
3122.000000	65.114760 
3121.000000	65.087437 
3120.000000	65.058016 
3119.000000	65.030217 
3118.000000	65.007472 
3117.000000	64.992260 
3116.000000	64.985656 
3115.000000	64.987087 
3114.000000	64.994740 
3113.000000	65.005803 
3112.000000	65.017485 
3111.000000	65.027546 
3110.000000	65.034914 
3109.000000	65.039587 
3108.000000	65.042948 
3107.000000	65.046954 
3106.000000	65.053796 
3105.000000	65.065503 
3104.000000	65.083360 
3103.000000	65.107583 
3102.000000	65.136909 
3101.000000	65.168857 
3100.000000	65.199732 
3099.000000	65.225410 
3098.000000	65.241742 
3097.000000	65.245389 
3096.000000	65.234279 
3095.000000	65.208244 
3094.000000	65.168619 
3093.000000	65.118312 
3092.000000	65.061402 
3091.000000	65.002441 
3090.000000	64.946031 
3089.000000	64.896225 
3088.000000	64.856338 
3087.000000	64.828753 
3086.000000	64.814567 
3085.000000	64.813852 
3084.000000	64.825391 
3083.000000	64.847135 
3082.000000	64.876079 
3081.000000	64.908981 
3080.000000	64.942049 
3079.000000	64.971971 
3078.000000	64.996099 
3077.000000	65.012979 
3076.000000	65.022349 
3075.000000	65.024876 
3074.000000	65.022039 
3073.000000	65.015697 
3072.000000	65.007853 
3071.000000	65.000271 
3070.000000	64.994573 
3069.000000	64.991974 
3068.000000	64.993405 
3067.000000	64.999508 
3066.000000	65.010404 
3065.000000	65.025734 
3064.000000	65.044641 
3063.000000	65.065670 
3062.000000	65.086817 
3061.000000	65.106081 
3060.000000	65.121483 
3059.000000	65.131258 
3058.000000	65.133929 
3057.000000	65.128946 
3056.000000	65.116357 
3055.000000	65.096879 
3054.000000	65.071702 
3053.000000	65.042591 
3052.000000	65.011835 
3051.000000	64.982032 
3050.000000	64.955949 
3049.000000	64.936208 
3048.000000	64.924812 
3047.000000	64.922809 
3046.000000	64.930129 
3045.000000	64.945220 
3044.000000	64.965534 
3043.000000	64.988040 
3042.000000	65.009665 
3041.000000	65.027904 
3040.000000	65.041160 
3039.000000	65.048956 
3038.000000	65.051794 
3037.000000	65.050959 
3036.000000	65.047979 
3035.000000	65.044379 
3034.000000	65.041255 
3033.000000	65.039229 
3032.000000	65.038657 
3031.000000	65.039515 
3030.000000	65.041780 
3029.000000	65.045189 
3028.000000	65.049695 
3027.000000	65.055298 
3026.000000	65.061783 
3025.000000	65.068793 
3024.000000	65.075993 
3023.000000	65.082788 
3022.000000	65.088844 
3021.000000	65.093636 
3020.000000	65.096902 
3019.000000	65.098333 
3018.000000	65.097951 
3017.000000	65.095996 
3016.000000	65.092945 
3015.000000	65.089488 
3014.000000	65.086531 
3013.000000	65.084838 
3012.000000	65.084958 
3011.000000	65.087008 
3010.000000	65.090489 
3009.000000	65.094566 
3008.000000	65.097951 
3007.000000	65.099048 
3006.000000	65.096426 
3005.000000	65.089082 
3004.000000	65.076541 
3003.000000	65.059041 
3002.000000	65.037584 
3001.000000	65.013670 
3000.000000	64.989137 
2999.000000	64.965891 
2998.000000	64.945554 
2997.000000	64.929461 
2996.000000	64.918351 
2995.000000	64.912271 
2994.000000	64.910793 
2993.000000	64.913082 
2992.000000	64.918112 
2991.000000	64.924621 
2990.000000	64.931678 
2989.000000	64.938592 
2988.000000	64.944958 
2987.000000	64.950633 
2986.000000	64.955663 
2985.000000	64.959931 
2984.000000	64.963221 
2983.000000	64.965009 
2982.000000	64.964461 
2981.000000	64.960622 
2980.000000	64.952588 
2979.000000	64.939832 
2978.000000	64.922404 
2977.000000	64.900898 
2976.000000	64.876604 
2975.000000	64.851093 
2974.000000	64.826035 
2973.000000	64.802718 
2972.000000	64.782047 
2971.000000	64.764070 
2970.000000	64.748287 
2969.000000	64.733672 
2968.000000	64.719200 
2967.000000	64.704227 
2966.000000	64.688420 
2965.000000	64.672422 
2964.000000	64.657378 
2963.000000	64.644980 
2962.000000	64.636826 
2961.000000	64.634108 
2960.000000	64.637303 
2959.000000	64.645934 
2958.000000	64.658713 
2957.000000	64.673686 
2956.000000	64.688658 
2955.000000	64.701724 
2954.000000	64.711546 
2953.000000	64.717507 
2952.000000	64.719724 
2951.000000	64.718890 
2950.000000	64.715981 
2949.000000	64.711785 
2948.000000	64.706969 
2947.000000	64.701890 
2946.000000	64.696574 
2945.000000	64.691185 
2944.000000	64.685797 
2943.000000	64.680600 
2942.000000	64.675903 
2941.000000	64.672279 
2940.000000	64.670372 
2939.000000	64.670658 
2938.000000	64.673519 
2937.000000	64.679217 
2936.000000	64.687871 
2935.000000	64.699363 
2934.000000	64.713263 
2933.000000	64.729189 
2932.000000	64.746475 
2931.000000	64.764261 
2930.000000	64.781618 
2929.000000	64.797449 
2928.000000	64.810776 
2927.000000	64.820718 
2926.000000	64.826679 
2925.000000	64.828562 
2924.000000	64.826607 
2923.000000	64.821696 
2922.000000	64.814996 
2921.000000	64.808034 
2920.000000	64.802289 
2919.000000	64.798998 
2918.000000	64.799046 
2917.000000	64.802861 
2916.000000	64.810252 
2915.000000	64.820623 
2914.000000	64.832949 
2913.000000	64.846348 
2912.000000	64.859890 
2911.000000	64.873075 
2910.000000	64.885616 
2909.000000	64.897394 
2908.000000	64.908289 
2907.000000	64.918017 
2906.000000	64.926004 
2905.000000	64.931583 
2904.000000	64.933943 
2903.000000	64.932560 
2902.000000	64.927291 
2901.000000	64.918851 
2900.000000	64.908790 
2899.000000	64.899230 
2898.000000	64.892601 
2897.000000	64.891290 
2896.000000	64.896869 
2895.000000	64.910054 
2894.000000	64.930295 
2893.000000	64.955854 
2892.000000	64.983916 
2891.000000	65.011310 
2890.000000	65.034866 
2889.000000	65.052008 
2888.000000	65.061140 
2887.000000	65.061807 
2886.000000	65.054655 
2885.000000	65.041303 
2884.000000	65.023899 
2883.000000	65.004920 
2882.000000	64.986348 
2881.000000	64.969706 
2880.000000	64.955544 
2879.000000	64.943838 
2878.000000	64.933800 
2877.000000	64.924407 
2876.000000	64.914560 
2875.000000	64.903664 
2874.000000	64.891481 
2873.000000	64.878702 
2872.000000	64.866447 
2871.000000	64.856433 
2870.000000	64.850616 
2869.000000	64.850640 
2868.000000	64.857673 
2867.000000	64.871668 
2866.000000	64.891338 
2865.000000	64.914155 
2864.000000	64.936590 
2863.000000	64.954853 
2862.000000	64.965510 
2861.000000	64.966464 
2860.000000	64.957046 
2859.000000	64.938735 
2858.000000	64.914512 
2857.000000	64.888525 
2856.000000	64.865207 
2855.000000	64.848351 
2854.000000	64.840459 
2853.000000	64.842438 
2852.000000	64.853549 
2851.000000	64.871788 
2850.000000	64.894294 
2849.000000	64.918088 
2848.000000	64.940404 
2847.000000	64.959216 
2846.000000	64.973306 
2845.000000	64.982056 
2844.000000	64.985346 
2843.000000	64.983510 
2842.000000	64.977025 
2841.000000	64.966678 
2840.000000	64.953398 
2839.000000	64.938473 
2838.000000	64.923024 
2837.000000	64.908552 
2836.000000	64.896392 
2835.000000	64.887690 
2834.000000	64.883232 
2833.000000	64.883375 
2832.000000	64.887905 
2831.000000	64.896202 
2830.000000	64.907407 
2829.000000	64.920330 
2828.000000	64.933729 
2827.000000	64.946365 
2826.000000	64.957237 
2825.000000	64.965391 
2824.000000	64.969992 
2823.000000	64.970350 
2822.000000	64.966082 
2821.000000	64.957141 
2820.000000	64.944028 
2819.000000	64.927721 
2818.000000	64.909768 
2817.000000	64.891958 
2816.000000	64.876389 
2815.000000	64.864945 
2814.000000	64.859080 
2813.000000	64.859604 
2812.000000	64.866375 
2811.000000	64.878726 
2810.000000	64.895248 
2809.000000	64.914298 
2808.000000	64.934062 
2807.000000	64.952921 
2806.000000	64.969491 
2805.000000	64.982891 
2804.000000	64.992642 
2803.000000	64.998674 
2802.000000	65.001130 
2801.000000	65.000319 
2800.000000	64.996743 
2799.000000	64.990949 
2798.000000	64.983558 
2797.000000	64.975237 
2796.000000	64.966726 
2795.000000	64.958930 
2794.000000	64.952731 
2793.000000	64.949083 
2792.000000	64.948892 
2791.000000	64.952754 
2790.000000	64.960932 
2789.000000	64.973068 
2788.000000	64.988398 
2787.000000	65.005636 
2786.000000	65.023398 
2785.000000	65.040349 
2784.000000	65.055561 
2783.000000	65.068507 
2782.000000	65.079021 
2781.000000	65.086960 
2780.000000	65.091896 
2779.000000	65.093111 
2778.000000	65.089249 
2777.000000	65.079045 
2776.000000	65.061426 
2775.000000	65.036153 
2774.000000	65.004134 
2773.000000	64.967679 
2772.000000	64.930319 
2771.000000	64.896178 
2770.000000	64.869189 
2769.000000	64.852356 
2768.000000	64.847040 
2767.000000	64.852714 
2766.000000	64.867186 
2765.000000	64.887285 
2764.000000	64.909386 
2763.000000	64.930415 
2762.000000	64.948201 
2761.000000	64.961981 
2760.000000	64.972019 
2759.000000	64.979481 
2758.000000	64.985966 
2757.000000	64.992642 
2756.000000	65.000295 
2755.000000	65.008783 
2754.000000	65.017366 
2753.000000	65.024518 
2752.000000	65.028810 
2751.000000	65.028905 
2750.000000	65.024256 
2749.000000	65.015244 
2748.000000	65.003061 
2747.000000	64.989709 
2746.000000	64.977359 
2745.000000	64.968109 
2744.000000	64.963507 
2743.000000	64.963984 
2742.000000	64.968872 
2741.000000	64.976644 
2740.000000	64.985203 
2739.000000	64.992189 
2738.000000	64.995574 
2737.000000	64.994168 
2736.000000	64.987969 
2735.000000	64.977955 
2734.000000	64.966058 
2733.000000	64.954352 
2732.000000	64.944744 
2731.000000	64.938497 
2730.000000	64.936089 
2729.000000	64.936971 
2728.000000	64.939856 
2727.000000	64.943075 
2726.000000	64.945006 
2725.000000	64.944481 
2724.000000	64.941263 
2723.000000	64.935731 
2722.000000	64.929103 
2721.000000	64.922809 
2720.000000	64.918446 
2719.000000	64.917206 
2718.000000	64.919948 
2717.000000	64.926838 
2716.000000	64.937663 
2715.000000	64.951729 
2714.000000	64.968347 
2713.000000	64.986658 
2712.000000	65.005540 
2711.000000	65.023589 
2710.000000	65.039086 
2709.000000	65.050411 
2708.000000	65.056085 
2707.000000	65.055108 
2706.000000	65.047264 
2705.000000	65.033316 
2704.000000	65.015077 
2703.000000	64.995026 
2702.000000	64.975976 
2701.000000	64.960455 
2700.000000	64.950489 
2699.000000	64.946770 
2698.000000	64.949035 
2697.000000	64.955854 
2696.000000	64.965009 
2695.000000	64.974045 
2694.000000	64.980626 
2693.000000	64.983010 
2692.000000	64.980435 
2691.000000	64.973187 
2690.000000	64.962458 
2689.000000	64.950442 
2688.000000	64.939904 
2687.000000	64.933657 
2686.000000	64.933991 
2685.000000	64.942383 
2684.000000	64.958977 
2683.000000	64.982414 
2682.000000	65.009975 
2681.000000	65.038323 
2680.000000	65.063810 
2679.000000	65.083193 
2678.000000	65.094304 
2677.000000	65.096187 
2676.000000	65.089225 
2675.000000	65.075063 
2674.000000	65.055966 
2673.000000	65.034484 
2672.000000	65.012907 
2671.000000	64.993214 
2670.000000	64.976859 
2669.000000	64.964675 
2668.000000	64.956879 
2667.000000	64.953470 
2666.000000	64.953756 
2665.000000	64.956569 
2664.000000	64.960193 
2663.000000	64.962601 
2662.000000	64.961719 
2661.000000	64.955735 
2660.000000	64.943718 
2659.000000	64.925765 
2658.000000	64.903187 
2657.000000	64.878225 
2656.000000	64.853835 
2655.000000	64.832997 
2654.000000	64.818215 
2653.000000	64.810943 
2652.000000	64.811372 
2651.000000	64.818596 
2650.000000	64.830732 
2649.000000	64.845681 
2648.000000	64.861130 
2647.000000	64.875340 
2646.000000	64.887118 
2645.000000	64.896225 
2644.000000	64.902663 
2643.000000	64.907097 
2642.000000	64.910244 
2641.000000	64.912939 
2640.000000	64.915990 
2639.000000	64.920020 
2638.000000	64.925360 
2637.000000	64.932107 
2636.000000	64.940142 
2635.000000	64.949154 
2634.000000	64.958643 
2633.000000	64.968228 
2632.000000	64.977216 
2631.000000	64.985036 
2630.000000	64.991068 
2629.000000	64.994835 
2628.000000	64.995932 
2627.000000	64.994239 
2626.000000	64.989805 
2625.000000	64.983153 
2624.000000	64.974999 
2623.000000	64.966416 
2622.000000	64.958500 
2621.000000	64.952373 
2620.000000	64.948606 
2619.000000	64.947319 
2618.000000	64.947843 
2617.000000	64.948892 
2616.000000	64.948821 
2615.000000	64.946198 
2614.000000	64.940071 
2613.000000	64.930343 
2612.000000	64.917755 
2611.000000	64.904022 
2610.000000	64.891433 
2609.000000	64.882278 
2608.000000	64.878678 
2607.000000	64.881944 
2606.000000	64.892482 
2605.000000	64.909601 
2604.000000	64.931678 
2603.000000	64.956355 
2602.000000	64.980912 
2601.000000	65.002703 
2600.000000	65.019607 
2599.000000	65.030288 
2598.000000	65.034246 
2597.000000	65.032029 
2596.000000	65.024924 
2595.000000	65.014791 
2594.000000	65.003585 
2593.000000	64.992904 
2592.000000	64.984083 
2591.000000	64.977526 
2590.000000	64.973068 
2589.000000	64.970183 
2588.000000	64.968109 
2587.000000	64.966273 
2586.000000	64.964365 
2585.000000	64.962506 
2584.000000	64.960885 
2583.000000	64.959859 
2582.000000	64.959597 
2581.000000	64.960169 
2580.000000	64.961242 
2579.000000	64.962434 
2578.000000	64.963221 
2577.000000	64.962983 
2576.000000	64.961075 
2575.000000	64.956927 
2574.000000	64.950060 
2573.000000	64.939951 
2572.000000	64.926338 
2571.000000	64.909100 
2570.000000	64.888572 
2569.000000	64.865756 
2568.000000	64.842104 
2567.000000	64.819383 
2566.000000	64.799404 
2565.000000	64.783430 
2564.000000	64.772176 
2563.000000	64.765334 
2562.000000	64.762043 
2561.000000	64.761042 
2560.000000	64.761543 
2559.000000	64.763092 
2558.000000	64.766168 
2557.000000	64.771819 
2556.000000	64.781451 
2555.000000	64.795994 
2554.000000	64.815688 
2553.000000	64.839696 
2552.000000	64.866137 
2551.000000	64.892482 
2550.000000	64.916062 
2549.000000	64.934563 
2548.000000	64.946746 
2547.000000	64.952564 
2546.000000	64.952850 
2545.000000	64.949178 
2544.000000	64.943337 
2543.000000	64.936614 
2542.000000	64.929819 
2541.000000	64.922666 
2540.000000	64.914798 
2539.000000	64.905548 
2538.000000	64.894437 
2537.000000	64.881420 
2536.000000	64.867091 
2535.000000	64.852666 
2534.000000	64.839482 
2533.000000	64.828896 
2532.000000	64.821982 
2531.000000	64.819359 
2530.000000	64.820909 
2529.000000	64.826178 
2528.000000	64.834308 
2527.000000	64.844489 
2526.000000	64.856052 
2525.000000	64.868402 
2524.000000	64.881086 
2523.000000	64.893627 
2522.000000	64.905667 
2521.000000	64.916586 
2520.000000	64.925670 
2519.000000	64.932417 
2518.000000	64.936566 
2517.000000	64.938330 
2516.000000	64.938139 
2515.000000	64.936947 
2514.000000	64.935779 
2513.000000	64.935588 
2512.000000	64.937019 
2511.000000	64.940237 
2510.000000	64.945054 
2509.000000	64.950966 
2508.000000	64.957475 
2507.000000	64.964270 
2506.000000	64.971351 
2505.000000	64.979004 
2504.000000	64.987683 
2503.000000	64.997696 
2502.000000	65.008974 
2501.000000	65.020990 
2500.000000	65.032672 
2499.000000	65.042567 
2498.000000	65.049290 
2497.000000	65.051627 
2496.000000	65.048980 
2495.000000	65.041351 
2494.000000	65.029668 
2493.000000	65.015268 
2492.000000	64.999961 
2491.000000	64.985632 
2490.000000	64.973902 
2489.000000	64.965724 
2488.000000	64.961552 
2487.000000	64.960789 
2486.000000	64.962339 
2485.000000	64.964556 
2484.000000	64.965796 
2483.000000	64.964580 
2482.000000	64.959883 
2481.000000	64.951372 
2480.000000	64.939188 
2479.000000	64.924001 
2478.000000	64.906883 
2477.000000	64.889097 
2476.000000	64.871788 
2475.000000	64.855837 
2474.000000	64.841866 
2473.000000	64.830017 
2472.000000	64.820218 
2471.000000	64.811992 
2470.000000	64.804935 
2469.000000	64.798808 
2468.000000	64.793682 
2467.000000	64.790081 
2466.000000	64.788699 
2465.000000	64.790534 
2464.000000	64.796423 
2463.000000	64.806723 
2462.000000	64.820981 
2461.000000	64.837718 
2460.000000	64.854717 
2459.000000	64.869213 
2458.000000	64.878749 
2457.000000	64.881753 
2456.000000	64.878058 
2455.000000	64.869284 
2454.000000	64.858412 
2453.000000	64.848971 
2452.000000	64.844560 
2451.000000	64.847850 
2450.000000	64.860033 
2449.000000	64.880466 
2448.000000	64.906978 
2447.000000	64.936470 
2446.000000	64.965391 
2445.000000	64.990520 
2444.000000	65.009403 
2443.000000	65.020799 
2442.000000	65.024614 
2441.000000	65.021777 
2440.000000	65.013766 
2439.000000	65.002322 
2438.000000	64.989137 
2437.000000	64.975333 
2436.000000	64.961624 
2435.000000	64.948153 
2434.000000	64.934659 
2433.000000	64.920711 
2432.000000	64.905929 
2431.000000	64.890575 
2430.000000	64.875602 
2429.000000	64.862895 
2428.000000	64.854884 
2427.000000	64.853954 
2426.000000	64.861965 
2425.000000	64.879488 
2424.000000	64.905333 
2423.000000	64.936470 
2422.000000	64.968490 
2421.000000	64.996314 
2420.000000	65.015196 
2419.000000	65.021777 
2418.000000	65.014719 
2417.000000	64.995074 
2416.000000	64.965844 
2415.000000	64.931392 
2414.000000	64.896392 
2413.000000	64.864659 
2412.000000	64.838647 
2411.000000	64.819049 
2410.000000	64.805006 
2409.000000	64.794731 
2408.000000	64.786314 
2407.000000	64.778351 
2406.000000	64.770722 
2405.000000	64.764022 
2404.000000	64.760065 
2403.000000	64.760470 
2402.000000	64.766860 
2401.000000	64.779639 
2400.000000	64.798045 
2399.000000	64.820241 
2398.000000	64.843535 
2397.000000	64.865136 
2396.000000	64.882540 
2395.000000	64.894223 
2394.000000	64.899563 
2393.000000	64.898991 
2392.000000	64.893889 
2391.000000	64.885997 
2390.000000	64.877223 
2389.000000	64.869022 
2388.000000	64.862489 
2387.000000	64.858102 
2386.000000	64.855837 
2385.000000	64.855313 
2384.000000	64.855790 
2383.000000	64.856386 
2382.000000	64.856314 
2381.000000	64.855146 
2380.000000	64.852547 
2379.000000	64.848399 
2378.000000	64.842891 
2377.000000	64.836502 
2376.000000	64.829874 
2375.000000	64.823698 
2374.000000	64.818501 
2373.000000	64.814782 
2372.000000	64.812970 
2371.000000	64.813232 
2370.000000	64.815616 
2369.000000	64.819669 
2368.000000	64.824724 
2367.000000	64.829730 
2366.000000	64.833354 
2365.000000	64.834189 
2364.000000	64.831042 
2363.000000	64.823031 
2362.000000	64.810013 
2361.000000	64.792609 
2360.000000	64.772367 
2359.000000	64.751386 
2358.000000	64.732265 
2357.000000	64.717411 
2356.000000	64.708828 
2355.000000	64.707684 
2354.000000	64.714074 
2353.000000	64.726972 
2352.000000	64.744400 
2351.000000	64.763855 
2350.000000	64.782357 
2349.000000	64.797067 
2348.000000	64.805841 
2347.000000	64.807224 
2346.000000	64.801120 
2345.000000	64.788627 
2344.000000	64.772081 
2343.000000	64.754652 
2342.000000	64.739799 
2341.000000	64.730572 
2340.000000	64.729285 
2339.000000	64.736771 
2338.000000	64.752244 
2337.000000	64.773511 
2336.000000	64.797496 
2335.000000	64.820694 
2334.000000	64.840173 
2333.000000	64.853906 
2332.000000	64.861226 
2331.000000	64.862799 
2330.000000	64.860033 
2329.000000	64.854764 
2328.000000	64.848589 
2327.000000	64.842653 
2326.000000	64.837360 
2325.000000	64.832615 
2324.000000	64.828252 
2323.000000	64.824080 
2322.000000	64.820432 
2321.000000	64.817810 
2320.000000	64.817023 
2319.000000	64.818644 
2318.000000	64.822888 
2317.000000	64.829277 
2316.000000	64.836668 
2315.000000	64.843225 
2314.000000	64.847183 
2313.000000	64.846944 
2312.000000	64.841723 
2311.000000	64.831542 
2310.000000	64.817333 
2309.000000	64.800810 
2308.000000	64.784026 
2307.000000	64.769124 
2306.000000	64.757919 
2305.000000	64.751529 
2304.000000	64.750313 
2303.000000	64.754009 
2302.000000	64.761614 
2301.000000	64.771771 
2300.000000	64.782881 
2299.000000	64.793372 
2298.000000	64.801979 
2297.000000	64.807844 
2296.000000	64.810633 
2295.000000	64.810299 
2294.000000	64.807152 
2293.000000	64.801740 
2292.000000	64.794802 
2291.000000	64.786982 
2290.000000	64.778852 
2289.000000	64.770936 
2288.000000	64.763498 
2287.000000	64.756655 
2286.000000	64.750194 
2285.000000	64.743924 
2284.000000	64.737462 
2283.000000	64.730572 
2282.000000	64.723014 
2281.000000	64.714694 
2280.000000	64.705586 
2279.000000	64.695858 
2278.000000	64.685702 
2277.000000	64.675569 
2276.000000	64.665842 
2275.000000	64.657258 
2274.000000	64.650487 
2273.000000	64.646601 
2272.000000	64.646673 
2271.000000	64.651870 
2270.000000	64.662861 
2269.000000	64.679884 
2268.000000	64.702558 
2267.000000	64.729738 
2266.000000	64.759540 
2265.000000	64.789724 
2264.000000	64.818024 
2263.000000	64.842486 
2262.000000	64.861750 
2261.000000	64.875078 
2260.000000	64.882302 
2259.000000	64.883685 
2258.000000	64.879751 
2257.000000	64.871239 
2256.000000	64.858841 
2255.000000	64.843535 
2254.000000	64.826583 
2253.000000	64.809441 
2252.000000	64.793777 
2251.000000	64.781498 
2250.000000	64.774250 
2249.000000	64.773130 
2248.000000	64.778375 
2247.000000	64.789175 
2246.000000	64.803862 
2245.000000	64.820027 
2244.000000	64.835047 
2243.000000	64.846467 
2242.000000	64.852404 
2241.000000	64.851999 
2240.000000	64.845323 
2239.000000	64.833378 
2238.000000	64.817619 
2237.000000	64.800000 
2236.000000	64.782357 
2235.000000	64.766240 
2234.000000	64.752626 
2233.000000	64.741897 
2232.000000	64.733886 
2231.000000	64.728021 
2230.000000	64.723634 
2229.000000	64.720153 
2228.000000	64.717292 
2227.000000	64.715218 
2226.000000	64.714455 
2225.000000	64.715766 
2224.000000	64.720010 
2223.000000	64.727807 
2222.000000	64.739322 
2221.000000	64.754033 
2220.000000	64.770793 
2219.000000	64.787960 
2218.000000	64.803838 
2217.000000	64.816761 
2216.000000	64.825510 
2215.000000	64.829468 
2214.000000	64.828658 
2213.000000	64.823842 
2212.000000	64.816236 
2211.000000	64.807200 
2210.000000	64.798164 
2209.000000	64.790391 
2208.000000	64.784884 
2207.000000	64.782142 
2206.000000	64.782214 
2205.000000	64.784789 
2204.000000	64.789271 
2203.000000	64.794826 
2202.000000	64.800572 
2201.000000	64.805722 
2200.000000	64.809656 
2199.000000	64.812111 
2198.000000	64.812994 
2197.000000	64.812445 
2196.000000	64.810657 
2195.000000	64.807820 
2194.000000	64.803814 
2193.000000	64.798212 
2192.000000	64.790630 
2191.000000	64.780664 
2190.000000	64.768385 
2189.000000	64.754199 
2188.000000	64.738988 
2187.000000	64.723920 
2186.000000	64.710426 
2185.000000	64.699435 
2184.000000	64.691853 
2183.000000	64.688158 
2182.000000	64.688611 
2181.000000	64.692950 
2180.000000	64.700508 
2179.000000	64.710116 
2178.000000	64.720273 
2177.000000	64.729332 
2176.000000	64.735937 
2175.000000	64.739298 
2174.000000	64.739465 
2173.000000	64.737343 
2172.000000	64.734339 
2171.000000	64.732193 
2170.000000	64.732265 
2169.000000	64.735341 
2168.000000	64.741468 
2167.000000	64.750027 
2166.000000	64.759969 
2165.000000	64.769840 
2164.000000	64.778327 
2163.000000	64.784312 
2162.000000	64.786958 
2161.000000	64.785981 
2160.000000	64.781522 
2159.000000	64.774060 
2158.000000	64.764404 
2157.000000	64.753460 
2156.000000	64.742064 
2155.000000	64.730787 
2154.000000	64.720201 
2153.000000	64.710760 
2152.000000	64.702796 
2151.000000	64.696812 
2150.000000	64.693212 
2149.000000	64.692306 
2148.000000	64.694094 
2147.000000	64.698171 
2146.000000	64.703893 
2145.000000	64.710330 
2144.000000	64.716458 
2143.000000	64.721298 
2142.000000	64.724183 
2141.000000	64.724707 
2140.000000	64.722800 
2139.000000	64.718627 
2138.000000	64.712643 
2137.000000	64.705538 
2136.000000	64.698100 
2135.000000	64.691376 
2134.000000	64.686226 
2133.000000	64.683508 
2132.000000	64.683556 
2131.000000	64.686369 
2130.000000	64.691352 
2129.000000	64.697480 
2128.000000	64.703655 
2127.000000	64.708638 
2126.000000	64.711785 
2125.000000	64.712786 
2124.000000	64.712142 
2123.000000	64.710807 
2122.000000	64.709901 
2121.000000	64.710450 
2120.000000	64.712905 
2119.000000	64.716982 
2118.000000	64.721775 
2117.000000	64.725899 
2116.000000	64.727973 
2115.000000	64.726853 
2114.000000	64.722275 
2113.000000	64.714527 
2112.000000	64.704704 
2111.000000	64.694213 
2110.000000	64.684438 
2109.000000	64.676141 
2108.000000	64.669418 
2107.000000	64.663815 
2106.000000	64.658355 
2105.000000	64.652180 
2104.000000	64.644813 
2103.000000	64.636588 
2102.000000	64.628648 
2101.000000	64.622831 
2100.000000	64.620971 
2099.000000	64.624333 
2098.000000	64.633202 
2097.000000	64.646434 
2096.000000	64.661645 
2095.000000	64.675569 
2094.000000	64.684796 
2093.000000	64.686632 
2092.000000	64.679741 
2091.000000	64.664387 
2090.000000	64.642691 
2089.000000	64.617919 
2088.000000	64.594244 
2087.000000	64.575791 
2086.000000	64.566016 
2085.000000	64.567089 
2084.000000	64.579534 
2083.000000	64.602279 
2082.000000	64.632511 
2081.000000	64.666438 
2080.000000	64.699530 
2079.000000	64.727330 
2078.000000	64.746189 
2077.000000	64.753556 
2076.000000	64.748859 
2075.000000	64.733171 
2074.000000	64.709568 
2073.000000	64.682221 
2072.000000	64.655804 
2071.000000	64.634728 
2070.000000	64.622259 
2069.000000	64.619994 
2068.000000	64.627671 
2067.000000	64.643478 
2066.000000	64.664506 
2065.000000	64.687371 
2064.000000	64.708971 
2063.000000	64.727187 
2062.000000	64.740777 
2061.000000	64.749574 
2060.000000	64.754176 
2059.000000	64.755558 
2058.000000	64.754676 
2057.000000	64.752197 
2056.000000	64.748454 
2055.000000	64.743590 
2054.000000	64.737868 
2053.000000	64.731550 
2052.000000	64.724993 
2051.000000	64.718651 
2050.000000	64.712882 
2049.000000	64.707827 
2048.000000	64.703440 
2047.000000	64.699411 
2046.000000	64.695119 
2045.000000	64.689970 
2044.000000	64.683318 
2043.000000	64.674997 
2042.000000	64.665079 
2041.000000	64.654135 
2040.000000	64.642977 
2039.000000	64.632844 
2038.000000	64.624905 
2037.000000	64.620161 
2036.000000	64.619183 
2035.000000	64.621901 
2034.000000	64.627599 
2033.000000	64.635038 
2032.000000	64.642810 
2031.000000	64.649224 
2030.000000	64.653158 
2029.000000	64.654064 
2028.000000	64.652490 
2027.000000	64.649629 
2026.000000	64.647150 
2025.000000	64.646911 
2024.000000	64.650321 
2023.000000	64.658069 
2022.000000	64.669895 
2021.000000	64.684462 
2020.000000	64.699959 
2019.000000	64.714360 
2018.000000	64.725923 
2017.000000	64.733600 
2016.000000	64.737296 
2015.000000	64.737653 
2014.000000	64.735722 
2013.000000	64.732670 
2012.000000	64.729285 
2011.000000	64.725923 
2010.000000	64.722466 
2009.000000	64.718246 
2008.000000	64.712786 
2007.000000	64.705610 
2006.000000	64.696693 
2005.000000	64.686274 
2004.000000	64.674854 
2003.000000	64.663004 
2002.000000	64.651203 
2001.000000	64.639902 
2000.000000	64.629292 
1999.000000	64.619731 
1998.000000	64.611625 
1997.000000	64.605760 
1996.000000	64.602947 
1995.000000	64.604115 
1994.000000	64.610004 
1993.000000	64.621043 
1992.000000	64.636659 
1991.000000	64.655709 
1990.000000	64.676547 
1989.000000	64.697265 
1988.000000	64.715790 
1987.000000	64.730525 
1986.000000	64.740371 
1985.000000	64.745044 
1984.000000	64.744782 
1983.000000	64.740252 
1982.000000	64.732432 
1981.000000	64.722394 
1980.000000	64.711189 
1979.000000	64.699649 
1978.000000	64.688372 
1977.000000	64.677953 
1976.000000	64.668774 
1975.000000	64.661002 
1974.000000	64.654564 
1973.000000	64.649081 
1972.000000	64.643931 
1971.000000	64.638185 
1970.000000	64.630699 
1969.000000	64.620494 
1968.000000	64.606928 
1967.000000	64.589500 
1966.000000	64.568519 
1965.000000	64.544773 
1964.000000	64.519882 
1963.000000	64.495754 
1962.000000	64.474701 
1961.000000	64.458656 
1960.000000	64.449310 
1959.000000	64.447569 
1958.000000	64.453458 
1957.000000	64.466071 
1956.000000	64.483857 
1955.000000	64.504957 
1954.000000	64.527344 
1953.000000	64.549160 
1952.000000	64.568877 
1951.000000	64.585661 
1950.000000	64.599037 
1949.000000	64.608979 
1948.000000	64.615702 
1947.000000	64.619541 
1946.000000	64.621019 
1945.000000	64.620733 
1944.000000	64.619374 
1943.000000	64.617443 
1942.000000	64.615774 
1941.000000	64.614963 
1940.000000	64.615178 
1939.000000	64.616298 
1938.000000	64.618015 
1937.000000	64.619612 
1936.000000	64.620423 
1935.000000	64.620018 
1934.000000	64.618277 
1933.000000	64.615440 
1932.000000	64.612078 
1931.000000	64.608860 
1930.000000	64.606380 
1929.000000	64.604830 
1928.000000	64.603924 
1927.000000	64.602994 
1926.000000	64.601254 
1925.000000	64.597916 
1924.000000	64.592528 
1923.000000	64.585208 
1922.000000	64.576578 
1921.000000	64.567947 
1920.000000	64.560842 
1919.000000	64.556622 
1918.000000	64.556360 
1917.000000	64.560604 
1916.000000	64.569330 
1915.000000	64.581775 
1914.000000	64.597010 
1913.000000	64.613842 
1912.000000	64.631104 
1911.000000	64.647746 
1910.000000	64.662718 
1909.000000	64.675021 
1908.000000	64.683508 
1907.000000	64.687156 
1906.000000	64.685034 
1905.000000	64.676570 
1904.000000	64.661884 
1903.000000	64.641976 
1902.000000	64.618849 
1901.000000	64.595174 
1900.000000	64.574098 
1899.000000	64.558601 
1898.000000	64.550805 
1897.000000	64.551591 
1896.000000	64.560294 
1895.000000	64.575052 
1894.000000	64.592766 
1893.000000	64.610147 
1892.000000	64.624094 
1891.000000	64.632534 
1890.000000	64.634418 
1889.000000	64.630174 
1888.000000	64.621067 
1887.000000	64.609289 
1886.000000	64.597129 
1885.000000	64.586615 
1884.000000	64.579319 
1883.000000	64.575934 
1882.000000	64.576554 
1881.000000	64.580512 
1880.000000	64.586806 
1879.000000	64.594149 
1878.000000	64.601397 
1877.000000	64.607501 
1876.000000	64.611625 
1875.000000	64.613199 
1874.000000	64.612054 
1873.000000	64.608335 
1872.000000	64.602494 
1871.000000	64.595437 
1870.000000	64.588165 
1869.000000	64.581918 
1868.000000	64.577746 
1867.000000	64.576292 
1866.000000	64.577841 
1865.000000	64.581942 
1864.000000	64.587807 
1863.000000	64.594340 
1862.000000	64.600515 
1861.000000	64.605498 
1860.000000	64.608860 
1859.000000	64.610815 
1858.000000	64.611911 
1857.000000	64.612865 
1856.000000	64.614176 
1855.000000	64.616012 
1854.000000	64.617943 
1853.000000	64.619255 
1852.000000	64.619088 
1851.000000	64.616823 
1850.000000	64.612221 
1849.000000	64.605593 
1848.000000	64.597654 
1847.000000	64.589238 
1846.000000	64.581036 
1845.000000	64.573454 
1844.000000	64.566183 
1843.000000	64.558696 
1842.000000	64.550232 
1841.000000	64.540171 
1840.000000	64.528203 
1839.000000	64.514565 
1838.000000	64.499807 
1837.000000	64.484834 
1836.000000	64.470338 
1835.000000	64.457035 
1834.000000	64.445114 
1833.000000	64.434742 
1832.000000	64.426016 
1831.000000	64.419007 
1830.000000	64.413976 
1829.000000	64.411306 
1828.000000	64.411020 
1827.000000	64.413046 
1826.000000	64.416790 
1825.000000	64.421391 
1824.000000	64.425778 
1823.000000	64.429235 
1822.000000	64.431524 
1821.000000	64.433193 
1820.000000	64.435386 
1819.000000	64.439606 
1818.000000	64.447164 
1817.000000	64.458703 
1816.000000	64.473986 
1815.000000	64.491558 
1814.000000	64.509296 
1813.000000	64.524912 
1812.000000	64.536285 
1811.000000	64.542460 
1810.000000	64.543414 
1809.000000	64.540195 
1808.000000	64.534378 
1807.000000	64.527583 
1806.000000	64.521145 
1805.000000	64.515638 
1804.000000	64.511060 
1803.000000	64.507031 
1802.000000	64.503073 
1801.000000	64.499092 
1800.000000	64.495635 
1799.000000	64.493680 
1798.000000	64.494490 
1797.000000	64.499235 
1796.000000	64.508342 
1795.000000	64.521312 
1794.000000	64.536643 
1793.000000	64.552211 
1792.000000	64.565587 
1791.000000	64.574623 
1790.000000	64.577889 
1789.000000	64.575266 
1788.000000	64.567470 
1787.000000	64.556217 
1786.000000	64.543747 
1785.000000	64.532089 
1784.000000	64.522767 
1783.000000	64.516353 
1782.000000	64.512801 
1781.000000	64.511156 
1780.000000	64.510083 
1779.000000	64.508080 
1778.000000	64.504051 
1777.000000	64.497613 
1776.000000	64.488744 
1775.000000	64.478230 
1774.000000	64.467287 
1773.000000	64.457273 
1772.000000	64.449262 
1771.000000	64.443945 
1770.000000	64.441514 
1769.000000	64.441370 
1768.000000	64.442443 
1767.000000	64.443540 
1766.000000	64.443516 
1765.000000	64.441561 
1764.000000	64.437174 
1763.000000	64.430379 
1762.000000	64.421463 
1761.000000	64.410829 
1760.000000	64.398717 
1759.000000	64.385128 
1758.000000	64.369773 
1757.000000	64.352440 
1756.000000	64.332771 
1755.000000	64.310646 
1754.000000	64.285945 
1753.000000	64.259266 
1752.000000	64.231157 
1751.000000	64.202165 
1750.000000	64.172601 
1749.000000	64.142823 
1748.000000	64.112806 
1747.000000	64.082479 
1746.000000	64.051866 
1745.000000	64.021205 
1744.000000	63.990902 
1743.000000	63.961434 
1742.000000	63.933253 
1741.000000	63.906669 
1740.000000	63.881373 
1739.000000	63.856959 
1738.000000	63.832807 
1737.000000	63.808727 
1736.000000	63.784933 
1735.000000	63.762760 
1734.000000	63.744091 
1733.000000	63.731575 
1732.000000	63.727593 
1731.000000	63.734292 
1730.000000	63.752293 
1729.000000	63.781094 
1728.000000	63.818454 
1727.000000	63.861274 
1726.000000	63.905906 
1725.000000	63.949251 
1724.000000	63.988709 
1723.000000	64.023041 
1722.000000	64.052152 
1721.000000	64.076900 
1720.000000	64.098405 
1719.000000	64.117813 
1718.000000	64.135956 
1717.000000	64.153313 
1716.000000	64.169931 
1715.000000	64.185714 
1714.000000	64.200687 
1713.000000	64.215016 
1712.000000	64.228940 
1711.000000	64.242792 
1710.000000	64.256691 
1709.000000	64.270472 
1708.000000	64.283466 
1707.000000	64.294791 
1706.000000	64.303660 
1705.000000	64.309597 
1704.000000	64.312648 
1703.000000	64.313626 
1702.000000	64.313673 
1701.000000	64.314079 
1700.000000	64.316058 
1699.000000	64.320325 
1698.000000	64.326906 
1697.000000	64.335393 
1696.000000	64.344811 
1695.000000	64.354062 
1694.000000	64.361929 
1693.000000	64.367437 
1692.000000	64.369845 
1691.000000	64.368510 
1690.000000	64.363360 
1689.000000	64.354825 
1688.000000	64.343786 
1687.000000	64.331555 
1686.000000	64.319634 
1685.000000	64.309573 
1684.000000	64.302682 
1683.000000	64.299583 
1682.000000	64.300107 
1681.000000	64.303517 
1680.000000	64.308238 
1679.000000	64.312672 
1678.000000	64.315342 
1677.000000	64.315390 
1676.000000	64.312720 
1675.000000	64.307951 
1674.000000	64.302277 
1673.000000	64.297223 
1672.000000	64.293932 
1671.000000	64.293313 
1670.000000	64.295744 
1669.000000	64.301085 
1668.000000	64.308953 
1667.000000	64.318466 
1666.000000	64.328646 
1665.000000	64.338397 
1664.000000	64.346671 
1663.000000	64.352583 
1662.000000	64.355516 
1661.000000	64.355444 
1660.000000	64.352774 
1659.000000	64.348483 
1658.000000	64.344048 
1657.000000	64.341187 
1656.000000	64.341473 
1655.000000	64.346075 
1654.000000	64.355444 
1653.000000	64.369297 
1652.000000	64.386153 
1651.000000	64.404106 
1650.000000	64.420485 
1649.000000	64.432740 
1648.000000	64.438509 
1647.000000	64.436078 
1646.000000	64.424872 
1645.000000	64.405226 
1644.000000	64.378881 
1643.000000	64.348483 
1642.000000	64.317488 
1641.000000	64.289593 
1640.000000	64.268159 
1639.000000	64.255738 
1638.000000	64.253544 
1637.000000	64.261245 
1636.000000	64.277172 
1635.000000	64.298439 
1634.000000	64.321660 
1633.000000	64.343357 
1632.000000	64.360642 
1631.000000	64.371538 
1630.000000	64.375138 
1629.000000	64.371752 
1628.000000	64.362406 
1627.000000	64.348936 
1626.000000	64.333391 
1625.000000	64.317870 
1624.000000	64.304256 
1623.000000	64.294099 
1622.000000	64.288449 
1621.000000	64.287900 
1620.000000	64.292335 
1619.000000	64.300966 
1618.000000	64.312243 
1617.000000	64.324235 
1616.000000	64.334750 
1615.000000	64.341688 
1614.000000	64.343428 
1613.000000	64.339303 
1612.000000	64.329648 
1611.000000	64.316010 
1610.000000	64.300656 
1609.000000	64.286518 
1608.000000	64.276337 
1607.000000	64.272308 
1606.000000	64.275574 
1605.000000	64.286017 
1604.000000	64.302396 
1603.000000	64.322495 
1602.000000	64.343595 
1601.000000	64.362955 
1600.000000	64.378499 
1599.000000	64.388823 
1598.000000	64.393353 
1597.000000	64.392518 
1596.000000	64.387369 
1595.000000	64.379239 
1594.000000	64.369368 
1593.000000	64.358973 
1592.000000	64.348816 
1591.000000	64.339613 
1590.000000	64.331936 
1589.000000	64.326333 
1588.000000	64.323401 
1587.000000	64.323782 
1586.000000	64.327716 
1585.000000	64.335012 
1584.000000	64.344930 
1583.000000	64.356040 
1582.000000	64.366459 
1581.000000	64.374232 
1580.000000	64.377880 
1579.000000	64.376592 
1578.000000	64.370656 
1577.000000	64.361310 
1576.000000	64.350414 
1575.000000	64.339971 
1574.000000	64.331698 
1573.000000	64.326310 
1572.000000	64.323496 
1571.000000	64.322042 
1570.000000	64.320158 
1569.000000	64.316153 
1568.000000	64.308929 
1567.000000	64.298415 
1566.000000	64.285707 
1565.000000	64.272832 
1564.000000	64.262056 
1563.000000	64.255619 
1562.000000	64.254951 
1561.000000	64.260649 
1560.000000	64.271974 
1559.000000	64.287447 
1558.000000	64.305090 
1557.000000	64.322733 
1556.000000	64.338660 
1555.000000	64.351367 
1554.000000	64.359903 
1553.000000	64.363455 
1552.000000	64.361572 
1551.000000	64.353966 
1550.000000	64.340806 
1549.000000	64.322733 
1548.000000	64.301204 
1547.000000	64.278411 
1546.000000	64.257073 
1545.000000	64.240169 
1544.000000	64.230227 
1543.000000	64.228773 
1542.000000	64.235568 
1541.000000	64.248871 
1540.000000	64.265465 
1539.000000	64.281463 
1538.000000	64.292931 
1537.000000	64.296936 
1536.000000	64.292049 
1535.000000	64.278602 
1534.000000	64.258599 
1533.000000	64.235091 
1532.000000	64.211654 
1531.000000	64.191603 
1530.000000	64.177513 
1529.000000	64.170670 
1528.000000	64.171266 
1527.000000	64.178586 
1526.000000	64.191102 
1525.000000	64.207053 
1524.000000	64.224743 
1523.000000	64.242863 
1522.000000	64.260411 
1521.000000	64.276695 
1520.000000	64.291453 
1519.000000	64.304661 
1518.000000	64.316368 
1517.000000	64.326691 
1516.000000	64.335608 
1515.000000	64.342832 
1514.000000	64.348149 
1513.000000	64.351296 
1512.000000	64.352321 
1511.000000	64.351534 
1510.000000	64.349651 
1509.000000	64.347481 
1508.000000	64.345812 
1507.000000	64.345049 
1506.000000	64.345169 
1505.000000	64.345765 
1504.000000	64.346170 
1503.000000	64.345669 
1502.000000	64.343905 
1501.000000	64.340567 
1500.000000	64.335823 
1499.000000	64.330077 
1498.000000	64.323806 
1497.000000	64.317059 
1496.000000	64.309620 
1495.000000	64.300823 
1494.000000	64.290094 
1493.000000	64.277172 
1492.000000	64.262318 
1491.000000	64.246559 
1490.000000	64.231514 
1489.000000	64.218997 
1488.000000	64.210772 
1487.000000	64.207601 
1486.000000	64.209628 
1485.000000	64.216160 
1484.000000	64.225769 
1483.000000	64.236617 
1482.000000	64.246773 
1481.000000	64.254546 
1480.000000	64.258575 
1479.000000	64.257717 
1478.000000	64.251565 
1477.000000	64.240169 
1476.000000	64.224123 
1475.000000	64.204740 
1474.000000	64.183688 
1473.000000	64.163064 
1472.000000	64.144968 
1471.000000	64.131450 
1470.000000	64.124202 
1469.000000	64.124250 
1468.000000	64.131855 
1467.000000	64.146399 
1466.000000	64.166307 
1465.000000	64.189291 
1464.000000	64.212727 
1463.000000	64.233899 
1462.000000	64.250278 
1461.000000	64.260005 
1460.000000	64.262056 
1459.000000	64.256191 
1458.000000	64.242815 
1457.000000	64.222908 
1456.000000	64.197897 
1455.000000	64.169692 
1454.000000	64.140391 
1453.000000	64.112353 
1452.000000	64.088034 
1451.000000	64.069771 
1450.000000	64.059591 
1449.000000	64.058732 
1448.000000	64.067268 
1447.000000	64.084148 
1446.000000	64.107275 
1445.000000	64.133596 
1444.000000	64.159584 
1443.000000	64.181756 
1442.000000	64.197444 
1441.000000	64.204955 
1440.000000	64.204239 
1439.000000	64.196443 
1438.000000	64.183735 
1437.000000	64.169192 
1436.000000	64.155888 
1435.000000	64.146351 
1434.000000	64.142274 
1433.000000	64.144372 
1432.000000	64.152383 
1431.000000	64.165186 
1430.000000	64.181351 
1429.000000	64.199352 
1428.000000	64.217710 
1427.000000	64.235186 
1426.000000	64.250707 
1425.000000	64.263367 
1424.000000	64.271998 
1423.000000	64.275217 
1422.000000	64.271545 
1421.000000	64.259815 
1420.000000	64.239430 
1419.000000	64.210939 
1418.000000	64.175939 
1417.000000	64.137411 
1416.000000	64.099431 
1415.000000	64.066362 
1414.000000	64.042139 
1413.000000	64.029574 
1412.000000	64.030075 
1411.000000	64.043331 
1410.000000	64.067101 
1409.000000	64.097976 
1408.000000	64.131879 
1407.000000	64.165043 
1406.000000	64.194178 
1405.000000	64.217281 
1404.000000	64.233422 
1403.000000	64.242982 
1402.000000	64.247226 
1401.000000	64.247894 
1400.000000	64.246821 
1399.000000	64.245343 
1398.000000	64.244556 
1397.000000	64.244604 
1396.000000	64.245057 
1395.000000	64.244794 
1394.000000	64.242529 
1393.000000	64.236998 
1392.000000	64.227414 
1391.000000	64.213681 
1390.000000	64.196372 
1389.000000	64.176702 
1388.000000	64.156174 
1387.000000	64.136290 
1386.000000	64.118123 
1385.000000	64.102149 
1384.000000	64.088058 
1383.000000	64.074945 
1382.000000	64.061808 
1381.000000	64.047884 
1380.000000	64.032983 
1379.000000	64.017653 
1378.000000	64.003324 
1377.000000	63.991832 
1376.000000	63.985300 
1375.000000	63.985013 
1374.000000	63.991618 
1373.000000	64.004755 
1372.000000	64.023160 
1371.000000	64.044785 
1370.000000	64.067268 
1369.000000	64.088249 
1368.000000	64.105868 
1367.000000	64.118838 
1366.000000	64.126658 
1365.000000	64.129447 
1364.000000	64.127731 
1363.000000	64.122462 
1362.000000	64.114570 
1361.000000	64.104866 
1360.000000	64.094233 
1359.000000	64.083385 
1358.000000	64.072871 
1357.000000	64.063072 
1356.000000	64.054584 
1355.000000	64.047884 
1354.000000	64.043354 
1353.000000	64.041113 
1352.000000	64.041256 
1351.000000	64.043521 
1350.000000	64.047479 
1349.000000	64.052557 
1348.000000	64.057993 
1347.000000	64.063262 
1346.000000	64.068007 
1345.000000	64.072036 
1344.000000	64.075398 
1343.000000	64.078307 
1342.000000	64.081072 
1341.000000	64.083838 
1340.000000	64.086532 
1339.000000	64.088988 
1338.000000	64.090895 
1337.000000	64.092135 
1336.000000	64.092588 
1335.000000	64.092493 
1334.000000	64.092397 
1333.000000	64.093208 
1332.000000	64.095950 
1331.000000	64.101505 
1330.000000	64.110589 
1329.000000	64.123392 
1328.000000	64.139485 
1327.000000	64.157748 
1326.000000	64.176487 
1325.000000	64.193797 
1324.000000	64.207673 
1323.000000	64.216613 
1322.000000	64.219570 
1321.000000	64.216542 
1320.000000	64.208030 
1319.000000	64.195084 
1318.000000	64.178776 
1317.000000	64.160132 
1316.000000	64.140105 
1315.000000	64.119243 
1314.000000	64.097929 
1313.000000	64.076638 
1312.000000	64.055991 
1311.000000	64.036941 
1310.000000	64.020872 
1309.000000	64.009118 
1308.000000	64.003062 
1307.000000	64.003729 
1306.000000	64.011454 
1305.000000	64.025568 
1304.000000	64.044666 
1303.000000	64.066553 
1302.000000	64.088511 
1301.000000	64.107656 
1300.000000	64.121413 
1299.000000	64.128088 
1298.000000	64.126801 
1297.000000	64.118146 
1296.000000	64.103507 
1295.000000	64.085292 
1294.000000	64.066314 
1293.000000	64.049339 
1292.000000	64.036679 
1291.000000	64.029765 
1290.000000	64.028930 
1289.000000	64.033460 
1288.000000	64.041805 
1287.000000	64.051961 
1286.000000	64.061760 
1285.000000	64.069318 
1284.000000	64.073133 
1283.000000	64.072394 
1282.000000	64.066863 
1281.000000	64.056754 
1280.000000	64.042592 
1279.000000	64.025092 
1278.000000	64.005184 
1277.000000	63.983964 
1276.000000	63.962817 
1275.000000	63.943195 
1274.000000	63.926887 
1273.000000	63.915610 
1272.000000	63.910913 
1271.000000	63.913655 
1270.000000	63.923859 
1269.000000	63.940477 
1268.000000	63.961553 
1267.000000	63.984155 
1266.000000	64.004945 
1265.000000	64.020848 
1264.000000	64.029574 
1263.000000	64.029908 
1262.000000	64.022016 
1261.000000	64.007258 
1260.000000	63.987851 
1259.000000	63.966512 
1258.000000	63.945770 
1257.000000	63.927745 
1256.000000	63.913655 
1255.000000	63.903760 
1254.000000	63.897323 
1253.000000	63.893103 
1252.000000	63.889527 
1251.000000	63.885354 
1250.000000	63.879656 
1249.000000	63.872313 
1248.000000	63.863873 
1247.000000	63.855457 
1246.000000	63.848090 
1245.000000	63.842654 
1244.000000	63.839316 
1243.000000	63.837504 
1242.000000	63.836050 
1241.000000	63.833570 
1240.000000	63.828778 
1239.000000	63.821005 
1238.000000	63.810372 
1237.000000	63.797783 
1236.000000	63.784766 
1235.000000	63.773202 
1234.000000	63.764595 
1233.000000	63.760042 
1232.000000	63.759756 
1231.000000	63.763189 
1230.000000	63.769340 
1229.000000	63.777089 
1228.000000	63.785600 
1227.000000	63.794660 
1226.000000	63.804769 
1225.000000	63.816761 
1224.000000	63.831496 
1223.000000	63.849377 
1222.000000	63.869929 
1221.000000	63.891601 
1220.000000	63.912200 
1219.000000	63.929104 
1218.000000	63.939929 
1217.000000	63.943219 
1216.000000	63.938665 
1215.000000	63.927245 
1214.000000	63.910913 
1213.000000	63.892269 
1212.000000	63.873982 
1211.000000	63.858437 
1210.000000	63.847374 
1209.000000	63.841724 
1208.000000	63.841438 
1207.000000	63.845872 
1206.000000	63.853669 
1205.000000	63.863134 
1204.000000	63.872408 
1203.000000	63.879489 
1202.000000	63.882613 
1201.000000	63.880372 
1200.000000	63.872170 
1199.000000	63.858389 
1198.000000	63.840198 
1197.000000	63.819622 
1196.000000	63.799285 
1195.000000	63.781857 
1194.000000	63.769435 
1193.000000	63.763451 
1192.000000	63.764309 
1191.000000	63.771486 
1190.000000	63.783645 
1189.000000	63.798832 
1188.000000	63.814973 
1187.000000	63.830041 
1186.000000	63.842463 
1185.000000	63.851070 
1184.000000	63.855147 
1183.000000	63.854455 
1182.000000	63.849449 
1181.000000	63.840818 
1180.000000	63.829684 
1179.000000	63.817095 
1178.000000	63.804292 
1177.000000	63.791894 
1176.000000	63.779997 
1175.000000	63.768029 
1174.000000	63.754963 
1173.000000	63.739871 
1172.000000	63.722038 
1171.000000	63.701629 
1170.000000	63.679504 
1169.000000	63.657045 
1168.000000	63.635754 
1167.000000	63.616847 
1166.000000	63.601064 
1165.000000	63.588380 
1164.000000	63.578462 
1163.000000	63.570857 
1162.000000	63.565683 
1161.000000	63.563632 
1160.000000	63.566374 
1159.000000	63.575577 
1158.000000	63.592863 
1157.000000	63.618826 
1156.000000	63.652586 
1155.000000	63.691592 
1154.000000	63.732028 
1153.000000	63.769555 
1152.000000	63.800191 
1151.000000	63.821387 
1150.000000	63.832044 
1149.000000	63.832855 
1148.000000	63.825941 
1147.000000	63.814353 
1146.000000	63.801264 
1145.000000	63.789367 
1144.000000	63.780617 
1143.000000	63.776206 
1142.000000	63.776373 
1141.000000	63.780570 
1140.000000	63.787865 
1139.000000	63.797020 
1138.000000	63.806700 
1137.000000	63.815546 
1136.000000	63.822269 
1135.000000	63.825988 
1134.000000	63.826131 
1133.000000	63.822603 
1132.000000	63.815951 
1131.000000	63.807249 
1130.000000	63.797879 
1129.000000	63.789391 
1128.000000	63.783121 
1127.000000	63.780260 
1126.000000	63.781619 
1125.000000	63.787722 
1124.000000	63.798499 
1123.000000	63.813686 
1122.000000	63.832664 
1121.000000	63.854336 
1120.000000	63.877248 
1119.000000	63.899660 
1118.000000	63.919758 
1117.000000	63.935756 
1116.000000	63.946342 
1115.000000	63.951015 
1114.000000	63.950181 
1113.000000	63.945269 
1112.000000	63.938164 
1111.000000	63.931035 
1110.000000	63.925528 
1109.000000	63.922643 
1108.000000	63.922429 
1107.000000	63.924336 
1106.000000	63.927221 
1105.000000	63.930130 
1104.000000	63.932490 
1103.000000	63.934445 
1102.000000	63.936662 
1101.000000	63.940143 
1100.000000	63.945603 
1099.000000	63.952946 
1098.000000	63.961291 
1097.000000	63.968729 
1096.000000	63.973045 
1095.000000	63.972163 
1094.000000	63.964867 
1093.000000	63.950991 
1092.000000	63.931536 
1091.000000	63.908529 
1090.000000	63.884329 
1089.000000	63.861465 
1088.000000	63.842248 
1087.000000	63.828444 
1086.000000	63.820934 
1085.000000	63.819837 
1084.000000	63.824391 
1083.000000	63.832950 
1082.000000	63.843059 
1081.000000	63.852334 
1080.000000	63.858556 
1079.000000	63.860583 
1078.000000	63.858175 
1077.000000	63.852453 
1076.000000	63.845562 
1075.000000	63.840007 
1074.000000	63.838076 
1073.000000	63.840937 
1072.000000	63.848400 
1071.000000	63.858795 
1070.000000	63.869476 
1069.000000	63.877582 
1068.000000	63.880872 
1067.000000	63.878679 
1066.000000	63.871908 
1065.000000	63.862824 
1064.000000	63.854193 
1063.000000	63.848519 
1062.000000	63.847208 
1061.000000	63.850021 
1060.000000	63.855266 
1059.000000	63.860344 
1058.000000	63.862395 
1057.000000	63.858914 
1056.000000	63.848590 
1055.000000	63.831615 
1054.000000	63.809585 
1053.000000	63.785004 
1052.000000	63.760733 
1051.000000	63.739156 
1050.000000	63.722085 
1049.000000	63.710331 
1048.000000	63.703751 
1047.000000	63.701415 
1046.000000	63.702344 
1045.000000	63.705658 
1044.000000	63.710880 
1043.000000	63.717842 
1042.000000	63.726687 
1041.000000	63.737535 
1040.000000	63.750243 
1039.000000	63.764095 
1038.000000	63.777947 
1037.000000	63.790369 
1036.000000	63.799905 
1035.000000	63.805675 
1034.000000	63.807630 
1033.000000	63.806581 
1032.000000	63.804554 
1031.000000	63.803958 
1030.000000	63.806939 
1029.000000	63.814830 
1028.000000	63.828015 
1027.000000	63.845300 
1026.000000	63.864302 
1025.000000	63.881444 
1024.000000	63.893413 
1023.000000	63.897395 
1022.000000	63.891696 
1021.000000	63.876199 
1020.000000	63.852381 
1019.000000	63.822793 
1018.000000	63.790631 
1017.000000	63.759160 
1016.000000	63.731074 
1015.000000	63.708472 
1014.000000	63.692331 
1013.000000	63.683009 
1012.000000	63.680338 
1011.000000	63.683700 
1010.000000	63.692402 
1009.000000	63.705611 
1008.000000	63.722753 
1007.000000	63.743591 
1006.000000	63.768291 
1005.000000	63.797140 
1004.000000	63.830280 
1003.000000	63.867664 
1002.000000	63.908672 
1001.000000	63.951754 
1000.000000	63.994336 
999.000000	 64.033555 
998.000000	 64.065957 
997.000000	 64.088559 
996.000000	 64.099264 
995.000000	 64.097499 
994.000000	 64.084577 
993.000000	 64.063334 
992.000000	 64.038109 
991.000000	 64.013838 
990.000000	 63.995289 
989.000000	 63.986444 
988.000000	 63.989639 
987.000000	 64.005494 
986.000000	 64.032745 
985.000000	 64.068603 
984.000000	 64.108991 
983.000000	 64.149093 
982.000000	 64.184045 
981.000000	 64.209580 
980.000000	 64.222669 
979.000000	 64.221715 
978.000000	 64.206695 
977.000000	 64.179015 
976.000000	 64.141488 
975.000000	 64.097285 
974.000000	 64.049863 
973.000000	 64.002132 
972.000000	 63.956618 
971.000000	 63.914942 
970.000000	 63.878011 
969.000000	 63.846492 
968.000000	 63.821029 
967.000000	 63.802409 
966.000000	 63.791251 
965.000000	 63.788032 
964.000000	 63.792490 
963.000000	 63.803696 
962.000000	 63.819622 
961.000000	 63.837909 
960.000000	 63.855886 
959.000000	 63.871431 
958.000000	 63.883161 
957.000000	 63.890552 
956.000000	 63.893747 
955.000000	 63.893246 
954.000000	 63.889694 
953.000000	 63.883566 
952.000000	 63.874959 
951.000000	 63.863945 
950.000000	 63.850426 
949.000000	 63.834714 
948.000000	 63.817262 
947.000000	 63.799118 
946.000000	 63.781452 
945.000000	 63.765335 
944.000000	 63.751816 
943.000000	 63.741564 
942.000000	 63.735175 
941.000000	 63.732910 
940.000000	 63.735055 
939.000000	 63.742065 
938.000000	 63.754105 
937.000000	 63.770747 
936.000000	 63.790845 
935.000000	 63.812589 
934.000000	 63.833332 
933.000000	 63.850045 
932.000000	 63.860106 
931.000000	 63.861918 
930.000000	 63.855528 
929.000000	 63.842749 
928.000000	 63.826727 
927.000000	 63.811254 
926.000000	 63.800144 
925.000000	 63.796067 
924.000000	 63.799834 
923.000000	 63.810157 
922.000000	 63.824224 
921.000000	 63.838577 
920.000000	 63.849782 
919.000000	 63.855743 
918.000000	 63.856005 
917.000000	 63.852024 
916.000000	 63.846540 
915.000000	 63.843011 
914.000000	 63.844275 
913.000000	 63.852214 
912.000000	 63.867139 
911.000000	 63.888335 
910.000000	 63.914227 
909.000000	 63.943123 
908.000000	 63.973641 
907.000000	 64.004492 
906.000000	 64.034557 
905.000000	 64.062428 
904.000000	 64.086008 
903.000000	 64.102768 
902.000000	 64.109659 
901.000000	 64.104127 
900.000000	 64.084601 
899.000000	 64.050984 
898.000000	 64.005279 
897.000000	 63.951158 
896.000000	 63.893866 
895.000000	 63.839101 
894.000000	 63.792514 
893.000000	 63.758563 
892.000000	 63.739943 
891.000000	 63.737320 
890.000000	 63.749337 
889.000000	 63.773012 
888.000000	 63.804221 
887.000000	 63.838124 
886.000000	 63.870263 
885.000000	 63.896656 
884.000000	 63.914799 
883.000000	 63.923668 
882.000000	 63.924050 
881.000000	 63.917946 
880.000000	 63.908481 
879.000000	 63.898944 
878.000000	 63.892078 
877.000000	 63.889527 
876.000000	 63.891911 
875.000000	 63.898658 
874.000000	 63.908195 
873.000000	 63.918423 
872.000000	 63.927650 
871.000000	 63.934659 
870.000000	 63.938999 
869.000000	 63.940978 
868.000000	 63.941383 
867.000000	 63.941478 
866.000000	 63.942289 
865.000000	 63.944983 
864.000000	 63.950109 
863.000000	 63.957905 
862.000000	 63.968706 
861.000000	 63.982582 
860.000000	 63.999438 
859.000000	 64.018774 
858.000000	 64.039945 
857.000000	 64.061570 
856.000000	 64.082002 
855.000000	 64.099025 
854.000000	 64.110493 
853.000000	 64.114522 
852.000000	 64.109897 
851.000000	 64.096307 
850.000000	 64.074349 
849.000000	 64.045262 
848.000000	 64.010643 
847.000000	 63.972377 
846.000000	 63.932418 
845.000000	 63.892793 
844.000000	 63.855743 
843.000000	 63.823461 
842.000000	 63.798117 
841.000000	 63.781595 
840.000000	 63.775634 
839.000000	 63.780617 
838.000000	 63.796019 
837.000000	 63.820242 
836.000000	 63.850927 
835.000000	 63.884902 
834.000000	 63.919401 
833.000000	 63.952231 
832.000000	 63.982105 
831.000000	 64.008545 
830.000000	 64.031457 
829.000000	 64.050889 
828.000000	 64.066386 
827.000000	 64.077234 
826.000000	 64.082813 
825.000000	 64.083027 
824.000000	 64.078831 
823.000000	 64.072132 
822.000000	 64.065432 
821.000000	 64.060997 
820.000000	 64.060306 
819.000000	 64.063358 
818.000000	 64.068627 
817.000000	 64.073204 
816.000000	 64.073824 
815.000000	 64.067554 
814.000000	 64.052248 
813.000000	 64.027357 
812.000000	 63.993835 
811.000000	 63.954353 
810.000000	 63.912343 
809.000000	 63.871669 
808.000000	 63.835740 
807.000000	 63.807129 
806.000000	 63.787269 
805.000000	 63.776230 
804.000000	 63.772964 
803.000000	 63.775515 
802.000000	 63.781523 
801.000000	 63.788580 
800.000000	 63.794398 
799.000000	 63.797760 
798.000000	 63.798427 
797.000000	 63.797163 
796.000000	 63.795304 
795.000000	 63.794350 
794.000000	 63.795423 
793.000000	 63.798737 
792.000000	 63.803577 
791.000000	 63.808798 
790.000000	 63.813138 
789.000000	 63.815689 
788.000000	 63.816165 
787.000000	 63.815116 
786.000000	 63.813567 
785.000000	 63.812518 
784.000000	 63.812780 
783.000000	 63.814473 
782.000000	 63.817095 
781.000000	 63.819646 
780.000000	 63.820815 
779.000000	 63.819336 
778.000000	 63.814425 
777.000000	 63.806390 
776.000000	 63.796043 
775.000000	 63.784456 
774.000000	 63.772797 
773.000000	 63.762116 
772.000000	 63.752841 
771.000000	 63.744759 
770.000000	 63.737130 
769.000000	 63.728618 
768.000000	 63.717699 
767.000000	 63.702940 
766.000000	 63.683342 
765.000000	 63.658523 
764.000000	 63.628935 
763.000000	 63.595700 
762.000000	 63.560724 
761.000000	 63.526129 
760.000000	 63.493871 
759.000000	 63.465499 
758.000000	 63.441610 
757.000000	 63.422393 
756.000000	 63.407254 
755.000000	 63.396310 
754.000000	 63.389611 
753.000000	 63.388705 
752.000000	 63.395762 
751.000000	 63.413429 
750.000000	 63.443565 
749.000000	 63.486433 
748.000000	 63.539791 
747.000000	 63.598728 
746.000000	 63.656067 
745.000000	 63.703727 
744.000000	 63.734483 
743.000000	 63.743853 
742.000000	 63.731336 
741.000000	 63.700604 
740.000000	 63.658785 
739.000000	 63.614726 
738.000000	 63.577151 
737.000000	 63.552355 
736.000000	 63.543224 
735.000000	 63.548803 
734.000000	 63.565063 
733.000000	 63.586473 
732.000000	 63.607764 
731.000000	 63.625454 
730.000000	 63.638305 
729.000000	 63.647103 
728.000000	 63.653755 
727.000000	 63.659906 
726.000000	 63.666081 
725.000000	 63.671255 
724.000000	 63.673019 
723.000000	 63.668823 
722.000000	 63.656687 
721.000000	 63.636517 
720.000000	 63.610529 
719.000000	 63.582992 
718.000000	 63.559079 
717.000000	 63.543701 
716.000000	 63.539624 
715.000000	 63.546347 
714.000000	 63.560366 
713.000000	 63.575792 
712.000000	 63.585662 
711.000000	 63.583731 
710.000000	 63.566136 
709.000000	 63.532567 
708.000000	 63.486504 
707.000000	 63.434147 
706.000000	 63.383078 
705.000000	 63.340234 
704.000000	 63.310337 
703.000000	 63.294959 
702.000000	 63.292026 
701.000000	 63.297033 
700.000000	 63.304162 
699.000000	 63.308668 
698.000000	 63.308286 
697.000000	 63.304162 
696.000000	 63.300013 
695.000000	 63.301253 
694.000000	 63.312721 
693.000000	 63.336730 
692.000000	 63.372015 
691.000000	 63.413023 
690.000000	 63.450908 
689.000000	 63.476109 
688.000000	 63.481187 
687.000000	 63.462924 
686.000000	 63.423752 
685.000000	 63.371586 
684.000000	 63.317871 
683.000000	 63.274455 
682.000000	 63.250279 
681.000000	 63.249254 
680.000000	 63.269114 
679.000000	 63.302850 
678.000000	 63.340330 
677.000000	 63.371992 
676.000000	 63.390254 
675.000000	 63.391661 
674.000000	 63.376879 
673.000000	 63.349390 
672.000000	 63.314604 
671.000000	 63.277196 
670.000000	 63.241314 
669.000000	 63.209104 
668.000000	 63.182306 
667.000000	 63.162779 
666.000000	 63.153386 
665.000000	 63.158035 
664.000000	 63.180828 
663.000000	 63.224744 
662.000000	 63.289761 
661.000000	 63.371610 
660.000000	 63.462567 
659.000000	 63.552355 
658.000000	 63.630104 
657.000000	 63.686466 
656.000000	 63.715577 
655.000000	 63.716053 
654.000000	 63.691782 
653.000000	 63.650107 
652.000000	 63.599681 
651.000000	 63.548278 
650.000000	 63.502407 
649.000000	 63.465046 
648.000000	 63.436293 
647.000000	 63.413524 
646.000000	 63.392972 
645.000000	 63.371777 
644.000000	 63.350081 
643.000000	 63.330411 
642.000000	 63.316655 
641.000000	 63.312745 
640.000000	 63.321304 
639.000000	 63.341474 
638.000000	 63.368582 
637.000000	 63.394021 
636.000000	 63.407039 
635.000000	 63.397526 
634.000000	 63.358998 
633.000000	 63.289999 
632.000000	 63.195991 
631.000000	 63.088655 
630.000000	 62.984895 
629.000000	 62.904214 
628.000000	 62.864995 
627.000000	 62.881731 
626.000000	 62.960624 
625.000000	 63.098859 
624.000000	 63.282203 
623.000000	 63.488817 
622.000000	 63.689780 
621.000000	 63.855528 
620.000000	 63.958716 
619.000000	 63.979721 
618.000000	 63.909244 
617.000000	 63.749480 
616.000000	 63.515019 
615.000000	 63.230466 
614.000000	 62.927412 
613.000000	 62.638998 
612.000000	 62.396311 
611.000000	 62.224578 
610.000000	 62.138700 
609.000000	 62.141942 
608.000000	 62.225532 
607.000000	 62.371563 
606.000000	 62.555909 
605.000000	 62.753796 
604.000000	 62.942576 
603.000000	 63.106322 
602.000000	 63.238263 
601.000000	 63.340282 
600.000000	 63.420462 
599.000000	 63.487982 
598.000000	 63.550019 
597.000000	 63.607120 
596.000000	 63.654184 
595.000000	 63.680672 
594.000000	 63.675475 
593.000000	 63.631176 
592.000000	 63.547611 
591.000000	 63.435411 
590.000000	 63.315367 
589.000000	 63.214921 
588.000000	 63.161230 
587.000000	 63.176012 
586.000000	 63.269805 
585.000000	 63.439655 
584.000000	 63.669443 
583.000000	 63.932156 
582.000000	 64.194917 
581.000000	 64.425730 
580.000000	 64.599323 
579.000000	 64.698100 
578.000000	 64.713931 
577.000000	 64.648175 
576.000000	 64.510536 
575.000000	 64.317607 
574.000000	 64.090061 
573.000000	 63.851928 
572.000000	 63.625907 
571.000000	 63.433742 
570.000000	 63.289976 
569.000000	 63.202047 
568.000000	 63.166928 
567.000000	 63.173198 
566.000000	 63.202834 
565.000000	 63.233041 
564.000000	 63.244390 
563.000000	 63.223171 
562.000000	 63.167071 
561.000000	 63.082361 
560.000000	 62.986016 
559.000000	 62.899303 
558.000000	 62.844657 
557.000000	 62.839007 
556.000000	 62.891364 
555.000000	 63.000273 
554.000000	 63.155531 
553.000000	 63.340544 
552.000000	 63.536715 
551.000000	 63.727021 
550.000000	 63.897371 
549.000000	 64.038562 
548.000000	 64.147114 
547.000000	 64.223909 
546.000000	 64.272785 
545.000000	 64.297819 
544.000000	 64.303398 
543.000000	 64.291095 
542.000000	 64.263224 
541.000000	 64.219069 
540.000000	 64.158082 
539.000000	 64.077877 
538.000000	 63.977956 
537.000000	 63.858890 
536.000000	 63.722562 
535.000000	 63.575100 
534.000000	 63.425350 
533.000000	 63.287568 
532.000000	 63.179326 
531.000000	 63.118648 
530.000000	 63.119482 
529.000000	 63.187122 
528.000000	 63.315343 
527.000000	 63.485169 
526.000000	 63.667631 
525.000000	 63.829588 
524.000000	 63.940930 
523.000000	 63.981318 
522.000000	 63.944554 
521.000000	 63.840413 
520.000000	 63.690614 
519.000000	 63.523268 
518.000000	 63.364934 
517.000000	 63.234305 
516.000000	 63.138461 
515.000000	 63.074088 
514.000000	 63.030171 
513.000000	 62.994861 
512.000000	 62.958669 
511.000000	 62.919712 
510.000000	 62.881207 
509.000000	 62.848806 
508.000000	 62.827372 
507.000000	 62.815284 
506.000000	 62.806868 
505.000000	 62.792110 
504.000000	 62.762022 
503.000000	 62.711882 
502.000000	 62.643337 
501.000000	 62.564611 
500.000000	 62.488603 
499.000000	 62.429571 
498.000000	 62.397480 
497.000000	 62.395739 
496.000000	 62.420678 
495.000000	 62.464022 
494.000000	 62.517285 
493.000000	 62.575054 
492.000000	 62.637424 
491.000000	 62.709426 
490.000000	 62.798404 
489.000000	 62.910103 
488.000000	 63.044762 
487.000000	 63.195085 
486.000000	 63.347125 
485.000000	 63.481736 
484.000000	 63.581800 
483.000000	 63.632202 
482.000000	 63.624668 
481.000000	 63.557982 
480.000000	 63.438200 
479.000000	 63.278245 
478.000000	 63.094997 
477.000000	 62.909841 
476.000000	 62.745237 
475.000000	 62.623929 
474.000000	 62.565684 
473.000000	 62.584567 
472.000000	 62.685942 
471.000000	 62.864112 
470.000000	 63.102149 
469.000000	 63.371539 
468.000000	 63.637638 
467.000000	 63.865780 
466.000000	 64.028692 
465.000000	 64.111566 
464.000000	 64.114618 
463.000000	 64.052200 
462.000000	 63.947629 
461.000000	 63.829231 
460.000000	 63.720583 
459.000000	 63.636136 
458.000000	 63.578295 
457.000000	 63.540720 
456.000000	 63.511657 
455.000000	 63.480544 
454.000000	 63.442301 
453.000000	 63.400077 
452.000000	 63.364958 
451.000000	 63.352584 
450.000000	 63.376951 
449.000000	 63.444137 
448.000000	 63.549041 
447.000000	 63.674879 
446.000000	 63.795375 
445.000000	 63.880801 
444.000000	 63.903498 
443.000000	 63.845276 
442.000000	 63.701105 
441.000000	 63.482761 
440.000000	 63.215422 
439.000000	 62.936878 
438.000000	 62.687444 
437.000000	 62.507033 
436.000000	 62.431812 
435.000000	 62.486338 
434.000000	 62.678194 
433.000000	 62.995338 
432.000000	 63.407897 
431.000000	 63.870811 
430.000000	 64.333462 
429.000000	 64.744162 
428.000000	 65.054130 
427.000000	 65.230536 
426.000000	 65.262317 
425.000000	 65.159869 
424.000000	 64.954328 
423.000000	 64.684534 
422.000000	 64.387583 
421.000000	 64.095830 
420.000000	 63.835072 
419.000000	 63.617444 
418.000000	 63.443756 
417.000000	 63.315558 
416.000000	 63.236546 
415.000000	 63.214540 
414.000000	 63.254022 
413.000000	 63.348031 
412.000000	 63.471722 
411.000000	 63.574552 
410.000000	 63.596844 
409.000000	 63.472461 
408.000000	 63.167166 
407.000000	 62.684035 
406.000000	 62.090015 
405.000000	 61.503028 
404.000000	 61.076354 
403.000000	 60.969185 
402.000000	 61.292338 
401.000000	 62.092137 
400.000000	 63.294672 
399.000000	 64.718508 
398.000000	 66.091752 
397.000000	 67.119550 
396.000000	 67.534565 
395.000000	 67.165017 
394.000000	 65.968585 
393.000000	 64.045596 
392.000000	 61.624312 
391.000000	 59.012436 
390.000000	 56.551289 
389.000000	 54.543542 
388.000000	 53.201484 
387.000000	 52.608323 
386.000000	 52.691221 
385.000000	 53.266501 
384.000000	 54.088902 
383.000000	 54.937815 
382.000000	 55.666399 
381.000000	 56.236076 
380.000000	 56.731390 
379.000000	 57.275056 
378.000000	 57.953095 
377.000000	 58.748292 
376.000000	 59.508728 
375.000000	 59.979987 
374.000000	 59.866881 
373.000000	 58.944392 
372.000000	 57.149124 
371.000000	 54.627466 
370.000000	 51.739192 

