PE IR       SPECTRUM    SPECTRUM    ASCII       PEDS        1.60        
  -1
BZ6923~1.ASC
17/04/07
14:53:27.00
17/04/07
14:53:27.00
tln
$BZ1503107-1_t0021$<tbV0>[-10.4,-10.4,8.0,0.0,27,1,0]
370.000000
64









2002,4.07    
MIRTGS : RIGHTBACK : INTERNAL 2
MIR : ON : INTERNAL 2
OPTKBR

0.200000
8
8.000000
FILLER
RATIO
SPECTRUM
UNLOCKED 256

DOUBLE
64
COMBINED
1
0
0


1.000000
RATIO


1
0
TRUE
51149
0
LEFT NOT FITTED RIGHT NOT FITTED 0
NONE
NONE
15600
12.000000
4.427000
51148
TRUE
1 0 8 72 0 0 0 0 

15798.010000






#HDR
-1
-1
#GR
CM-1
%T
0.00002384185791015625
0.0
5000.000000
-1.000000
4631
8
73.015785
23.756217
#DATA
5000.000000	64.951252 
4999.000000	64.615035 
4998.000000	64.300894 
4997.000000	64.026379 
4996.000000	63.805127 
4995.000000	63.643074 
4994.000000	63.543295 
4993.000000	63.504719 
4992.000000	63.525819 
4991.000000	63.602399 
4990.000000	63.729786 
4989.000000	63.899683 
4988.000000	64.100503 
4987.000000	64.315509 
4986.000000	64.524173 
4985.000000	64.703702 
4984.000000	64.834499 
4983.000000	64.903569 
4982.000000	64.908194 
4981.000000	64.856362 
4980.000000	64.765548 
4979.000000	64.658331 
4978.000000	64.557266 
4977.000000	64.480018 
4976.000000	64.436841 
4975.000000	64.429092 
4974.000000	64.451909 
4973.000000	64.495897 
4972.000000	64.550971 
4971.000000	64.608526 
4970.000000	64.664125 
4969.000000	64.716267 
4968.000000	64.762926 
4967.000000	64.803028 
4966.000000	64.833664 
4965.000000	64.852762 
4964.000000	64.858436 
4963.000000	64.851999 
4962.000000	64.838933 
4961.000000	64.827442 
4960.000000	64.827036 
4959.000000	64.845013 
4958.000000	64.884114 
4957.000000	64.941334 
4956.000000	65.008378 
4955.000000	65.073180 
4954.000000	65.122985 
4953.000000	65.148448 
4952.000000	65.145850 
4951.000000	65.117549 
4950.000000	65.071225 
4949.000000	65.018033 
4948.000000	64.969420 
4947.000000	64.934325 
4946.000000	64.917254 
4945.000000	64.918446 
4944.000000	64.933705 
4943.000000	64.957737 
4942.000000	64.983654 
4941.000000	65.005230 
4940.000000	65.017175 
4939.000000	65.015125 
4938.000000	64.997076 
4937.000000	64.962530 
4936.000000	64.914011 
4935.000000	64.856100 
4934.000000	64.795947 
4933.000000	64.741849 
4932.000000	64.702343 
4931.000000	64.684462 
4930.000000	64.692449 
4929.000000	64.726567 
4928.000000	64.782285 
4927.000000	64.850974 
4926.000000	64.920997 
4925.000000	64.979577 
4924.000000	65.014958 
4923.000000	65.018820 
4922.000000	64.987540 
4921.000000	64.923238 
4920.000000	64.832806 
4919.000000	64.727544 
4918.000000	64.620971 
4917.000000	64.526939 
4916.000000	64.457535 
4915.000000	64.421296 
4914.000000	64.422059 
4913.000000	64.458823 
4912.000000	64.525938 
4911.000000	64.614963 
4910.000000	64.716362 
4909.000000	64.820766 
4908.000000	64.919757 
4907.000000	65.006661 
4906.000000	65.076541 
4905.000000	65.125894 
4904.000000	65.152573 
4903.000000	65.155816 
4902.000000	65.136218 
4901.000000	65.096783 
4900.000000	65.042734 
4899.000000	64.981102 
4898.000000	64.919614 
4897.000000	64.866232 
4896.000000	64.827108 
4895.000000	64.805579 
4894.000000	64.801049 
4893.000000	64.809489 
4892.000000	64.824318 
4891.000000	64.838314 
4890.000000	64.845156 
4889.000000	64.841103 
4888.000000	64.825224 
4887.000000	64.798498 
4886.000000	64.763712 
4885.000000	64.723849 
4884.000000	64.681816 
4883.000000	64.639329 
4882.000000	64.597487 
4881.000000	64.557123 
4880.000000	64.519309 
4879.000000	64.485764 
4878.000000	64.458727 
4877.000000	64.440703 
4876.000000	64.434456 
4875.000000	64.442467 
4874.000000	64.466023 
4873.000000	64.504885 
4872.000000	64.557147 
4871.000000	64.619374 
4870.000000	64.686822 
4869.000000	64.754343 
4868.000000	64.816951 
4867.000000	64.871025 
4866.000000	64.914321 
4865.000000	64.946794 
4864.000000	64.970231 
4863.000000	64.987611 
4862.000000	65.002918 
4861.000000	65.019083 
4860.000000	65.037894 
4859.000000	65.058970 
4858.000000	65.080761 
4857.000000	65.100359 
4856.000000	65.114641 
4855.000000	65.121483 
4854.000000	65.120983 
4853.000000	65.115237 
4852.000000	65.108036 
4851.000000	65.103864 
4850.000000	65.106701 
4849.000000	65.118789 
4848.000000	65.139961 
4847.000000	65.167665 
4846.000000	65.197396 
4845.000000	65.223264 
4844.000000	65.238928 
4843.000000	65.239167 
4842.000000	65.220499 
4841.000000	65.182232 
4840.000000	65.126276 
4839.000000	65.056014 
4838.000000	64.976572 
4837.000000	64.893150 
4836.000000	64.812040 
4835.000000	64.739418 
4834.000000	64.682483 
4833.000000	64.648699 
4832.000000	64.645218 
4831.000000	64.677834 
4830.000000	64.748287 
4829.000000	64.852762 
4828.000000	64.980792 
4827.000000	65.115690 
4826.000000	65.238285 
4825.000000	65.330171 
4824.000000	65.378761 
4823.000000	65.379977 
4822.000000	65.340614 
4821.000000	65.276288 
4820.000000	65.208244 
4819.000000	65.157198 
4818.000000	65.137124 
4817.000000	65.151524 
4816.000000	65.192055 
4815.000000	65.242052 
4814.000000	65.281629 
4813.000000	65.295052 
4812.000000	65.275096 
4811.000000	65.227341 
4810.000000	65.168380 
4809.000000	65.122556 
4808.000000	65.113663 
4807.000000	65.159130 
4806.000000	65.264463 
4805.000000	65.421009 
4804.000000	65.608477 
4803.000000	65.798330 
4802.000000	65.961503 
4801.000000	66.073822 
4800.000000	66.121482 
4799.000000	66.103649 
4798.000000	66.031599 
4797.000000	65.925383 
4796.000000	65.808033 
4795.000000	65.702033 
4794.000000	65.624237 
4793.000000	65.584516 
4792.000000	65.584182 
4791.000000	65.616941 
4790.000000	65.670037 
4789.000000	65.727996 
4788.000000	65.774798 
4787.000000	65.795421 
4786.000000	65.779256 
4785.000000	65.720367 
4784.000000	65.620446 
4783.000000	65.487742 
4782.000000	65.336704 
4781.000000	65.185546 
4780.000000	65.052223 
4779.000000	64.952611 
4778.000000	64.894890 
4777.000000	64.879345 
4776.000000	64.896321 
4775.000000	64.929103 
4774.000000	64.957237 
4773.000000	64.960956 
4772.000000	64.927220 
4771.000000	64.852595 
4770.000000	64.744973 
4769.000000	64.620733 
4768.000000	64.503455 
4767.000000	64.417791 
4766.000000	64.384460 
4765.000000	64.415073 
4764.000000	64.510107 
4763.000000	64.658355 
4762.000000	64.840126 
4761.000000	65.031123 
4760.000000	65.206980 
4759.000000	65.347623 
4758.000000	65.440225 
4757.000000	65.480661 
4756.000000	65.472340 
4755.000000	65.424728 
4754.000000	65.350317 
4753.000000	65.262174 
4752.000000	65.172219 
4751.000000	65.089201 
4750.000000	65.020418 
4749.000000	64.969205 
4748.000000	64.937019 
4747.000000	64.922523 
4746.000000	64.923572 
4745.000000	64.935874 
4744.000000	64.953613 
4743.000000	64.970302 
4742.000000	64.979434 
4741.000000	64.976596 
4740.000000	64.960098 
4739.000000	64.931726 
4738.000000	64.895892 
4737.000000	64.858555 
4736.000000	64.825654 
4735.000000	64.801883 
4734.000000	64.789366 
4733.000000	64.787578 
4732.000000	64.793205 
4731.000000	64.801621 
4730.000000	64.807486 
4729.000000	64.806556 
4728.000000	64.795565 
4727.000000	64.772152 
4726.000000	64.735603 
4725.000000	64.686560 
4724.000000	64.628028 
4723.000000	64.564347 
4722.000000	64.501929 
4721.000000	64.447903 
4720.000000	64.409208 
4719.000000	64.392137 
4718.000000	64.398884 
4717.000000	64.426970 
4716.000000	64.468741 
4715.000000	64.512920 
4714.000000	64.547038 
4713.000000	64.560580 
4712.000000	64.548087 
4711.000000	64.510941 
4710.000000	64.457654 
4709.000000	64.401793 
4708.000000	64.358592 
4707.000000	64.340996 
4706.000000	64.356160 
4705.000000	64.403438 
4704.000000	64.474749 
4703.000000	64.556741 
4702.000000	64.634323 
4701.000000	64.694809 
4700.000000	64.730572 
4699.000000	64.741230 
4698.000000	64.732336 
4697.000000	64.714550 
4696.000000	64.698982 
4695.000000	64.695620 
4694.000000	64.710259 
4693.000000	64.743781 
4692.000000	64.793086 
4691.000000	64.851689 
4690.000000	64.912176 
4689.000000	64.967751 
4688.000000	65.014052 
4687.000000	65.049004 
4686.000000	65.072631 
4685.000000	65.086483 
4684.000000	65.092682 
4683.000000	65.093827 
4682.000000	65.092039 
4681.000000	65.089297 
4680.000000	65.086579 
4679.000000	65.084266 
4678.000000	65.081501 
4677.000000	65.076971 
4676.000000	65.068793 
4675.000000	65.055251 
4674.000000	65.035128 
4673.000000	65.008544 
4672.000000	64.976382 
4671.000000	64.940929 
4670.000000	64.904642 
4669.000000	64.869308 
4668.000000	64.836454 
4667.000000	64.806890 
4666.000000	64.781427 
4665.000000	64.760231 
4664.000000	64.744305 
4663.000000	64.735293 
4662.000000	64.735269 
4661.000000	64.746093 
4660.000000	64.768528 
4659.000000	64.801502 
4658.000000	64.841580 
4657.000000	64.883446 
4656.000000	64.921283 
4655.000000	64.950418 
4654.000000	64.968347 
4653.000000	64.975500 
4652.000000	64.975047 
4651.000000	64.971923 
4650.000000	64.971256 
4649.000000	64.976763 
4648.000000	64.989924 
4647.000000	65.008807 
4646.000000	65.029740 
4645.000000	65.047049 
4644.000000	65.054893 
4643.000000	65.048432 
4642.000000	65.025424 
4641.000000	64.986467 
4640.000000	64.934659 
4639.000000	64.875340 
4638.000000	64.814805 
4637.000000	64.759135 
4636.000000	64.712905 
4635.000000	64.678716 
4634.000000	64.657187 
4633.000000	64.646697 
4632.000000	64.644098 
4631.000000	64.645361 
4630.000000	64.646720 
4629.000000	64.645385 
4628.000000	64.640116 
4627.000000	64.630770 
4626.000000	64.618396 
4625.000000	64.604544 
4624.000000	64.591097 
4623.000000	64.579296 
4622.000000	64.570093 
4621.000000	64.564275 
4620.000000	64.562821 
4619.000000	64.566636 
4618.000000	64.576745 
4617.000000	64.593601 
4616.000000	64.617180 
4615.000000	64.646220 
4614.000000	64.678859 
4613.000000	64.712429 
4612.000000	64.744544 
4611.000000	64.773464 
4610.000000	64.798760 
4609.000000	64.821147 
4608.000000	64.842247 
4607.000000	64.864158 
4606.000000	64.887571 
4605.000000	64.911341 
4604.000000	64.932441 
4603.000000	64.946651 
4602.000000	64.949965 
4601.000000	64.939832 
4600.000000	64.916515 
4599.000000	64.882993 
4598.000000	64.844560 
4597.000000	64.807367 
4596.000000	64.776706 
4595.000000	64.756011 
4594.000000	64.746379 
4593.000000	64.746665 
4592.000000	64.753913 
4591.000000	64.764547 
4590.000000	64.775276 
4589.000000	64.784264 
4588.000000	64.790916 
4587.000000	64.796590 
4586.000000	64.803290 
4585.000000	64.813876 
4584.000000	64.830636 
4583.000000	64.855432 
4582.000000	64.888787 
4581.000000	64.929580 
4580.000000	64.975023 
4579.000000	65.020203 
4578.000000	65.058875 
4577.000000	65.084123 
4576.000000	65.090012 
4575.000000	65.073204 
4574.000000	65.033698 
4573.000000	64.975738 
4572.000000	64.906263 
4571.000000	64.833021 
4570.000000	64.762711 
4569.000000	64.699125 
4568.000000	64.643001 
4567.000000	64.592051 
4566.000000	64.543104 
4565.000000	64.493894 
4564.000000	64.445018 
4563.000000	64.400100 
4562.000000	64.365696 
4561.000000	64.348697 
4560.000000	64.354515 
4559.000000	64.384579 
4558.000000	64.435577 
4557.000000	64.498782 
4556.000000	64.563274 
4555.000000	64.617919 
4554.000000	64.654660 
4553.000000	64.670109 
4552.000000	64.666342 
4551.000000	64.649963 
4550.000000	64.629554 
4549.000000	64.613151 
4548.000000	64.606285 
4547.000000	64.610838 
4546.000000	64.625287 
4545.000000	64.645910 
4544.000000	64.668774 
4543.000000	64.690876 
4542.000000	64.711856 
4541.000000	64.732813 
4540.000000	64.755058 
4539.000000	64.778852 
4538.000000	64.803075 
4537.000000	64.824914 
4536.000000	64.840197 
4535.000000	64.844822 
4534.000000	64.837551 
4533.000000	64.818811 
4532.000000	64.790987 
4531.000000	64.757347 
4530.000000	64.721894 
4529.000000	64.686965 
4528.000000	64.652848 
4527.000000	64.618277 
4526.000000	64.581394 
4525.000000	64.539957 
4524.000000	64.492321 
4523.000000	64.439082 
4522.000000	64.383578 
4521.000000	64.329791 
4520.000000	64.282417 
4519.000000	64.245533 
4518.000000	64.223027 
4517.000000	64.217638 
4516.000000	64.231348 
4515.000000	64.266228 
4514.000000	64.323663 
4513.000000	64.400768 
4512.000000	64.493370 
4511.000000	64.594745 
4510.000000	64.699101 
4509.000000	64.802336 
4508.000000	64.902925 
4507.000000	65.000438 
4506.000000	65.096163 
4505.000000	65.192365 
4504.000000	65.290546 
4503.000000	65.388178 
4502.000000	65.484333 
4501.000000	65.580058 
4500.000000	65.680384 
4499.000000	65.793085 
4498.000000	65.930747 
4497.000000	66.107082 
4496.000000	66.330003 
4495.000000	66.597771 
4494.000000	66.894912 
4493.000000	67.196321 
4492.000000	67.469763 
4491.000000	67.688107 
4490.000000	67.840814 
4489.000000	67.937517 
4488.000000	68.011260 
4487.000000	68.103170 
4486.000000	68.254113 
4485.000000	68.481779 
4484.000000	68.777060 
4483.000000	69.094777 
4482.000000	69.367074 
4481.000000	69.514703 
4480.000000	69.473886 
4479.000000	69.208312 
4478.000000	68.726563 
4477.000000	68.074440 
4476.000000	67.328333 
4475.000000	66.571879 
4474.000000	65.879058 
4473.000000	65.293765 
4472.000000	64.823174 
4471.000000	64.447712 
4470.000000	64.133930 
4469.000000	63.850188 
4468.000000	63.579702 
4467.000000	63.319540 
4466.000000	63.081789 
4465.000000	62.882089 
4464.000000	62.736296 
4463.000000	62.647128 
4462.000000	62.607860 
4461.000000	62.604236 
4460.000000	62.620806 
4459.000000	62.640953 
4458.000000	62.656474 
4457.000000	62.669610 
4456.000000	62.691664 
4455.000000	62.736749 
4454.000000	62.815523 
4453.000000	62.934207 
4452.000000	63.080716 
4451.000000	63.228392 
4450.000000	63.331484 
4449.000000	63.338160 
4448.000000	63.196682 
4447.000000	62.870168 
4446.000000	62.350344 
4445.000000	61.664175 
4444.000000	60.883641 
4443.000000	60.116553 
4442.000000	59.493589 
4441.000000	59.143471 
4440.000000	59.164929 
4439.000000	59.607577 
4438.000000	60.454344 
4437.000000	61.631107 
4436.000000	63.020324 
4435.000000	64.492511 
4434.000000	65.926408 
4433.000000	67.236804 
4432.000000	68.380260 
4431.000000	69.355559 
4430.000000	70.188117 
4429.000000	70.910382 
4428.000000	71.548199 
4427.000000	72.101545 
4426.000000	72.555661 
4425.000000	72.871351 
4424.000000	73.015785 
4423.000000	72.957873 
4422.000000	72.698903 
4421.000000	72.254896 
4420.000000	71.664857 
4419.000000	70.973896 
4418.000000	70.229315 
4417.000000	69.472384 
4416.000000	68.736433 
4415.000000	68.048071 
4414.000000	67.428469 
4413.000000	66.892194 
4412.000000	66.448783 
4411.000000	66.099166 
4410.000000	65.838742 
4409.000000	65.654826 
4408.000000	65.532660 
4407.000000	65.451407 
4406.000000	65.392994 
4405.000000	65.343570 
4404.000000	65.296506 
4403.000000	65.242910 
4402.000000	65.179681 
4401.000000	65.109848 
4400.000000	65.038514 
4399.000000	64.966225 
4398.000000	64.892530 
4397.000000	64.816308 
4396.000000	64.735507 
4395.000000	64.647674 
4394.000000	64.552712 
4393.000000	64.453744 
4392.000000	64.356899 
4391.000000	64.270281 
4390.000000	64.201045 
4389.000000	64.153409 
4388.000000	64.129495 
4387.000000	64.129233 
4386.000000	64.148116 
4385.000000	64.179015 
4384.000000	64.216876 
4383.000000	64.259290 
4382.000000	64.304327 
4381.000000	64.351511 
4380.000000	64.402151 
4379.000000	64.457869 
4378.000000	64.517784 
4377.000000	64.579558 
4376.000000	64.639711 
4375.000000	64.694380 
4374.000000	64.739990 
4373.000000	64.774346 
4372.000000	64.797806 
4371.000000	64.812111 
4370.000000	64.819693 
4369.000000	64.823246 
4368.000000	64.825129 
4367.000000	64.827156 
4366.000000	64.830470 
4365.000000	64.836001 
4364.000000	64.844965 
4363.000000	64.857578 
4362.000000	64.872932 
4361.000000	64.888620 
4360.000000	64.901280 
4359.000000	64.906668 
4358.000000	64.900684 
4357.000000	64.881086 
4356.000000	64.847803 
4355.000000	64.802932 
4354.000000	64.750671 
4353.000000	64.695882 
4352.000000	64.643883 
4351.000000	64.599657 
4350.000000	64.567160 
4349.000000	64.548707 
4348.000000	64.544939 
4347.000000	64.555120 
4346.000000	64.577126 
4345.000000	64.607596 
4344.000000	64.642739 
4343.000000	64.678430 
4342.000000	64.710688 
4341.000000	64.735603 
4340.000000	64.750289 
4339.000000	64.752745 
4338.000000	64.742708 
4337.000000	64.721608 
4336.000000	64.692831 
4335.000000	64.661312 
4334.000000	64.632892 
4333.000000	64.613342 
4332.000000	64.607357 
4331.000000	64.617490 
4330.000000	64.643263 
4329.000000	64.681172 
4328.000000	64.724874 
4327.000000	64.766955 
4326.000000	64.799737 
4325.000000	64.817523 
4324.000000	64.817738 
4323.000000	64.801979 
4322.000000	64.775466 
4321.000000	64.745903 
4320.000000	64.720964 
4319.000000	64.707040 
4318.000000	64.707875 
4317.000000	64.723777 
4316.000000	64.751958 
4315.000000	64.787721 
4314.000000	64.826059 
4313.000000	64.862799 
4312.000000	64.895439 
4311.000000	64.923191 
4310.000000	64.946341 
4309.000000	64.965462 
4308.000000	64.980316 
4307.000000	64.989471 
4306.000000	64.990186 
4305.000000	64.978694 
4304.000000	64.951157 
4303.000000	64.905285 
4302.000000	64.841341 
4301.000000	64.762449 
4300.000000	64.674901 
4299.000000	64.586806 
4298.000000	64.507555 
4297.000000	64.445686 
4296.000000	64.408326 
4295.000000	64.399003 
4294.000000	64.418387 
4293.000000	64.463925 
4292.000000	64.530920 
4291.000000	64.612388 
4290.000000	64.700913 
4289.000000	64.789032 
4288.000000	64.870333 
4287.000000	64.939117 
4286.000000	64.991593 
4285.000000	65.025687 
4284.000000	65.041613 
4283.000000	65.041494 
4282.000000	65.029430 
4281.000000	65.010952 
4280.000000	64.992165 
4279.000000	64.978885 
4278.000000	64.974951 
4277.000000	64.981412 
4276.000000	64.996767 
4275.000000	65.017056 
4274.000000	65.036988 
4273.000000	65.051317 
4272.000000	65.056395 
4271.000000	65.050506 
4270.000000	65.034151 
4269.000000	65.009117 
4268.000000	64.978241 
4267.000000	64.943742 
4266.000000	64.906549 
4265.000000	64.866065 
4264.000000	64.820981 
4263.000000	64.769625 
4262.000000	64.711165 
4261.000000	64.646625 
4260.000000	64.578890 
4259.000000	64.513254 
4258.000000	64.456582 
4257.000000	64.415955 
4256.000000	64.396882 
4255.000000	64.402985 
4254.000000	64.434981 
4253.000000	64.490413 
4252.000000	64.563798 
4251.000000	64.647603 
4250.000000	64.733505 
4249.000000	64.813590 
4248.000000	64.881706 
4247.000000	64.933848 
4246.000000	64.968872 
4245.000000	64.988231 
4244.000000	64.995121 
4243.000000	64.993786 
4242.000000	64.987945 
4241.000000	64.980888 
4240.000000	64.974117 
4239.000000	64.968538 
4238.000000	64.963793 
4237.000000	64.959907 
4236.000000	64.956736 
4235.000000	64.954543 
4234.000000	64.953708 
4233.000000	64.954876 
4232.000000	64.958024 
4231.000000	64.962077 
4230.000000	64.965105 
4229.000000	64.964842 
4228.000000	64.959454 
4227.000000	64.948248 
4226.000000	64.932417 
4225.000000	64.914989 
4224.000000	64.900302 
4223.000000	64.892840 
4222.000000	64.896297 
4221.000000	64.912152 
4220.000000	64.939522 
4219.000000	64.974546 
4218.000000	65.011596 
4217.000000	65.043902 
4216.000000	65.065264 
4215.000000	65.071320 
4214.000000	65.060329 
4213.000000	65.033888 
4212.000000	64.996457 
4211.000000	64.954996 
4210.000000	64.917135 
4209.000000	64.890193 
4208.000000	64.880037 
4207.000000	64.889359 
4206.000000	64.917635 
4205.000000	64.960503 
4204.000000	65.010905 
4203.000000	65.060019 
4202.000000	65.099310 
4201.000000	65.122103 
4200.000000	65.125346 
4199.000000	65.110135 
4198.000000	65.081524 
4197.000000	65.047311 
4196.000000	65.016102 
4195.000000	64.995956 
4194.000000	64.992189 
4193.000000	65.006947 
4192.000000	65.038561 
4191.000000	65.083336 
4190.000000	65.135383 
4189.000000	65.188884 
4188.000000	65.237975 
4187.000000	65.278005 
4186.000000	65.304970 
4185.000000	65.315890 
4184.000000	65.308690 
4183.000000	65.281701 
4182.000000	65.235042 
4181.000000	65.171051 
4180.000000	65.094518 
4179.000000	65.012717 
4178.000000	64.934015 
4177.000000	64.866876 
4176.000000	64.817929 
4175.000000	64.790868 
4174.000000	64.785575 
4173.000000	64.798617 
4172.000000	64.824223 
4171.000000	64.856123 
4170.000000	64.889335 
4169.000000	64.921522 
4168.000000	64.952874 
4167.000000	64.985823 
4166.000000	65.023279 
4165.000000	65.067028 
4164.000000	65.116739 
4163.000000	65.168952 
4162.000000	65.217876 
4161.000000	65.255808 
4160.000000	65.276145 
4159.000000	65.273666 
4158.000000	65.246725 
4157.000000	65.196609 
4156.000000	65.127992 
4155.000000	65.047526 
4154.000000	64.962673 
4153.000000	64.880990 
4152.000000	64.808893 
4151.000000	64.751672 
4150.000000	64.713168 
4149.000000	64.695596 
4148.000000	64.699912 
4147.000000	64.725160 
4146.000000	64.768385 
4145.000000	64.824652 
4144.000000	64.887619 
4143.000000	64.949917 
4142.000000	65.004587 
4141.000000	65.046358 
4140.000000	65.072631 
4139.000000	65.084171 
4138.000000	65.084433 
4137.000000	65.078973 
4136.000000	65.073633 
4135.000000	65.073251 
4134.000000	65.080428 
4133.000000	65.095305 
4132.000000	65.115594 
4131.000000	65.138483 
4130.000000	65.160775 
4129.000000	65.180516 
4128.000000	65.196776 
4127.000000	65.210032 
4126.000000	65.220952 
4125.000000	65.229773 
4124.000000	65.235567 
4123.000000	65.236091 
4122.000000	65.228796 
4121.000000	65.212106 
4120.000000	65.186142 
4119.000000	65.153360 
4118.000000	65.118765 
4117.000000	65.089201 
4116.000000	65.071463 
4115.000000	65.070867 
4114.000000	65.089559 
4113.000000	65.125989 
4112.000000	65.175700 
4111.000000	65.231990 
4110.000000	65.287923 
4109.000000	65.336918 
4108.000000	65.374398 
4107.000000	65.397620 
4106.000000	65.405535 
4105.000000	65.398192 
4104.000000	65.376281 
4103.000000	65.340948 
4102.000000	65.293693 
4101.000000	65.236878 
4100.000000	65.174412 
4099.000000	65.111589 
4098.000000	65.054845 
4097.000000	65.011167 
4096.000000	64.986872 
4095.000000	64.986205 
4094.000000	65.010070 
4093.000000	65.055918 
4092.000000	65.117740 
4091.000000	65.187168 
4090.000000	65.255069 
4089.000000	65.313100 
4088.000000	65.355324 
4087.000000	65.378975 
4086.000000	65.384721 
4085.000000	65.375995 
4084.000000	65.357804 
4083.000000	65.335941 
4082.000000	65.314960 
4081.000000	65.298056 
4080.000000	65.285778 
4079.000000	65.277075 
4078.000000	65.269017 
4077.000000	65.258765 
4076.000000	65.243601 
4075.000000	65.221905 
4074.000000	65.193510 
4073.000000	65.159893 
4072.000000	65.123844 
4071.000000	65.088677 
4070.000000	65.057587 
4069.000000	65.032792 
4068.000000	65.015506 
4067.000000	65.005588 
4066.000000	65.001988 
4065.000000	65.003037 
4064.000000	65.007090 
4063.000000	65.012979 
4062.000000	65.020036 
4061.000000	65.028309 
4060.000000	65.038108 
4059.000000	65.049767 
4058.000000	65.063762 
4057.000000	65.079975 
4056.000000	65.097856 
4055.000000	65.115976 
4054.000000	65.132379 
4053.000000	65.144443 
4052.000000	65.149712 
4051.000000	65.146088 
4050.000000	65.132379 
4049.000000	65.108752 
4048.000000	65.077090 
4047.000000	65.040659 
4046.000000	65.003681 
4045.000000	64.970517 
4044.000000	64.945125 
4043.000000	64.929747 
4042.000000	64.924573 
4041.000000	64.927840 
4040.000000	64.936351 
4039.000000	64.946198 
4038.000000	64.953732 
4037.000000	64.956736 
4036.000000	64.954757 
4035.000000	64.949202 
4034.000000	64.942598 
4033.000000	64.937973 
4032.000000	64.937639 
4031.000000	64.943027 
4030.000000	64.953756 
4029.000000	64.968037 
4028.000000	64.982914 
4027.000000	64.995026 
4026.000000	65.001440 
4025.000000	65.000295 
4024.000000	64.991235 
4023.000000	64.975690 
4022.000000	64.956521 
4021.000000	64.937496 
4020.000000	64.922618 
4019.000000	64.915156 
4018.000000	64.917016 
4017.000000	64.928698 
4016.000000	64.948868 
4015.000000	64.974951 
4014.000000	65.003657 
4013.000000	65.031933 
4012.000000	65.057277 
4011.000000	65.078043 
4010.000000	65.093874 
4009.000000	65.105175 
4008.000000	65.112519 
4007.000000	65.116167 
4006.000000	65.115785 
4005.000000	65.110445 
4004.000000	65.098810 
4003.000000	65.079808 
4002.000000	65.053462 
4001.000000	65.021276 
4000.000000	64.986133 
3999.000000	64.952373 
3998.000000	64.924716 
3997.000000	64.907312 
3996.000000	64.903092 
3995.000000	64.912796 
3994.000000	64.934587 
3993.000000	64.964842 
3992.000000	64.998769 
3991.000000	65.031766 
3990.000000	65.059971 
3989.000000	65.081548 
3988.000000	65.096759 
3987.000000	65.107774 
3986.000000	65.117788 
3985.000000	65.130138 
3984.000000	65.147423 
3983.000000	65.170884 
3982.000000	65.199995 
3981.000000	65.233111 
3980.000000	65.267705 
3979.000000	65.301275 
3978.000000	65.331768 
3977.000000	65.357923 
3976.000000	65.379309 
3975.000000	65.396261 
3974.000000	65.409278 
3973.000000	65.418910 
3972.000000	65.425205 
3971.000000	65.428137 
3970.000000	65.426754 
3969.000000	65.420293 
3968.000000	65.407347 
3967.000000	65.387082 
3966.000000	65.358853 
3965.000000	65.322875 
3964.000000	65.280175 
3963.000000	65.232872 
3962.000000	65.184044 
3961.000000	65.137553 
3960.000000	65.097379 
3959.000000	65.067148 
3958.000000	65.049386 
3957.000000	65.045189 
3956.000000	65.053510 
3955.000000	65.071678 
3954.000000	65.096187 
3953.000000	65.123367 
3952.000000	65.150094 
3951.000000	65.174198 
3950.000000	65.194749 
3949.000000	65.211987 
3948.000000	65.226483 
3947.000000	65.238690 
3946.000000	65.248942 
3945.000000	65.256595 
3944.000000	65.260672 
3943.000000	65.259552 
3942.000000	65.251708 
3941.000000	65.236210 
3940.000000	65.213346 
3939.000000	65.184926 
3938.000000	65.154457 
3937.000000	65.126752 
3936.000000	65.107297 
3935.000000	65.100979 
3934.000000	65.111136 
3933.000000	65.138244 
3932.000000	65.179824 
3931.000000	65.229940 
3930.000000	65.280222 
3929.000000	65.321254 
3928.000000	65.344667 
3927.000000	65.345048 
3926.000000	65.320825 
3925.000000	65.275120 
3924.000000	65.214514 
3923.000000	65.147709 
3922.000000	65.083408 
3921.000000	65.028452 
3920.000000	64.986777 
3919.000000	64.959025 
3918.000000	64.943194 
3917.000000	64.935922 
3916.000000	64.933967 
3915.000000	64.934873 
3914.000000	64.937806 
3913.000000	64.942812 
3912.000000	64.951038 
3911.000000	64.962959 
3910.000000	64.978599 
3909.000000	64.996457 
3908.000000	65.014648 
3907.000000	65.031003 
3906.000000	65.044116 
3905.000000	65.053749 
3904.000000	65.060424 
3903.000000	65.065240 
3902.000000	65.069103 
3901.000000	65.072059 
3900.000000	65.073442 
3899.000000	65.071988 
3898.000000	65.066266 
3897.000000	65.055775 
3896.000000	65.041518 
3895.000000	65.026164 
3894.000000	65.013694 
3893.000000	65.008473 
3892.000000	65.013813 
3891.000000	65.031123 
3890.000000	65.059471 
3889.000000	65.095400 
3888.000000	65.133380 
3887.000000	65.167284 
3886.000000	65.192031 
3885.000000	65.204310 
3884.000000	65.203499 
3883.000000	65.191340 
3882.000000	65.171527 
3881.000000	65.148591 
3880.000000	65.126657 
3879.000000	65.108680 
3878.000000	65.095710 
3877.000000	65.086770 
3876.000000	65.079355 
3875.000000	65.070247 
3874.000000	65.056610 
3873.000000	65.036630 
3872.000000	65.010213 
3871.000000	64.978671 
3870.000000	64.944815 
3869.000000	64.911842 
3868.000000	64.883112 
3867.000000	64.861011 
3866.000000	64.847230 
3865.000000	64.842486 
3864.000000	64.847016 
3863.000000	64.860415 
3862.000000	64.882373 
3861.000000	64.912438 
3860.000000	64.950180 
3859.000000	64.994502 
3858.000000	65.043377 
3857.000000	65.093469 
3856.000000	65.140461 
3855.000000	65.179538 
3854.000000	65.206718 
3853.000000	65.219545 
3852.000000	65.218114 
3851.000000	65.205192 
3850.000000	65.185165 
3849.000000	65.163230 
3848.000000	65.144300 
3847.000000	65.131878 
3846.000000	65.127682 
3845.000000	65.131068 
3844.000000	65.140056 
3843.000000	65.151572 
3842.000000	65.162086 
3841.000000	65.168356 
3840.000000	65.167641 
3839.000000	65.158438 
3838.000000	65.140080 
3837.000000	65.113735 
3836.000000	65.081739 
3835.000000	65.048170 
3834.000000	65.017843 
3833.000000	64.995884 
3832.000000	64.986753 
3831.000000	64.993476 
3830.000000	65.016913 
3829.000000	65.055179 
3828.000000	65.103554 
3827.000000	65.155935 
3826.000000	65.206074 
3825.000000	65.248608 
3824.000000	65.279960 
3823.000000	65.299153 
3822.000000	65.307569 
3821.000000	65.307879 
3820.000000	65.303254 
3819.000000	65.296030 
3818.000000	65.287399 
3817.000000	65.277314 
3816.000000	65.265035 
3815.000000	65.249633 
3814.000000	65.230941 
3813.000000	65.210366 
3812.000000	65.190744 
3811.000000	65.176129 
3810.000000	65.170264 
3809.000000	65.175747 
3808.000000	65.192675 
3807.000000	65.218281 
3806.000000	65.246939 
3805.000000	65.271449 
3804.000000	65.284061 
3803.000000	65.278649 
3802.000000	65.251755 
3801.000000	65.203785 
3800.000000	65.138626 
3799.000000	65.062761 
3798.000000	64.983892 
3797.000000	64.909338 
3796.000000	64.845132 
3795.000000	64.794969 
3794.000000	64.760160 
3793.000000	64.739990 
3792.000000	64.732360 
3791.000000	64.734745 
3790.000000	64.744520 
3789.000000	64.759659 
3788.000000	64.778327 
3787.000000	64.799094 
3786.000000	64.820766 
3785.000000	64.842319 
3784.000000	64.862275 
3783.000000	64.879512 
3782.000000	64.893174 
3781.000000	64.902949 
3780.000000	64.909219 
3779.000000	64.912962 
3778.000000	64.915680 
3777.000000	64.919137 
3776.000000	64.924907 
3775.000000	64.934229 
3774.000000	64.947843 
3773.000000	64.965867 
3772.000000	64.987921 
3771.000000	65.013170 
3770.000000	65.040469 
3769.000000	65.068364 
3768.000000	65.095376 
3767.000000	65.120220 
3766.000000	65.142178 
3765.000000	65.161252 
3764.000000	65.178298 
3763.000000	65.195274 
3762.000000	65.214872 
3761.000000	65.240097 
3760.000000	65.273427 
3759.000000	65.316128 
3758.000000	65.367436 
3757.000000	65.424585 
3756.000000	65.482592 
3755.000000	65.535354 
3754.000000	65.576481 
3753.000000	65.600919 
3752.000000	65.605545 
3751.000000	65.590262 
3750.000000	65.557599 
3749.000000	65.512633 
3748.000000	65.461540 
3747.000000	65.410685 
3746.000000	65.365266 
3745.000000	65.328693 
3744.000000	65.302276 
3743.000000	65.285468 
3742.000000	65.276265 
3741.000000	65.272235 
3740.000000	65.270733 
3739.000000	65.269684 
3738.000000	65.267515 
3737.000000	65.263628 
3736.000000	65.257740 
3735.000000	65.249824 
3734.000000	65.240359 
3733.000000	65.230035 
3732.000000	65.219688 
3731.000000	65.209984 
3730.000000	65.201878 
3729.000000	65.195822 
3728.000000	65.191864 
3727.000000	65.189433 
3726.000000	65.187597 
3725.000000	65.185356 
3724.000000	65.181756 
3723.000000	65.176439 
3722.000000	65.170097 
3721.000000	65.164208 
3720.000000	65.160751 
3719.000000	65.161371 
3718.000000	65.166974 
3717.000000	65.177297 
3716.000000	65.190768 
3715.000000	65.204787 
3714.000000	65.216302 
3713.000000	65.222930 
3712.000000	65.223407 
3711.000000	65.217781 
3710.000000	65.207457 
3709.000000	65.194606 
3708.000000	65.181660 
3707.000000	65.170121 
3706.000000	65.160655 
3705.000000	65.152978 
3704.000000	65.146279 
3703.000000	65.139937 
3702.000000	65.134024 
3701.000000	65.129446 
3700.000000	65.127944 
3699.000000	65.131115 
3698.000000	65.140032 
3697.000000	65.154194 
3696.000000	65.172123 
3695.000000	65.191292 
3694.000000	65.208840 
3693.000000	65.222454 
3692.000000	65.230607 
3691.000000	65.232992 
3690.000000	65.230178 
3689.000000	65.223431 
3688.000000	65.214252 
3687.000000	65.204143 
3686.000000	65.194463 
3685.000000	65.186476 
3684.000000	65.181589 
3683.000000	65.181303 
3682.000000	65.187311 
3681.000000	65.200948 
3680.000000	65.222692 
3679.000000	65.251612 
3678.000000	65.285325 
3677.000000	65.320277 
3676.000000	65.352106 
3675.000000	65.376615 
3674.000000	65.390825 
3673.000000	65.393137 
3672.000000	65.383625 
3671.000000	65.363621 
3670.000000	65.335607 
3669.000000	65.302515 
3668.000000	65.267252 
3667.000000	65.232372 
3666.000000	65.200042 
3665.000000	65.171647 
3664.000000	65.148115 
3663.000000	65.129733 
3662.000000	65.116262 
3661.000000	65.107393 
3660.000000	65.102577 
3659.000000	65.101289 
3658.000000	65.103030 
3657.000000	65.107727 
3656.000000	65.115690 
3655.000000	65.127444 
3654.000000	65.143537 
3653.000000	65.163993 
3652.000000	65.188598 
3651.000000	65.216279 
3650.000000	65.245580 
3649.000000	65.275216 
3648.000000	65.303945 
3647.000000	65.331149 
3646.000000	65.356612 
3645.000000	65.380477 
3644.000000	65.402793 
3643.000000	65.423297 
3642.000000	65.441322 
3641.000000	65.456223 
3640.000000	65.467333 
3639.000000	65.474486 
3638.000000	65.477848 
3637.000000	65.478205 
3636.000000	65.476369 
3635.000000	65.473389 
3634.000000	65.469646 
3633.000000	65.464949 
3632.000000	65.458488 
3631.000000	65.449166 
3630.000000	65.436053 
3629.000000	65.418910 
3628.000000	65.398216 
3627.000000	65.375304 
3626.000000	65.352368 
3625.000000	65.331649 
3624.000000	65.314984 
3623.000000	65.303564 
3622.000000	65.297842 
3621.000000	65.297460 
3620.000000	65.301561 
3619.000000	65.308904 
3618.000000	65.318226 
3617.000000	65.328073 
3616.000000	65.336894 
3615.000000	65.343046 
3614.000000	65.344834 
3613.000000	65.340733 
3612.000000	65.329623 
3611.000000	65.311193 
3610.000000	65.286207 
3609.000000	65.256571 
3608.000000	65.225172 
3607.000000	65.195155 
3606.000000	65.169501 
3605.000000	65.150070 
3604.000000	65.137410 
3603.000000	65.130496 
3602.000000	65.127253 
3601.000000	65.124964 
3600.000000	65.121221 
3599.000000	65.114641 
3598.000000	65.105581 
3597.000000	65.095376 
3596.000000	65.086627 
3595.000000	65.082049 
3594.000000	65.084075 
3593.000000	65.093970 
3592.000000	65.111541 
3591.000000	65.135574 
3590.000000	65.163755 
3589.000000	65.193605 
3588.000000	65.222716 
3587.000000	65.249109 
3586.000000	65.271425 
3585.000000	65.289068 
3584.000000	65.301966 
3583.000000	65.310382 
3582.000000	65.314841 
3581.000000	65.316224 
3580.000000	65.315270 
3579.000000	65.312504 
3578.000000	65.308308 
3577.000000	65.302658 
3576.000000	65.294742 
3575.000000	65.282893 
3574.000000	65.265107 
3573.000000	65.239620 
3572.000000	65.204954 
3571.000000	65.161061 
3570.000000	65.109372 
3569.000000	65.053105 
3568.000000	64.996647 
3567.000000	64.945030 
3566.000000	64.902758 
3565.000000	64.873409 
3564.000000	64.858841 
3563.000000	64.859247 
3562.000000	64.872717 
3561.000000	64.896512 
3560.000000	64.927148 
3559.000000	64.961457 
3558.000000	64.996385 
3557.000000	65.030097 
3556.000000	65.061640 
3555.000000	65.090775 
3554.000000	65.117502 
3553.000000	65.142226 
3552.000000	65.165209 
3551.000000	65.186524 
3550.000000	65.206122 
3549.000000	65.223550 
3548.000000	65.238428 
3547.000000	65.250420 
3546.000000	65.259575 
3545.000000	65.266489 
3544.000000	65.271902 
3543.000000	65.277266 
3542.000000	65.283775 
3541.000000	65.291953 
3540.000000	65.301227 
3539.000000	65.310311 
3538.000000	65.316867 
3537.000000	65.318202 
3536.000000	65.311789 
3535.000000	65.296339 
3534.000000	65.271854 
3533.000000	65.239667 
3532.000000	65.202355 
3531.000000	65.163230 
3530.000000	65.125870 
3529.000000	65.093493 
3528.000000	65.068268 
3527.000000	65.051054 
3526.000000	65.041375 
3525.000000	65.037870 
3524.000000	65.038323 
3523.000000	65.040159 
3522.000000	65.041637 
3521.000000	65.042114 
3520.000000	65.041923 
3519.000000	65.042257 
3518.000000	65.044927 
3517.000000	65.051841 
3516.000000	65.064263 
3515.000000	65.082502 
3514.000000	65.105795 
3513.000000	65.132594 
3512.000000	65.160703 
3511.000000	65.188074 
3510.000000	65.212941 
3509.000000	65.234303 
3508.000000	65.252017 
3507.000000	65.266656 
3506.000000	65.279102 
3505.000000	65.290212 
3504.000000	65.300607 
3503.000000	65.310144 
3502.000000	65.318298 
3501.000000	65.323853 
3500.000000	65.325450 
3499.000000	65.321350 
3498.000000	65.309882 
3497.000000	65.289926 
3496.000000	65.261268 
3495.000000	65.224838 
3494.000000	65.182924 
3493.000000	65.139245 
3492.000000	65.098333 
3491.000000	65.064740 
3490.000000	65.042161 
3489.000000	65.032911 
3488.000000	65.037417 
3487.000000	65.054130 
3486.000000	65.080118 
3485.000000	65.111303 
3484.000000	65.143632 
3483.000000	65.173482 
3482.000000	65.198159 
3481.000000	65.215873 
3480.000000	65.225911 
3479.000000	65.228414 
3478.000000	65.224099 
3477.000000	65.213656 
3476.000000	65.197896 
3475.000000	65.177845 
3474.000000	65.154600 
3473.000000	65.129542 
3472.000000	65.104031 
3471.000000	65.079593 
3470.000000	65.057826 
3469.000000	65.040469 
3468.000000	65.029501 
3467.000000	65.026950 
3466.000000	65.034747 
3465.000000	65.054321 
3464.000000	65.085792 
3463.000000	65.127611 
3462.000000	65.176677 
3461.000000	65.228605 
3460.000000	65.277814 
3459.000000	65.318822 
3458.000000	65.347218 
3457.000000	65.360021 
3456.000000	65.356421 
3455.000000	65.337085 
3454.000000	65.304565 
3453.000000	65.262079 
3452.000000	65.213394 
3451.000000	65.162181 
3450.000000	65.111851 
3449.000000	65.065431 
3448.000000	65.025830 
3447.000000	64.995646 
3446.000000	64.976978 
3445.000000	64.970898 
3444.000000	64.977312 
3443.000000	64.994382 
3442.000000	65.019202 
3441.000000	65.047931 
3440.000000	65.077114 
3439.000000	65.104007 
3438.000000	65.127372 
3437.000000	65.147519 
3436.000000	65.165877 
3435.000000	65.184235 
3434.000000	65.203809 
3433.000000	65.224885 
3432.000000	65.246343 
3431.000000	65.265941 
3430.000000	65.280914 
3429.000000	65.289139 
3428.000000	65.289473 
3427.000000	65.282678 
3426.000000	65.270948 
3425.000000	65.257930 
3424.000000	65.247488 
3423.000000	65.242838 
3422.000000	65.245771 
3421.000000	65.256214 
3420.000000	65.272474 
3419.000000	65.291714 
3418.000000	65.310430 
3417.000000	65.325427 
3416.000000	65.334200 
3415.000000	65.335655 
3414.000000	65.329647 
3413.000000	65.316772 
3412.000000	65.298295 
3411.000000	65.275549 
3410.000000	65.249967 
3409.000000	65.222811 
3408.000000	65.195298 
3407.000000	65.168571 
3406.000000	65.143990 
3405.000000	65.122985 
3404.000000	65.106725 
3403.000000	65.095901 
3402.000000	65.090537 
3401.000000	65.089917 
3400.000000	65.092539 
3399.000000	65.096545 
3398.000000	65.099906 
3397.000000	65.100860 
3396.000000	65.098214 
3395.000000	65.091300 
3394.000000	65.080118 
3393.000000	65.065336 
3392.000000	65.047979 
3391.000000	65.029573 
3390.000000	65.011930 
3389.000000	64.997005 
3388.000000	64.986634 
3387.000000	64.982295 
3386.000000	64.984798 
3385.000000	64.993882 
3384.000000	65.008163 
3383.000000	65.025043 
3382.000000	65.041661 
3381.000000	65.055155 
3380.000000	65.063786 
3379.000000	65.067124 
3378.000000	65.066671 
3377.000000	65.065550 
3376.000000	65.067553 
3375.000000	65.076112 
3374.000000	65.093016 
3373.000000	65.118026 
3372.000000	65.148496 
3371.000000	65.180063 
3370.000000	65.207386 
3369.000000	65.225768 
3368.000000	65.231990 
3367.000000	65.225124 
3366.000000	65.206527 
3365.000000	65.179347 
3364.000000	65.147590 
3363.000000	65.115141 
3362.000000	65.084958 
3361.000000	65.058803 
3360.000000	65.037274 
3359.000000	65.020346 
3358.000000	65.007901 
3357.000000	65.000319 
3356.000000	64.998245 
3355.000000	65.002751 
3354.000000	65.014433 
3353.000000	65.033340 
3352.000000	65.058326 
3351.000000	65.087342 
3350.000000	65.117359 
3349.000000	65.145158 
3348.000000	65.167760 
3347.000000	65.183019 
3346.000000	65.189909 
3345.000000	65.188837 
3344.000000	65.181231 
3343.000000	65.169548 
3342.000000	65.156459 
3341.000000	65.144729 
3340.000000	65.136814 
3339.000000	65.134501 
3338.000000	65.138792 
3337.000000	65.149617 
3336.000000	65.165925 
3335.000000	65.185737 
3334.000000	65.206432 
3333.000000	65.225005 
3332.000000	65.238666 
3331.000000	65.245318 
3330.000000	65.244174 
3329.000000	65.235805 
3328.000000	65.222215 
3327.000000	65.206527 
3326.000000	65.192389 
3325.000000	65.183210 
3324.000000	65.181303 
3323.000000	65.187740 
3322.000000	65.201568 
3321.000000	65.220236 
3320.000000	65.239691 
3319.000000	65.255546 
3318.000000	65.263557 
3317.000000	65.260648 
3316.000000	65.245676 
3315.000000	65.219211 
3314.000000	65.184068 
3313.000000	65.144443 
3312.000000	65.105390 
3311.000000	65.071749 
3310.000000	65.047478 
3309.000000	65.034770 
3308.000000	65.033793 
3307.000000	65.042710 
3306.000000	65.058350 
3305.000000	65.076804 
3304.000000	65.094137 
3303.000000	65.107369 
3302.000000	65.114927 
3301.000000	65.117025 
3300.000000	65.115094 
3299.000000	65.111637 
3298.000000	65.109300 
3297.000000	65.110349 
3296.000000	65.116071 
3295.000000	65.126442 
3294.000000	65.140151 
3293.000000	65.154814 
3292.000000	65.167832 
3291.000000	65.176749 
3290.000000	65.180158 
3289.000000	65.177702 
3288.000000	65.170192 
3287.000000	65.159296 
3286.000000	65.147042 
3285.000000	65.135312 
3284.000000	65.125536 
3283.000000	65.118193 
3282.000000	65.112924 
3281.000000	65.108799 
3280.000000	65.104746 
3279.000000	65.099859 
3278.000000	65.093612 
3277.000000	65.086007 
3276.000000	65.077567 
3275.000000	65.068984 
3274.000000	65.061259 
3273.000000	65.054845 
3272.000000	65.050268 
3271.000000	65.048074 
3270.000000	65.048694 
3269.000000	65.052485 
3268.000000	65.059185 
3267.000000	65.068030 
3266.000000	65.077495 
3265.000000	65.085434 
3264.000000	65.089678 
3263.000000	65.088462 
3262.000000	65.081167 
3261.000000	65.068459 
3260.000000	65.052485 
3259.000000	65.036177 
3258.000000	65.022587 
3257.000000	65.014171 
3256.000000	65.012001 
3255.000000	65.015602 
3254.000000	65.023255 
3253.000000	65.032529 
3252.000000	65.041041 
3251.000000	65.047097 
3250.000000	65.050077 
3249.000000	65.050363 
3248.000000	65.048575 
3247.000000	65.045332 
3246.000000	65.040445 
3245.000000	65.033388 
3244.000000	65.023326 
3243.000000	65.009927 
3242.000000	64.993882 
3241.000000	64.976978 
3240.000000	64.961671 
3239.000000	64.950704 
3238.000000	64.946126 
3237.000000	64.948868 
3236.000000	64.958310 
3235.000000	64.972615 
3234.000000	64.989066 
3233.000000	65.004992 
3232.000000	65.018725 
3231.000000	65.030002 
3230.000000	65.039753 
3229.000000	65.049886 
3228.000000	65.062308 
3227.000000	65.078401 
3226.000000	65.098309 
3225.000000	65.120792 
3224.000000	65.143394 
3223.000000	65.163326 
3222.000000	65.177893 
3221.000000	65.185356 
3220.000000	65.185236 
3219.000000	65.178298 
3218.000000	65.166425 
3217.000000	65.152502 
3216.000000	65.139603 
3215.000000	65.130829 
3214.000000	65.127968 
3213.000000	65.131926 
3212.000000	65.141630 
3211.000000	65.155148 
3210.000000	65.169143 
3209.000000	65.180063 
3208.000000	65.184473 
3207.000000	65.180110 
3206.000000	65.166306 
3205.000000	65.144085 
3204.000000	65.116381 
3203.000000	65.087223 
3202.000000	65.061378 
3201.000000	65.043091 
3200.000000	65.035438 
3199.000000	65.039610 
3198.000000	65.054631 
3197.000000	65.077519 
3196.000000	65.103816 
3195.000000	65.128493 
3194.000000	65.146660 
3193.000000	65.154600 
3192.000000	65.150284 
3191.000000	65.133976 
3190.000000	65.108132 
3189.000000	65.076923 
3188.000000	65.045619 
3187.000000	65.019321 
3186.000000	65.002393 
3185.000000	64.997529 
3184.000000	65.005254 
3183.000000	65.024161 
3182.000000	65.051150 
3181.000000	65.082383 
3180.000000	65.113830 
3179.000000	65.142393 
3178.000000	65.166068 
3177.000000	65.184187 
3176.000000	65.197205 
3175.000000	65.206241 
3174.000000	65.212655 
3173.000000	65.217733 
3172.000000	65.222477 
3171.000000	65.227699 
3170.000000	65.233993 
3169.000000	65.242433 
3168.000000	65.254139 
3167.000000	65.270304 
3166.000000	65.291523 
3165.000000	65.317535 
3164.000000	65.346789 
3163.000000	65.376424 
3162.000000	65.402340 
3161.000000	65.420150 
3160.000000	65.425777 
3159.000000	65.417027 
3158.000000	65.393710 
3157.000000	65.358400 
3156.000000	65.315651 
3155.000000	65.271282 
3154.000000	65.231251 
3153.000000	65.200448 
3152.000000	65.181708 
3151.000000	65.175557 
3150.000000	65.180373 
3149.000000	65.192818 
3148.000000	65.209031 
3147.000000	65.225672 
3146.000000	65.240311 
3145.000000	65.251922 
3144.000000	65.260887 
3143.000000	65.268731 
3142.000000	65.277099 
3141.000000	65.287160 
3140.000000	65.299510 
3139.000000	65.313482 
3138.000000	65.327596 
3137.000000	65.339493 
3136.000000	65.346670 
3135.000000	65.346741 
3134.000000	65.338182 
3133.000000	65.320849 
3132.000000	65.296006 
3131.000000	65.266346 
3130.000000	65.235543 
3129.000000	65.207529 
3128.000000	65.185642 
3127.000000	65.172100 
3126.000000	65.167713 
3125.000000	65.171670 
3124.000000	65.182089 
3123.000000	65.196347 
3122.000000	65.211868 
3121.000000	65.226340 
3120.000000	65.237927 
3119.000000	65.245389 
3118.000000	65.247869 
3117.000000	65.244984 
3116.000000	65.236902 
3115.000000	65.224170 
3114.000000	65.207910 
3113.000000	65.190005 
3112.000000	65.172934 
3111.000000	65.159535 
3110.000000	65.152335 
3109.000000	65.153288 
3108.000000	65.163087 
3107.000000	65.180993 
3106.000000	65.205311 
3105.000000	65.233254 
3104.000000	65.262198 
3103.000000	65.289878 
3102.000000	65.314650 
3101.000000	65.335726 
3100.000000	65.352773 
3099.000000	65.365767 
3098.000000	65.374255 
3097.000000	65.377402 
3096.000000	65.373873 
3095.000000	65.362477 
3094.000000	65.342473 
3093.000000	65.314245 
3092.000000	65.279436 
3091.000000	65.240907 
3090.000000	65.202355 
3089.000000	65.167665 
3088.000000	65.139913 
3087.000000	65.120840 
3086.000000	65.110611 
3085.000000	65.108203 
3084.000000	65.111541 
3083.000000	65.118527 
3082.000000	65.127420 
3081.000000	65.137553 
3080.000000	65.148878 
3079.000000	65.162301 
3078.000000	65.178346 
3077.000000	65.197277 
3076.000000	65.218448 
3075.000000	65.240049 
3074.000000	65.259766 
3073.000000	65.274858 
3072.000000	65.283298 
3071.000000	65.283775 
3070.000000	65.276408 
3069.000000	65.262317 
3068.000000	65.243554 
3067.000000	65.222311 
3066.000000	65.200471 
3065.000000	65.179300 
3064.000000	65.159296 
3063.000000	65.140342 
3062.000000	65.121936 
3061.000000	65.103793 
3060.000000	65.085959 
3059.000000	65.068793 
3058.000000	65.053033 
3057.000000	65.039491 
3056.000000	65.029048 
3055.000000	65.022325 
3054.000000	65.019893 
3053.000000	65.021896 
3052.000000	65.028429 
3051.000000	65.039420 
3050.000000	65.054655 
3049.000000	65.073513 
3048.000000	65.095257 
3047.000000	65.118885 
3046.000000	65.143060 
3045.000000	65.166521 
3044.000000	65.187859 
3043.000000	65.205931 
3042.000000	65.219759 
3041.000000	65.228748 
3040.000000	65.232682 
3039.000000	65.231800 
3038.000000	65.226626 
3037.000000	65.218210 
3036.000000	65.207743 
3035.000000	65.196442 
3034.000000	65.185809 
3033.000000	65.177249 
3032.000000	65.171766 
3031.000000	65.169644 
3030.000000	65.170550 
3029.000000	65.173578 
3028.000000	65.177464 
3027.000000	65.180921 
3026.000000	65.182757 
3025.000000	65.182590 
3024.000000	65.180802 
3023.000000	65.178728 
3022.000000	65.178036 
3021.000000	65.180540 
3020.000000	65.187668 
3019.000000	65.199995 
3018.000000	65.216803 
3017.000000	65.236282 
3016.000000	65.255880 
3015.000000	65.272736 
3014.000000	65.284466 
3013.000000	65.289759 
3012.000000	65.288782 
3011.000000	65.283179 
3010.000000	65.275549 
3009.000000	65.269041 
3008.000000	65.266394 
3007.000000	65.269255 
3006.000000	65.277528 
3005.000000	65.289425 
3004.000000	65.301537 
3003.000000	65.309906 
3002.000000	65.310668 
3001.000000	65.301012 
3000.000000	65.279746 
2999.000000	65.247631 
2998.000000	65.207314 
2997.000000	65.162587 
2996.000000	65.117859 
2995.000000	65.077209 
2994.000000	65.043878 
2993.000000	65.019750 
2992.000000	65.005540 
2991.000000	65.000772 
2990.000000	65.004301 
2989.000000	65.014648 
2988.000000	65.030169 
2987.000000	65.049028 
2986.000000	65.069317 
2985.000000	65.089011 
2984.000000	65.105915 
2983.000000	65.117812 
2982.000000	65.123033 
2981.000000	65.120792 
2980.000000	65.111684 
2979.000000	65.097498 
2978.000000	65.081119 
2977.000000	65.065813 
2976.000000	65.054798 
2975.000000	65.050148 
2974.000000	65.052580 
2973.000000	65.060997 
2972.000000	65.073156 
2971.000000	65.086078 
2970.000000	65.097022 
2969.000000	65.103793 
2968.000000	65.105581 
2967.000000	65.102529 
2966.000000	65.095591 
2965.000000	65.085935 
2964.000000	65.074467 
2963.000000	65.061616 
2962.000000	65.047359 
2961.000000	65.031409 
2960.000000	65.013813 
2959.000000	64.994883 
2958.000000	64.975476 
2957.000000	64.956736 
2956.000000	64.940142 
2955.000000	64.926958 
2954.000000	64.918065 
2953.000000	64.913678 
2952.000000	64.913511 
2951.000000	64.916753 
2950.000000	64.922642 
2949.000000	64.930367 
2948.000000	64.939522 
2947.000000	64.949989 
2946.000000	64.961862 
2945.000000	64.975214 
2944.000000	64.989709 
2943.000000	65.004491 
2942.000000	65.017962 
2941.000000	65.028214 
2940.000000	65.033030 
2939.000000	65.030312 
2938.000000	65.018725 
2937.000000	64.998173 
2936.000000	64.970159 
2935.000000	64.937710 
2934.000000	64.905166 
2933.000000	64.877223 
2932.000000	64.857935 
2931.000000	64.849925 
2930.000000	64.853572 
2929.000000	64.867258 
2928.000000	64.887619 
2927.000000	64.910387 
2926.000000	64.931750 
2925.000000	64.948916 
2924.000000	64.960551 
2923.000000	64.967036 
2922.000000	64.969682 
2921.000000	64.970374 
2920.000000	64.970660 
2919.000000	64.971375 
2918.000000	64.972448 
2917.000000	64.973139 
2916.000000	64.972805 
2915.000000	64.970803 
2914.000000	64.967441 
2913.000000	64.963293 
2912.000000	64.959287 
2911.000000	64.956092 
2910.000000	64.953899 
2909.000000	64.952492 
2908.000000	64.951181 
2907.000000	64.949464 
2906.000000	64.947223 
2905.000000	64.945077 
2904.000000	64.944148 
2903.000000	64.945983 
2902.000000	64.952063 
2901.000000	64.963364 
2900.000000	64.979815 
2899.000000	65.000534 
2898.000000	65.023851 
2897.000000	65.047764 
2896.000000	65.070056 
2895.000000	65.088963 
2894.000000	65.103125 
2893.000000	65.111875 
2892.000000	65.114831 
2891.000000	65.112090 
2890.000000	65.103912 
2889.000000	65.090966 
2888.000000	65.074348 
2887.000000	65.055775 
2886.000000	65.037488 
2885.000000	65.021800 
2884.000000	65.010905 
2883.000000	65.006208 
2882.000000	65.008115 
2881.000000	65.016031 
2880.000000	65.028262 
2879.000000	65.042543 
2878.000000	65.056681 
2877.000000	65.069150 
2876.000000	65.079450 
2875.000000	65.088152 
2874.000000	65.096712 
2873.000000	65.106868 
2872.000000	65.119957 
2871.000000	65.136289 
2870.000000	65.154743 
2869.000000	65.172982 
2868.000000	65.187907 
2867.000000	65.196371 
2866.000000	65.196323 
2865.000000	65.187072 
2864.000000	65.169811 
2863.000000	65.147185 
2862.000000	65.122890 
2861.000000	65.100550 
2860.000000	65.083146 
2859.000000	65.072011 
2858.000000	65.066862 
2857.000000	65.065765 
2856.000000	65.066003 
2855.000000	65.064620 
2854.000000	65.059518 
2853.000000	65.049743 
2852.000000	65.035748 
2851.000000	65.019392 
2850.000000	65.003132 
2849.000000	64.989566 
2848.000000	64.980840 
2847.000000	64.978170 
2846.000000	64.981675 
2845.000000	64.990496 
2844.000000	65.003013 
2843.000000	65.017127 
2842.000000	65.030908 
2841.000000	65.042495 
2840.000000	65.050840 
2839.000000	65.055704 
2838.000000	65.057611 
2837.000000	65.057706 
2836.000000	65.057444 
2835.000000	65.058159 
2834.000000	65.060615 
2833.000000	65.065050 
2832.000000	65.070557 
2831.000000	65.075540 
2830.000000	65.077829 
2829.000000	65.075635 
2828.000000	65.067720 
2827.000000	65.053963 
2826.000000	65.035676 
2825.000000	65.015387 
2824.000000	64.996433 
2823.000000	64.982342 
2822.000000	64.976143 
2821.000000	64.979553 
2820.000000	64.992833 
2819.000000	65.014696 
2818.000000	65.042495 
2817.000000	65.072727 
2816.000000	65.101456 
2815.000000	65.124988 
2814.000000	65.140247 
2813.000000	65.145492 
2812.000000	65.140271 
2811.000000	65.125703 
2810.000000	65.104103 
2809.000000	65.078949 
2808.000000	65.054321 
2807.000000	65.034079 
2806.000000	65.021467 
2805.000000	65.018439 
2804.000000	65.025568 
2803.000000	65.041708 
2802.000000	65.064382 
2801.000000	65.090012 
2800.000000	65.114688 
2799.000000	65.134835 
2798.000000	65.147757 
2797.000000	65.151882 
2796.000000	65.147089 
2795.000000	65.134453 
2794.000000	65.115976 
2793.000000	65.094065 
2792.000000	65.071153 
2791.000000	65.049505 
2790.000000	65.031003 
2789.000000	65.017199 
2788.000000	65.009188 
2787.000000	65.007901 
2786.000000	65.013480 
2785.000000	65.025687 
2784.000000	65.043354 
2783.000000	65.064215 
2782.000000	65.085363 
2781.000000	65.103340 
2780.000000	65.114831 
2779.000000	65.117287 
2778.000000	65.109539 
2777.000000	65.092086 
2776.000000	65.067195 
2775.000000	65.038490 
2774.000000	65.010428 
2773.000000	64.987421 
2772.000000	64.972853 
2771.000000	64.968657 
2770.000000	64.974665 
2769.000000	64.989066 
2768.000000	65.008616 
2767.000000	65.029454 
2766.000000	65.048074 
2765.000000	65.061831 
2764.000000	65.069460 
2763.000000	65.071153 
2762.000000	65.068221 
2761.000000	65.062808 
2760.000000	65.057182 
2759.000000	65.053272 
2758.000000	65.052604 
2757.000000	65.055704 
2756.000000	65.062737 
2755.000000	65.073060 
2754.000000	65.085673 
2753.000000	65.099096 
2752.000000	65.111732 
2751.000000	65.121793 
2750.000000	65.127730 
2749.000000	65.128421 
2748.000000	65.123295 
2747.000000	65.112900 
2746.000000	65.098595 
2745.000000	65.082716 
2744.000000	65.068101 
2743.000000	65.057325 
2742.000000	65.052318 
2741.000000	65.053796 
2740.000000	65.061044 
2739.000000	65.072059 
2738.000000	65.083885 
2737.000000	65.093421 
2736.000000	65.098071 
2735.000000	65.096378 
2734.000000	65.088295 
2733.000000	65.075230 
2732.000000	65.059447 
2731.000000	65.043425 
2730.000000	65.029406 
2729.000000	65.018773 
2728.000000	65.011787 
2727.000000	65.007662 
2726.000000	65.005016 
2725.000000	65.002346 
2724.000000	64.998579 
2723.000000	64.993453 
2722.000000	64.987587 
2721.000000	64.982008 
2720.000000	64.978075 
2719.000000	64.977002 
2718.000000	64.979386 
2717.000000	64.984965 
2716.000000	64.992713 
2715.000000	65.000987 
2714.000000	65.007996 
2713.000000	65.012335 
2712.000000	65.013337 
2711.000000	65.011239 
2710.000000	65.007233 
2709.000000	65.003228 
2708.000000	65.001392 
2707.000000	65.003514 
2706.000000	65.010881 
2705.000000	65.023636 
2704.000000	65.041232 
2703.000000	65.062189 
2702.000000	65.084671 
2701.000000	65.106630 
2700.000000	65.126109 
2699.000000	65.141606 
2698.000000	65.152287 
2697.000000	65.157794 
2696.000000	65.158295 
2695.000000	65.154314 
2694.000000	65.146684 
2693.000000	65.136408 
2692.000000	65.124416 
2691.000000	65.111684 
2690.000000	65.098929 
2689.000000	65.086627 
2688.000000	65.075039 
2687.000000	65.064096 
2686.000000	65.053653 
2685.000000	65.043520 
2684.000000	65.033650 
2683.000000	65.024137 
2682.000000	65.015149 
2681.000000	65.006828 
2680.000000	64.999485 
2679.000000	64.993000 
2678.000000	64.987301 
2677.000000	64.982247 
2676.000000	64.977669 
2675.000000	64.973711 
2674.000000	64.970421 
2673.000000	64.968228 
2672.000000	64.967417 
2671.000000	64.968061 
2670.000000	64.969992 
2669.000000	64.972567 
2668.000000	64.974999 
2667.000000	64.976358 
2666.000000	64.976048 
2665.000000	64.973998 
2664.000000	64.970779 
2663.000000	64.967584 
2662.000000	64.965701 
2661.000000	64.966392 
2660.000000	64.970183 
2659.000000	64.976930 
2658.000000	64.985513 
2657.000000	64.994263 
2656.000000	65.001296 
2655.000000	65.005254 
2654.000000	65.005469 
2653.000000	65.002393 
2652.000000	64.997339 
2651.000000	64.992260 
2650.000000	64.989209 
2649.000000	64.989924 
2648.000000	64.995145 
2647.000000	65.004849 
2646.000000	65.017962 
2645.000000	65.032863 
2644.000000	65.047907 
2643.000000	65.061688 
2642.000000	65.073204 
2641.000000	65.082073 
2640.000000	65.088343 
2639.000000	65.092301 
2638.000000	65.094256 
2637.000000	65.094304 
2636.000000	65.092277 
2635.000000	65.088176 
2634.000000	65.082120 
2633.000000	65.074658 
2632.000000	65.066599 
2631.000000	65.059065 
2630.000000	65.053129 
2629.000000	65.049481 
2628.000000	65.048074 
2627.000000	65.048265 
2626.000000	65.048885 
2625.000000	65.048289 
2624.000000	65.045309 
2623.000000	65.039396 
2622.000000	65.031123 
2621.000000	65.022063 
2620.000000	65.014648 
2619.000000	65.011572 
2618.000000	65.015292 
2617.000000	65.027284 
2616.000000	65.047621 
2615.000000	65.074729 
2614.000000	65.105509 
2613.000000	65.135931 
2612.000000	65.161728 
2611.000000	65.179181 
2610.000000	65.185809 
2609.000000	65.180778 
2608.000000	65.164923 
2607.000000	65.140795 
2606.000000	65.111947 
2605.000000	65.082192 
2604.000000	65.054988 
2603.000000	65.032768 
2602.000000	65.016651 
2601.000000	65.006542 
2600.000000	65.001201 
2599.000000	64.999055 
2598.000000	64.998316 
2597.000000	64.998006 
2596.000000	64.997529 
2595.000000	64.997434 
2594.000000	64.998602 
2593.000000	65.002322 
2592.000000	65.009808 
2591.000000	65.021991 
2590.000000	65.038847 
2589.000000	65.059518 
2588.000000	65.082335 
2587.000000	65.104842 
2586.000000	65.124368 
2585.000000	65.138435 
2584.000000	65.145277 
2583.000000	65.144085 
2582.000000	65.135145 
2581.000000	65.119886 
2580.000000	65.100407 
2579.000000	65.079188 
2578.000000	65.058565 
2577.000000	65.040326 
2576.000000	65.025877 
2575.000000	65.015912 
2574.000000	65.010952 
2573.000000	65.011143 
2572.000000	65.016508 
2571.000000	65.027093 
2570.000000	65.042734 
2569.000000	65.062665 
2568.000000	65.085649 
2567.000000	65.109610 
2566.000000	65.132141 
2565.000000	65.150618 
2564.000000	65.162706 
2563.000000	65.167117 
2562.000000	65.163612 
2561.000000	65.153312 
2560.000000	65.138268 
2559.000000	65.121126 
2558.000000	65.104150 
2557.000000	65.089035 
2556.000000	65.076279 
2555.000000	65.065383 
2554.000000	65.055203 
2553.000000	65.044665 
2552.000000	65.033102 
2551.000000	65.020823 
2550.000000	65.009140 
2549.000000	65.000152 
2548.000000	64.996004 
2547.000000	64.998626 
2546.000000	65.008831 
2545.000000	65.026521 
2544.000000	65.050530 
2543.000000	65.079021 
2542.000000	65.109944 
2541.000000	65.141463 
2540.000000	65.172266 
2539.000000	65.201544 
2538.000000	65.228891 
2537.000000	65.253996 
2536.000000	65.276384 
2535.000000	65.295100 
2534.000000	65.309214 
2533.000000	65.317630 
2532.000000	65.319824 
2531.000000	65.315628 
2530.000000	65.305948 
2529.000000	65.292167 
2528.000000	65.276312 
2527.000000	65.260124 
2526.000000	65.245008 
2525.000000	65.231537 
2524.000000	65.219616 
2523.000000	65.208530 
2522.000000	65.197563 
2521.000000	65.186214 
2520.000000	65.174627 
2519.000000	65.163350 
2518.000000	65.153479 
2517.000000	65.146088 
2516.000000	65.141963 
2515.000000	65.141367 
2514.000000	65.143895 
2513.000000	65.148425 
2512.000000	65.153622 
2511.000000	65.158152 
2510.000000	65.161037 
2509.000000	65.161538 
2508.000000	65.159559 
2507.000000	65.155339 
2506.000000	65.149235 
2505.000000	65.141654 
2504.000000	65.132713 
2503.000000	65.122246 
2502.000000	65.109825 
2501.000000	65.095043 
2500.000000	65.077543 
2499.000000	65.057206 
2498.000000	65.034413 
2497.000000	65.010023 
2496.000000	64.985227 
2495.000000	64.961791 
2494.000000	64.941549 
2493.000000	64.926338 
2492.000000	64.917707 
2491.000000	64.916515 
2490.000000	64.922904 
2489.000000	64.936041 
2488.000000	64.954233 
2487.000000	64.975214 
2486.000000	64.996337 
2485.000000	65.015125 
2484.000000	65.029478 
2483.000000	65.038228 
2482.000000	65.041208 
2481.000000	65.039420 
2480.000000	65.034580 
2479.000000	65.028953 
2478.000000	65.024685 
2477.000000	65.023326 
2476.000000	65.025568 
2475.000000	65.030980 
2474.000000	65.038156 
2473.000000	65.045213 
2472.000000	65.050339 
2471.000000	65.052199 
2470.000000	65.050387 
2469.000000	65.045189 
2468.000000	65.037584 
2467.000000	65.028929 
2466.000000	65.020585 
2465.000000	65.013480 
2464.000000	65.008020 
2463.000000	65.004277 
2462.000000	65.002012 
2461.000000	65.000844 
2460.000000	65.000534 
2459.000000	65.000939 
2458.000000	65.002298 
2457.000000	65.004801 
2456.000000	65.008783 
2455.000000	65.014076 
2454.000000	65.020298 
2453.000000	65.026807 
2452.000000	65.032672 
2451.000000	65.036869 
2450.000000	65.038228 
2449.000000	65.035891 
2448.000000	65.029311 
2447.000000	65.018510 
2446.000000	65.004253 
2445.000000	64.987993 
2444.000000	64.971852 
2443.000000	64.958262 
2442.000000	64.949703 
2441.000000	64.948105 
2440.000000	64.954352 
2439.000000	64.968180 
2438.000000	64.988398 
2437.000000	65.012931 
2436.000000	65.039420 
2435.000000	65.065145 
2434.000000	65.087819 
2433.000000	65.105509 
2432.000000	65.116858 
2431.000000	65.121316 
2430.000000	65.118551 
2429.000000	65.108752 
2428.000000	65.092635 
2427.000000	65.071296 
2426.000000	65.046381 
2425.000000	65.019869 
2424.000000	64.994287 
2423.000000	64.972281 
2422.000000	64.956474 
2421.000000	64.949107 
2420.000000	64.951515 
2419.000000	64.963960 
2418.000000	64.985394 
2417.000000	65.013432 
2416.000000	65.044474 
2415.000000	65.073776 
2414.000000	65.096282 
2413.000000	65.107178 
2412.000000	65.103006 
2411.000000	65.082097 
2410.000000	65.045547 
2409.000000	64.997005 
2408.000000	64.942240 
2407.000000	64.888525 
2406.000000	64.843106 
2405.000000	64.811968 
2404.000000	64.798855 
2403.000000	64.804720 
2402.000000	64.827752 
2401.000000	64.863657 
2400.000000	64.906930 
2399.000000	64.951658 
2398.000000	64.992928 
2397.000000	65.027236 
2396.000000	65.053033 
2395.000000	65.070319 
2394.000000	65.080595 
2393.000000	65.086126 
2392.000000	65.089106 
2391.000000	65.091300 
2390.000000	65.093994 
2389.000000	65.097856 
2388.000000	65.103101 
2387.000000	65.109133 
2386.000000	65.115332 
2385.000000	65.120673 
2384.000000	65.124273 
2383.000000	65.125250 
2382.000000	65.122795 
2381.000000	65.116286 
2380.000000	65.105533 
2379.000000	65.090775 
2378.000000	65.072607 
2377.000000	65.052080 
2376.000000	65.030503 
2375.000000	65.009260 
2374.000000	64.989566 
2373.000000	64.972639 
2372.000000	64.959049 
2371.000000	64.949178 
2370.000000	64.942955 
2369.000000	64.940595 
2368.000000	64.942479 
2367.000000	64.949107 
2366.000000	64.960932 
2365.000000	64.978218 
2364.000000	65.000796 
2363.000000	65.027570 
2362.000000	65.056490 
2361.000000	65.084838 
2360.000000	65.109658 
2359.000000	65.128207 
2358.000000	65.138339 
2357.000000	65.138912 
2356.000000	65.130114 
2355.000000	65.113162 
2354.000000	65.090084 
2353.000000	65.063691 
2352.000000	65.036535 
2351.000000	65.011334 
2350.000000	64.990067 
2349.000000	64.974141 
2348.000000	64.964103 
2347.000000	64.959931 
2346.000000	64.961051 
2345.000000	64.966297 
2344.000000	64.974641 
2343.000000	64.984703 
2342.000000	64.995551 
2341.000000	65.006422 
2340.000000	65.016889 
2339.000000	65.026664 
2338.000000	65.035510 
2337.000000	65.042853 
2336.000000	65.047836 
2335.000000	65.049481 
2334.000000	65.047001 
2333.000000	65.039896 
2332.000000	65.028476 
2331.000000	65.013837 
2330.000000	64.997887 
2329.000000	64.982819 
2328.000000	64.970755 
2327.000000	64.963221 
2326.000000	64.960980 
2325.000000	64.963817 
2324.000000	64.970493 
2323.000000	64.979147 
2322.000000	64.987826 
2321.000000	64.994835 
2320.000000	64.999055 
2319.000000	65.000271 
2318.000000	64.998960 
2317.000000	64.996266 
2316.000000	64.993619 
2315.000000	64.992451 
2314.000000	64.993786 
2313.000000	64.998173 
2312.000000	65.005731 
2311.000000	65.015769 
2310.000000	65.027260 
2309.000000	65.038847 
2308.000000	65.049099 
2307.000000	65.056777 
2306.000000	65.060949 
2305.000000	65.061211 
2304.000000	65.057563 
2303.000000	65.050292 
2302.000000	65.039944 
2301.000000	65.026998 
2300.000000	65.011882 
2299.000000	64.994907 
2298.000000	64.976048 
2297.000000	64.955377 
2296.000000	64.933276 
2295.000000	64.910244 
2294.000000	64.887213 
2293.000000	64.865398 
2292.000000	64.846467 
2291.000000	64.831876 
2290.000000	64.823198 
2289.000000	64.821267 
2288.000000	64.826440 
2287.000000	64.838242 
2286.000000	64.855623 
2285.000000	64.876866 
2284.000000	64.899849 
2283.000000	64.922237 
2282.000000	64.941859 
2281.000000	64.956903 
2280.000000	64.966177 
2279.000000	64.969301 
2278.000000	64.966607 
2277.000000	64.959216 
2276.000000	64.948773 
2275.000000	64.937162 
2274.000000	64.926099 
2273.000000	64.917016 
2272.000000	64.910769 
2271.000000	64.907455 
2270.000000	64.906764 
2269.000000	64.907932 
2268.000000	64.910125 
2267.000000	64.912557 
2266.000000	64.914798 
2265.000000	64.916896 
2264.000000	64.919066 
2263.000000	64.921951 
2262.000000	64.925980 
2261.000000	64.931774 
2260.000000	64.939570 
2259.000000	64.949464 
2258.000000	64.961123 
2257.000000	64.974021 
2256.000000	64.987325 
2255.000000	65.000009 
2254.000000	65.010929 
2253.000000	65.019011 
2252.000000	65.023374 
2251.000000	65.023517 
2250.000000	65.019321 
2249.000000	65.011262 
2248.000000	65.000200 
2247.000000	64.987516 
2246.000000	64.974617 
2245.000000	64.962911 
2244.000000	64.953374 
2243.000000	64.946556 
2242.000000	64.942312 
2241.000000	64.939880 
2240.000000	64.937901 
2239.000000	64.935016 
2238.000000	64.929819 
2237.000000	64.921283 
2236.000000	64.909076 
2235.000000	64.893507 
2234.000000	64.875864 
2233.000000	64.857959 
2232.000000	64.842009 
2231.000000	64.829993 
2230.000000	64.823412 
2229.000000	64.822816 
2228.000000	64.827847 
2227.000000	64.837431 
2226.000000	64.850139 
2225.000000	64.864492 
2224.000000	64.879393 
2223.000000	64.894104 
2222.000000	64.908218 
2221.000000	64.921498 
2220.000000	64.933443 
2219.000000	64.943361 
2218.000000	64.950156 
2217.000000	64.952802 
2216.000000	64.950680 
2215.000000	64.944028 
2214.000000	64.934015 
2213.000000	64.922738 
2212.000000	64.912939 
2211.000000	64.907073 
2210.000000	64.906764 
2209.000000	64.912319 
2208.000000	64.922618 
2207.000000	64.935517 
2206.000000	64.948439 
2205.000000	64.959168 
2204.000000	64.966535 
2203.000000	64.970278 
2202.000000	64.971113 
2201.000000	64.970088 
2200.000000	64.968156 
2199.000000	64.965796 
2198.000000	64.962792 
2197.000000	64.958477 
2196.000000	64.951992 
2195.000000	64.942884 
2194.000000	64.931130 
2193.000000	64.917445 
2192.000000	64.903020 
2191.000000	64.889359 
2190.000000	64.877843 
2189.000000	64.868998 
2188.000000	64.862656 
2187.000000	64.857959 
2186.000000	64.853692 
2185.000000	64.848589 
2184.000000	64.841938 
2183.000000	64.833760 
2182.000000	64.824986 
2181.000000	64.816832 
2180.000000	64.811134 
2179.000000	64.809489 
2178.000000	64.813017 
2177.000000	64.822101 
2176.000000	64.836144 
2175.000000	64.853954 
2174.000000	64.873790 
2173.000000	64.893865 
2172.000000	64.912819 
2171.000000	64.929962 
2170.000000	64.945149 
2169.000000	64.958524 
2168.000000	64.969992 
2167.000000	64.979076 
2166.000000	64.984583 
2165.000000	64.985156 
2164.000000	64.979743 
2163.000000	64.967870 
2162.000000	64.950585 
2161.000000	64.929986 
2160.000000	64.908909 
2159.000000	64.890265 
2158.000000	64.876413 
2157.000000	64.868283 
2156.000000	64.865350 
2155.000000	64.865684 
2154.000000	64.866542 
2153.000000	64.865231 
2152.000000	64.859819 
2151.000000	64.849615 
2150.000000	64.835286 
2149.000000	64.818477 
2148.000000	64.801168 
2147.000000	64.785099 
2146.000000	64.771389 
2145.000000	64.760470 
2144.000000	64.752197 
2143.000000	64.746308 
2142.000000	64.742708 
2141.000000	64.741778 
2140.000000	64.744329 
2139.000000	64.751076 
2138.000000	64.762639 
2137.000000	64.779138 
2136.000000	64.800167 
2135.000000	64.824533 
2134.000000	64.850544 
2133.000000	64.876222 
2132.000000	64.899396 
2131.000000	64.918398 
2130.000000	64.931917 
2129.000000	64.939427 
2128.000000	64.940953 
2127.000000	64.937424 
2126.000000	64.930105 
2125.000000	64.920425 
2124.000000	64.909768 
2123.000000	64.899420 
2122.000000	64.890313 
2121.000000	64.882898 
2120.000000	64.877176 
2119.000000	64.872860 
2118.000000	64.869308 
2117.000000	64.866018 
2116.000000	64.862442 
2115.000000	64.858269 
2114.000000	64.853191 
2113.000000	64.847230 
2112.000000	64.840412 
2111.000000	64.832973 
2110.000000	64.825224 
2109.000000	64.817523 
2108.000000	64.810371 
2107.000000	64.804220 
2106.000000	64.799332 
2105.000000	64.795899 
2104.000000	64.793777 
2103.000000	64.792919 
2102.000000	64.793467 
2101.000000	64.795732 
2100.000000	64.800119 
2099.000000	64.806985 
2098.000000	64.816784 
2097.000000	64.829468 
2096.000000	64.844393 
2095.000000	64.860320 
2094.000000	64.875602 
2093.000000	64.888381 
2092.000000	64.896845 
2091.000000	64.899611 
2090.000000	64.896011 
2089.000000	64.886379 
2088.000000	64.872193 
2087.000000	64.855551 
2086.000000	64.839148 
2085.000000	64.825916 
2084.000000	64.818453 
2083.000000	64.818692 
2082.000000	64.827251 
2081.000000	64.843773 
2080.000000	64.866328 
2079.000000	64.892053 
2078.000000	64.917159 
2077.000000	64.937758 
2076.000000	64.950489 
2075.000000	64.953017 
2074.000000	64.944219 
2073.000000	64.924621 
2072.000000	64.895749 
2071.000000	64.860081 
2070.000000	64.820313 
2069.000000	64.779043 
2068.000000	64.738631 
2067.000000	64.701151 
2066.000000	64.668488 
2065.000000	64.642405 
2064.000000	64.624810 
2063.000000	64.617300 
2062.000000	64.620923 
2061.000000	64.635968 
2060.000000	64.661502 
2059.000000	64.695525 
2058.000000	64.734816 
2057.000000	64.775657 
2056.000000	64.814496 
2055.000000	64.848637 
2054.000000	64.876484 
2053.000000	64.897704 
2052.000000	64.913058 
2051.000000	64.923691 
2050.000000	64.930891 
2049.000000	64.935445 
2048.000000	64.937710 
2047.000000	64.937520 
2046.000000	64.934706 
2045.000000	64.929246 
2044.000000	64.921808 
2043.000000	64.913606 
2042.000000	64.906501 
2041.000000	64.902448 
2040.000000	64.903092 
2039.000000	64.909434 
2038.000000	64.921379 
2037.000000	64.937710 
2036.000000	64.956188 
2035.000000	64.974117 
2034.000000	64.988923 
2033.000000	64.998269 
2032.000000	65.000510 
2031.000000	64.995169 
2030.000000	64.982676 
2029.000000	64.964437 
2028.000000	64.942526 
2027.000000	64.919185 
2026.000000	64.896631 
2025.000000	64.876842 
2024.000000	64.861106 
2023.000000	64.849805 
2022.000000	64.842987 
2021.000000	64.840221 
2020.000000	64.841032 
2019.000000	64.844727 
2018.000000	64.850807 
2017.000000	64.858698 
2016.000000	64.867782 
2015.000000	64.877367 
2014.000000	64.886522 
2013.000000	64.894223 
2012.000000	64.899468 
2011.000000	64.901566 
2010.000000	64.900326 
2009.000000	64.896368 
2008.000000	64.890861 
2007.000000	64.885544 
2006.000000	64.882159 
2005.000000	64.882278 
2004.000000	64.886736 
2003.000000	64.895534 
2002.000000	64.907813 
2001.000000	64.921879 
2000.000000	64.935779 
1999.000000	64.947414 
1998.000000	64.954948 
1997.000000	64.957070 
1996.000000	64.953136 
1995.000000	64.943265 
1994.000000	64.928197 
1993.000000	64.909291 
1992.000000	64.888310 
1991.000000	64.867162 
1990.000000	64.847612 
1989.000000	64.831161 
1988.000000	64.818811 
1987.000000	64.810991 
1986.000000	64.807701 
1985.000000	64.808320 
1984.000000	64.812040 
1983.000000	64.817976 
1982.000000	64.825510 
1981.000000	64.834165 
1980.000000	64.843845 
1979.000000	64.854812 
1978.000000	64.867377 
1977.000000	64.881849 
1976.000000	64.898014 
1975.000000	64.915251 
1974.000000	64.932203 
1973.000000	64.947271 
1972.000000	64.958572 
1971.000000	64.964461 
1970.000000	64.963650 
1969.000000	64.955806 
1968.000000	64.941453 
1967.000000	64.922261 
1966.000000	64.900326 
1965.000000	64.878177 
1964.000000	64.857983 
1963.000000	64.841222 
1962.000000	64.828419 
1961.000000	64.819359 
1960.000000	64.813303 
1959.000000	64.809393 
1958.000000	64.807081 
1957.000000	64.806103 
1956.000000	64.806342 
1955.000000	64.807701 
1954.000000	64.809775 
1953.000000	64.811944 
1952.000000	64.813399 
1951.000000	64.813494 
1950.000000	64.812016 
1949.000000	64.809274 
1948.000000	64.806127 
1947.000000	64.803338 
1946.000000	64.801764 
1945.000000	64.801716 
1944.000000	64.802861 
1943.000000	64.804387 
1942.000000	64.805030 
1941.000000	64.803743 
1940.000000	64.799880 
1939.000000	64.793539 
1938.000000	64.785528 
1937.000000	64.777016 
1936.000000	64.769172 
1935.000000	64.762806 
1934.000000	64.758062 
1933.000000	64.754843 
1932.000000	64.752721 
1931.000000	64.751458 
1930.000000	64.751315 
1929.000000	64.753031 
1928.000000	64.757633 
1927.000000	64.766168 
1926.000000	64.779329 
1925.000000	64.797329 
1924.000000	64.819622 
1923.000000	64.845228 
1922.000000	64.872431 
1921.000000	64.899539 
1920.000000	64.924550 
1919.000000	64.945960 
1918.000000	64.962410 
1917.000000	64.973235 
1916.000000	64.978122 
1915.000000	64.977312 
1914.000000	64.971375 
1913.000000	64.961338 
1912.000000	64.948391 
1911.000000	64.934039 
1910.000000	64.919447 
1909.000000	64.905619 
1908.000000	64.892983 
1907.000000	64.881610 
1906.000000	64.870953 
1905.000000	64.860343 
1904.000000	64.849090 
1903.000000	64.836978 
1902.000000	64.824390 
1901.000000	64.812397 
1900.000000	64.802694 
1899.000000	64.797139 
1898.000000	64.797425 
1897.000000	64.804601 
1896.000000	64.818549 
1895.000000	64.837837 
1894.000000	64.860010 
1893.000000	64.881753 
1892.000000	64.899516 
1891.000000	64.910197 
1890.000000	64.911866 
1889.000000	64.904117 
1888.000000	64.887928 
1887.000000	64.865851 
1886.000000	64.841318 
1885.000000	64.817976 
1884.000000	64.799284 
1883.000000	64.787459 
1882.000000	64.783358 
1881.000000	64.786314 
1880.000000	64.794635 
1879.000000	64.805960 
1878.000000	64.817905 
1877.000000	64.828491 
1876.000000	64.836692 
1875.000000	64.842319 
1874.000000	64.846038 
1873.000000	64.848804 
1872.000000	64.851379 
1871.000000	64.854121 
1870.000000	64.856600 
1869.000000	64.857912 
1868.000000	64.856743 
1867.000000	64.851927 
1866.000000	64.842605 
1865.000000	64.828848 
1864.000000	64.811515 
1863.000000	64.792060 
1862.000000	64.772534 
1861.000000	64.754867 
1860.000000	64.740824 
1859.000000	64.731836 
1858.000000	64.728760 
1857.000000	64.731836 
1856.000000	64.740705 
1855.000000	64.754319 
1854.000000	64.771008 
1853.000000	64.788770 
1852.000000	64.805173 
1851.000000	64.817690 
1850.000000	64.824199 
1849.000000	64.823365 
1848.000000	64.814758 
1847.000000	64.799308 
1846.000000	64.779090 
1845.000000	64.756989 
1844.000000	64.736127 
1843.000000	64.719390 
1842.000000	64.708733 
1841.000000	64.705038 
1840.000000	64.707994 
1839.000000	64.716219 
1838.000000	64.727830 
1837.000000	64.740657 
1836.000000	64.752745 
1835.000000	64.762544 
1834.000000	64.768958 
1833.000000	64.771676 
1832.000000	64.770793 
1831.000000	64.766931 
1830.000000	64.761114 
1829.000000	64.754462 
1828.000000	64.748167 
1827.000000	64.743137 
1826.000000	64.740157 
1825.000000	64.739727 
1824.000000	64.742040 
1823.000000	64.746928 
1822.000000	64.754033 
1821.000000	64.762973 
1820.000000	64.773344 
1819.000000	64.784789 
1818.000000	64.796781 
1817.000000	64.808702 
1816.000000	64.819693 
1815.000000	64.828658 
1814.000000	64.834451 
1813.000000	64.836120 
1812.000000	64.832949 
1811.000000	64.825201 
1810.000000	64.813637 
1809.000000	64.799666 
1808.000000	64.785051 
1807.000000	64.771652 
1806.000000	64.761042 
1805.000000	64.754176 
1804.000000	64.751291 
1803.000000	64.751982 
1802.000000	64.755249 
1801.000000	64.760088 
1800.000000	64.765357 
1799.000000	64.770054 
1798.000000	64.773464 
1797.000000	64.775156 
1796.000000	64.775037 
1795.000000	64.773058 
1794.000000	64.769482 
1793.000000	64.764881 
1792.000000	64.759874 
1791.000000	64.755439 
1790.000000	64.752435 
1789.000000	64.751648 
1788.000000	64.753437 
1787.000000	64.757657 
1786.000000	64.763879 
1785.000000	64.771413 
1784.000000	64.779496 
1783.000000	64.787530 
1782.000000	64.795541 
1781.000000	64.803910 
1780.000000	64.813280 
1779.000000	64.824199 
1778.000000	64.837074 
1777.000000	64.851450 
1776.000000	64.866232 
1775.000000	64.879560 
1774.000000	64.889383 
1773.000000	64.894008 
1772.000000	64.892435 
1771.000000	64.884638 
1770.000000	64.871811 
1769.000000	64.856004 
1768.000000	64.839673 
1767.000000	64.825201 
1766.000000	64.814257 
1765.000000	64.807510 
1764.000000	64.804458 
1763.000000	64.803791 
1762.000000	64.803647 
1761.000000	64.802169 
1760.000000	64.797878 
1759.000000	64.790225 
1758.000000	64.779186 
1757.000000	64.765524 
1756.000000	64.749908 
1755.000000	64.733099 
1754.000000	64.715194 
1753.000000	64.696049 
1752.000000	64.675068 
1751.000000	64.651656 
1750.000000	64.625597 
1749.000000	64.597392 
1748.000000	64.568400 
1747.000000	64.540505 
1746.000000	64.516019 
1745.000000	64.497017 
1744.000000	64.485049 
1743.000000	64.480638 
1742.000000	64.483451 
1741.000000	64.491939 
1740.000000	64.504218 
1739.000000	64.518070 
1738.000000	64.531493 
1737.000000	64.542913 
1736.000000	64.551043 
1735.000000	64.555048 
1734.000000	64.554333 
1733.000000	64.548635 
1732.000000	64.537882 
1731.000000	64.522528 
1730.000000	64.503598 
1729.000000	64.483356 
1728.000000	64.464497 
1727.000000	64.450621 
1726.000000	64.445137 
1725.000000	64.451146 
1724.000000	64.470481 
1723.000000	64.503359 
1722.000000	64.548087 
1721.000000	64.601111 
1720.000000	64.657568 
1719.000000	64.711999 
1718.000000	64.759397 
1717.000000	64.795780 
1716.000000	64.818763 
1715.000000	64.827919 
1714.000000	64.824652 
1713.000000	64.811658 
1712.000000	64.792418 
1711.000000	64.770746 
1710.000000	64.750027 
1709.000000	64.733242 
1708.000000	64.722466 
1707.000000	64.719009 
1706.000000	64.723253 
1705.000000	64.734816 
1704.000000	64.752388 
1703.000000	64.773988 
1702.000000	64.796781 
1701.000000	64.817285 
1700.000000	64.831781 
1699.000000	64.836978 
1698.000000	64.830756 
1697.000000	64.812564 
1696.000000	64.784097 
1695.000000	64.748883 
1694.000000	64.712119 
1693.000000	64.679694 
1692.000000	64.656877 
1691.000000	64.647316 
1690.000000	64.652156 
1689.000000	64.669919 
1688.000000	64.696574 
1687.000000	64.726376 
1686.000000	64.753246 
1685.000000	64.772033 
1684.000000	64.779353 
1683.000000	64.774298 
1682.000000	64.758419 
1681.000000	64.735484 
1680.000000	64.710044 
1679.000000	64.686942 
1678.000000	64.670157 
1677.000000	64.662218 
1676.000000	64.664006 
1675.000000	64.674830 
1674.000000	64.693093 
1673.000000	64.716291 
1672.000000	64.741754 
1671.000000	64.766907 
1670.000000	64.789390 
1669.000000	64.807438 
1668.000000	64.819526 
1667.000000	64.824867 
1666.000000	64.823341 
1665.000000	64.815735 
1664.000000	64.803767 
1663.000000	64.790010 
1662.000000	64.777421 
1661.000000	64.768910 
1660.000000	64.766931 
1659.000000	64.772439 
1658.000000	64.784765 
1657.000000	64.801597 
1656.000000	64.819431 
1655.000000	64.834284 
1654.000000	64.842653 
1653.000000	64.842224 
1652.000000	64.832258 
1651.000000	64.813733 
1650.000000	64.788866 
1649.000000	64.760637 
1648.000000	64.732074 
1647.000000	64.705586 
1646.000000	64.682865 
1645.000000	64.664602 
1644.000000	64.650940 
1643.000000	64.641690 
1642.000000	64.636683 
1641.000000	64.635539 
1640.000000	64.638137 
1639.000000	64.644265 
1638.000000	64.653563 
1637.000000	64.665222 
1636.000000	64.678382 
1635.000000	64.692091 
1634.000000	64.705634 
1633.000000	64.718461 
1632.000000	64.730024 
1631.000000	64.739751 
1630.000000	64.747142 
1629.000000	64.751648 
1628.000000	64.752936 
1627.000000	64.750957 
1626.000000	64.746427 
1625.000000	64.740443 
1624.000000	64.734458 
1623.000000	64.729690 
1622.000000	64.727115 
1621.000000	64.726519 
1620.000000	64.726877 
1619.000000	64.726257 
1618.000000	64.722275 
1617.000000	64.712929 
1616.000000	64.696884 
1615.000000	64.674139 
1614.000000	64.646267 
1613.000000	64.615988 
1612.000000	64.586400 
1611.000000	64.560699 
1610.000000	64.541220 
1609.000000	64.529371 
1608.000000	64.525103 
1607.000000	64.527487 
1606.000000	64.535045 
1605.000000	64.545941 
1604.000000	64.558649 
1603.000000	64.571881 
1602.000000	64.584827 
1601.000000	64.597201 
1600.000000	64.609217 
1599.000000	64.621186 
1598.000000	64.633417 
1597.000000	64.646100 
1596.000000	64.658880 
1595.000000	64.671063 
1594.000000	64.681506 
1593.000000	64.688849 
1592.000000	64.691710 
1591.000000	64.689254 
1590.000000	64.681506 
1589.000000	64.669179 
1588.000000	64.654445 
1587.000000	64.640235 
1586.000000	64.630317 
1585.000000	64.628410 
1584.000000	64.637708 
1583.000000	64.659881 
1582.000000	64.694523 
1581.000000	64.738798 
1580.000000	64.787817 
1579.000000	64.835500 
1578.000000	64.875721 
1577.000000	64.903426 
1576.000000	64.915728 
1575.000000	64.912247 
1574.000000	64.894890 
1573.000000	64.867305 
1572.000000	64.833927 
1571.000000	64.799165 
1570.000000	64.767003 
1569.000000	64.740443 
1568.000000	64.721822 
1567.000000	64.712214 
1566.000000	64.712166 
1565.000000	64.721131 
1564.000000	64.737749 
1563.000000	64.759898 
1562.000000	64.784669 
1561.000000	64.808845 
1560.000000	64.828944 
1559.000000	64.842176 
1558.000000	64.846706 
1557.000000	64.842152 
1556.000000	64.829659 
1555.000000	64.811539 
1554.000000	64.791059 
1553.000000	64.771509 
1552.000000	64.755678 
1551.000000	64.745569 
1550.000000	64.741921 
1549.000000	64.744377 
1548.000000	64.751458 
1547.000000	64.761161 
1546.000000	64.771223 
1545.000000	64.779376 
1544.000000	64.783883 
1543.000000	64.783787 
1542.000000	64.778971 
1541.000000	64.770030 
1540.000000	64.758324 
1539.000000	64.745306 
1538.000000	64.732170 
1537.000000	64.720082 
1536.000000	64.709544 
1535.000000	64.700722 
1534.000000	64.693355 
1533.000000	64.686989 
1532.000000	64.681029 
1531.000000	64.675188 
1530.000000	64.669251 
1529.000000	64.663147 
1528.000000	64.656972 
1527.000000	64.651012 
1526.000000	64.645600 
1525.000000	64.641022 
1524.000000	64.637637 
1523.000000	64.635968 
1522.000000	64.636564 
1521.000000	64.639997 
1520.000000	64.646697 
1519.000000	64.656877 
1518.000000	64.670395 
1517.000000	64.686846 
1516.000000	64.705824 
1515.000000	64.726781 
1514.000000	64.749169 
1513.000000	64.772367 
1512.000000	64.795613 
1511.000000	64.817619 
1510.000000	64.837026 
1509.000000	64.851927 
1508.000000	64.860343 
1507.000000	64.860510 
1506.000000	64.851450 
1505.000000	64.833068 
1504.000000	64.806365 
1503.000000	64.773249 
1502.000000	64.736485 
1501.000000	64.699053 
1500.000000	64.663743 
1499.000000	64.632844 
1498.000000	64.607763 
1497.000000	64.588880 
1496.000000	64.575934 
1495.000000	64.568209 
1494.000000	64.564609 
1493.000000	64.564275 
1492.000000	64.566421 
1491.000000	64.570283 
1490.000000	64.575099 
1489.000000	64.579892 
1488.000000	64.583730 
1487.000000	64.585399 
1486.000000	64.584207 
1485.000000	64.579868 
1484.000000	64.573144 
1483.000000	64.565372 
1482.000000	64.558577 
1481.000000	64.554858 
1480.000000	64.555740 
1479.000000	64.562034 
1478.000000	64.573311 
1477.000000	64.588093 
1476.000000	64.604234 
1475.000000	64.619398 
1474.000000	64.631700 
1473.000000	64.639878 
1472.000000	64.643669 
1471.000000	64.643764 
1470.000000	64.640974 
1469.000000	64.636135 
1468.000000	64.629721 
1467.000000	64.621949 
1466.000000	64.612698 
1465.000000	64.601850 
1464.000000	64.589667 
1463.000000	64.576864 
1462.000000	64.564418 
1461.000000	64.553570 
1460.000000	64.545154 
1459.000000	64.539813 
1458.000000	64.537644 
1457.000000	64.538645 
1456.000000	64.542222 
1455.000000	64.548110 
1454.000000	64.556097 
1453.000000	64.566326 
1452.000000	64.579010 
1451.000000	64.594149 
1450.000000	64.611315 
1449.000000	64.629650 
1448.000000	64.647817 
1447.000000	64.664530 
1446.000000	64.678740 
1445.000000	64.690089 
1444.000000	64.698791 
1443.000000	64.705634 
1442.000000	64.711499 
1441.000000	64.717030 
1440.000000	64.722180 
1439.000000	64.726614 
1438.000000	64.729189 
1437.000000	64.728927 
1436.000000	64.724516 
1435.000000	64.715170 
1434.000000	64.700055 
1433.000000	64.679074 
1432.000000	64.652419 
1431.000000	64.620637 
1430.000000	64.584898 
1429.000000	64.547014 
1428.000000	64.509582 
1427.000000	64.475512 
1426.000000	64.447951 
1425.000000	64.429759 
1424.000000	64.422917 
1423.000000	64.427828 
1422.000000	64.443254 
1421.000000	64.465999 
1420.000000	64.491868 
1419.000000	64.516282 
1418.000000	64.535140 
1417.000000	64.545583 
1416.000000	64.546489 
1415.000000	64.538478 
1414.000000	64.523291 
1413.000000	64.503383 
1412.000000	64.481210 
1411.000000	64.458799 
1410.000000	64.437484 
1409.000000	64.417934 
1408.000000	64.400744 
1407.000000	64.386534 
1406.000000	64.376473 
1405.000000	64.371967 
1404.000000	64.374613 
1403.000000	64.385581 
1402.000000	64.405107 
1401.000000	64.432096 
1400.000000	64.463853 
1399.000000	64.496541 
1398.000000	64.526009 
1397.000000	64.548301 
1396.000000	64.560651 
1395.000000	64.561963 
1394.000000	64.553165 
1393.000000	64.536786 
1392.000000	64.516139 
1391.000000	64.494752 
1390.000000	64.475536 
1389.000000	64.459919 
1388.000000	64.447760 
1387.000000	64.437699 
1386.000000	64.427614 
1385.000000	64.415287 
1384.000000	64.399290 
1383.000000	64.379143 
1382.000000	64.355659 
1381.000000	64.330577 
1380.000000	64.306092 
1379.000000	64.284420 
1378.000000	64.267420 
1377.000000	64.256215 
1376.000000	64.251184 
1375.000000	64.252018 
1374.000000	64.258170 
1373.000000	64.268875 
1372.000000	64.283370 
1371.000000	64.300775 
1370.000000	64.320349 
1369.000000	64.341282 
1368.000000	64.362859 
1367.000000	64.384245 
1366.000000	64.404869 
1365.000000	64.424371 
1364.000000	64.442873 
1363.000000	64.460802 
1362.000000	64.478588 
1361.000000	64.496541 
1360.000000	64.514589 
1359.000000	64.531993 
1358.000000	64.547252 
1357.000000	64.558386 
1356.000000	64.563465 
1355.000000	64.561033 
1354.000000	64.550685 
1353.000000	64.533066 
1352.000000	64.510369 
1351.000000	64.485573 
1350.000000	64.461851 
1349.000000	64.441847 
1348.000000	64.427304 
1347.000000	64.418530 
1346.000000	64.414572 
1345.000000	64.413499 
1344.000000	64.413046 
1343.000000	64.411568 
1342.000000	64.408493 
1341.000000	64.404392 
1340.000000	64.400672 
1339.000000	64.399003 
1338.000000	64.400768 
1337.000000	64.406347 
1336.000000	64.414644 
1335.000000	64.423751 
1334.000000	64.431214 
1333.000000	64.434862 
1332.000000	64.433479 
1331.000000	64.426970 
1330.000000	64.416503 
1329.000000	64.404296 
1328.000000	64.392971 
1327.000000	64.384841 
1326.000000	64.381361 
1325.000000	64.383053 
1324.000000	64.388990 
1323.000000	64.397501 
1322.000000	64.406037 
1321.000000	64.412236 
1320.000000	64.414048 
1319.000000	64.410114 
1318.000000	64.400148 
1317.000000	64.384913 
1316.000000	64.365792 
1315.000000	64.344620 
1314.000000	64.323186 
1313.000000	64.302897 
1312.000000	64.284682 
1311.000000	64.268827 
1310.000000	64.255142 
1309.000000	64.243125 
1308.000000	64.232516 
1307.000000	64.223432 
1306.000000	64.216518 
1305.000000	64.212799 
1304.000000	64.213681 
1303.000000	64.220428 
1302.000000	64.233660 
1301.000000	64.253258 
1300.000000	64.278054 
1299.000000	64.306211 
1298.000000	64.335393 
1297.000000	64.363217 
1296.000000	64.387655 
1295.000000	64.407491 
1294.000000	64.422392 
1293.000000	64.432835 
1292.000000	64.439725 
1291.000000	64.444065 
1290.000000	64.446663 
1289.000000	64.447689 
1288.000000	64.447021 
1287.000000	64.444017 
1286.000000	64.438176 
1285.000000	64.428997 
1284.000000	64.416432 
1283.000000	64.400911 
1282.000000	64.383387 
1281.000000	64.365005 
1280.000000	64.346814 
1279.000000	64.329600 
1278.000000	64.313745 
1277.000000	64.299273 
1276.000000	64.285969 
1275.000000	64.273357 
1274.000000	64.261150 
1273.000000	64.249157 
1272.000000	64.237833 
1271.000000	64.227581 
1270.000000	64.219284 
1269.000000	64.213967 
1268.000000	64.212512 
1267.000000	64.215421 
1266.000000	64.222645 
1265.000000	64.233565 
1264.000000	64.247035 
1263.000000	64.261269 
1262.000000	64.274549 
1261.000000	64.285516 
1260.000000	64.293527 
1259.000000	64.298677 
1258.000000	64.301800 
1257.000000	64.304065 
1256.000000	64.306735 
1255.000000	64.310622 
1254.000000	64.315819 
1253.000000	64.321565 
1252.000000	64.326429 
1251.000000	64.328718 
1250.000000	64.326715 
1249.000000	64.319229 
1248.000000	64.306044 
1247.000000	64.287972 
1246.000000	64.266467 
1245.000000	64.243721 
1244.000000	64.222073 
1243.000000	64.203691 
1242.000000	64.190101 
1241.000000	64.182209 
1240.000000	64.180064 
1239.000000	64.183187 
1238.000000	64.190411 
1237.000000	64.200663 
1236.000000	64.212608 
1235.000000	64.225482 
1234.000000	64.238762 
1233.000000	64.252424 
1232.000000	64.266657 
1231.000000	64.281630 
1230.000000	64.297199 
1229.000000	64.312815 
1228.000000	64.327335 
1227.000000	64.339256 
1226.000000	64.346837 
1225.000000	64.348745 
1224.000000	64.344334 
1223.000000	64.334106 
1222.000000	64.319443 
1221.000000	64.302802 
1220.000000	64.286684 
1219.000000	64.273667 
1218.000000	64.265060 
1217.000000	64.261078 
1216.000000	64.260482 
1215.000000	64.260983 
1214.000000	64.259886 
1213.000000	64.254641 
1212.000000	64.243865 
1211.000000	64.227771 
1210.000000	64.208292 
1209.000000	64.188551 
1208.000000	64.172554 
1207.000000	64.163923 
1206.000000	64.165425 
1205.000000	64.178133 
1204.000000	64.201235 
1203.000000	64.232301 
1202.000000	64.267873 
1201.000000	64.303946 
1200.000000	64.336705 
1199.000000	64.363193 
1198.000000	64.381551 
1197.000000	64.391064 
1196.000000	64.392256 
1195.000000	64.386463 
1194.000000	64.375758 
1193.000000	64.362049 
1192.000000	64.347362 
1191.000000	64.332675 
1190.000000	64.318799 
1189.000000	64.305353 
1188.000000	64.291572 
1187.000000	64.276003 
1186.000000	64.257216 
1185.000000	64.234137 
1184.000000	64.206433 
1183.000000	64.174747 
1182.000000	64.140605 
1181.000000	64.106464 
1180.000000	64.075183 
1179.000000	64.049649 
1178.000000	64.032149 
1177.000000	64.024019 
1176.000000	64.025521 
1175.000000	64.035630 
1174.000000	64.052367 
1173.000000	64.073157 
1172.000000	64.095211 
1171.000000	64.115881 
1170.000000	64.133214 
1169.000000	64.146137 
1168.000000	64.154648 
1167.000000	64.159560 
1166.000000	64.162397 
1165.000000	64.164900 
1164.000000	64.168548 
1163.000000	64.174580 
1162.000000	64.183068 
1161.000000	64.192962 
1160.000000	64.202260 
1159.000000	64.208698 
1158.000000	64.210009 
1157.000000	64.204907 
1156.000000	64.193391 
1155.000000	64.176964 
1154.000000	64.158225 
1153.000000	64.140152 
1152.000000	64.125561 
1151.000000	64.116263 
1150.000000	64.112854 
1149.000000	64.114642 
1148.000000	64.120197 
1147.000000	64.127826 
1146.000000	64.135932 
1145.000000	64.143538 
1144.000000	64.150381 
1143.000000	64.156961 
1142.000000	64.164137 
1141.000000	64.173173 
1140.000000	64.184737 
1139.000000	64.199042 
1138.000000	64.216041 
1137.000000	64.235019 
1136.000000	64.255070 
1135.000000	64.274883 
1134.000000	64.293146 
1133.000000	64.308667 
1132.000000	64.320349 
1131.000000	64.327502 
1130.000000	64.329814 
1129.000000	64.327359 
1128.000000	64.320826 
1127.000000	64.311051 
1126.000000	64.298868 
1125.000000	64.285063 
1124.000000	64.270424 
1123.000000	64.255785 
1122.000000	64.242029 
1121.000000	64.230203 
1120.000000	64.221429 
1119.000000	64.216423 
1118.000000	64.215135 
1117.000000	64.216685 
1116.000000	64.219117 
1115.000000	64.219665 
1114.000000	64.215302 
1113.000000	64.203405 
1112.000000	64.182519 
1111.000000	64.152741 
1110.000000	64.116024 
1109.000000	64.075684 
1108.000000	64.036059 
1107.000000	64.001488 
1106.000000	63.975644 
1105.000000	63.960576 
1104.000000	63.956999 
1103.000000	63.964152 
1102.000000	63.980245 
1101.000000	64.002847 
1100.000000	64.029741 
1099.000000	64.058923 
1098.000000	64.088869 
1097.000000	64.118289 
1096.000000	64.145922 
1095.000000	64.170455 
1094.000000	64.190697 
1093.000000	64.205765 
1092.000000	64.215779 
1091.000000	64.221763 
1090.000000	64.225935 
1089.000000	64.231157 
1088.000000	64.240336 
1087.000000	64.255213 
1086.000000	64.276051 
1085.000000	64.301180 
1084.000000	64.327502 
1083.000000	64.350771 
1082.000000	64.367318 
1081.000000	64.374279 
1080.000000	64.370775 
1079.000000	64.357662 
1078.000000	64.337587 
1077.000000	64.314055 
1076.000000	64.290452 
1075.000000	64.269399 
1074.000000	64.252376 
1073.000000	64.239573 
1072.000000	64.230227 
1071.000000	64.223051 
1070.000000	64.216780 
1069.000000	64.210319 
1068.000000	64.203000 
1067.000000	64.194393 
1066.000000	64.184117 
1065.000000	64.172053 
1064.000000	64.158344 
1063.000000	64.143419 
1062.000000	64.127922 
1061.000000	64.112854 
1060.000000	64.099192 
1059.000000	64.087724 
1058.000000	64.078831 
1057.000000	64.072299 
1056.000000	64.067435 
1055.000000	64.063096 
1054.000000	64.058113 
1053.000000	64.051795 
1052.000000	64.043998 
1051.000000	64.035296 
1050.000000	64.026737 
1049.000000	64.019703 
1048.000000	64.015197 
1047.000000	64.013791 
1046.000000	64.015483 
1045.000000	64.019703 
1044.000000	64.025568 
1043.000000	64.032173 
1042.000000	64.038801 
1041.000000	64.045000 
1040.000000	64.050531 
1039.000000	64.055371 
1038.000000	64.059758 
1037.000000	64.064025 
1036.000000	64.068579 
1035.000000	64.073872 
1034.000000	64.079833 
1033.000000	64.086174 
1032.000000	64.092302 
1031.000000	64.097619 
1030.000000	64.101099 
1029.000000	64.101934 
1028.000000	64.099907 
1027.000000	64.095306 
1026.000000	64.088892 
1025.000000	64.081931 
1024.000000	64.075922 
1023.000000	64.072227 
1022.000000	64.071750 
1021.000000	64.074349 
1020.000000	64.079332 
1019.000000	64.085173 
1018.000000	64.090013 
1017.000000	64.092063 
1016.000000	64.089846 
1015.000000	64.082527 
1014.000000	64.070105 
1013.000000	64.053225 
1012.000000	64.033222 
1011.000000	64.012289 
1010.000000	63.993096 
1009.000000	63.978505 
1008.000000	63.971185 
1007.000000	63.973522 
1006.000000	63.987278 
1005.000000	64.012837 
1004.000000	64.049386 
1003.000000	64.095067 
1002.000000	64.147329 
1001.000000	64.202952 
1000.000000	64.258909 
999.000000	 64.312291 
998.000000	 64.360761 
997.000000	 64.402556 
996.000000	 64.436340 
995.000000	 64.461231 
994.000000	 64.476418 
993.000000	 64.481711 
992.000000	 64.477324 
991.000000	 64.464211 
990.000000	 64.444112 
989.000000	 64.419817 
988.000000	 64.394259 
987.000000	 64.370226 
986.000000	 64.349699 
985.000000	 64.333629 
984.000000	 64.321303 
983.000000	 64.310622 
982.000000	 64.298629 
981.000000	 64.282298 
980.000000	 64.259123 
979.000000	 64.227962 
978.000000	 64.189410 
977.000000	 64.145994 
976.000000	 64.101600 
975.000000	 64.061069 
974.000000	 64.028739 
973.000000	 64.007949 
972.000000	 64.000248 
971.000000	 64.005374 
970.000000	 64.020919 
969.000000	 64.043116 
968.000000	 64.067602 
967.000000	 64.090442 
966.000000	 64.108204 
965.000000	 64.119458 
964.000000	 64.124608 
963.000000	 64.125800 
962.000000	 64.125871 
961.000000	 64.127850 
960.000000	 64.134073 
959.000000	 64.145612 
958.000000	 64.162254 
957.000000	 64.182925 
956.000000	 64.205956 
955.000000	 64.230108 
954.000000	 64.254283 
953.000000	 64.277648 
952.000000	 64.299345 
951.000000	 64.318251 
950.000000	 64.333176 
949.000000	 64.342594 
948.000000	 64.345645 
947.000000	 64.342451 
946.000000	 64.334440 
945.000000	 64.324140 
944.000000	 64.314651 
943.000000	 64.309382 
942.000000	 64.310526 
941.000000	 64.318442 
940.000000	 64.331269 
939.000000	 64.345192 
938.000000	 64.355540 
937.000000	 64.357876 
936.000000	 64.349365 
935.000000	 64.329528 
934.000000	 64.300632 
933.000000	 64.267182 
932.000000	 64.234757 
931.000000	 64.208507 
930.000000	 64.191770 
929.000000	 64.185285 
928.000000	 64.187073 
927.000000	 64.193344 
926.000000	 64.199829 
925.000000	 64.203476 
924.000000	 64.202880 
923.000000	 64.198994 
922.000000	 64.194726 
921.000000	 64.194083 
920.000000	 64.200520 
919.000000	 64.215970 
918.000000	 64.240527 
917.000000	 64.271783 
916.000000	 64.306092 
915.000000	 64.338445 
914.000000	 64.363932 
913.000000	 64.378333 
912.000000	 64.379143 
911.000000	 64.365744 
910.000000	 64.339542 
909.000000	 64.303970 
908.000000	 64.263844 
907.000000	 64.224839 
906.000000	 64.192223 
905.000000	 64.170408 
904.000000	 64.161992 
903.000000	 64.167022 
902.000000	 64.183068 
901.000000	 64.205360 
900.000000	 64.227962 
899.000000	 64.244866 
898.000000	 64.251518 
897.000000	 64.245557 
896.000000	 64.227533 
895.000000	 64.200639 
894.000000	 64.169931 
893.000000	 64.140868 
892.000000	 64.118528 
891.000000	 64.106416 
890.000000	 64.105987 
889.000000	 64.116668 
888.000000	 64.135980 
887.000000	 64.160203 
886.000000	 64.185595 
885.000000	 64.208865 
884.000000	 64.228391 
883.000000	 64.244079 
882.000000	 64.257526 
881.000000	 64.271211 
880.000000	 64.287519 
879.000000	 64.307713 
878.000000	 64.331459 
877.000000	 64.356517 
876.000000	 64.378809 
875.000000	 64.393138 
874.000000	 64.394736 
873.000000	 64.380264 
872.000000	 64.348745 
871.000000	 64.301872 
870.000000	 64.243984 
869.000000	 64.181113 
868.000000	 64.119982 
867.000000	 64.066839 
866.000000	 64.025926 
865.000000	 63.999533 
864.000000	 63.988089 
863.000000	 63.990545 
862.000000	 64.004564 
861.000000	 64.027786 
860.000000	 64.057707 
859.000000	 64.092516 
858.000000	 64.130330 
857.000000	 64.169788 
856.000000	 64.209413 
855.000000	 64.248013 
854.000000	 64.284133 
853.000000	 64.316534 
852.000000	 64.344024 
851.000000	 64.365649 
850.000000	 64.380693 
849.000000	 64.388895 
848.000000	 64.390468 
847.000000	 64.386129 
846.000000	 64.376950 
845.000000	 64.364218 
844.000000	 64.348959 
843.000000	 64.332199 
842.000000	 64.314222 
841.000000	 64.294958 
840.000000	 64.273381 
839.000000	 64.248418 
838.000000	 64.218878 
837.000000	 64.183950 
836.000000	 64.143943 
835.000000	 64.100193 
834.000000	 64.055919 
833.000000	 64.015269 
832.000000	 63.983273 
831.000000	 63.964366 
830.000000	 63.961601 
829.000000	 63.975644 
828.000000	 64.004278 
827.000000	 64.042520 
826.000000	 64.083909 
825.000000	 64.121699 
824.000000	 64.150238 
823.000000	 64.165878 
822.000000	 64.167833 
821.000000	 64.158034 
820.000000	 64.140367 
819.000000	 64.119410 
818.000000	 64.099526 
817.000000	 64.083719 
816.000000	 64.073634 
815.000000	 64.068984 
814.000000	 64.068269 
813.000000	 64.069080 
812.000000	 64.068961 
811.000000	 64.066243 
810.000000	 64.059686 
809.000000	 64.049577 
808.000000	 64.036583 
807.000000	 64.022564 
806.000000	 64.009594 
805.000000	 64.000010 
804.000000	 63.995885 
803.000000	 63.998579 
802.000000	 64.008378 
801.000000	 64.024281 
800.000000	 64.044046 
799.000000	 64.064288 
798.000000	 64.081144 
797.000000	 64.091038 
796.000000	 64.091563 
795.000000	 64.082288 
794.000000	 64.065170 
793.000000	 64.044260 
792.000000	 64.024686 
791.000000	 64.011549 
790.000000	 64.008402 
789.000000	 64.016771 
788.000000	 64.035367 
787.000000	 64.060330 
786.000000	 64.086079 
785.000000	 64.107084 
784.000000	 64.118623 
783.000000	 64.117765 
782.000000	 64.103984 
781.000000	 64.078617 
780.000000	 64.045095 
779.000000	 64.007854 
778.000000	 63.971590 
777.000000	 63.940262 
776.000000	 63.916540 
775.000000	 63.901782 
774.000000	 63.895797 
773.000000	 63.897180 
772.000000	 63.903450 
771.000000	 63.911533 
770.000000	 63.918590 
769.000000	 63.922667 
768.000000	 63.923096 
767.000000	 63.920927 
766.000000	 63.918757 
765.000000	 63.920164 
764.000000	 63.929176 
763.000000	 63.949060 
762.000000	 63.981723 
761.000000	 64.026784 
760.000000	 64.081954 
759.000000	 64.142513 
758.000000	 64.202928 
757.000000	 64.256334 
756.000000	 64.296388 
755.000000	 64.316964 
754.000000	 64.313864 
753.000000	 64.284873 
752.000000	 64.230251 
751.000000	 64.153575 
750.000000	 64.061188 
749.000000	 63.962292 
748.000000	 63.867783 
747.000000	 63.788986 
746.000000	 63.736104 
745.000000	 63.716077 
744.000000	 63.731360 
743.000000	 63.779091 
742.000000	 63.851642 
741.000000	 63.937973 
740.000000	 64.025855 
739.000000	 64.103698 
738.000000	 64.162850 
737.000000	 64.198660 
736.000000	 64.210748 
735.000000	 64.202260 
734.000000	 64.178562 
733.000000	 64.145803 
732.000000	 64.109420 
731.000000	 64.073848 
730.000000	 64.041566 
729.000000	 64.014053 
728.000000	 63.991427 
727.000000	 63.973736 
726.000000	 63.960814 
725.000000	 63.952875 
724.000000	 63.950157 
723.000000	 63.952374 
722.000000	 63.958930 
721.000000	 63.968682 
720.000000	 63.980293 
719.000000	 63.992309 
718.000000	 64.003348 
717.000000	 64.012169 
716.000000	 64.018034 
715.000000	 64.020609 
714.000000	 64.019441 
713.000000	 64.014101 
712.000000	 64.004230 
711.000000	 63.989949 
710.000000	 63.972234 
709.000000	 63.953042 
708.000000	 63.934898 
707.000000	 63.920903 
706.000000	 63.914442 
705.000000	 63.918399 
704.000000	 63.933777 
703.000000	 63.959360 
702.000000	 63.991689 
701.000000	 64.025783 
700.000000	 64.055824 
699.000000	 64.076662 
698.000000	 64.084672 
697.000000	 64.078807 
696.000000	 64.060568 
695.000000	 64.033365 
694.000000	 64.001393 
693.000000	 63.968777 
692.000000	 63.938736 
691.000000	 63.913774 
690.000000	 63.895654 
689.000000	 63.886165 
688.000000	 63.887023 
687.000000	 63.899755 
686.000000	 63.925027 
685.000000	 63.961911 
684.000000	 64.006805 
683.000000	 64.053320 
682.000000	 64.092683 
681.000000	 64.115047 
680.000000	 64.112043 
679.000000	 64.078593 
678.000000	 64.014983 
677.000000	 63.927412 
676.000000	 63.826870 
675.000000	 63.726520 
674.000000	 63.639473 
673.000000	 63.576292 
672.000000	 63.542795 
671.000000	 63.539385 
670.000000	 63.561367 
669.000000	 63.600850 
668.000000	 63.648343 
667.000000	 63.694548 
666.000000	 63.732194 
665.000000	 63.756561 
664.000000	 63.766551 
663.000000	 63.763880 
662.000000	 63.752627 
661.000000	 63.737797 
660.000000	 63.724112 
659.000000	 63.714861 
658.000000	 63.711285 
657.000000	 63.712215 
656.000000	 63.714337 
655.000000	 63.713502 
654.000000	 63.705039 
653.000000	 63.686728 
652.000000	 63.659739 
651.000000	 63.629698 
650.000000	 63.605260 
649.000000	 63.596868 
648.000000	 63.613271 
647.000000	 63.660073 
646.000000	 63.737821 
645.000000	 63.841557 
644.000000	 63.961386 
643.000000	 64.084434 
642.000000	 64.198303 
641.000000	 64.292311 
640.000000	 64.359593 
639.000000	 64.397287 
638.000000	 64.406204 
637.000000	 64.390420 
636.000000	 64.356374 
635.000000	 64.311456 
634.000000	 64.262533 
633.000000	 64.215707 
632.000000	 64.175081 
631.000000	 64.142990 
630.000000	 64.119076 
629.000000	 64.099407 
628.000000	 64.077901 
627.000000	 64.046907 
626.000000	 64.000916 
625.000000	 63.938069 
624.000000	 63.863134 
623.000000	 63.786673 
622.000000	 63.724398 
621.000000	 63.693547 
620.000000	 63.708233 
619.000000	 63.775730 
618.000000	 63.892340 
617.000000	 64.044165 
616.000000	 64.207220 
615.000000	 64.353060 
614.000000	 64.453840 
613.000000	 64.488840 
612.000000	 64.448499 
611.000000	 64.336037 
610.000000	 64.167833 
609.000000	 63.969469 
608.000000	 63.771438 
607.000000	 63.602852 
606.000000	 63.487339 
605.000000	 63.439035 
604.000000	 63.461160 
603.000000	 63.546156 
602.000000	 63.677930 
601.000000	 63.835072 
600.000000	 63.993716 
599.000000	 64.132714 
598.000000	 64.234852 
597.000000	 64.291262 
596.000000	 64.301419 
595.000000	 64.272904 
594.000000	 64.218235 
593.000000	 64.151692 
592.000000	 64.088225 
591.000000	 64.037156 
590.000000	 64.001607 
589.000000	 63.977432 
588.000000	 63.956284 
587.000000	 63.928651 
586.000000	 63.887929 
585.000000	 63.833332 
584.000000	 63.770723 
583.000000	 63.711690 
582.000000	 63.670611 
581.000000	 63.658785 
580.000000	 63.680362 
579.000000	 63.729429 
578.000000	 63.790678 
577.000000	 63.842320 
576.000000	 63.862705 
575.000000	 63.835525 
574.000000	 63.756823 
573.000000	 63.636231 
572.000000	 63.497829 
571.000000	 63.374018 
570.000000	 63.299894 
569.000000	 63.302922 
568.000000	 63.397669 
567.000000	 63.583254 
566.000000	 63.841676 
565.000000	 64.142632 
564.000000	 64.448261 
563.000000	 64.722180 
562.000000	 64.934659 
561.000000	 65.068173 
560.000000	 65.117883 
559.000000	 65.089988 
558.000000	 64.999675 
557.000000	 64.867067 
556.000000	 64.712548 
555.000000	 64.553689 
554.000000	 64.403986 
553.000000	 64.272713 
552.000000	 64.164066 
551.000000	 64.078593 
550.000000	 64.013886 
549.000000	 63.966536 
548.000000	 63.932728 
547.000000	 63.909173 
546.000000	 63.892769 
545.000000	 63.880705 
544.000000	 63.869714 
543.000000	 63.855957 
542.000000	 63.833951 
541.000000	 63.798642 
540.000000	 63.745713 
539.000000	 63.674449 
538.000000	 63.586997 
537.000000	 63.491225 
536.000000	 63.398408 
535.000000	 63.323426 
534.000000	 63.280415 
533.000000	 63.281631 
532.000000	 63.334274 
531.000000	 63.438129 
530.000000	 63.584876 
529.000000	 63.759064 
528.000000	 63.940858 
527.000000	 64.108896 
526.000000	 64.244365 
525.000000	 64.333248 
524.000000	 64.368653 
523.000000	 64.352369 
522.000000	 64.293766 
521.000000	 64.207077 
520.000000	 64.107751 
519.000000	 64.011478 
518.000000	 63.929200 
517.000000	 63.866543 
516.000000	 63.822269 
515.000000	 63.790440 
514.000000	 63.762450 
513.000000	 63.730049 
512.000000	 63.689112 
511.000000	 63.639831 
510.000000	 63.589191 
509.000000	 63.547372 
508.000000	 63.527584 
507.000000	 63.541197 
506.000000	 63.595581 
505.000000	 63.690590 
504.000000	 63.818955 
503.000000	 63.966870 
502.000000	 64.117383 
501.000000	 64.253878 
500.000000	 64.363193 
499.000000	 64.437866 
498.000000	 64.478969 
497.000000	 64.494919 
496.000000	 64.498853 
495.000000	 64.504170 
494.000000	 64.521908 
493.000000	 64.556264 
492.000000	 64.605140 
491.000000	 64.659118 
490.000000	 64.704370 
489.000000	 64.726257 
488.000000	 64.713740 
487.000000	 64.663648 
486.000000	 64.580965 
485.000000	 64.480638 
484.000000	 64.382719 
483.000000	 64.310526 
482.000000	 64.285850 
481.000000	 64.322876 
480.000000	 64.425802 
479.000000	 64.584493 
478.000000	 64.777612 
477.000000	 64.973044 
476.000000	 65.135431 
475.000000	 65.231394 
474.000000	 65.237402 
473.000000	 65.143847 
472.000000	 64.957451 
471.000000	 64.701914 
470.000000	 64.414095 
469.000000	 64.136600 
468.000000	 63.909721 
467.000000	 63.766717 
466.000000	 63.726019 
465.000000	 63.790082 
464.000000	 63.943171 
463.000000	 64.155483 
462.000000	 64.387726 
461.000000	 64.598274 
460.000000	 64.750981 
459.000000	 64.820432 
458.000000	 64.797139 
457.000000	 64.686107 
456.000000	 64.506316 
455.000000	 64.284992 
454.000000	 64.052033 
453.000000	 63.834524 
452.000000	 63.651800 
451.000000	 63.515400 
450.000000	 63.425588 
449.000000	 63.375139 
448.000000	 63.348841 
447.000000	 63.328647 
446.000000	 63.295745 
445.000000	 63.235306 
444.000000	 63.138318 
443.000000	 63.003945 
442.000000	 62.840509 
441.000000	 62.664437 
440.000000	 62.495040 
439.000000	 62.351512 
438.000000	 62.252354 
437.000000	 62.210011 
436.000000	 62.223792 
435.000000	 62.283110 
434.000000	 62.372088 
433.000000	 62.472367 
432.000000	 62.568402 
431.000000	 62.647771 
430.000000	 62.703585 
429.000000	 62.731051 
428.000000	 62.726783 
427.000000	 62.685775 
426.000000	 62.599730 
425.000000	 62.462353 
424.000000	 62.271165 
423.000000	 62.035489 
422.000000	 61.777925 
421.000000	 61.532640 
420.000000	 61.341118 
419.000000	 61.237549 
418.000000	 61.241054 
417.000000	 61.359858 
416.000000	 61.592960 
415.000000	 61.924719 
414.000000	 62.335562 
413.000000	 62.809419 
412.000000	 63.339710 
411.000000	 63.934254 
410.000000	 64.604020 
409.000000	 65.354371 
408.000000	 66.168594 
407.000000	 67.004251 
406.000000	 67.787408 
405.000000	 68.437647 
404.000000	 68.870878 
403.000000	 69.000267 
402.000000	 68.785905 
401.000000	 68.262386 
400.000000	 67.528772 
399.000000	 66.748952 
398.000000	 66.085243 
397.000000	 65.656447 
396.000000	 65.509057 
395.000000	 65.628838 
394.000000	 65.880632 
393.000000	 66.033387 
392.000000	 65.859341 
391.000000	 65.214014 
390.000000	 63.981938 
389.000000	 62.144064 
388.000000	 59.842777 
387.000000	 57.329130 
386.000000	 55.172681 
385.000000	 54.020476 
384.000000	 53.870677 
383.000000	 54.397702 
382.000000	 55.275416 
381.000000	 56.123137 
380.000000	 57.430887 
379.000000	 59.465003 
378.000000	 61.731314 
377.000000	 63.310003 
376.000000	 61.530756 
375.000000	 54.816818 
374.000000	 43.977093 
373.000000	 31.675934 
372.000000	 23.756217 
371.000000	 24.186253 
370.000000	 32.704234 

