PE IR       SPECTRUM    SPECTRUM    ASCII       PEDS        1.60        
  -1
BZ6826~1.ASC
17/04/07
19:48:42.00
17/04/07
19:48:42.00
tln
$BZ1503107-1_t0080$<tbV0>[7.8,5.2,8.0,0.0,27,1,0]
370.000000
64









2002,4.07    
MIRTGS : RIGHTBACK : INTERNAL 2
MIR : ON : INTERNAL 2
OPTKBR

0.200000
8
8.000000
FILLER
RATIO
SPECTRUM
UNLOCKED 256

DOUBLE
64
COMBINED
1
0
0


1.000000
RATIO


1
0
TRUE
51149
0
LEFT NOT FITTED RIGHT NOT FITTED 0
NONE
NONE
15600
12.000000
4.427000
51148
TRUE
1 0 8 72 0 0 0 0 

15798.010000






#HDR
-1
-1
#GR
CM-1
%T
0.00002384185791015625
0.0
5000.000000
-1.000000
4631
8
78.327608
48.521637
#DATA
5000.000000	64.699840 
4999.000000	64.769792 
4998.000000	64.820051 
4997.000000	64.836215 
4996.000000	64.817643 
4995.000000	64.775156 
4994.000000	64.729094 
4993.000000	64.701628 
4992.000000	64.710450 
4991.000000	64.763164 
4990.000000	64.853954 
4989.000000	64.965534 
4988.000000	65.071821 
4987.000000	65.145421 
4986.000000	65.164923 
4985.000000	65.121316 
4984.000000	65.022253 
4983.000000	64.890980 
4982.000000	64.762115 
4981.000000	64.673233 
4980.000000	64.657139 
4979.000000	64.732527 
4978.000000	64.900255 
4977.000000	65.140557 
4976.000000	65.418434 
4975.000000	65.689206 
4974.000000	65.908122 
4973.000000	66.039466 
4972.000000	66.062808 
4971.000000	65.977740 
4970.000000	65.801978 
4969.000000	65.568041 
4968.000000	65.314865 
4967.000000	65.080642 
4966.000000	64.896917 
4965.000000	64.781785 
4964.000000	64.740228 
4963.000000	64.763140 
4962.000000	64.832782 
4961.000000	64.926862 
4960.000000	65.024304 
4959.000000	65.109539 
4958.000000	65.174126 
4957.000000	65.218997 
4956.000000	65.251612 
4955.000000	65.282630 
4954.000000	65.320134 
4953.000000	65.366768 
4952.000000	65.415835 
4951.000000	65.452671 
4950.000000	65.456533 
4949.000000	65.404653 
4948.000000	65.280318 
4947.000000	65.078282 
4946.000000	64.810729 
4945.000000	64.506149 
4944.000000	64.206552 
4943.000000	63.958883 
4942.000000	63.804793 
4941.000000	63.772225 
4940.000000	63.866853 
4939.000000	64.070415 
4938.000000	64.343833 
4937.000000	64.635968 
4936.000000	64.894819 
4935.000000	65.078711 
4934.000000	65.164351 
4933.000000	65.149569 
4932.000000	65.051460 
4931.000000	64.899325 
4930.000000	64.726352 
4929.000000	64.560937 
4928.000000	64.421844 
4927.000000	64.316320 
4926.000000	64.244008 
4925.000000	64.200878 
4924.000000	64.184856 
4923.000000	64.198207 
4922.000000	64.246511 
4921.000000	64.336872 
4920.000000	64.471960 
4919.000000	64.648437 
4918.000000	64.853906 
4917.000000	65.068793 
4916.000000	65.270113 
4915.000000	65.434837 
4914.000000	65.545344 
4913.000000	65.591192 
4912.000000	65.573215 
4911.000000	65.499615 
4910.000000	65.383768 
4909.000000	65.241050 
4908.000000	65.086603 
4907.000000	64.932584 
4906.000000	64.788341 
4905.000000	64.659976 
4904.000000	64.552164 
4903.000000	64.468741 
4902.000000	64.413905 
4901.000000	64.390325 
4900.000000	64.398980 
4899.000000	64.437937 
4898.000000	64.502477 
4897.000000	64.585208 
4896.000000	64.677286 
4895.000000	64.768886 
4894.000000	64.851093 
4893.000000	64.916682 
4892.000000	64.961361 
4891.000000	64.984393 
4890.000000	64.987969 
4889.000000	64.976072 
4888.000000	64.953947 
4887.000000	64.927220 
4886.000000	64.901423 
4885.000000	64.881014 
4884.000000	64.870238 
4883.000000	64.874100 
4882.000000	64.896440 
4881.000000	64.939808 
4880.000000	65.003705 
4879.000000	65.084576 
4878.000000	65.175127 
4877.000000	65.265488 
4876.000000	65.344715 
4875.000000	65.402722 
4874.000000	65.433430 
4873.000000	65.436053 
4872.000000	65.414762 
4871.000000	65.377330 
4870.000000	65.333390 
4869.000000	65.291619 
4868.000000	65.257477 
4867.000000	65.232038 
4866.000000	65.212774 
4865.000000	65.194702 
4864.000000	65.173912 
4863.000000	65.147805 
4862.000000	65.117406 
4861.000000	65.085601 
4860.000000	65.056610 
4859.000000	65.033340 
4858.000000	65.015196 
4857.000000	64.998745 
4856.000000	64.977979 
4855.000000	64.946866 
4854.000000	64.901447 
4853.000000	64.841914 
4852.000000	64.772963 
4851.000000	64.703464 
4850.000000	64.644217 
4849.000000	64.605545 
4848.000000	64.594578 
4847.000000	64.613342 
4846.000000	64.658308 
4845.000000	64.721488 
4844.000000	64.792442 
4843.000000	64.860463 
4842.000000	64.916944 
4841.000000	64.957165 
4840.000000	64.980411 
4839.000000	64.989089 
4838.000000	64.987182 
4837.000000	64.978480 
4836.000000	64.965128 
4835.000000	64.947724 
4834.000000	64.924836 
4833.000000	64.894413 
4832.000000	64.854645 
4831.000000	64.805746 
4830.000000	64.750409 
4829.000000	64.694046 
4828.000000	64.644098 
4827.000000	64.608192 
4826.000000	64.592957 
4825.000000	64.602065 
4824.000000	64.635753 
4823.000000	64.690423 
4822.000000	64.759325 
4821.000000	64.833617 
4820.000000	64.903974 
4819.000000	64.962291 
4818.000000	65.002179 
4817.000000	65.019917 
4816.000000	65.014743 
4815.000000	64.988803 
4814.000000	64.946579 
4813.000000	64.894270 
4812.000000	64.839100 
4811.000000	64.788007 
4810.000000	64.747405 
4809.000000	64.721202 
4808.000000	64.710974 
4807.000000	64.714670 
4806.000000	64.727425 
4805.000000	64.741802 
4804.000000	64.749622 
4803.000000	64.743709 
4802.000000	64.719128 
4801.000000	64.675188 
4800.000000	64.615488 
4799.000000	64.547777 
4798.000000	64.481806 
4797.000000	64.428138 
4796.000000	64.395427 
4795.000000	64.388918 
4794.000000	64.409160 
4793.000000	64.452219 
4792.000000	64.510631 
4791.000000	64.575386 
4790.000000	64.637899 
4789.000000	64.690995 
4788.000000	64.730477 
4787.000000	64.755392 
4786.000000	64.767646 
4785.000000	64.770412 
4784.000000	64.767479 
4783.000000	64.761996 
4782.000000	64.755821 
4781.000000	64.749956 
4780.000000	64.744424 
4779.000000	64.738821 
4778.000000	64.733052 
4777.000000	64.727735 
4776.000000	64.724564 
4775.000000	64.725828 
4774.000000	64.734315 
4773.000000	64.752149 
4772.000000	64.780712 
4771.000000	64.819908 
4770.000000	64.867758 
4769.000000	64.920735 
4768.000000	64.973711 
4767.000000	65.020704 
4766.000000	65.055847 
4765.000000	65.074372 
4764.000000	65.072941 
4763.000000	65.050506 
4762.000000	65.008687 
4761.000000	64.951634 
4760.000000	64.885354 
4759.000000	64.816689 
4758.000000	64.752650 
4757.000000	64.698672 
4756.000000	64.658379 
4755.000000	64.632749 
4754.000000	64.620447 
4753.000000	64.618229 
4752.000000	64.621806 
4751.000000	64.626932 
4750.000000	64.630174 
4749.000000	64.629626 
4748.000000	64.624786 
4747.000000	64.616394 
4746.000000	64.605712 
4745.000000	64.593958 
4744.000000	64.581871 
4743.000000	64.569354 
4742.000000	64.555668 
4741.000000	64.540457 
4740.000000	64.524412 
4739.000000	64.509344 
4738.000000	64.498353 
4737.000000	64.495444 
4736.000000	64.504766 
4735.000000	64.529180 
4734.000000	64.569568 
4733.000000	64.624691 
4732.000000	64.690947 
4731.000000	64.763069 
4730.000000	64.834761 
4729.000000	64.899849 
4728.000000	64.953303 
4727.000000	64.992141 
4726.000000	65.015816 
4725.000000	65.025806 
4724.000000	65.025353 
4723.000000	65.019059 
4722.000000	65.010929 
4721.000000	65.004372 
4720.000000	65.000319 
4719.000000	64.998149 
4718.000000	64.994907 
4717.000000	64.986777 
4716.000000	64.969754 
4715.000000	64.941120 
4714.000000	64.900374 
4713.000000	64.849638 
4712.000000	64.793539 
4711.000000	64.738249 
4710.000000	64.690017 
4709.000000	64.653611 
4708.000000	64.631199 
4707.000000	64.621782 
4706.000000	64.621806 
4705.000000	64.626193 
4704.000000	64.629459 
4703.000000	64.627718 
4702.000000	64.619565 
4701.000000	64.606308 
4700.000000	64.591264 
4699.000000	64.578819 
4698.000000	64.572978 
4697.000000	64.576101 
4696.000000	64.587998 
4695.000000	64.605784 
4694.000000	64.624762 
4693.000000	64.639639 
4692.000000	64.645838 
4691.000000	64.640665 
4690.000000	64.623618 
4689.000000	64.596796 
4688.000000	64.564180 
4687.000000	64.530849 
4686.000000	64.501690 
4685.000000	64.480614 
4684.000000	64.469695 
4683.000000	64.468741 
4682.000000	64.475512 
4681.000000	64.486503 
4680.000000	64.497852 
4679.000000	64.505887 
4678.000000	64.508152 
4677.000000	64.504194 
4676.000000	64.495515 
4675.000000	64.484834 
4674.000000	64.475679 
4673.000000	64.471435 
4672.000000	64.474773 
4671.000000	64.486742 
4670.000000	64.507102 
4669.000000	64.533996 
4668.000000	64.565014 
4667.000000	64.597702 
4666.000000	64.629888 
4665.000000	64.660215 
4664.000000	64.687967 
4663.000000	64.712762 
4662.000000	64.734196 
4661.000000	64.751577 
4660.000000	64.763808 
4659.000000	64.769887 
4658.000000	64.769482 
4657.000000	64.763593 
4656.000000	64.754414 
4655.000000	64.745497 
4654.000000	64.741396 
4653.000000	64.746761 
4652.000000	64.765381 
4651.000000	64.798855 
4650.000000	64.846396 
4649.000000	64.904332 
4648.000000	64.966988 
4647.000000	65.027403 
4646.000000	65.078639 
4645.000000	65.114808 
4644.000000	65.132403 
4643.000000	65.130209 
4642.000000	65.109968 
4641.000000	65.074992 
4640.000000	65.029716 
4639.000000	64.978766 
4638.000000	64.926648 
4637.000000	64.877176 
4636.000000	64.833688 
4635.000000	64.799165 
4634.000000	64.776468 
4633.000000	64.768600 
4632.000000	64.778399 
4631.000000	64.807558 
4630.000000	64.856028 
4629.000000	64.921474 
4628.000000	64.998745 
4627.000000	65.080380 
4626.000000	65.157341 
4625.000000	65.220689 
4624.000000	65.263152 
4623.000000	65.280389 
4622.000000	65.271735 
4621.000000	65.240454 
4620.000000	65.192961 
4619.000000	65.137290 
4618.000000	65.082097 
4617.000000	65.035676 
4616.000000	65.004658 
4615.000000	64.993405 
4614.000000	65.003752 
4613.000000	65.035343 
4612.000000	65.085649 
4611.000000	65.150475 
4610.000000	65.224218 
4609.000000	65.300321 
4608.000000	65.372037 
4607.000000	65.433073 
4606.000000	65.478301 
4605.000000	65.504193 
4604.000000	65.509939 
4603.000000	65.497207 
4602.000000	65.470337 
4601.000000	65.434908 
4600.000000	65.397500 
4599.000000	65.363550 
4598.000000	65.336775 
4597.000000	65.317726 
4596.000000	65.304350 
4595.000000	65.292310 
4594.000000	65.276074 
4593.000000	65.250897 
4592.000000	65.213561 
4591.000000	65.164470 
4590.000000	65.107131 
4589.000000	65.048599 
4588.000000	64.996981 
4587.000000	64.960741 
4586.000000	64.945983 
4585.000000	64.955615 
4584.000000	64.988255 
4583.000000	65.038895 
4582.000000	65.100193 
4581.000000	65.163636 
4580.000000	65.221214 
4579.000000	65.267014 
4578.000000	65.298318 
4577.000000	65.315055 
4576.000000	65.319538 
4575.000000	65.316128 
4574.000000	65.310096 
4573.000000	65.306806 
4572.000000	65.310621 
4571.000000	65.324401 
4570.000000	65.348911 
4569.000000	65.383625 
4568.000000	65.426015 
4567.000000	65.472531 
4566.000000	65.518474 
4565.000000	65.559554 
4564.000000	65.591669 
4563.000000	65.611600 
4562.000000	65.617084 
4561.000000	65.607404 
4560.000000	65.582823 
4559.000000	65.544843 
4558.000000	65.495634 
4557.000000	65.438318 
4556.000000	65.375661 
4555.000000	65.310072 
4554.000000	65.243649 
4553.000000	65.178418 
4552.000000	65.116190 
4551.000000	65.058779 
4550.000000	65.008139 
4549.000000	64.966511 
4548.000000	64.935874 
4547.000000	64.918065 
4546.000000	64.913797 
4545.000000	64.923048 
4544.000000	64.944672 
4543.000000	64.976692 
4542.000000	65.016174 
4541.000000	65.059518 
4540.000000	65.102648 
4539.000000	65.141296 
4538.000000	65.171337 
4537.000000	65.189385 
4536.000000	65.192985 
4535.000000	65.181565 
4534.000000	65.155911 
4533.000000	65.119671 
4532.000000	65.078663 
4531.000000	65.040493 
4530.000000	65.013217 
4529.000000	65.004181 
4528.000000	65.018486 
4527.000000	65.058374 
4526.000000	65.122652 
4525.000000	65.207481 
4524.000000	65.306854 
4523.000000	65.414166 
4522.000000	65.522933 
4521.000000	65.626430 
4520.000000	65.718245 
4519.000000	65.792679 
4518.000000	65.845561 
4517.000000	65.874910 
4516.000000	65.881323 
4515.000000	65.869331 
4514.000000	65.845513 
4513.000000	65.817618 
4512.000000	65.792083 
4511.000000	65.773463 
4510.000000	65.762495 
4509.000000	65.757441 
4508.000000	65.753507 
4507.000000	65.745711 
4506.000000	65.729284 
4505.000000	65.701389 
4504.000000	65.662026 
4503.000000	65.613651 
4502.000000	65.562295 
4501.000000	65.516161 
4500.000000	65.484309 
4499.000000	65.474224 
4498.000000	65.490388 
4497.000000	65.532875 
4496.000000	65.596961 
4495.000000	65.674209 
4494.000000	65.755367 
4493.000000	65.832448 
4492.000000	65.899181 
4491.000000	65.952181 
4490.000000	65.991783 
4489.000000	66.020655 
4488.000000	66.040992 
4487.000000	66.054272 
4486.000000	66.061902 
4485.000000	66.064429 
4484.000000	66.061329 
4483.000000	66.052246 
4482.000000	66.041254 
4481.000000	66.031980 
4480.000000	66.024994 
4479.000000	66.018724 
4478.000000	66.013145 
4477.000000	66.003942 
4476.000000	65.980410 
4475.000000	65.934562 
4474.000000	65.864610 
4473.000000	65.775823 
4472.000000	65.680861 
4471.000000	65.592598 
4470.000000	65.520143 
4469.000000	65.464735 
4468.000000	65.418863 
4467.000000	65.369987 
4466.000000	65.302634 
4465.000000	65.208625 
4464.000000	65.086555 
4463.000000	64.931464 
4462.000000	64.739608 
4461.000000	64.522147 
4460.000000	64.292407 
4459.000000	64.063000 
4458.000000	63.833427 
4457.000000	63.606071 
4456.000000	63.357424 
4455.000000	63.052439 
4454.000000	62.631964 
4453.000000	62.025237 
4452.000000	61.172556 
4451.000000	60.040307 
4450.000000	58.653402 
4449.000000	57.095789 
4448.000000	55.516624 
4447.000000	54.103851 
4446.000000	53.043007 
4445.000000	52.474951 
4444.000000	52.448630 
4443.000000	52.910637 
4442.000000	53.708219 
4441.000000	54.642081 
4440.000000	55.524516 
4439.000000	56.254506 
4438.000000	56.844925 
4437.000000	57.438898 
4436.000000	58.283305 
4435.000000	59.640717 
4434.000000	61.713933 
4433.000000	64.535284 
4432.000000	67.925906 
4431.000000	71.500873 
4430.000000	74.746894 
4429.000000	77.146458 
4428.000000	78.327608 
4427.000000	78.142714 
4426.000000	76.747798 
4425.000000	74.514365 
4424.000000	71.934509 
4423.000000	69.493365 
4422.000000	67.545866 
4421.000000	66.279172 
4420.000000	65.707802 
4419.000000	65.718436 
4418.000000	66.154146 
4417.000000	66.826820 
4416.000000	67.576956 
4415.000000	68.265819 
4414.000000	68.794083 
4413.000000	69.101166 
4412.000000	69.165158 
4411.000000	69.000220 
4410.000000	68.645000 
4409.000000	68.153905 
4408.000000	67.583298 
4407.000000	66.977095 
4406.000000	66.367650 
4405.000000	65.792870 
4404.000000	65.284967 
4403.000000	64.877033 
4402.000000	64.592099 
4401.000000	64.442062 
4400.000000	64.421820 
4399.000000	64.495921 
4398.000000	64.622497 
4397.000000	64.763522 
4396.000000	64.889883 
4395.000000	64.982724 
4394.000000	65.037274 
4393.000000	65.055465 
4392.000000	65.048241 
4391.000000	65.030360 
4390.000000	65.010809 
4389.000000	64.989042 
4388.000000	64.964556 
4387.000000	64.938068 
4386.000000	64.912104 
4385.000000	64.891123 
4384.000000	64.878916 
4383.000000	64.877700 
4382.000000	64.887475 
4381.000000	64.905619 
4380.000000	64.925742 
4379.000000	64.941024 
4378.000000	64.944767 
4377.000000	64.934539 
4376.000000	64.914941 
4375.000000	64.895772 
4374.000000	64.887499 
4373.000000	64.900493 
4372.000000	64.941596 
4371.000000	65.012383 
4370.000000	65.107345 
4369.000000	65.216898 
4368.000000	65.330290 
4367.000000	65.437865 
4366.000000	65.533590 
4365.000000	65.614891 
4364.000000	65.682268 
4363.000000	65.738844 
4362.000000	65.788650 
4361.000000	65.834641 
4360.000000	65.877604 
4359.000000	65.916538 
4358.000000	65.948724 
4357.000000	65.971755 
4356.000000	65.984058 
4355.000000	65.986132 
4354.000000	65.980100 
4353.000000	65.969586 
4352.000000	65.958333 
4351.000000	65.948939 
4350.000000	65.942120 
4349.000000	65.936923 
4348.000000	65.930604 
4347.000000	65.920162 
4346.000000	65.902543 
4345.000000	65.876317 
4344.000000	65.841388 
4343.000000	65.799593 
4342.000000	65.753459 
4341.000000	65.705633 
4340.000000	65.658044 
4339.000000	65.611648 
4338.000000	65.565896 
4337.000000	65.519261 
4336.000000	65.470218 
4335.000000	65.418243 
4334.000000	65.363550 
4333.000000	65.307688 
4332.000000	65.253496 
4331.000000	65.204834 
4330.000000	65.165066 
4329.000000	65.137171 
4328.000000	65.123128 
4327.000000	65.123939 
4326.000000	65.139055 
4325.000000	65.167188 
4324.000000	65.206146 
4323.000000	65.253281 
4322.000000	65.305519 
4321.000000	65.359139 
4320.000000	65.410256 
4319.000000	65.454697 
4318.000000	65.488672 
4317.000000	65.509152 
4316.000000	65.514588 
4315.000000	65.505194 
4314.000000	65.483117 
4313.000000	65.451979 
4312.000000	65.416574 
4311.000000	65.381932 
4310.000000	65.352582 
4309.000000	65.331792 
4308.000000	65.320920 
4307.000000	65.319705 
4306.000000	65.326523 
4305.000000	65.338230 
4304.000000	65.350985 
4303.000000	65.361189 
4302.000000	65.366220 
4301.000000	65.364551 
4300.000000	65.356183 
4299.000000	65.342855 
4298.000000	65.327286 
4297.000000	65.312838 
4296.000000	65.302205 
4295.000000	65.297031 
4294.000000	65.296745 
4293.000000	65.299081 
4292.000000	65.299892 
4291.000000	65.294122 
4290.000000	65.277218 
4289.000000	65.246605 
4288.000000	65.202522 
4287.000000	65.148115 
4286.000000	65.089130 
4285.000000	65.032577 
4284.000000	64.985680 
4283.000000	64.954137 
4282.000000	64.941501 
4281.000000	64.948630 
4280.000000	64.974141 
4279.000000	65.014910 
4278.000000	65.066790 
4277.000000	65.125274 
4276.000000	65.185904 
4275.000000	65.244555 
4274.000000	65.297293 
4273.000000	65.340328 
4272.000000	65.370368 
4271.000000	65.384244 
4270.000000	65.379953 
4269.000000	65.356373 
4268.000000	65.314340 
4267.000000	65.255951 
4266.000000	65.185284 
4265.000000	65.107274 
4264.000000	65.027499 
4263.000000	64.951372 
4262.000000	64.883804 
4261.000000	64.828896 
4260.000000	64.789462 
4259.000000	64.767146 
4258.000000	64.762306 
4257.000000	64.774155 
4256.000000	64.800691 
4255.000000	64.838504 
4254.000000	64.882731 
4253.000000	64.927744 
4252.000000	64.967870 
4251.000000	64.998173 
4250.000000	65.015053 
4249.000000	65.017175 
4248.000000	65.005683 
4247.000000	64.984226 
4246.000000	64.957785 
4245.000000	64.931821 
4244.000000	64.910435 
4243.000000	64.896178 
4242.000000	64.888668 
4241.000000	64.885497 
4240.000000	64.882302 
4239.000000	64.874410 
4238.000000	64.857745 
4237.000000	64.830207 
4236.000000	64.792466 
4235.000000	64.747118 
4234.000000	64.699244 
4233.000000	64.654755 
4232.000000	64.620280 
4231.000000	64.601397 
4230.000000	64.602422 
4229.000000	64.625549 
4228.000000	64.670395 
4227.000000	64.733910 
4226.000000	64.810514 
4225.000000	64.892816 
4224.000000	64.972329 
4223.000000	65.040946 
4222.000000	65.091562 
4221.000000	65.119600 
4220.000000	65.123414 
4219.000000	65.105032 
4218.000000	65.069222 
4217.000000	65.023088 
4216.000000	64.974975 
4215.000000	64.932703 
4214.000000	64.903140 
4213.000000	64.890074 
4212.000000	64.894676 
4211.000000	64.914631 
4210.000000	64.945673 
4209.000000	64.981532 
4208.000000	65.015673 
4207.000000	65.042257 
4206.000000	65.056872 
4205.000000	65.057611 
4204.000000	65.044808 
4203.000000	65.021276 
4202.000000	64.991283 
4201.000000	64.959859 
4200.000000	64.931583 
4199.000000	64.909911 
4198.000000	64.896774 
4197.000000	64.892292 
4196.000000	64.895009 
4195.000000	64.902114 
4194.000000	64.910268 
4193.000000	64.916324 
4192.000000	64.918136 
4191.000000	64.914178 
4190.000000	64.904427 
4189.000000	64.890217 
4188.000000	64.874148 
4187.000000	64.859414 
4186.000000	64.849090 
4185.000000	64.845657 
4184.000000	64.850068 
4183.000000	64.862132 
4182.000000	64.879894 
4181.000000	64.900159 
4180.000000	64.919424 
4179.000000	64.934444 
4178.000000	64.943099 
4177.000000	64.944839 
4176.000000	64.940643 
4175.000000	64.932560 
4174.000000	64.923334 
4173.000000	64.915561 
4172.000000	64.910745 
4171.000000	64.908957 
4170.000000	64.908528 
4169.000000	64.906597 
4168.000000	64.900040 
4167.000000	64.886546 
4166.000000	64.865231 
4165.000000	64.837121 
4164.000000	64.805340 
4163.000000	64.774322 
4162.000000	64.748358 
4161.000000	64.730858 
4160.000000	64.723086 
4159.000000	64.724516 
4158.000000	64.732909 
4157.000000	64.745211 
4156.000000	64.758563 
4155.000000	64.770579 
4154.000000	64.779901 
4153.000000	64.785957 
4152.000000	64.788484 
4151.000000	64.787125 
4150.000000	64.780879 
4149.000000	64.768314 
4148.000000	64.748096 
4147.000000	64.719343 
4146.000000	64.682388 
4145.000000	64.639568 
4144.000000	64.595174 
4143.000000	64.554858 
4142.000000	64.524936 
4141.000000	64.510846 
4140.000000	64.516425 
4139.000000	64.542722 
4138.000000	64.587521 
4137.000000	64.645862 
4136.000000	64.710903 
4135.000000	64.774751 
4134.000000	64.830279 
4133.000000	64.871931 
4132.000000	64.896893 
4131.000000	64.904952 
4130.000000	64.898347 
4129.000000	64.881157 
4128.000000	64.858031 
4127.000000	64.833140 
4126.000000	64.809560 
4125.000000	64.789247 
4124.000000	64.772891 
4123.000000	64.760589 
4122.000000	64.752340 
4121.000000	64.748644 
4120.000000	64.750599 
4119.000000	64.759683 
4118.000000	64.777159 
4117.000000	64.803314 
4116.000000	64.836907 
4115.000000	64.874935 
4114.000000	64.913034 
4113.000000	64.946365 
4112.000000	64.971065 
4111.000000	64.985132 
4110.000000	64.989042 
4109.000000	64.985299 
4108.000000	64.977574 
4107.000000	64.969491 
4106.000000	64.963436 
4105.000000	64.960289 
4104.000000	64.959669 
4103.000000	64.960289 
4102.000000	64.960861 
4101.000000	64.960646 
4100.000000	64.960074 
4099.000000	64.960193 
4098.000000	64.962410 
4097.000000	64.967823 
4096.000000	64.976692 
4095.000000	64.988374 
4094.000000	65.001320 
4093.000000	65.013480 
4092.000000	65.022659 
4091.000000	65.027284 
4090.000000	65.026569 
4089.000000	65.020155 
4088.000000	65.008211 
4087.000000	64.990973 
4086.000000	64.968943 
4085.000000	64.942836 
4084.000000	64.913916 
4083.000000	64.884161 
4082.000000	64.856100 
4081.000000	64.832615 
4080.000000	64.816308 
4079.000000	64.808726 
4078.000000	64.810109 
4077.000000	64.819192 
4076.000000	64.833545 
4075.000000	64.849734 
4074.000000	64.864468 
4073.000000	64.874982 
4072.000000	64.879941 
4071.000000	64.879274 
4070.000000	64.874696 
4069.000000	64.869165 
4068.000000	64.866089 
4067.000000	64.868426 
4066.000000	64.878201 
4065.000000	64.896106 
4064.000000	64.921450 
4063.000000	64.952254 
4062.000000	64.985799 
4061.000000	65.019392 
4060.000000	65.050768 
4059.000000	65.078449 
4058.000000	65.102171 
4057.000000	65.122151 
4056.000000	65.139365 
4055.000000	65.154266 
4054.000000	65.166807 
4053.000000	65.175890 
4052.000000	65.179944 
4051.000000	65.177202 
4050.000000	65.166640 
4049.000000	65.147876 
4048.000000	65.122532 
4047.000000	65.092682 
4046.000000	65.060997 
4045.000000	65.029644 
4044.000000	65.000081 
4043.000000	64.972662 
4042.000000	64.946746 
4041.000000	64.921522 
4040.000000	64.896488 
4039.000000	64.871978 
4038.000000	64.849472 
4037.000000	64.831161 
4036.000000	64.819645 
4035.000000	64.816975 
4034.000000	64.824318 
4033.000000	64.841079 
4032.000000	64.865255 
4031.000000	64.893722 
4030.000000	64.922857 
4029.000000	64.949250 
4028.000000	64.970088 
4027.000000	64.983558 
4026.000000	64.989209 
4025.000000	64.987039 
4024.000000	64.978289 
4023.000000	64.964604 
4022.000000	64.948463 
4021.000000	64.932703 
4020.000000	64.920473 
4019.000000	64.914608 
4018.000000	64.917469 
4017.000000	64.930534 
4016.000000	64.953851 
4015.000000	64.985871 
4014.000000	65.023732 
4013.000000	65.063667 
4012.000000	65.101313 
4011.000000	65.132355 
4010.000000	65.153479 
4009.000000	65.162849 
4008.000000	65.160489 
4007.000000	65.147709 
4006.000000	65.127325 
4005.000000	65.102434 
4004.000000	65.075850 
4003.000000	65.049529 
4002.000000	65.024352 
4001.000000	65.000224 
4000.000000	64.976572 
3999.000000	64.952874 
3998.000000	64.929199 
3997.000000	64.906620 
3996.000000	64.887213 
3995.000000	64.874029 
3994.000000	64.869546 
3993.000000	64.876103 
3992.000000	64.894461 
3991.000000	64.924335 
3990.000000	64.963555 
3989.000000	65.009355 
3988.000000	65.058636 
3987.000000	65.108370 
3986.000000	65.155935 
3985.000000	65.199184 
3984.000000	65.236520 
3983.000000	65.266394 
3982.000000	65.287303 
3981.000000	65.297961 
3980.000000	65.297627 
3979.000000	65.286803 
3978.000000	65.267229 
3977.000000	65.242075 
3976.000000	65.215301 
3975.000000	65.191602 
3974.000000	65.174984 
3973.000000	65.168118 
3972.000000	65.171337 
3971.000000	65.183043 
3970.000000	65.199613 
3969.000000	65.216183 
3968.000000	65.227770 
3967.000000	65.230417 
3966.000000	65.222024 
3965.000000	65.202736 
3964.000000	65.174484 
3963.000000	65.140342 
3962.000000	65.103411 
3961.000000	65.066313 
3960.000000	65.030169 
3959.000000	64.994668 
3958.000000	64.959096 
3957.000000	64.923143 
3956.000000	64.887404 
3955.000000	64.853954 
3954.000000	64.826416 
3953.000000	64.809489 
3952.000000	64.807200 
3951.000000	64.822077 
3950.000000	64.854073 
3949.000000	64.900207 
3948.000000	64.954948 
3947.000000	65.011572 
3946.000000	65.063476 
3945.000000	65.105676 
3944.000000	65.135931 
3943.000000	65.154361 
3942.000000	65.163064 
3941.000000	65.164780 
3940.000000	65.162205 
3939.000000	65.156745 
3938.000000	65.148353 
3937.000000	65.135478 
3936.000000	65.116572 
3935.000000	65.089964 
3934.000000	65.055060 
3933.000000	65.012574 
3932.000000	64.964723 
3931.000000	64.914870 
3930.000000	64.866757 
3929.000000	64.824247 
3928.000000	64.790606 
3927.000000	64.768171 
3926.000000	64.758014 
3925.000000	64.759969 
3924.000000	64.772820 
3923.000000	64.794063 
3922.000000	64.820718 
3921.000000	64.849090 
3920.000000	64.876008 
3919.000000	64.898633 
3918.000000	64.916014 
3917.000000	64.928102 
3916.000000	64.936661 
3915.000000	64.944434 
3914.000000	64.954662 
3913.000000	64.970064 
3912.000000	64.992427 
3911.000000	65.022253 
3910.000000	65.058445 
3909.000000	65.098905 
3908.000000	65.140271 
3907.000000	65.178823 
3906.000000	65.210890 
3905.000000	65.233683 
3904.000000	65.245461 
3903.000000	65.245890 
3902.000000	65.236091 
3901.000000	65.218353 
3900.000000	65.195631 
3899.000000	65.170884 
3898.000000	65.147042 
3897.000000	65.126419 
3896.000000	65.110397 
3895.000000	65.099334 
3894.000000	65.092873 
3893.000000	65.090060 
3892.000000	65.089488 
3891.000000	65.089631 
3890.000000	65.089035 
3889.000000	65.086746 
3888.000000	65.081906 
3887.000000	65.074634 
3886.000000	65.065288 
3885.000000	65.054869 
3884.000000	65.044999 
3883.000000	65.037322 
3882.000000	65.033197 
3881.000000	65.033173 
3880.000000	65.036988 
3879.000000	65.043377 
3878.000000	65.050005 
3877.000000	65.054583 
3876.000000	65.055131 
3875.000000	65.050745 
3874.000000	65.041780 
3873.000000	65.029668 
3872.000000	65.016818 
3871.000000	65.005660 
3870.000000	64.998126 
3869.000000	64.995098 
3868.000000	64.996576 
3867.000000	65.001535 
3866.000000	65.008854 
3865.000000	65.017795 
3864.000000	65.028309 
3863.000000	65.041017 
3862.000000	65.056872 
3861.000000	65.076470 
3860.000000	65.099143 
3859.000000	65.122842 
3858.000000	65.143942 
3857.000000	65.157866 
3856.000000	65.160250 
3855.000000	65.147972 
3854.000000	65.120434 
3853.000000	65.079879 
3852.000000	65.031218 
3851.000000	64.980936 
3850.000000	64.936184 
3849.000000	64.903163 
3848.000000	64.886045 
3847.000000	64.886164 
3846.000000	64.901995 
3845.000000	64.929890 
3844.000000	64.964962 
3843.000000	65.001869 
3842.000000	65.035557 
3841.000000	65.061855 
3840.000000	65.077686 
3839.000000	65.081381 
3838.000000	65.072154 
3837.000000	65.050625 
3836.000000	65.019011 
3835.000000	64.980745 
3834.000000	64.940619 
3833.000000	64.903736 
3832.000000	64.875459 
3831.000000	64.859390 
3830.000000	64.856958 
3829.000000	64.866328 
3828.000000	64.882826 
3827.000000	64.899492 
3826.000000	64.908719 
3825.000000	64.904093 
3824.000000	64.882040 
3823.000000	64.843273 
3822.000000	64.792728 
3821.000000	64.738750 
3820.000000	64.691019 
3819.000000	64.658212 
3818.000000	64.646196 
3817.000000	64.656567 
3816.000000	64.686822 
3815.000000	64.731383 
3814.000000	64.783501 
3813.000000	64.836812 
3812.000000	64.887118 
3811.000000	64.932680 
3810.000000	64.974117 
3809.000000	65.012979 
3808.000000	65.050864 
3807.000000	65.088343 
3806.000000	65.124511 
3805.000000	65.157437 
3804.000000	65.184378 
3803.000000	65.203332 
3802.000000	65.213274 
3801.000000	65.215229 
3800.000000	65.210938 
3799.000000	65.202951 
3798.000000	65.193200 
3797.000000	65.182685 
3796.000000	65.171265 
3795.000000	65.158128 
3794.000000	65.142226 
3793.000000	65.123152 
3792.000000	65.101385 
3791.000000	65.078616 
3790.000000	65.057277 
3789.000000	65.040254 
3788.000000	65.029978 
3787.000000	65.028023 
3786.000000	65.034818 
3785.000000	65.049552 
3784.000000	65.070199 
3783.000000	65.093898 
3782.000000	65.117383 
3781.000000	65.137529 
3780.000000	65.152025 
3779.000000	65.159368 
3778.000000	65.159034 
3777.000000	65.151357 
3776.000000	65.137648 
3775.000000	65.119433 
3774.000000	65.098524 
3773.000000	65.076303 
3772.000000	65.053534 
3771.000000	65.030288 
3770.000000	65.006160 
3769.000000	64.980816 
3768.000000	64.954400 
3767.000000	64.927768 
3766.000000	64.902782 
3765.000000	64.881777 
3764.000000	64.867258 
3763.000000	64.861130 
3762.000000	64.864659 
3761.000000	64.877748 
3760.000000	64.899563 
3759.000000	64.928221 
3758.000000	64.961361 
3757.000000	64.996552 
3756.000000	65.031266 
3755.000000	65.063357 
3754.000000	65.090990 
3753.000000	65.112900 
3752.000000	65.128517 
3751.000000	65.137720 
3750.000000	65.141153 
3749.000000	65.140247 
3748.000000	65.136861 
3747.000000	65.133166 
3746.000000	65.131068 
3745.000000	65.132021 
3744.000000	65.136480 
3743.000000	65.144133 
3742.000000	65.153837 
3741.000000	65.163922 
3740.000000	65.172815 
3739.000000	65.179467 
3738.000000	65.183591 
3737.000000	65.185403 
3736.000000	65.185689 
3735.000000	65.185260 
3734.000000	65.184473 
3733.000000	65.182971 
3732.000000	65.179824 
3731.000000	65.173792 
3730.000000	65.163683 
3729.000000	65.148901 
3728.000000	65.129923 
3727.000000	65.108180 
3726.000000	65.086126 
3725.000000	65.066695 
3724.000000	65.052247 
3723.000000	65.044236 
3722.000000	65.042853 
3721.000000	65.047001 
3720.000000	65.054392 
3719.000000	65.062499 
3718.000000	65.069079 
3717.000000	65.072846 
3716.000000	65.073490 
3715.000000	65.071773 
3714.000000	65.069079 
3713.000000	65.066933 
3712.000000	65.066504 
3711.000000	65.068459 
3710.000000	65.072727 
3709.000000	65.078902 
3708.000000	65.086412 
3707.000000	65.094661 
3706.000000	65.103173 
3705.000000	65.111851 
3704.000000	65.120458 
3703.000000	65.128660 
3702.000000	65.135741 
3701.000000	65.140867 
3700.000000	65.143036 
3699.000000	65.141558 
3698.000000	65.135931 
3697.000000	65.126538 
3696.000000	65.114212 
3695.000000	65.100264 
3694.000000	65.085959 
3693.000000	65.072536 
3692.000000	65.060830 
3691.000000	65.051007 
3690.000000	65.043067 
3689.000000	65.036702 
3688.000000	65.031766 
3687.000000	65.028476 
3686.000000	65.027308 
3685.000000	65.028929 
3684.000000	65.034008 
3683.000000	65.043091 
3682.000000	65.056061 
3681.000000	65.072202 
3680.000000	65.090370 
3679.000000	65.109062 
3678.000000	65.126895 
3677.000000	65.142631 
3676.000000	65.155410 
3675.000000	65.164852 
3674.000000	65.171146 
3673.000000	65.174722 
3672.000000	65.176105 
3671.000000	65.175843 
3670.000000	65.174436 
3669.000000	65.172338 
3668.000000	65.169811 
3667.000000	65.166974 
3666.000000	65.164017 
3665.000000	65.160822 
3664.000000	65.157175 
3663.000000	65.152645 
3662.000000	65.146756 
3661.000000	65.138840 
3660.000000	65.128326 
3659.000000	65.114831 
3658.000000	65.098237 
3657.000000	65.078711 
3656.000000	65.056753 
3655.000000	65.033221 
3654.000000	65.009307 
3653.000000	64.986586 
3652.000000	64.967107 
3651.000000	64.952874 
3650.000000	64.945816 
3649.000000	64.947485 
3648.000000	64.958572 
3647.000000	64.978408 
3646.000000	65.005326 
3645.000000	65.036439 
3644.000000	65.068364 
3643.000000	65.097379 
3642.000000	65.120553 
3641.000000	65.135860 
3640.000000	65.143013 
3639.000000	65.142965 
3638.000000	65.137887 
3637.000000	65.130448 
3636.000000	65.123057 
3635.000000	65.117478 
3634.000000	65.114235 
3633.000000	65.112614 
3632.000000	65.111064 
3631.000000	65.107822 
3630.000000	65.101361 
3629.000000	65.090703 
3628.000000	65.076088 
3627.000000	65.058612 
3626.000000	65.040016 
3625.000000	65.022301 
3624.000000	65.006971 
3623.000000	64.995098 
3622.000000	64.986968 
3621.000000	64.982008 
3620.000000	64.979362 
3619.000000	64.977908 
3618.000000	64.976644 
3617.000000	64.974999 
3616.000000	64.972615 
3615.000000	64.969682 
3614.000000	64.966630 
3613.000000	64.964079 
3612.000000	64.962506 
3611.000000	64.962410 
3610.000000	64.963865 
3609.000000	64.966821 
3608.000000	64.970922 
3607.000000	64.975810 
3606.000000	64.981031 
3605.000000	64.986371 
3604.000000	64.991712 
3603.000000	64.997053 
3602.000000	65.002369 
3601.000000	65.007567 
3600.000000	65.012454 
3599.000000	65.016603 
3598.000000	65.019249 
3597.000000	65.019631 
3596.000000	65.017008 
3595.000000	65.010762 
3594.000000	65.000820 
3593.000000	64.987730 
3592.000000	64.972805 
3591.000000	64.957833 
3590.000000	64.945101 
3589.000000	64.936900 
3588.000000	64.935183 
3587.000000	64.941287 
3586.000000	64.955401 
3585.000000	64.976453 
3584.000000	65.002036 
3583.000000	65.028858 
3582.000000	65.053272 
3581.000000	65.071988 
3580.000000	65.082550 
3579.000000	65.084028 
3578.000000	65.077233 
3577.000000	65.064287 
3576.000000	65.048074 
3575.000000	65.031528 
3574.000000	65.016984 
3573.000000	65.005707 
3572.000000	64.997792 
3571.000000	64.992499 
3570.000000	64.988970 
3569.000000	64.986419 
3568.000000	64.984941 
3567.000000	64.985203 
3566.000000	64.988350 
3565.000000	64.995384 
3564.000000	65.006494 
3563.000000	65.020942 
3562.000000	65.036606 
3561.000000	65.050673 
3560.000000	65.060281 
3559.000000	65.063452 
3558.000000	65.059804 
3557.000000	65.050601 
3556.000000	65.038728 
3555.000000	65.027880 
3554.000000	65.021562 
3553.000000	65.022277 
3552.000000	65.030884 
3551.000000	65.046405 
3550.000000	65.066385 
3549.000000	65.087723 
3548.000000	65.107440 
3547.000000	65.123605 
3546.000000	65.135812 
3545.000000	65.145134 
3544.000000	65.153527 
3543.000000	65.163135 
3542.000000	65.175223 
3541.000000	65.189647 
3540.000000	65.204596 
3539.000000	65.217161 
3538.000000	65.223932 
3537.000000	65.222501 
3536.000000	65.211772 
3535.000000	65.192818 
3534.000000	65.168285 
3533.000000	65.142083 
3532.000000	65.117764 
3531.000000	65.097951 
3530.000000	65.083813 
3529.000000	65.074968 
3528.000000	65.069937 
3527.000000	65.066957 
3526.000000	65.064620 
3525.000000	65.062594 
3524.000000	65.061688 
3523.000000	65.063452 
3522.000000	65.069818 
3521.000000	65.082073 
3520.000000	65.100264 
3519.000000	65.122914 
3518.000000	65.147209 
3517.000000	65.169596 
3516.000000	65.186285 
3515.000000	65.194487 
3514.000000	65.193152 
3513.000000	65.183258 
3512.000000	65.167403 
3511.000000	65.149211 
3510.000000	65.132617 
3509.000000	65.120577 
3508.000000	65.114688 
3507.000000	65.114593 
3506.000000	65.118241 
3505.000000	65.122461 
3504.000000	65.124154 
3503.000000	65.121078 
3502.000000	65.112495 
3501.000000	65.099453 
3500.000000	65.084624 
3499.000000	65.071296 
3498.000000	65.062332 
3497.000000	65.059447 
3496.000000	65.062642 
3495.000000	65.070390 
3494.000000	65.079951 
3493.000000	65.088295 
3492.000000	65.092611 
3491.000000	65.091037 
3490.000000	65.082764 
3489.000000	65.068054 
3488.000000	65.048027 
3487.000000	65.024018 
3486.000000	64.997911 
3485.000000	64.971232 
3484.000000	64.945912 
3483.000000	64.923691 
3482.000000	64.906764 
3481.000000	64.897251 
3480.000000	64.897370 
3479.000000	64.908623 
3478.000000	64.931821 
3477.000000	64.966511 
3476.000000	65.011024 
3475.000000	65.062403 
3474.000000	65.116667 
3473.000000	65.169525 
3472.000000	65.216803 
3471.000000	65.255069 
3470.000000	65.281844 
3469.000000	65.295743 
3468.000000	65.296888 
3467.000000	65.286421 
3466.000000	65.266704 
3465.000000	65.240621 
3464.000000	65.211510 
3463.000000	65.182924 
3462.000000	65.158176 
3461.000000	65.139865 
3460.000000	65.129852 
3459.000000	65.128850 
3458.000000	65.136361 
3457.000000	65.150833 
3456.000000	65.169906 
3455.000000	65.190958 
3454.000000	65.211367 
3453.000000	65.229249 
3452.000000	65.243482 
3451.000000	65.253806 
3450.000000	65.260624 
3449.000000	65.264630 
3448.000000	65.266060 
3447.000000	65.264511 
3446.000000	65.258860 
3445.000000	65.247392 
3444.000000	65.228462 
3443.000000	65.200757 
3442.000000	65.164017 
3441.000000	65.119457 
3440.000000	65.069675 
3439.000000	65.018200 
3438.000000	64.969205 
3437.000000	64.926600 
3436.000000	64.893555 
3435.000000	64.871740 
3434.000000	64.861440 
3433.000000	64.861297 
3432.000000	64.869022 
3431.000000	64.881515 
3430.000000	64.895915 
3429.000000	64.909458 
3428.000000	64.920568 
3427.000000	64.928293 
3426.000000	64.932870 
3425.000000	64.935135 
3424.000000	64.936351 
3423.000000	64.937710 
3422.000000	64.940118 
3421.000000	64.943742 
3420.000000	64.948272 
3419.000000	64.952993 
3418.000000	64.957118 
3417.000000	64.960074 
3416.000000	64.962029 
3415.000000	64.963579 
3414.000000	64.965724 
3413.000000	64.969348 
3412.000000	64.975047 
3411.000000	64.982771 
3410.000000	64.991545 
3409.000000	64.999699 
3408.000000	65.005707 
3407.000000	65.008258 
3406.000000	65.006756 
3405.000000	65.001606 
3404.000000	64.994359 
3403.000000	64.987182 
3402.000000	64.982271 
3401.000000	64.981389 
3400.000000	64.985203 
3399.000000	64.993476 
3398.000000	65.005159 
3397.000000	65.018677 
3396.000000	65.032529 
3395.000000	65.045547 
3394.000000	65.057301 
3393.000000	65.067601 
3392.000000	65.076637 
3391.000000	65.084385 
3390.000000	65.090584 
3389.000000	65.094614 
3388.000000	65.095639 
3387.000000	65.092968 
3386.000000	65.086555 
3385.000000	65.077090 
3384.000000	65.066218 
3383.000000	65.056395 
3382.000000	65.050101 
3381.000000	65.049576 
3380.000000	65.056037 
3379.000000	65.069103 
3378.000000	65.087199 
3377.000000	65.107440 
3376.000000	65.126562 
3375.000000	65.141344 
3374.000000	65.149402 
3373.000000	65.149664 
3372.000000	65.142345 
3371.000000	65.128827 
3370.000000	65.111112 
3369.000000	65.091443 
3368.000000	65.071702 
3367.000000	65.053296 
3366.000000	65.037178 
3365.000000	65.023684 
3364.000000	65.013241 
3363.000000	65.006542 
3362.000000	65.004205 
3361.000000	65.006637 
3360.000000	65.013623 
3359.000000	65.024375 
3358.000000	65.036869 
3357.000000	65.048527 
3356.000000	65.056681 
3355.000000	65.059494 
3354.000000	65.056395 
3353.000000	65.048265 
3352.000000	65.037441 
3351.000000	65.027022 
3350.000000	65.020179 
3349.000000	65.019011 
3348.000000	65.024209 
3347.000000	65.034699 
3346.000000	65.048146 
3345.000000	65.061378 
3344.000000	65.071511 
3343.000000	65.076208 
3342.000000	65.074682 
3341.000000	65.067052 
3340.000000	65.054249 
3339.000000	65.037226 
3338.000000	65.016841 
3337.000000	64.993262 
3336.000000	64.966154 
3335.000000	64.935088 
3334.000000	64.900207 
3333.000000	64.862298 
3332.000000	64.822983 
3331.000000	64.784765 
3330.000000	64.750480 
3329.000000	64.722824 
3328.000000	64.703941 
3327.000000	64.694619 
3326.000000	64.694380 
3325.000000	64.701604 
3324.000000	64.713859 
3323.000000	64.728403 
3322.000000	64.742994 
3321.000000	64.756131 
3320.000000	64.767718 
3319.000000	64.778351 
3318.000000	64.789628 
3317.000000	64.803338 
3316.000000	64.821028 
3315.000000	64.843368 
3314.000000	64.869999 
3313.000000	64.899444 
3312.000000	64.929389 
3311.000000	64.957356 
3310.000000	64.980864 
3309.000000	64.998197 
3308.000000	65.008783 
3307.000000	65.013241 
3306.000000	65.012812 
3305.000000	65.008950 
3304.000000	65.003108 
3303.000000	64.996314 
3302.000000	64.988851 
3301.000000	64.980411 
3300.000000	64.970564 
3299.000000	64.958930 
3298.000000	64.945602 
3297.000000	64.930963 
3296.000000	64.916014 
3295.000000	64.901614 
3294.000000	64.888548 
3293.000000	64.876937 
3292.000000	64.866089 
3291.000000	64.854907 
3290.000000	64.842224 
3289.000000	64.827394 
3288.000000	64.810228 
3287.000000	64.791870 
3286.000000	64.774322 
3285.000000	64.760327 
3284.000000	64.752507 
3283.000000	64.753150 
3282.000000	64.763498 
3281.000000	64.783430 
3280.000000	64.811325 
3279.000000	64.844131 
3278.000000	64.878010 
3277.000000	64.908909 
3276.000000	64.933323 
3275.000000	64.949202 
3274.000000	64.956140 
3273.000000	64.955425 
3272.000000	64.949584 
3271.000000	64.941525 
3270.000000	64.933681 
3269.000000	64.927601 
3268.000000	64.923286 
3267.000000	64.919662 
3266.000000	64.914798 
3265.000000	64.907002 
3264.000000	64.895200 
3263.000000	64.879512 
3262.000000	64.861369 
3261.000000	64.843320 
3260.000000	64.828372 
3259.000000	64.818930 
3258.000000	64.816570 
3257.000000	64.821434 
3256.000000	64.832520 
3255.000000	64.847898 
3254.000000	64.865350 
3253.000000	64.882898 
3252.000000	64.898943 
3251.000000	64.912414 
3250.000000	64.922714 
3249.000000	64.929366 
3248.000000	64.932060 
3247.000000	64.930462 
3246.000000	64.924335 
3245.000000	64.913582 
3244.000000	64.898490 
3243.000000	64.879751 
3242.000000	64.858627 
3241.000000	64.837050 
3240.000000	64.817070 
3239.000000	64.801096 
3238.000000	64.791369 
3237.000000	64.789581 
3236.000000	64.796614 
3235.000000	64.812397 
3234.000000	64.835882 
3233.000000	64.865159 
3232.000000	64.897751 
3231.000000	64.930844 
3230.000000	64.961743 
3229.000000	64.988183 
3228.000000	65.008401 
3227.000000	65.021586 
3226.000000	65.027642 
3225.000000	65.027093 
3224.000000	65.020632 
3223.000000	65.009331 
3222.000000	64.994287 
3221.000000	64.976835 
3220.000000	64.958190 
3219.000000	64.939713 
3218.000000	64.922738 
3217.000000	64.908432 
3216.000000	64.897871 
3215.000000	64.891624 
3214.000000	64.890146 
3213.000000	64.893460 
3212.000000	64.901471 
3211.000000	64.913630 
3210.000000	64.929175 
3209.000000	64.946699 
3208.000000	64.964342 
3207.000000	64.979887 
3206.000000	64.990806 
3205.000000	64.994788 
3204.000000	64.990377 
3203.000000	64.977359 
3202.000000	64.957261 
3201.000000	64.933180 
3200.000000	64.909482 
3199.000000	64.890789 
3198.000000	64.881038 
3197.000000	64.882612 
3196.000000	64.895582 
3195.000000	64.917588 
3194.000000	64.944601 
3193.000000	64.971590 
3192.000000	64.993858 
3191.000000	65.008115 
3190.000000	65.013194 
3189.000000	65.009951 
3188.000000	65.000772 
3187.000000	64.988946 
3186.000000	64.977574 
3185.000000	64.968919 
3184.000000	64.964008 
3183.000000	64.962744 
3182.000000	64.964842 
3181.000000	64.969825 
3180.000000	64.977836 
3179.000000	64.989352 
3178.000000	65.005159 
3177.000000	65.025520 
3176.000000	65.049839 
3175.000000	65.076327 
3174.000000	65.102100 
3173.000000	65.123915 
3172.000000	65.138888 
3171.000000	65.145158 
3170.000000	65.142273 
3169.000000	65.131711 
3168.000000	65.116047 
3167.000000	65.098476 
3166.000000	65.081715 
3165.000000	65.067529 
3164.000000	65.056061 
3163.000000	65.046215 
3162.000000	65.035843 
3161.000000	65.022587 
3160.000000	65.004563 
3159.000000	64.981412 
3158.000000	64.954209 
3157.000000	64.924979 
3156.000000	64.896631 
3155.000000	64.871740 
3154.000000	64.852499 
3153.000000	64.839935 
3152.000000	64.834356 
3151.000000	64.835262 
3150.000000	64.841890 
3149.000000	64.853525 
3148.000000	64.869523 
3147.000000	64.889216 
3146.000000	64.911580 
3145.000000	64.935398 
3144.000000	64.958858 
3143.000000	64.980030 
3142.000000	64.997196 
3141.000000	65.008950 
3140.000000	65.014743 
3139.000000	65.014576 
3138.000000	65.008974 
3137.000000	64.998459 
3136.000000	64.983367 
3135.000000	64.963746 
3134.000000	64.939332 
3133.000000	64.910078 
3132.000000	64.876580 
3131.000000	64.840865 
3130.000000	64.805912 
3129.000000	64.775824 
3128.000000	64.754700 
3127.000000	64.746022 
3126.000000	64.751577 
3125.000000	64.771103 
3124.000000	64.801979 
3123.000000	64.840197 
3122.000000	64.881181 
3121.000000	64.920759 
3120.000000	64.955902 
3119.000000	64.985299 
3118.000000	65.009069 
3117.000000	65.028476 
3116.000000	65.044975 
3115.000000	65.059447 
3114.000000	65.071654 
3113.000000	65.080499 
3112.000000	65.083885 
3111.000000	65.080022 
3110.000000	65.067052 
3109.000000	65.044569 
3108.000000	65.012979 
3107.000000	64.973783 
3106.000000	64.929580 
3105.000000	64.883351 
3104.000000	64.838480 
3103.000000	64.798164 
3102.000000	64.765477 
3101.000000	64.742898 
3100.000000	64.732503 
3099.000000	64.735364 
3098.000000	64.751696 
3097.000000	64.780330 
3096.000000	64.818906 
3095.000000	64.863872 
3094.000000	64.910912 
3093.000000	64.955282 
3092.000000	64.992618 
3091.000000	65.019297 
3090.000000	65.033149 
3089.000000	65.033578 
3088.000000	65.021538 
3087.000000	64.999270 
3086.000000	64.970207 
3085.000000	64.938139 
3084.000000	64.906907 
3083.000000	64.879608 
3082.000000	64.858436 
3081.000000	64.844083 
3080.000000	64.836168 
3079.000000	64.833140 
3078.000000	64.832854 
3077.000000	64.833140 
3076.000000	64.832139 
3075.000000	64.828872 
3074.000000	64.823222 
3073.000000	64.816212 
3072.000000	64.809513 
3071.000000	64.805436 
3070.000000	64.805984 
3069.000000	64.812803 
3068.000000	64.826846 
3067.000000	64.848041 
3066.000000	64.875388 
3065.000000	64.907121 
3064.000000	64.940643 
3063.000000	64.973163 
3062.000000	65.002012 
3061.000000	65.024733 
3060.000000	65.039682 
3059.000000	65.046334 
3058.000000	65.045356 
3057.000000	65.038681 
3056.000000	65.028882 
3055.000000	65.018844 
3054.000000	65.011072 
3053.000000	65.007495 
3052.000000	65.008783 
3051.000000	65.014505 
3050.000000	65.023136 
3049.000000	65.032815 
3048.000000	65.041542 
3047.000000	65.047955 
3046.000000	65.051317 
3045.000000	65.051722 
3044.000000	65.049934 
3043.000000	65.047001 
3042.000000	65.043783 
3041.000000	65.040755 
3040.000000	65.037870 
3039.000000	65.034651 
3038.000000	65.030241 
3037.000000	65.023732 
3036.000000	65.014553 
3035.000000	65.002512 
3034.000000	64.987850 
3033.000000	64.971327 
3032.000000	64.954257 
3031.000000	64.938187 
3030.000000	64.924597 
3029.000000	64.914679 
3028.000000	64.909219 
3027.000000	64.908170 
3026.000000	64.910769 
3025.000000	64.915513 
3024.000000	64.920544 
3023.000000	64.923787 
3022.000000	64.923357 
3021.000000	64.918160 
3020.000000	64.907789 
3019.000000	64.892673 
3018.000000	64.874124 
3017.000000	64.854145 
3016.000000	64.834809 
3015.000000	64.818191 
3014.000000	64.805722 
3013.000000	64.798116 
3012.000000	64.795327 
3011.000000	64.796614 
3010.000000	64.800786 
3009.000000	64.806461 
3008.000000	64.812421 
3007.000000	64.817571 
3006.000000	64.821410 
3005.000000	64.823865 
3004.000000	64.825391 
3003.000000	64.826464 
3002.000000	64.827561 
3001.000000	64.828991 
3000.000000	64.830827 
2999.000000	64.832901 
2998.000000	64.834928 
2997.000000	64.836835 
2996.000000	64.838624 
2995.000000	64.840745 
2994.000000	64.843583 
2993.000000	64.847350 
2992.000000	64.851880 
2991.000000	64.856529 
2990.000000	64.860415 
2989.000000	64.862513 
2988.000000	64.862322 
2987.000000	64.859938 
2986.000000	64.856076 
2985.000000	64.851927 
2984.000000	64.848804 
2983.000000	64.847540 
2982.000000	64.848160 
2981.000000	64.849662 
2980.000000	64.850020 
2979.000000	64.846801 
2978.000000	64.837861 
2977.000000	64.822149 
2976.000000	64.800047 
2975.000000	64.773583 
2974.000000	64.746189 
2973.000000	64.721894 
2972.000000	64.704418 
2971.000000	64.696335 
2970.000000	64.698290 
2969.000000	64.708971 
2968.000000	64.725399 
2967.000000	64.743709 
2966.000000	64.759993 
2965.000000	64.771270 
2964.000000	64.776182 
2963.000000	64.775156 
2962.000000	64.769887 
2961.000000	64.762830 
2960.000000	64.756250 
2959.000000	64.751482 
2958.000000	64.748287 
2957.000000	64.744973 
2956.000000	64.739131 
2955.000000	64.728069 
2954.000000	64.710044 
2953.000000	64.684724 
2952.000000	64.653706 
2951.000000	64.620018 
2950.000000	64.587736 
2949.000000	64.560794 
2948.000000	64.542365 
2947.000000	64.533948 
2946.000000	64.535379 
2945.000000	64.544892 
2944.000000	64.559936 
2943.000000	64.577817 
2942.000000	64.596676 
2941.000000	64.615464 
2940.000000	64.634346 
2939.000000	64.653873 
2938.000000	64.674854 
2937.000000	64.697408 
2936.000000	64.721083 
2935.000000	64.744687 
2934.000000	64.766454 
2933.000000	64.784717 
2932.000000	64.798069 
2931.000000	64.805841 
2930.000000	64.808106 
2929.000000	64.805746 
2928.000000	64.800286 
2927.000000	64.793562 
2926.000000	64.787673 
2925.000000	64.784407 
2924.000000	64.785003 
2923.000000	64.789772 
2922.000000	64.798307 
2921.000000	64.809322 
2920.000000	64.820766 
2919.000000	64.830088 
2918.000000	64.834928 
2917.000000	64.833545 
2916.000000	64.824700 
2915.000000	64.808535 
2914.000000	64.786219 
2913.000000	64.760279 
2912.000000	64.734148 
2911.000000	64.711499 
2910.000000	64.695405 
2909.000000	64.687919 
2908.000000	64.689588 
2907.000000	64.699172 
2906.000000	64.714002 
2905.000000	64.730501 
2904.000000	64.745020 
2903.000000	64.754533 
2902.000000	64.757490 
2901.000000	64.753866 
2900.000000	64.745259 
2899.000000	64.734244 
2898.000000	64.723849 
2897.000000	64.716792 
2896.000000	64.715194 
2895.000000	64.720273 
2894.000000	64.732146 
2893.000000	64.750194 
2892.000000	64.772915 
2891.000000	64.798593 
2890.000000	64.824891 
2889.000000	64.849424 
2888.000000	64.869618 
2887.000000	64.882898 
2886.000000	64.887261 
2885.000000	64.881420 
2884.000000	64.865708 
2883.000000	64.841914 
2882.000000	64.813566 
2881.000000	64.785337 
2880.000000	64.762282 
2879.000000	64.748883 
2878.000000	64.747643 
2877.000000	64.758586 
2876.000000	64.779019 
2875.000000	64.804339 
2874.000000	64.828801 
2873.000000	64.847040 
2872.000000	64.855408 
2871.000000	64.852690 
2870.000000	64.840459 
2869.000000	64.822435 
2868.000000	64.803218 
2867.000000	64.787197 
2866.000000	64.777517 
2865.000000	64.775085 
2864.000000	64.778923 
2863.000000	64.786243 
2862.000000	64.793896 
2861.000000	64.798808 
2860.000000	64.798974 
2859.000000	64.793825 
2858.000000	64.783930 
2857.000000	64.770913 
2856.000000	64.756464 
2855.000000	64.742302 
2854.000000	64.729714 
2853.000000	64.719724 
2852.000000	64.713025 
2851.000000	64.710187 
2850.000000	64.711713 
2849.000000	64.718174 
2848.000000	64.729952 
2847.000000	64.746904 
2846.000000	64.768147 
2845.000000	64.792180 
2844.000000	64.816927 
2843.000000	64.839911 
2842.000000	64.858675 
2841.000000	64.871335 
2840.000000	64.876866 
2839.000000	64.875173 
2838.000000	64.867115 
2837.000000	64.854288 
2836.000000	64.838624 
2835.000000	64.822030 
2834.000000	64.806079 
2833.000000	64.791870 
2832.000000	64.779996 
2831.000000	64.770746 
2830.000000	64.764046 
2829.000000	64.759540 
2828.000000	64.757061 
2827.000000	64.756417 
2826.000000	64.757609 
2825.000000	64.760589 
2824.000000	64.765524 
2823.000000	64.772677 
2822.000000	64.782476 
2821.000000	64.795398 
2820.000000	64.811968 
2819.000000	64.832425 
2818.000000	64.856863 
2817.000000	64.884948 
2816.000000	64.915704 
2815.000000	64.947605 
2814.000000	64.978647 
2813.000000	65.006494 
2812.000000	65.028905 
2811.000000	65.043854 
2810.000000	65.050053 
2809.000000	65.046930 
2808.000000	65.034890 
2807.000000	65.015125 
2806.000000	64.989829 
2805.000000	64.961361 
2804.000000	64.932584 
2803.000000	64.905881 
2802.000000	64.883470 
2801.000000	64.866471 
2800.000000	64.855051 
2799.000000	64.848303 
2798.000000	64.844608 
2797.000000	64.841938 
2796.000000	64.838337 
2795.000000	64.832663 
2794.000000	64.824604 
2793.000000	64.815020 
2792.000000	64.805769 
2791.000000	64.799094 
2790.000000	64.797043 
2789.000000	64.801001 
2788.000000	64.811205 
2787.000000	64.826560 
2786.000000	64.844608 
2785.000000	64.862608 
2784.000000	64.877486 
2783.000000	64.886808 
2782.000000	64.889049 
2781.000000	64.884138 
2780.000000	64.873027 
2779.000000	64.857554 
2778.000000	64.839863 
2777.000000	64.822387 
2776.000000	64.807128 
2775.000000	64.795684 
2774.000000	64.789056 
2773.000000	64.787554 
2772.000000	64.791178 
2771.000000	64.799499 
2770.000000	64.811921 
2769.000000	64.827346 
2768.000000	64.844536 
2767.000000	64.862132 
2766.000000	64.878630 
2765.000000	64.892601 
2764.000000	64.902758 
2763.000000	64.908337 
2762.000000	64.909100 
2761.000000	64.905333 
2760.000000	64.897990 
2759.000000	64.888215 
2758.000000	64.877367 
2757.000000	64.866209 
2756.000000	64.855504 
2755.000000	64.845085 
2754.000000	64.834403 
2753.000000	64.822387 
2752.000000	64.807868 
2751.000000	64.790296 
2750.000000	64.769649 
2749.000000	64.747118 
2748.000000	64.724588 
2747.000000	64.704823 
2746.000000	64.690804 
2745.000000	64.685320 
2744.000000	64.690136 
2743.000000	64.705824 
2742.000000	64.731526 
2741.000000	64.764952 
2740.000000	64.802813 
2739.000000	64.841318 
2738.000000	64.876747 
2737.000000	64.905977 
2736.000000	64.927029 
2735.000000	64.939141 
2734.000000	64.942932 
2733.000000	64.939928 
2732.000000	64.932537 
2731.000000	64.923524 
2730.000000	64.915370 
2729.000000	64.910435 
2728.000000	64.909982 
2727.000000	64.914369 
2726.000000	64.922547 
2725.000000	64.932775 
2724.000000	64.942288 
2723.000000	64.948010 
2722.000000	64.946985 
2721.000000	64.937067 
2720.000000	64.917373 
2719.000000	64.888358 
2718.000000	64.852094 
2717.000000	64.811849 
2716.000000	64.771723 
2715.000000	64.735889 
2714.000000	64.707827 
2713.000000	64.689898 
2712.000000	64.683127 
2711.000000	64.686942 
2710.000000	64.699363 
2709.000000	64.717483 
2708.000000	64.738059 
2707.000000	64.758348 
2706.000000	64.775943 
2705.000000	64.789438 
2704.000000	64.798545 
2703.000000	64.803981 
2702.000000	64.806914 
2701.000000	64.808583 
2700.000000	64.810132 
2699.000000	64.812088 
2698.000000	64.814567 
2697.000000	64.817070 
2696.000000	64.819121 
2695.000000	64.820241 
2694.000000	64.820504 
2693.000000	64.820432 
2692.000000	64.820981 
2691.000000	64.823269 
2690.000000	64.828252 
2689.000000	64.836120 
2688.000000	64.846134 
2687.000000	64.856815 
2686.000000	64.866113 
2685.000000	64.871644 
2684.000000	64.871573 
2683.000000	64.865016 
2682.000000	64.852404 
2681.000000	64.835429 
2680.000000	64.816641 
2679.000000	64.799118 
2678.000000	64.785599 
2677.000000	64.778280 
2676.000000	64.777922 
2675.000000	64.784121 
2674.000000	64.795160 
2673.000000	64.808654 
2672.000000	64.821720 
2671.000000	64.831662 
2670.000000	64.836430 
2669.000000	64.834856 
2668.000000	64.826750 
2667.000000	64.812898 
2666.000000	64.794850 
2665.000000	64.774513 
2664.000000	64.753961 
2663.000000	64.735031 
2662.000000	64.719057 
2661.000000	64.706826 
2660.000000	64.698576 
2659.000000	64.694070 
2658.000000	64.692735 
2657.000000	64.694046 
2656.000000	64.697456 
2655.000000	64.702820 
2654.000000	64.710211 
2653.000000	64.719820 
2652.000000	64.731788 
2651.000000	64.746117 
2650.000000	64.762282 
2649.000000	64.779400 
2648.000000	64.796233 
2647.000000	64.811301 
2646.000000	64.823293 
2645.000000	64.831233 
2644.000000	64.834833 
2643.000000	64.834308 
2642.000000	64.830303 
2641.000000	64.823722 
2640.000000	64.815545 
2639.000000	64.806699 
2638.000000	64.797949 
2637.000000	64.789962 
2636.000000	64.783358 
2635.000000	64.778661 
2634.000000	64.776229 
2633.000000	64.776182 
2632.000000	64.778637 
2631.000000	64.783215 
2630.000000	64.789557 
2629.000000	64.797043 
2628.000000	64.805030 
2627.000000	64.812994 
2626.000000	64.820384 
2625.000000	64.827013 
2624.000000	64.832639 
2623.000000	64.837145 
2622.000000	64.840245 
2621.000000	64.841556 
2620.000000	64.840650 
2619.000000	64.837384 
2618.000000	64.831757 
2617.000000	64.823937 
2616.000000	64.814448 
2615.000000	64.804339 
2614.000000	64.794802 
2613.000000	64.786934 
2612.000000	64.781785 
2611.000000	64.780139 
2610.000000	64.782357 
2609.000000	64.788460 
2608.000000	64.797949 
2607.000000	64.809870 
2606.000000	64.822936 
2605.000000	64.835572 
2604.000000	64.846086 
2603.000000	64.852929 
2602.000000	64.854931 
2601.000000	64.851784 
2600.000000	64.844322 
2599.000000	64.834332 
2598.000000	64.824533 
2597.000000	64.817357 
2596.000000	64.814734 
2595.000000	64.816832 
2594.000000	64.822149 
2593.000000	64.827489 
2592.000000	64.828801 
2591.000000	64.822340 
2590.000000	64.805531 
2589.000000	64.777898 
2588.000000	64.741373 
2587.000000	64.700174 
2586.000000	64.659714 
2585.000000	64.625620 
2584.000000	64.602422 
2583.000000	64.592719 
2582.000000	64.596700 
2581.000000	64.612340 
2580.000000	64.635825 
2579.000000	64.662575 
2578.000000	64.688158 
2577.000000	64.708971 
2576.000000	64.722824 
2575.000000	64.728784 
2574.000000	64.727377 
2573.000000	64.719986 
2572.000000	64.708638 
2571.000000	64.695477 
2570.000000	64.682340 
2569.000000	64.670610 
2568.000000	64.660811 
2567.000000	64.652943 
2566.000000	64.646172 
2565.000000	64.639520 
2564.000000	64.631938 
2563.000000	64.622688 
2562.000000	64.611744 
2561.000000	64.599442 
2560.000000	64.586901 
2559.000000	64.575552 
2558.000000	64.567065 
2557.000000	64.562940 
2556.000000	64.564180 
2555.000000	64.571166 
2554.000000	64.583635 
2553.000000	64.600491 
2552.000000	64.620280 
2551.000000	64.641261 
2550.000000	64.661860 
2549.000000	64.680743 
2548.000000	64.696884 
2547.000000	64.709639 
2546.000000	64.718866 
2545.000000	64.724659 
2544.000000	64.727354 
2543.000000	64.727187 
2542.000000	64.724421 
2541.000000	64.719223 
2540.000000	64.711999 
2539.000000	64.703392 
2538.000000	64.694309 
2537.000000	64.686012 
2536.000000	64.680051 
2535.000000	64.677715 
2534.000000	64.679718 
2533.000000	64.685988 
2532.000000	64.695572 
2531.000000	64.706826 
2530.000000	64.717698 
2529.000000	64.726257 
2528.000000	64.731192 
2527.000000	64.731907 
2526.000000	64.728593 
2525.000000	64.722013 
2524.000000	64.713287 
2523.000000	64.703369 
2522.000000	64.692997 
2521.000000	64.682435 
2520.000000	64.671587 
2519.000000	64.660429 
2518.000000	64.649081 
2517.000000	64.638185 
2516.000000	64.628648 
2515.000000	64.621567 
2514.000000	64.617991 
2513.000000	64.618468 
2512.000000	64.623069 
2511.000000	64.631104 
2510.000000	64.641356 
2509.000000	64.652180 
2508.000000	64.662003 
2507.000000	64.669322 
2506.000000	64.673185 
2505.000000	64.673161 
2504.000000	64.669370 
2503.000000	64.662623 
2502.000000	64.654064 
2501.000000	64.645051 
2500.000000	64.636874 
2499.000000	64.630532 
2498.000000	64.626502 
2497.000000	64.624905 
2496.000000	64.625477 
2495.000000	64.627790 
2494.000000	64.631390 
2493.000000	64.636135 
2492.000000	64.642143 
2491.000000	64.649772 
2490.000000	64.659714 
2489.000000	64.672255 
2488.000000	64.687323 
2487.000000	64.703893 
2486.000000	64.720487 
2485.000000	64.734983 
2484.000000	64.745378 
2483.000000	64.749884 
2482.000000	64.747619 
2481.000000	64.738464 
2480.000000	64.723324 
2479.000000	64.703559 
2478.000000	64.681077 
2477.000000	64.657878 
2476.000000	64.635777 
2475.000000	64.616465 
2474.000000	64.601278 
2473.000000	64.591169 
2472.000000	64.586806 
2471.000000	64.588356 
2470.000000	64.595437 
2469.000000	64.606857 
2468.000000	64.620828 
2467.000000	64.635181 
2466.000000	64.647603 
2465.000000	64.656400 
2464.000000	64.660477 
2463.000000	64.659953 
2462.000000	64.655876 
2461.000000	64.649605 
2460.000000	64.642643 
2459.000000	64.636039 
2458.000000	64.630150 
2457.000000	64.624857 
2456.000000	64.619421 
2455.000000	64.613294 
2454.000000	64.606070 
2453.000000	64.598107 
2452.000000	64.590048 
2451.000000	64.582991 
2450.000000	64.577770 
2449.000000	64.574694 
2448.000000	64.573526 
2447.000000	64.573407 
2446.000000	64.573144 
2445.000000	64.571642 
2444.000000	64.568281 
2443.000000	64.563155 
2442.000000	64.556980 
2441.000000	64.550924 
2440.000000	64.546060 
2439.000000	64.543271 
2438.000000	64.543151 
2437.000000	64.546084 
2436.000000	64.552235 
2435.000000	64.561581 
2434.000000	64.574193 
2433.000000	64.589977 
2432.000000	64.608502 
2431.000000	64.628934 
2430.000000	64.649748 
2429.000000	64.669084 
2428.000000	64.684939 
2427.000000	64.695549 
2426.000000	64.699864 
2425.000000	64.698100 
2424.000000	64.691638 
2423.000000	64.682960 
2422.000000	64.674973 
2421.000000	64.670372 
2420.000000	64.670991 
2419.000000	64.677095 
2418.000000	64.687347 
2417.000000	64.699149 
2416.000000	64.709115 
2415.000000	64.713954 
2414.000000	64.711284 
2413.000000	64.700174 
2412.000000	64.681410 
2411.000000	64.657282 
2410.000000	64.631080 
2409.000000	64.606380 
2408.000000	64.586329 
2407.000000	64.573192 
2406.000000	64.567875 
2405.000000	64.570045 
2404.000000	64.578199 
2403.000000	64.590024 
2402.000000	64.602994 
2401.000000	64.614558 
2400.000000	64.622759 
2399.000000	64.626359 
2398.000000	64.624977 
2397.000000	64.619016 
2396.000000	64.609432 
2395.000000	64.597678 
2394.000000	64.585208 
2393.000000	64.573383 
2392.000000	64.563131 
2391.000000	64.555096 
2390.000000	64.549469 
2389.000000	64.546203 
2388.000000	64.545130 
2387.000000	64.545941 
2386.000000	64.548397 
2385.000000	64.552402 
2384.000000	64.557647 
2383.000000	64.563870 
2382.000000	64.570474 
2381.000000	64.576768 
2380.000000	64.581918 
2379.000000	64.585137 
2378.000000	64.586114 
2377.000000	64.584660 
2376.000000	64.581060 
2375.000000	64.575910 
2374.000000	64.569950 
2373.000000	64.563965 
2372.000000	64.558482 
2371.000000	64.553833 
2370.000000	64.550042 
2369.000000	64.547085 
2368.000000	64.544773 
2367.000000	64.543104 
2366.000000	64.542317 
2365.000000	64.542746 
2364.000000	64.544653 
2363.000000	64.548325 
2362.000000	64.553737 
2361.000000	64.560484 
2360.000000	64.567780 
2359.000000	64.574718 
2358.000000	64.580273 
2357.000000	64.583659 
2356.000000	64.584255 
2355.000000	64.581918 
2354.000000	64.576768 
2353.000000	64.569234 
2352.000000	64.559888 
2351.000000	64.549231 
2350.000000	64.537930 
2349.000000	64.526677 
2348.000000	64.516472 
2347.000000	64.508199 
2346.000000	64.503169 
2345.000000	64.502596 
2344.000000	64.507722 
2343.000000	64.519357 
2342.000000	64.537763 
2341.000000	64.562416 
2340.000000	64.591932 
2339.000000	64.624261 
2338.000000	64.656829 
2337.000000	64.686775 
2336.000000	64.711403 
2335.000000	64.728522 
2334.000000	64.736843 
2333.000000	64.736056 
2332.000000	64.726948 
2331.000000	64.711117 
2330.000000	64.690923 
2329.000000	64.668774 
2328.000000	64.647150 
2327.000000	64.627623 
2326.000000	64.611101 
2325.000000	64.597439 
2324.000000	64.585733 
2323.000000	64.574837 
2322.000000	64.563393 
2321.000000	64.550805 
2320.000000	64.537048 
2319.000000	64.523077 
2318.000000	64.510416 
2317.000000	64.500975 
2316.000000	64.496350 
2315.000000	64.497804 
2314.000000	64.505672 
2313.000000	64.519572 
2312.000000	64.538240 
2311.000000	64.559817 
2310.000000	64.582133 
2309.000000	64.602923 
2308.000000	64.620113 
2307.000000	64.631915 
2306.000000	64.636969 
2305.000000	64.634490 
2304.000000	64.624309 
2303.000000	64.607191 
2302.000000	64.584636 
2301.000000	64.559054 
2300.000000	64.533281 
2299.000000	64.510250 
2298.000000	64.492273 
2297.000000	64.480996 
2296.000000	64.476895 
2295.000000	64.479064 
2294.000000	64.485669 
2293.000000	64.494156 
2292.000000	64.502048 
2291.000000	64.507341 
2290.000000	64.508962 
2289.000000	64.506888 
2288.000000	64.502191 
2287.000000	64.496588 
2286.000000	64.492154 
2285.000000	64.490580 
2284.000000	64.493155 
2283.000000	64.500236 
2282.000000	64.511442 
2281.000000	64.525794 
2280.000000	64.541602 
2279.000000	64.557099 
2278.000000	64.570498 
2277.000000	64.580535 
2276.000000	64.586520 
2275.000000	64.588665 
2274.000000	64.587926 
2273.000000	64.585733 
2272.000000	64.583659 
2271.000000	64.583063 
2270.000000	64.584803 
2269.000000	64.588809 
2268.000000	64.594221 
2267.000000	64.599466 
2266.000000	64.602828 
2265.000000	64.602661 
2264.000000	64.597868 
2263.000000	64.588069 
2262.000000	64.573907 
2261.000000	64.556694 
2260.000000	64.538097 
2259.000000	64.520049 
2258.000000	64.504170 
2257.000000	64.491796 
2256.000000	64.483857 
2255.000000	64.480876 
2254.000000	64.482975 
2253.000000	64.489960 
2252.000000	64.501261 
2251.000000	64.515829 
2250.000000	64.532184 
2249.000000	64.548397 
2248.000000	64.562559 
2247.000000	64.572715 
2246.000000	64.577317 
2245.000000	64.575624 
2244.000000	64.567804 
2243.000000	64.555001 
2242.000000	64.539194 
2241.000000	64.522814 
2240.000000	64.508366 
2239.000000	64.498066 
2238.000000	64.493370 
2237.000000	64.494848 
2236.000000	64.502263 
2235.000000	64.514684 
2234.000000	64.530754 
2233.000000	64.549016 
2232.000000	64.567875 
2231.000000	64.585828 
2230.000000	64.601540 
2229.000000	64.613676 
2228.000000	64.621138 
2227.000000	64.623069 
2226.000000	64.619040 
2225.000000	64.609265 
2224.000000	64.594793 
2223.000000	64.577269 
2222.000000	64.558815 
2221.000000	64.541506 
2220.000000	64.527130 
2219.000000	64.516687 
2218.000000	64.510416 
2217.000000	64.507842 
2216.000000	64.507937 
2215.000000	64.509582 
2214.000000	64.512014 
2213.000000	64.515137 
2212.000000	64.519214 
2211.000000	64.525032 
2210.000000	64.533257 
2209.000000	64.544343 
2208.000000	64.557909 
2207.000000	64.572930 
2206.000000	64.587855 
2205.000000	64.600729 
2204.000000	64.609742 
2203.000000	64.613437 
2202.000000	64.611172 
2201.000000	64.603066 
2200.000000	64.589905 
2199.000000	64.573311 
2198.000000	64.555311 
2197.000000	64.538168 
2196.000000	64.524006 
2195.000000	64.514446 
2194.000000	64.510464 
2193.000000	64.512038 
2192.000000	64.518523 
2191.000000	64.528441 
2190.000000	64.539957 
2189.000000	64.551210 
2188.000000	64.560556 
2187.000000	64.566779 
2186.000000	64.569377 
2185.000000	64.568376 
2184.000000	64.564466 
2183.000000	64.558458 
2182.000000	64.551210 
2181.000000	64.543390 
2180.000000	64.535403 
2179.000000	64.527249 
2178.000000	64.518618 
2177.000000	64.509201 
2176.000000	64.498734 
2175.000000	64.487218 
2174.000000	64.475107 
2173.000000	64.463257 
2172.000000	64.453053 
2171.000000	64.446139 
2170.000000	64.444184 
2169.000000	64.448380 
2168.000000	64.459252 
2167.000000	64.476251 
2166.000000	64.497876 
2165.000000	64.521718 
2164.000000	64.544939 
2163.000000	64.564943 
2162.000000	64.579820 
2161.000000	64.588594 
2160.000000	64.591479 
2159.000000	64.589762 
2158.000000	64.585328 
2157.000000	64.580082 
2156.000000	64.575600 
2155.000000	64.572525 
2154.000000	64.570760 
2153.000000	64.569425 
2152.000000	64.567542 
2151.000000	64.564132 
2150.000000	64.558887 
2149.000000	64.552044 
2148.000000	64.544534 
2147.000000	64.537286 
2146.000000	64.531230 
2145.000000	64.526748 
2144.000000	64.523553 
2143.000000	64.520764 
2142.000000	64.517378 
2141.000000	64.512228 
2140.000000	64.504814 
2139.000000	64.495158 
2138.000000	64.484119 
2137.000000	64.473128 
2136.000000	64.463925 
2135.000000	64.457988 
2134.000000	64.456248 
2133.000000	64.459037 
2132.000000	64.465665 
2131.000000	64.474821 
2130.000000	64.484620 
2129.000000	64.493203 
2128.000000	64.498853 
2127.000000	64.500546 
2126.000000	64.497685 
2125.000000	64.490318 
2124.000000	64.479088 
2123.000000	64.465069 
2122.000000	64.449739 
2121.000000	64.434671 
2120.000000	64.421439 
2119.000000	64.411473 
2118.000000	64.406013 
2117.000000	64.405775 
2116.000000	64.410853 
2115.000000	64.420628 
2114.000000	64.433860 
2113.000000	64.448523 
2112.000000	64.462447 
2111.000000	64.473414 
2110.000000	64.479374 
2109.000000	64.478898 
2108.000000	64.471387 
2107.000000	64.457178 
2106.000000	64.437484 
2105.000000	64.414191 
2104.000000	64.389657 
2103.000000	64.366364 
2102.000000	64.346599 
2101.000000	64.332175 
2100.000000	64.324235 
2099.000000	64.323115 
2098.000000	64.328527 
2097.000000	64.339303 
2096.000000	64.353752 
2095.000000	64.369559 
2094.000000	64.384126 
2093.000000	64.394855 
2092.000000	64.399623 
2091.000000	64.397144 
2090.000000	64.387369 
2089.000000	64.371681 
2088.000000	64.352631 
2087.000000	64.333438 
2086.000000	64.317297 
2085.000000	64.306902 
2084.000000	64.303660 
2083.000000	64.307880 
2082.000000	64.318466 
2081.000000	64.333271 
2080.000000	64.349865 
2079.000000	64.365863 
2078.000000	64.379501 
2077.000000	64.389586 
2076.000000	64.396095 
2075.000000	64.399600 
2074.000000	64.401125 
2073.000000	64.401841 
2072.000000	64.402484 
2071.000000	64.403319 
2070.000000	64.404010 
2069.000000	64.403915 
2068.000000	64.402103 
2067.000000	64.397811 
2066.000000	64.390802 
2065.000000	64.381456 
2064.000000	64.370799 
2063.000000	64.360237 
2062.000000	64.351511 
2061.000000	64.346003 
2060.000000	64.344739 
2059.000000	64.348030 
2058.000000	64.355421 
2057.000000	64.365625 
2056.000000	64.377021 
2055.000000	64.387583 
2054.000000	64.395523 
2053.000000	64.399480 
2052.000000	64.398765 
2051.000000	64.393448 
2050.000000	64.384269 
2049.000000	64.372491 
2048.000000	64.359664 
2047.000000	64.347314 
2046.000000	64.336633 
2045.000000	64.328384 
2044.000000	64.323091 
2043.000000	64.320826 
2042.000000	64.321517 
2041.000000	64.324951 
2040.000000	64.330887 
2039.000000	64.339089 
2038.000000	64.349174 
2037.000000	64.360713 
2036.000000	64.373040 
2035.000000	64.385223 
2034.000000	64.396166 
2033.000000	64.404821 
2032.000000	64.410305 
2031.000000	64.412260 
2030.000000	64.410686 
2029.000000	64.406371 
2028.000000	64.400386 
2027.000000	64.394259 
2026.000000	64.389419 
2025.000000	64.387083 
2024.000000	64.387631 
2023.000000	64.390850 
2022.000000	64.395642 
2021.000000	64.400506 
2020.000000	64.403653 
2019.000000	64.403605 
2018.000000	64.399504 
2017.000000	64.391374 
2016.000000	64.380121 
2015.000000	64.367341 
2014.000000	64.354991 
2013.000000	64.344692 
2012.000000	64.337348 
2011.000000	64.332985 
2010.000000	64.330649 
2009.000000	64.328598 
2008.000000	64.324855 
2007.000000	64.317536 
2006.000000	64.305758 
2005.000000	64.289760 
2004.000000	64.270687 
2003.000000	64.250826 
2002.000000	64.232754 
2001.000000	64.219069 
2000.000000	64.211487 
1999.000000	64.210772 
1998.000000	64.216423 
1997.000000	64.227080 
1996.000000	64.240574 
1995.000000	64.254736 
1994.000000	64.267563 
1993.000000	64.277839 
1992.000000	64.284968 
1991.000000	64.289331 
1990.000000	64.291930 
1989.000000	64.293932 
1988.000000	64.296483 
1987.000000	64.300370 
1986.000000	64.305853 
1985.000000	64.312672 
1984.000000	64.320087 
1983.000000	64.327096 
1982.000000	64.332699 
1981.000000	64.336109 
1980.000000	64.336848 
1979.000000	64.334893 
1978.000000	64.330720 
1977.000000	64.325141 
1976.000000	64.319038 
1975.000000	64.313626 
1974.000000	64.310073 
1973.000000	64.309358 
1972.000000	64.312243 
1971.000000	64.319086 
1970.000000	64.329624 
1969.000000	64.343357 
1968.000000	64.359068 
1967.000000	64.375305 
1966.000000	64.390373 
1965.000000	64.402699 
1964.000000	64.411091 
1963.000000	64.414882 
1962.000000	64.414167 
1961.000000	64.409518 
1960.000000	64.401936 
1959.000000	64.392423 
1958.000000	64.381885 
1957.000000	64.370822 
1956.000000	64.359450 
1955.000000	64.347577 
1954.000000	64.335036 
1953.000000	64.321565 
1952.000000	64.307165 
1951.000000	64.292263 
1950.000000	64.277148 
1949.000000	64.262509 
1948.000000	64.248967 
1947.000000	64.237308 
1946.000000	64.228200 
1945.000000	64.221978 
1944.000000	64.218807 
1943.000000	64.218807 
1942.000000	64.221763 
1941.000000	64.227414 
1940.000000	64.235258 
1939.000000	64.244771 
1938.000000	64.255404 
1937.000000	64.266514 
1936.000000	64.277553 
1935.000000	64.287996 
1934.000000	64.297556 
1933.000000	64.305973 
1932.000000	64.313220 
1931.000000	64.319109 
1930.000000	64.323544 
1929.000000	64.326310 
1928.000000	64.326977 
1927.000000	64.325046 
1926.000000	64.319872 
1925.000000	64.310741 
1924.000000	64.297127 
1923.000000	64.279007 
1922.000000	64.256954 
1921.000000	64.232182 
1920.000000	64.206647 
1919.000000	64.182710 
1918.000000	64.162874 
1917.000000	64.149069 
1916.000000	64.142608 
1915.000000	64.143633 
1914.000000	64.151620 
1913.000000	64.165234 
1912.000000	64.182972 
1911.000000	64.203429 
1910.000000	64.225339 
1909.000000	64.247608 
1908.000000	64.269137 
1907.000000	64.288663 
1906.000000	64.304590 
1905.000000	64.315176 
1904.000000	64.318680 
1903.000000	64.313864 
1902.000000	64.300322 
1901.000000	64.278817 
1900.000000	64.251565 
1899.000000	64.221835 
1898.000000	64.193487 
1897.000000	64.170336 
1896.000000	64.155387 
1895.000000	64.149999 
1894.000000	64.154005 
1893.000000	64.165472 
1892.000000	64.181423 
1891.000000	64.198493 
1890.000000	64.213514 
1889.000000	64.224481 
1888.000000	64.230704 
1887.000000	64.232850 
1886.000000	64.232301 
1885.000000	64.230895 
1884.000000	64.230132 
1883.000000	64.230895 
1882.000000	64.233183 
1881.000000	64.236283 
1880.000000	64.238929 
1879.000000	64.240121 
1878.000000	64.239335 
1877.000000	64.236664 
1876.000000	64.232778 
1875.000000	64.228677 
1874.000000	64.225363 
1873.000000	64.223337 
1872.000000	64.222693 
1871.000000	64.222884 
1870.000000	64.222955 
1869.000000	64.222097 
1868.000000	64.219808 
1867.000000	64.216041 
1866.000000	64.211201 
1865.000000	64.206099 
1864.000000	64.201855 
1863.000000	64.199352 
1862.000000	64.199209 
1861.000000	64.201545 
1860.000000	64.206123 
1859.000000	64.212512 
1858.000000	64.220118 
1857.000000	64.228200 
1856.000000	64.236116 
1855.000000	64.243340 
1854.000000	64.249324 
1853.000000	64.253425 
1852.000000	64.255356 
1851.000000	64.255070 
1850.000000	64.253115 
1849.000000	64.250349 
1848.000000	64.248156 
1847.000000	64.248013 
1846.000000	64.251208 
1845.000000	64.258623 
1844.000000	64.270401 
1843.000000	64.285945 
1842.000000	64.304018 
1841.000000	64.322686 
1840.000000	64.340066 
1839.000000	64.354324 
1838.000000	64.364051 
1837.000000	64.368677 
1836.000000	64.368104 
1835.000000	64.362907 
1834.000000	64.354038 
1833.000000	64.342308 
1832.000000	64.328479 
1831.000000	64.312791 
1830.000000	64.295291 
1829.000000	64.275932 
1828.000000	64.254832 
1827.000000	64.232492 
1826.000000	64.209890 
1825.000000	64.188456 
1824.000000	64.169979 
1823.000000	64.156055 
1822.000000	64.147806 
1821.000000	64.145660 
1820.000000	64.149069 
1819.000000	64.156675 
1818.000000	64.166545 
1817.000000	64.176678 
1816.000000	64.185523 
1815.000000	64.192080 
1814.000000	64.196348 
1813.000000	64.198970 
1812.000000	64.201259 
1811.000000	64.204549 
1810.000000	64.209890 
1809.000000	64.217782 
1808.000000	64.227914 
1807.000000	64.239335 
1806.000000	64.250445 
1805.000000	64.259529 
1804.000000	64.264702 
1803.000000	64.264988 
1802.000000	64.259958 
1801.000000	64.250183 
1800.000000	64.236950 
1799.000000	64.222216 
1798.000000	64.208078 
1797.000000	64.196181 
1796.000000	64.187550 
1795.000000	64.182472 
1794.000000	64.180183 
1793.000000	64.179444 
1792.000000	64.178800 
1791.000000	64.176940 
1790.000000	64.172983 
1789.000000	64.166784 
1788.000000	64.158701 
1787.000000	64.149689 
1786.000000	64.140892 
1785.000000	64.133477 
1784.000000	64.128327 
1783.000000	64.125823 
1782.000000	64.126062 
1781.000000	64.129042 
1780.000000	64.134454 
1779.000000	64.141798 
1778.000000	64.150643 
1777.000000	64.160466 
1776.000000	64.170646 
1775.000000	64.180541 
1774.000000	64.189434 
1773.000000	64.196705 
1772.000000	64.201784 
1771.000000	64.204478 
1770.000000	64.204812 
1769.000000	64.203310 
1768.000000	64.200615 
1767.000000	64.197707 
1766.000000	64.195442 
1765.000000	64.194583 
1764.000000	64.195322 
1763.000000	64.197278 
1762.000000	64.199280 
1761.000000	64.199662 
1760.000000	64.196324 
1759.000000	64.187288 
1758.000000	64.170980 
1757.000000	64.146661 
1756.000000	64.115047 
1755.000000	64.077997 
1754.000000	64.038681 
1753.000000	64.000892 
1752.000000	63.968348 
1751.000000	63.943886 
1750.000000	63.929009 
1749.000000	63.923621 
1748.000000	63.926076 
1747.000000	63.933610 
1746.000000	63.943028 
1745.000000	63.951349 
1744.000000	63.956475 
1743.000000	63.957476 
1742.000000	63.954329 
1741.000000	63.947749 
1740.000000	63.938856 
1739.000000	63.928723 
1738.000000	63.918256 
1737.000000	63.908028 
1736.000000	63.898491 
1735.000000	63.890099 
1734.000000	63.883423 
1733.000000	63.879060 
1732.000000	63.877367 
1731.000000	63.878369 
1730.000000	63.881349 
1729.000000	63.885498 
1728.000000	63.889455 
1727.000000	63.892459 
1726.000000	63.894248 
1725.000000	63.895559 
1724.000000	63.898015 
1723.000000	63.903570 
1722.000000	63.914275 
1721.000000	63.931155 
1720.000000	63.953495 
1719.000000	63.978981 
1718.000000	64.003968 
1717.000000	64.024281 
1716.000000	64.036250 
1715.000000	64.037728 
1714.000000	64.028811 
1713.000000	64.011549 
1712.000000	63.989615 
1711.000000	63.967490 
1710.000000	63.949179 
1709.000000	63.937473 
1708.000000	63.933372 
1707.000000	63.936161 
1706.000000	63.943672 
1705.000000	63.953065 
1704.000000	63.961648 
1703.000000	63.967251 
1702.000000	63.968992 
1701.000000	63.966917 
1700.000000	63.962221 
1699.000000	63.956475 
1698.000000	63.951373 
1697.000000	63.948225 
1696.000000	63.947749 
1695.000000	63.949966 
1694.000000	63.954019 
1693.000000	63.958597 
1692.000000	63.962078 
1691.000000	63.963079 
1690.000000	63.960671 
1689.000000	63.954758 
1688.000000	63.946294 
1687.000000	63.937044 
1686.000000	63.929319 
1685.000000	63.925361 
1684.000000	63.926792 
1683.000000	63.934135 
1682.000000	63.946676 
1681.000000	63.962531 
1680.000000	63.979053 
1679.000000	63.993287 
1678.000000	64.002823 
1677.000000	64.006114 
1676.000000	64.003062 
1675.000000	63.994669 
1674.000000	63.982868 
1673.000000	63.969802 
1672.000000	63.957524 
1671.000000	63.947105 
1670.000000	63.938760 
1669.000000	63.931989 
1668.000000	63.925790 
1667.000000	63.919496 
1666.000000	63.912892 
1665.000000	63.906764 
1664.000000	63.902664 
1663.000000	63.902401 
1662.000000	63.907599 
1661.000000	63.919043 
1660.000000	63.936281 
1659.000000	63.957452 
1658.000000	63.979506 
1657.000000	63.999223 
1656.000000	64.013791 
1655.000000	64.021492 
1654.000000	64.022135 
1653.000000	64.017105 
1652.000000	64.009118 
1651.000000	64.001107 
1650.000000	63.995647 
1649.000000	63.994383 
1648.000000	63.997507 
1647.000000	64.004087 
1646.000000	64.012074 
1645.000000	64.019274 
1644.000000	64.023423 
1643.000000	64.023017 
1642.000000	64.017558 
1641.000000	64.007163 
1640.000000	63.993000 
1639.000000	63.976907 
1638.000000	63.961243 
1637.000000	63.948297 
1636.000000	63.940525 
1635.000000	63.940000 
1634.000000	63.948154 
1633.000000	63.965511 
1632.000000	63.991475 
1631.000000	64.024448 
1630.000000	64.061832 
1629.000000	64.100527 
1628.000000	64.137363 
1627.000000	64.169526 
1626.000000	64.195036 
1625.000000	64.212894 
1624.000000	64.223217 
1623.000000	64.226841 
1622.000000	64.225125 
1621.000000	64.219188 
1620.000000	64.210033 
1619.000000	64.197921 
1618.000000	64.183044 
1617.000000	64.165234 
1616.000000	64.144372 
1615.000000	64.120459 
1614.000000	64.093971 
1613.000000	64.065694 
1612.000000	64.036798 
1611.000000	64.008426 
1610.000000	63.981580 
1609.000000	63.957190 
1608.000000	63.936066 
1607.000000	63.918995 
1606.000000	63.906645 
1605.000000	63.899540 
1604.000000	63.897848 
1603.000000	63.901233 
1602.000000	63.908863 
1601.000000	63.919115 
1600.000000	63.930106 
1599.000000	63.939428 
1598.000000	63.945198 
1597.000000	63.946270 
1596.000000	63.942933 
1595.000000	63.936448 
1594.000000	63.929128 
1593.000000	63.924050 
1592.000000	63.923907 
1591.000000	63.930654 
1590.000000	63.944411 
1589.000000	63.963651 
1588.000000	63.984966 
1587.000000	64.004158 
1586.000000	64.016604 
1585.000000	64.018583 
1584.000000	64.008140 
1583.000000	63.985681 
1582.000000	63.954019 
1581.000000	63.917827 
1580.000000	63.883113 
1579.000000	63.855648 
1578.000000	63.839864 
1577.000000	63.837766 
1576.000000	63.848590 
1575.000000	63.869166 
1574.000000	63.894462 
1573.000000	63.918590 
1572.000000	63.936209 
1571.000000	63.943815 
1570.000000	63.939666 
1569.000000	63.924574 
1568.000000	63.900947 
1567.000000	63.872647 
1566.000000	63.843989 
1565.000000	63.818979 
1564.000000	63.800740 
1563.000000	63.790798 
1562.000000	63.789296 
1561.000000	63.794875 
1560.000000	63.805246 
1559.000000	63.817691 
1558.000000	63.829636 
1557.000000	63.839054 
1556.000000	63.844823 
1555.000000	63.846778 
1554.000000	63.845491 
1553.000000	63.842248 
1552.000000	63.838529 
1551.000000	63.835954 
1550.000000	63.836050 
1549.000000	63.840174 
1548.000000	63.849353 
1547.000000	63.863945 
1546.000000	63.883543 
1545.000000	63.906931 
1544.000000	63.932204 
1543.000000	63.956737 
1542.000000	63.977503 
1541.000000	63.991618 
1540.000000	63.996815 
1539.000000	63.991975 
1538.000000	63.977432 
1537.000000	63.954997 
1536.000000	63.927555 
1535.000000	63.898444 
1534.000000	63.870978 
1533.000000	63.847827 
1532.000000	63.830852 
1531.000000	63.820862 
1530.000000	63.817763 
1529.000000	63.820672 
1528.000000	63.828301 
1527.000000	63.839221 
1526.000000	63.851833 
1525.000000	63.864755 
1524.000000	63.876986 
1523.000000	63.888025 
1522.000000	63.897824 
1521.000000	63.906621 
1520.000000	63.914966 
1519.000000	63.923168 
1518.000000	63.931298 
1517.000000	63.939046 
1516.000000	63.945817 
1515.000000	63.950634 
1514.000000	63.952660 
1513.000000	63.951444 
1512.000000	63.947129 
1511.000000	63.940382 
1510.000000	63.932180 
1509.000000	63.923549 
1508.000000	63.915443 
1507.000000	63.908147 
1506.000000	63.901352 
1505.000000	63.894200 
1504.000000	63.885664 
1503.000000	63.875126 
1502.000000	63.862657 
1501.000000	63.849306 
1500.000000	63.836956 
1499.000000	63.827919 
1498.000000	63.824248 
1497.000000	63.826918 
1496.000000	63.835382 
1495.000000	63.847374 
1494.000000	63.859629 
1493.000000	63.868808 
1492.000000	63.872146 
1491.000000	63.868761 
1490.000000	63.859438 
1489.000000	63.846182 
1488.000000	63.831925 
1487.000000	63.819050 
1486.000000	63.809227 
1485.000000	63.802862 
1484.000000	63.799071 
1483.000000	63.796377 
1482.000000	63.792800 
1481.000000	63.786578 
1480.000000	63.776350 
1479.000000	63.761758 
1478.000000	63.743495 
1477.000000	63.723182 
1476.000000	63.703083 
1475.000000	63.685607 
1474.000000	63.672685 
1473.000000	63.665437 
1472.000000	63.663816 
1471.000000	63.666868 
1470.000000	63.672780 
1469.000000	63.679671 
1468.000000	63.686060 
1467.000000	63.691258 
1466.000000	63.695693 
1465.000000	63.700437 
1464.000000	63.707113 
1463.000000	63.716888 
1462.000000	63.729977 
1461.000000	63.745522 
1460.000000	63.761425 
1459.000000	63.775062 
1458.000000	63.784122 
1457.000000	63.787174 
1456.000000	63.784456 
1455.000000	63.777470 
1454.000000	63.768744 
1453.000000	63.760662 
1452.000000	63.755178 
1451.000000	63.752985 
1450.000000	63.753509 
1449.000000	63.755154 
1448.000000	63.756108 
1447.000000	63.754916 
1446.000000	63.751196 
1445.000000	63.745641 
1444.000000	63.739991 
1443.000000	63.736462 
1442.000000	63.737177 
1441.000000	63.743329 
1440.000000	63.755106 
1439.000000	63.771605 
1438.000000	63.791203 
1437.000000	63.812160 
1436.000000	63.832807 
1435.000000	63.852000 
1434.000000	63.869047 
1433.000000	63.883590 
1432.000000	63.895440 
1431.000000	63.904309 
1430.000000	63.909959 
1429.000000	63.912129 
1428.000000	63.910531 
1427.000000	63.905191 
1426.000000	63.896250 
1425.000000	63.884472 
1424.000000	63.870525 
1423.000000	63.855123 
1422.000000	63.838601 
1421.000000	63.821029 
1420.000000	63.801956 
1419.000000	63.780713 
1418.000000	63.756561 
1417.000000	63.729047 
1416.000000	63.698601 
1415.000000	63.666510 
1414.000000	63.634729 
1413.000000	63.605904 
1412.000000	63.582682 
1411.000000	63.567328 
1410.000000	63.561201 
1409.000000	63.564419 
1408.000000	63.575839 
1407.000000	63.593435 
1406.000000	63.614344 
1405.000000	63.635969 
1404.000000	63.656187 
1403.000000	63.673901 
1402.000000	63.688945 
1401.000000	63.702225 
1400.000000	63.714933 
1399.000000	63.728308 
1398.000000	63.743233 
1397.000000	63.759469 
1396.000000	63.776111 
1395.000000	63.791394 
1394.000000	63.803386 
1393.000000	63.810062 
1392.000000	63.809967 
1391.000000	63.802504 
1390.000000	63.788151 
1389.000000	63.768339 
1388.000000	63.745117 
1387.000000	63.721013 
1386.000000	63.698410 
1385.000000	63.679146 
1384.000000	63.664197 
1383.000000	63.653635 
1382.000000	63.647103 
1381.000000	63.643789 
1380.000000	63.643050 
1379.000000	63.644576 
1378.000000	63.648414 
1377.000000	63.654708 
1376.000000	63.663411 
1375.000000	63.673996 
1374.000000	63.685369 
1373.000000	63.695883 
1372.000000	63.703703 
1371.000000	63.707113 
1370.000000	63.705086 
1369.000000	63.697433 
1368.000000	63.685107 
1367.000000	63.670015 
1366.000000	63.654398 
1365.000000	63.640499 
1364.000000	63.630056 
1363.000000	63.623690 
1362.000000	63.620972 
1361.000000	63.620591 
1360.000000	63.620710 
1359.000000	63.619446 
1358.000000	63.615226 
1357.000000	63.607358 
1356.000000	63.596105 
1355.000000	63.582754 
1354.000000	63.569259 
1353.000000	63.557887 
1352.000000	63.550758 
1351.000000	63.549447 
1350.000000	63.554453 
1349.000000	63.565421 
1348.000000	63.580799 
1347.000000	63.598656 
1346.000000	63.616967 
1345.000000	63.634324 
1344.000000	63.649940 
1343.000000	63.664007 
1342.000000	63.677287 
1341.000000	63.690829 
1340.000000	63.705372 
1339.000000	63.720846 
1338.000000	63.736104 
1337.000000	63.749146 
1336.000000	63.757610 
1335.000000	63.759326 
1334.000000	63.753056 
1333.000000	63.739156 
1332.000000	63.719677 
1331.000000	63.697862 
1330.000000	63.677406 
1329.000000	63.662004 
1328.000000	63.653922 
1327.000000	63.653922 
1326.000000	63.660764 
1325.000000	63.671779 
1324.000000	63.683152 
1323.000000	63.690996 
1322.000000	63.692164 
1321.000000	63.684654 
1320.000000	63.668584 
1319.000000	63.645696 
1318.000000	63.619327 
1317.000000	63.593435 
1316.000000	63.571906 
1315.000000	63.557863 
1314.000000	63.553094 
1313.000000	63.557434 
1312.000000	63.569474 
1311.000000	63.586878 
1310.000000	63.606810 
1309.000000	63.626551 
1308.000000	63.644289 
1307.000000	63.659119 
1306.000000	63.671040 
1305.000000	63.680434 
1304.000000	63.687920 
1303.000000	63.693737 
1302.000000	63.697743 
1301.000000	63.699293 
1300.000000	63.697528 
1299.000000	63.691711 
1298.000000	63.681840 
1297.000000	63.668370 
1296.000000	63.652467 
1295.000000	63.635349 
1294.000000	63.618302 
1293.000000	63.602018 
1292.000000	63.586568 
1291.000000	63.571357 
1290.000000	63.555502 
1289.000000	63.538122 
1288.000000	63.518786 
1287.000000	63.497734 
1286.000000	63.475990 
1285.000000	63.454675 
1284.000000	63.434720 
1283.000000	63.416528 
1282.000000	63.399815 
1281.000000	63.383460 
1280.000000	63.366127 
1279.000000	63.346719 
1278.000000	63.325023 
1277.000000	63.301968 
1276.000000	63.279724 
1275.000000	63.261055 
1274.000000	63.248825 
1273.000000	63.244915 
1272.000000	63.250112 
1271.000000	63.263225 
1270.000000	63.281798 
1269.000000	63.302540 
1268.000000	63.322234 
1267.000000	63.338327 
1266.000000	63.349843 
1265.000000	63.357090 
1264.000000	63.361668 
1263.000000	63.365840 
1262.000000	63.371992 
1261.000000	63.381814 
1260.000000	63.396310 
1259.000000	63.415598 
1258.000000	63.439154 
1257.000000	63.465929 
1256.000000	63.494825 
1255.000000	63.524746 
1254.000000	63.554430 
1253.000000	63.582348 
1252.000000	63.606810 
1251.000000	63.625931 
1250.000000	63.638091 
1249.000000	63.641786 
1248.000000	63.636803 
1247.000000	63.623833 
1246.000000	63.604807 
1245.000000	63.582110 
1244.000000	63.558793 
1243.000000	63.537311 
1242.000000	63.519454 
1241.000000	63.505935 
1240.000000	63.496470 
1239.000000	63.490009 
1238.000000	63.485121 
1237.000000	63.480591 
1236.000000	63.475608 
1235.000000	63.470244 
1234.000000	63.465285 
1233.000000	63.461995 
1232.000000	63.461422 
1231.000000	63.464236 
1230.000000	63.470315 
1229.000000	63.478684 
1228.000000	63.487625 
1227.000000	63.495016 
1226.000000	63.498973 
1225.000000	63.498067 
1224.000000	63.491773 
1223.000000	63.480639 
1222.000000	63.466334 
1221.000000	63.451004 
1220.000000	63.436937 
1219.000000	63.425970 
1218.000000	63.419437 
1217.000000	63.417601 
1216.000000	63.420152 
1215.000000	63.426113 
1214.000000	63.434243 
1213.000000	63.443517 
1212.000000	63.453054 
1211.000000	63.462042 
1210.000000	63.469886 
1209.000000	63.476014 
1208.000000	63.480091 
1207.000000	63.481855 
1206.000000	63.481497 
1205.000000	63.479447 
1204.000000	63.476443 
1203.000000	63.473415 
1202.000000	63.471031 
1201.000000	63.469648 
1200.000000	63.468694 
1199.000000	63.466763 
1198.000000	63.461804 
1197.000000	63.451743 
1196.000000	63.435029 
1195.000000	63.411474 
1194.000000	63.382267 
1193.000000	63.350272 
1192.000000	63.319492 
1191.000000	63.294482 
1190.000000	63.279080 
1189.000000	63.275790 
1188.000000	63.285255 
1187.000000	63.306188 
1186.000000	63.335514 
1185.000000	63.368940 
1184.000000	63.401842 
1183.000000	63.430094 
1182.000000	63.450527 
1181.000000	63.461661 
1180.000000	63.463664 
1179.000000	63.458299 
1178.000000	63.448286 
1177.000000	63.436985 
1176.000000	63.427495 
1175.000000	63.422298 
1174.000000	63.422727 
1173.000000	63.428759 
1172.000000	63.439035 
1171.000000	63.451170 
1170.000000	63.462257 
1169.000000	63.469505 
1168.000000	63.470721 
1167.000000	63.464641 
1166.000000	63.451433 
1165.000000	63.432335 
1164.000000	63.409614 
1163.000000	63.385844 
1162.000000	63.363742 
1161.000000	63.345384 
1160.000000	63.332343 
1159.000000	63.325262 
1158.000000	63.324189 
1157.000000	63.328576 
1156.000000	63.337421 
1155.000000	63.349556 
1154.000000	63.363766 
1153.000000	63.378953 
1152.000000	63.394069 
1151.000000	63.408231 
1150.000000	63.420653 
1149.000000	63.430786 
1148.000000	63.438344 
1147.000000	63.443350 
1146.000000	63.446187 
1145.000000	63.447403 
1144.000000	63.447761 
1143.000000	63.447737 
1142.000000	63.447332 
1141.000000	63.445901 
1140.000000	63.442134 
1139.000000	63.434529 
1138.000000	63.421916 
1137.000000	63.404059 
1136.000000	63.381695 
1135.000000	63.356757 
1134.000000	63.331580 
1133.000000	63.308906 
1132.000000	63.290762 
1131.000000	63.278937 
1130.000000	63.274431 
1129.000000	63.277769 
1128.000000	63.288974 
1127.000000	63.307499 
1126.000000	63.332343 
1125.000000	63.361835 
1124.000000	63.393640 
1123.000000	63.425469 
1122.000000	63.455033 
1121.000000	63.480639 
1120.000000	63.501071 
1119.000000	63.515591 
1118.000000	63.523674 
1117.000000	63.525080 
1116.000000	63.519692 
1115.000000	63.507628 
1114.000000	63.489437 
1113.000000	63.466453 
1112.000000	63.440394 
1111.000000	63.413381 
1110.000000	63.387489 
1109.000000	63.364434 
1108.000000	63.345217 
1107.000000	63.330364 
1106.000000	63.319396 
1105.000000	63.311457 
1104.000000	63.305211 
1103.000000	63.299179 
1102.000000	63.292145 
1101.000000	63.283348 
1100.000000	63.272571 
1099.000000	63.260030 
1098.000000	63.246536 
1097.000000	63.233184 
1096.000000	63.221168 
1095.000000	63.211536 
1094.000000	63.204956 
1093.000000	63.201713 
1092.000000	63.201642 
1091.000000	63.204360 
1090.000000	63.209223 
1089.000000	63.215565 
1088.000000	63.222575 
1087.000000	63.229751 
1086.000000	63.236474 
1085.000000	63.242149 
1084.000000	63.245964 
1083.000000	63.247036 
1082.000000	63.244438 
1081.000000	63.237571 
1080.000000	63.226008 
1079.000000	63.210248 
1078.000000	63.191556 
1077.000000	63.172435 
1076.000000	63.155961 
1075.000000	63.145780 
1074.000000	63.145136 
1073.000000	63.156342 
1072.000000	63.180017 
1071.000000	63.214850 
1070.000000	63.257575 
1069.000000	63.303399 
1068.000000	63.347196 
1067.000000	63.384127 
1066.000000	63.410806 
1065.000000	63.425731 
1064.000000	63.429784 
1063.000000	63.425564 
1062.000000	63.416981 
1061.000000	63.408303 
1060.000000	63.402986 
1059.000000	63.403129 
1058.000000	63.408970 
1057.000000	63.419127 
1056.000000	63.430690 
1055.000000	63.440251 
1054.000000	63.444805 
1053.000000	63.442349 
1052.000000	63.432526 
1051.000000	63.416576 
1050.000000	63.396739 
1049.000000	63.375663 
1048.000000	63.355588 
1047.000000	63.337945 
1046.000000	63.322758 
1045.000000	63.309025 
1044.000000	63.294982 
1043.000000	63.278937 
1042.000000	63.259506 
1041.000000	63.236188 
1040.000000	63.209366 
1039.000000	63.180327 
1038.000000	63.150882 
1037.000000	63.123011 
1036.000000	63.098335 
1035.000000	63.077807 
1034.000000	63.061666 
1033.000000	63.049602 
1032.000000	63.040733 
1031.000000	63.034176 
1030.000000	63.029408 
1029.000000	63.026618 
1028.000000	63.026380 
1027.000000	63.029885 
1026.000000	63.038277 
1025.000000	63.052749 
1024.000000	63.073563 
1023.000000	63.100409 
1022.000000	63.132047 
1021.000000	63.166785 
1020.000000	63.202500 
1019.000000	63.237190 
1018.000000	63.269019 
1017.000000	63.296818 
1016.000000	63.320112 
1015.000000	63.339090 
1014.000000	63.354206 
1013.000000	63.366341 
1012.000000	63.376545 
1011.000000	63.385653 
1010.000000	63.394093 
1009.000000	63.402080 
1008.000000	63.409399 
1007.000000	63.415479 
1006.000000	63.419270 
1005.000000	63.419842 
1004.000000	63.416290 
1003.000000	63.408136 
1002.000000	63.395547 
1001.000000	63.379168 
1000.000000	63.360261 
999.000000	 63.340497 
998.000000	 63.321399 
997.000000	 63.304400 
996.000000	 63.290309 
995.000000	 63.279461 
994.000000	 63.271570 
993.000000	 63.265728 
992.000000	 63.261032 
991.000000	 63.256549 
990.000000	 63.251852 
989.000000	 63.246679 
988.000000	 63.241600 
987.000000	 63.237595 
986.000000	 63.235783 
985.000000	 63.236951 
984.000000	 63.241720 
983.000000	 63.249993 
982.000000	 63.260746 
981.000000	 63.272309 
980.000000	 63.282537 
979.000000	 63.289403 
978.000000	 63.291192 
977.000000	 63.287138 
976.000000	 63.277530 
975.000000	 63.264012 
974.000000	 63.249039 
973.000000	 63.235735 
972.000000	 63.226962 
971.000000	 63.224864 
970.000000	 63.230490 
969.000000	 63.243508 
968.000000	 63.262438 
967.000000	 63.284873 
966.000000	 63.308215 
965.000000	 63.330101 
964.000000	 63.348793 
963.000000	 63.363385 
962.000000	 63.373613 
961.000000	 63.379573 
960.000000	 63.381290 
959.000000	 63.378357 
958.000000	 63.370203 
957.000000	 63.355851 
956.000000	 63.334417 
955.000000	 63.305854 
954.000000	 63.271260 
953.000000	 63.233065 
952.000000	 63.195037 
951.000000	 63.161468 
950.000000	 63.136601 
949.000000	 63.123893 
948.000000	 63.124966 
947.000000	 63.139486 
946.000000	 63.164639 
945.000000	 63.196206 
944.000000	 63.228845 
943.000000	 63.257288 
942.000000	 63.277173 
941.000000	 63.285756 
940.000000	 63.282203 
939.000000	 63.267469 
938.000000	 63.244152 
937.000000	 63.215708 
936.000000	 63.186216 
935.000000	 63.159632 
934.000000	 63.139605 
933.000000	 63.129258 
932.000000	 63.130712 
931.000000	 63.144946 
930.000000	 63.171458 
929.000000	 63.208198 
928.000000	 63.251304 
927.000000	 63.295650 
926.000000	 63.335227 
925.000000	 63.364338 
924.000000	 63.378643 
923.000000	 63.376164 
922.000000	 63.357543 
921.000000	 63.326072 
920.000000	 63.287401 
919.000000	 63.248038 
918.000000	 63.213825 
917.000000	 63.188767 
916.000000	 63.174724 
915.000000	 63.171124 
914.000000	 63.175773 
913.000000	 63.185811 
912.000000	 63.198447 
911.000000	 63.211894 
910.000000	 63.225913 
909.000000	 63.240981 
908.000000	 63.257789 
907.000000	 63.276410 
906.000000	 63.295626 
905.000000	 63.312959 
904.000000	 63.325262 
903.000000	 63.329386 
902.000000	 63.323330 
901.000000	 63.307023 
900.000000	 63.282704 
899.000000	 63.254809 
898.000000	 63.229155 
897.000000	 63.211345 
896.000000	 63.206005 
895.000000	 63.215827 
894.000000	 63.240957 
893.000000	 63.279032 
892.000000	 63.325691 
891.000000	 63.375616 
890.000000	 63.423132 
889.000000	 63.463330 
888.000000	 63.492202 
887.000000	 63.507175 
886.000000	 63.507318 
885.000000	 63.493323 
884.000000	 63.467597 
883.000000	 63.434052 
882.000000	 63.397574 
881.000000	 63.363623 
880.000000	 63.336920 
879.000000	 63.321042 
878.000000	 63.317203 
877.000000	 63.324308 
876.000000	 63.339138 
875.000000	 63.356995 
874.000000	 63.372755 
873.000000	 63.382077 
872.000000	 63.382101 
871.000000	 63.372206 
870.000000	 63.353657 
869.000000	 63.329148 
868.000000	 63.302016 
867.000000	 63.275384 
866.000000	 63.251662 
865.000000	 63.231968 
864.000000	 63.216495 
863.000000	 63.204407 
862.000000	 63.194775 
861.000000	 63.186359 
860.000000	 63.177990 
859.000000	 63.168764 
858.000000	 63.157844 
857.000000	 63.144969 
856.000000	 63.130402 
855.000000	 63.115262 
854.000000	 63.101243 
853.000000	 63.090538 
852.000000	 63.085079 
851.000000	 63.086318 
850.000000	 63.094925 
849.000000	 63.110470 
848.000000	 63.131570 
847.000000	 63.156104 
846.000000	 63.181829 
845.000000	 63.206624 
844.000000	 63.228750 
843.000000	 63.247060 
842.000000	 63.261055 
841.000000	 63.270640 
840.000000	 63.276100 
839.000000	 63.277673 
838.000000	 63.275551 
837.000000	 63.269901 
836.000000	 63.261079 
835.000000	 63.249945 
834.000000	 63.237738 
833.000000	 63.226056 
832.000000	 63.216805 
831.000000	 63.211798 
830.000000	 63.212323 
829.000000	 63.218879 
828.000000	 63.230872 
827.000000	 63.246631 
826.000000	 63.263535 
825.000000	 63.278532 
824.000000	 63.288784 
823.000000	 63.292074 
822.000000	 63.287353 
821.000000	 63.274955 
820.000000	 63.256406 
819.000000	 63.233971 
818.000000	 63.210034 
817.000000	 63.186311 
816.000000	 63.163852 
815.000000	 63.142681 
814.000000	 63.122224 
813.000000	 63.101768 
812.000000	 63.081097 
811.000000	 63.060593 
810.000000	 63.041734 
809.000000	 63.026499 
808.000000	 63.016748 
807.000000	 63.013911 
806.000000	 63.018274 
805.000000	 63.028693 
804.000000	 63.042688 
803.000000	 63.057017 
802.000000	 63.068437 
801.000000	 63.074421 
800.000000	 63.073611 
799.000000	 63.066077 
798.000000	 63.053393 
797.000000	 63.037729 
796.000000	 63.021564 
795.000000	 63.007116 
794.000000	 62.996077 
793.000000	 62.989258 
792.000000	 62.986898 
791.000000	 62.988901 
790.000000	 62.995171 
789.000000	 63.005757 
788.000000	 63.021016 
787.000000	 63.041329 
786.000000	 63.066983 
785.000000	 63.097906 
784.000000	 63.133144 
783.000000	 63.170552 
782.000000	 63.207030 
781.000000	 63.239049 
780.000000	 63.262939 
779.000000	 63.275671 
778.000000	 63.275337 
777.000000	 63.261866 
776.000000	 63.236904 
775.000000	 63.203692 
774.000000	 63.166403 
773.000000	 63.129520 
772.000000	 63.096714 
771.000000	 63.070464 
770.000000	 63.051486 
769.000000	 63.038825 
768.000000	 63.030338 
767.000000	 63.023495 
766.000000	 63.015794 
765.000000	 63.005423 
764.000000	 62.991642 
763.000000	 62.974858 
762.000000	 62.956285 
761.000000	 62.937712 
760.000000	 62.921309 
759.000000	 62.909245 
758.000000	 62.903022 
757.000000	 62.903451 
756.000000	 62.910532 
755.000000	 62.923312 
754.000000	 62.939953 
753.000000	 62.958073 
752.000000	 62.975144 
751.000000	 62.988972 
750.000000	 62.997841 
749.000000	 63.001060 
748.000000	 62.998747 
747.000000	 62.991857 
746.000000	 62.981796 
745.000000	 62.969660 
744.000000	 62.956094 
743.000000	 62.941145 
742.000000	 62.924408 
741.000000	 62.905144 
740.000000	 62.882900 
739.000000	 62.857818 
738.000000	 62.830519 
737.000000	 62.802553 
736.000000	 62.775611 
735.000000	 62.751173 
734.000000	 62.730264 
733.000000	 62.713313 
732.000000	 62.700223 
731.000000	 62.690472 
730.000000	 62.683510 
729.000000	 62.678956 
728.000000	 62.676954 
727.000000	 62.677645 
726.000000	 62.681388 
725.000000	 62.687873 
724.000000	 62.696766 
723.000000	 62.707114 
722.000000	 62.718009 
721.000000	 62.728261 
720.000000	 62.737369 
719.000000	 62.745451 
718.000000	 62.753057 
717.000000	 62.760543 
716.000000	 62.767648 
715.000000	 62.773418 
714.000000	 62.775659 
713.000000	 62.771320 
712.000000	 62.757349 
711.000000	 62.731480 
710.000000	 62.693119 
709.000000	 62.643623 
708.000000	 62.586784 
707.000000	 62.528085 
706.000000	 62.473440 
705.000000	 62.428116 
704.000000	 62.395286 
703.000000	 62.376022 
702.000000	 62.369036 
701.000000	 62.372088 
700.000000	 62.382006 
699.000000	 62.397289 
698.000000	 62.417936 
697.000000	 62.446427 
696.000000	 62.485718 
695.000000	 62.539124 
694.000000	 62.608170 
693.000000	 62.691783 
692.000000	 62.785577 
691.000000	 62.881851 
690.000000	 62.970924 
689.000000	 63.043141 
688.000000	 63.091206 
687.000000	 63.112425 
686.000000	 63.109326 
685.000000	 63.089179 
684.000000	 63.062047 
683.000000	 63.037872 
682.000000	 63.023781 
681.000000	 63.022518 
680.000000	 63.031744 
679.000000	 63.046145 
678.000000	 63.057971 
677.000000	 63.061213 
676.000000	 63.051414 
675.000000	 63.027000 
674.000000	 62.988972 
673.000000	 62.939524 
672.000000	 62.882471 
671.000000	 62.821912 
670.000000	 62.762856 
669.000000	 62.710142 
668.000000	 62.668752 
667.000000	 62.643361 
666.000000	 62.637233 
665.000000	 62.651753 
664.000000	 62.684845 
663.000000	 62.731075 
662.000000	 62.781834 
661.000000	 62.826704 
660.000000	 62.855577 
659.000000	 62.860894 
658.000000	 62.838959 
657.000000	 62.790966 
656.000000	 62.723207 
655.000000	 62.645435 
654.000000	 62.568473 
653.000000	 62.501621 
652.000000	 62.451410 
651.000000	 62.419438 
650.000000	 62.403964 
649.000000	 62.398958 
648.000000	 62.395715 
647.000000	 62.385177 
646.000000	 62.360191 
645.000000	 62.317585 
644.000000	 62.257695 
643.000000	 62.186264 
642.000000	 62.112402 
641.000000	 62.047958 
640.000000	 62.003898 
639.000000	 61.989331 
638.000000	 62.009048 
637.000000	 62.062668 
636.000000	 62.144732 
635.000000	 62.245154 
634.000000	 62.351036 
633.000000	 62.448501 
632.000000	 62.524724 
631.000000	 62.569117 
630.000000	 62.575054 
629.000000	 62.540817 
628.000000	 62.470459 
627.000000	 62.371563 
626.000000	 62.256455 
625.000000	 62.140536 
624.000000	 62.041449 
623.000000	 61.976432 
622.000000	 61.960577 
621.000000	 62.004137 
620.000000	 62.110781 
619.000000	 62.276554 
618.000000	 62.489533 
617.000000	 62.731528 
616.000000	 62.980246 
615.000000	 63.212370 
614.000000	 63.406896 
613.000000	 63.547849 
612.000000	 63.627076 
611.000000	 63.644957 
610.000000	 63.609671 
609.000000	 63.535022 
608.000000	 63.437509 
607.000000	 63.332915 
606.000000	 63.231897 
605.000000	 63.138008 
604.000000	 63.047909 
603.000000	 62.953448 
602.000000	 62.844824 
601.000000	 62.714982 
600.000000	 62.562537 
599.000000	 62.393999 
598.000000	 62.222123 
597.000000	 62.063956 
596.000000	 61.935853 
595.000000	 61.850523 
594.000000	 61.812138 
593.000000	 61.817479 
592.000000	 61.855173 
591.000000	 61.911058 
590.000000	 61.970257 
589.000000	 62.022399 
588.000000	 62.062549 
587.000000	 62.092447 
586.000000	 62.118268 
585.000000	 62.147712 
584.000000	 62.185525 
583.000000	 62.233519 
582.000000	 62.289619 
581.000000	 62.348461 
580.000000	 62.403297 
579.000000	 62.448692 
578.000000	 62.482500 
577.000000	 62.506723 
576.000000	 62.527346 
575.000000	 62.552165 
574.000000	 62.589120 
573.000000	 62.643980 
572.000000	 62.718701 
571.000000	 62.810921 
570.000000	 62.914347 
569.000000	 63.020086 
568.000000	 63.118982 
567.000000	 63.204145 
566.000000	 63.272094 
565.000000	 63.323688 
564.000000	 63.362765 
563.000000	 63.394808 
562.000000	 63.424563 
561.000000	 63.455510 
560.000000	 63.487195 
559.000000	 63.516092 
558.000000	 63.535356 
557.000000	 63.537859 
556.000000	 63.517141 
555.000000	 63.469982 
554.000000	 63.397526 
553.000000	 63.305521 
552.000000	 63.203978 
551.000000	 63.104581 
550.000000	 63.019013 
549.000000	 62.955045 
548.000000	 62.914800 
547.000000	 62.892818 
546.000000	 62.877511 
545.000000	 62.853169 
544.000000	 62.803316 
543.000000	 62.715816 
542.000000	 62.584280 
541.000000	 62.412762 
540.000000	 62.214469 
539.000000	 62.011241 
538.000000	 61.826109 
537.000000	 61.682009 
536.000000	 61.596441 
535.000000	 61.578273 
534.000000	 61.625146 
533.000000	 61.725497 
532.000000	 61.860966 
531.000000	 62.010645 
530.000000	 62.154603 
529.000000	 62.277746 
528.000000	 62.371015 
527.000000	 62.433385 
526.000000	 62.470293 
525.000000	 62.490725 
524.000000	 62.504339 
523.000000	 62.520956 
522.000000	 62.548017 
521.000000	 62.590503 
520.000000	 62.648582 
519.000000	 62.721300 
518.000000	 62.802696 
517.000000	 62.883138 
516.000000	 62.948441 
515.000000	 62.982797 
514.000000	 62.970829 
513.000000	 62.901878 
512.000000	 62.771821 
511.000000	 62.585878 
510.000000	 62.357473 
509.000000	 62.105703 
508.000000	 61.853623 
507.000000	 61.623191 
506.000000	 61.434912 
505.000000	 61.304044 
504.000000	 61.242079 
503.000000	 61.254787 
502.000000	 61.344313 
501.000000	 61.508584 
500.000000	 61.740612 
499.000000	 62.027359 
498.000000	 62.351608 
497.000000	 62.692475 
496.000000	 63.026881 
495.000000	 63.331747 
494.000000	 63.587808 
493.000000	 63.780498 
492.000000	 63.903784 
491.000000	 63.957118 
490.000000	 63.946509 
489.000000	 63.879990 
488.000000	 63.768267 
487.000000	 63.621187 
486.000000	 63.449382 
485.000000	 63.262796 
484.000000	 63.074183 
483.000000	 62.896394 
482.000000	 62.743568 
481.000000	 62.627387 
480.000000	 62.556385 
479.000000	 62.531805 
478.000000	 62.546777 
477.000000	 62.586832 
476.000000	 62.632036 
475.000000	 62.663006 
474.000000	 62.665033 
473.000000	 62.632465 
472.000000	 62.569642 
471.000000	 62.490797 
470.000000	 62.416005 
469.000000	 62.365078 
468.000000	 62.351918 
467.000000	 62.381768 
466.000000	 62.449216 
465.000000	 62.538933 
464.000000	 62.629938 
463.000000	 62.702322 
462.000000	 62.742137 
461.000000	 62.743401 
460.000000	 62.710833 
459.000000	 62.656879 
458.000000	 62.599325 
457.000000	 62.556862 
456.000000	 62.543106 
455.000000	 62.563395 
454.000000	 62.611985 
453.000000	 62.677216 
452.000000	 62.738347 
451.000000	 62.771749 
450.000000	 62.754487 
449.000000	 62.670445 
448.000000	 62.514281 
447.000000	 62.293314 
446.000000	 62.027812 
445.000000	 61.747026 
444.000000	 61.484694 
443.000000	 61.272096 
442.000000	 61.131381 
441.000000	 61.070752 
440.000000	 61.084508 
439.000000	 61.154699 
438.000000	 61.253142 
437.000000	 61.350989 
436.000000	 61.423325 
435.000000	 61.458611 
434.000000	 61.455178 
433.000000	 61.427354 
432.000000	 61.398434 
431.000000	 61.397719 
430.000000	 61.450719 
429.000000	 61.573624 
428.000000	 61.769628 
427.000000	 62.025022 
426.000000	 62.313175 
425.000000	 62.597250 
424.000000	 62.840151 
423.000000	 63.008642 
422.000000	 63.079833 
421.000000	 63.047695 
420.000000	 62.924361 
419.000000	 62.735033 
418.000000	 62.511610 
417.000000	 62.284350 
416.000000	 62.073922 
415.000000	 61.889004 
414.000000	 61.724209 
413.000000	 61.565089 
412.000000	 61.392927 
411.000000	 61.187744 
410.000000	 60.937571 
409.000000	 60.645794 
408.000000	 60.331153 
407.000000	 60.019350 
406.000000	 59.741353 
405.000000	 59.521818 
404.000000	 59.377002 
403.000000	 59.317445 
402.000000	 59.336781 
401.000000	 59.408783 
400.000000	 59.493660 
399.000000	 59.560513 
398.000000	 59.566521 
397.000000	 59.458780 
396.000000	 59.193634 
395.000000	 58.742594 
394.000000	 58.118724 
393.000000	 57.382535 
392.000000	 56.619882 
391.000000	 55.920410 
390.000000	 55.380797 
389.000000	 55.072951 
388.000000	 55.018949 
387.000000	 55.175352 
386.000000	 55.413007 
385.000000	 55.553698 
384.000000	 55.425500 
383.000000	 54.917860 
382.000000	 53.977513 
381.000000	 52.670741 
380.000000	 51.196837 
379.000000	 49.851918 
378.000000	 48.879671 
377.000000	 48.521637 
376.000000	 48.926329 
375.000000	 50.197029 
374.000000	 52.395534 
373.000000	 55.502700 
372.000000	 59.440612 
371.000000	 63.977789 
370.000000	 68.761777 

