PE IR       SPECTRUM    SPECTRUM    ASCII       PEDS        1.60        
  -1
BZ6A26~1.ASC
17/04/07
19:57:57.00
17/04/07
19:57:57.00
tln
$BZ1503107-1_t0082$<tbV0>[2.6,5.2,8.0,0.0,27,1,0]
370.000000
64









2002,4.07    
MIRTGS : RIGHTBACK : INTERNAL 2
MIR : ON : INTERNAL 2
OPTKBR

0.200000
8
8.000000
FILLER
RATIO
SPECTRUM
UNLOCKED 256

DOUBLE
64
COMBINED
1
0
0


1.000000
RATIO


1
0
TRUE
51149
0
LEFT NOT FITTED RIGHT NOT FITTED 0
NONE
NONE
15600
12.000000
4.427000
51148
TRUE
1 0 8 72 0 0 0 0 

15798.010000






#HDR
-1
-1
#GR
CM-1
%T
0.00002384185791015625
0.0
5000.000000
-1.000000
4631
8
81.801962
51.260542
#DATA
5000.000000	66.234588 
4999.000000	66.064119 
4998.000000	65.804123 
4997.000000	65.484261 
4996.000000	65.144872 
4995.000000	64.828872 
4994.000000	64.572310 
4993.000000	64.396119 
4992.000000	64.305424 
4991.000000	64.290046 
4990.000000	64.331889 
4989.000000	64.411234 
4988.000000	64.513015 
4987.000000	64.629197 
4986.000000	64.759588 
4985.000000	64.907407 
4984.000000	65.076470 
4983.000000	65.265393 
4982.000000	65.464138 
4981.000000	65.653228 
4980.000000	65.808773 
4979.000000	65.906548 
4978.000000	65.928554 
4977.000000	65.866708 
4976.000000	65.725827 
4975.000000	65.522098 
4974.000000	65.281414 
4973.000000	65.032505 
4972.000000	64.800858 
4971.000000	64.604926 
4970.000000	64.454174 
4969.000000	64.350175 
4968.000000	64.288043 
4967.000000	64.262628 
4966.000000	64.269566 
4965.000000	64.310383 
4964.000000	64.389681 
4963.000000	64.514660 
4962.000000	64.690041 
4961.000000	64.912772 
4960.000000	65.168690 
4959.000000	65.430879 
4958.000000	65.663170 
4957.000000	65.825748 
4956.000000	65.884113 
4955.000000	65.816235 
4954.000000	65.619492 
4953.000000	65.313267 
4952.000000	64.937496 
4951.000000	64.545965 
4950.000000	64.197134 
4949.000000	63.944315 
4948.000000	63.824868 
4947.000000	63.854956 
4946.000000	64.025688 
4945.000000	64.306473 
4944.000000	64.651155 
4943.000000	65.006947 
4942.000000	65.325593 
4941.000000	65.569329 
4940.000000	65.718626 
4939.000000	65.771484 
4938.000000	65.741491 
4937.000000	65.650963 
4936.000000	65.524435 
4935.000000	65.383553 
4934.000000	65.241575 
4933.000000	65.104508 
4932.000000	64.971184 
4931.000000	64.838457 
4930.000000	64.704966 
4929.000000	64.575266 
4928.000000	64.458918 
4927.000000	64.369630 
4926.000000	64.321398 
4925.000000	64.325261 
4924.000000	64.384078 
4923.000000	64.491987 
4922.000000	64.635157 
4921.000000	64.794325 
4920.000000	64.949870 
4919.000000	65.084052 
4918.000000	65.182685 
4917.000000	65.237593 
4916.000000	65.246391 
4915.000000	65.212798 
4914.000000	65.145158 
4913.000000	65.054750 
4912.000000	64.954304 
4911.000000	64.855289 
4910.000000	64.768671 
4909.000000	64.700412 
4908.000000	64.652299 
4907.000000	64.620399 
4906.000000	64.597129 
4905.000000	64.572954 
4904.000000	64.539361 
4903.000000	64.490413 
4902.000000	64.424467 
4901.000000	64.345765 
4900.000000	64.263558 
4899.000000	64.188861 
4898.000000	64.132022 
4897.000000	64.100313 
4896.000000	64.096498 
4895.000000	64.118504 
4894.000000	64.160203 
4893.000000	64.213323 
4892.000000	64.268970 
4891.000000	64.319562 
4890.000000	64.359641 
4889.000000	64.384603 
4888.000000	64.392542 
4887.000000	64.383530 
4886.000000	64.359903 
4885.000000	64.325022 
4884.000000	64.283680 
4883.000000	64.241433 
4882.000000	64.204430 
4881.000000	64.179039 
4880.000000	64.171123 
4879.000000	64.184975 
4878.000000	64.223504 
4877.000000	64.287710 
4876.000000	64.376759 
4875.000000	64.487695 
4874.000000	64.616084 
4873.000000	64.755797 
4872.000000	64.899444 
4871.000000	65.038084 
4870.000000	65.162372 
4869.000000	65.262579 
4868.000000	65.330076 
4867.000000	65.357589 
4866.000000	65.342307 
4865.000000	65.284991 
4864.000000	65.190458 
4863.000000	65.066909 
4862.000000	64.925813 
4861.000000	64.780116 
4860.000000	64.643764 
4859.000000	64.528799 
4858.000000	64.444661 
4857.000000	64.396119 
4856.000000	64.383244 
4855.000000	64.401197 
4854.000000	64.440965 
4853.000000	64.492058 
4852.000000	64.544177 
4851.000000	64.589214 
4850.000000	64.621925 
4849.000000	64.640283 
4848.000000	64.644861 
4847.000000	64.637756 
4846.000000	64.621782 
4845.000000	64.600229 
4844.000000	64.576983 
4843.000000	64.556169 
4842.000000	64.542531 
4841.000000	64.542269 
4840.000000	64.561247 
4839.000000	64.603781 
4838.000000	64.670586 
4837.000000	64.758110 
4836.000000	64.857840 
4835.000000	64.957094 
4834.000000	65.041494 
4833.000000	65.098285 
4832.000000	65.118670 
4831.000000	65.101027 
4830.000000	65.049648 
4829.000000	64.973545 
4828.000000	64.884185 
4827.000000	64.793133 
4826.000000	64.709877 
4825.000000	64.640545 
4824.000000	64.588165 
4823.000000	64.553499 
4822.000000	64.535593 
4821.000000	64.532780 
4820.000000	64.543056 
4819.000000	64.564228 
4818.000000	64.593219 
4817.000000	64.626145 
4816.000000	64.658045 
4815.000000	64.683389 
4814.000000	64.696621 
4813.000000	64.693474 
4812.000000	64.671945 
4811.000000	64.633202 
4810.000000	64.581203 
4809.000000	64.522409 
4808.000000	64.464592 
4807.000000	64.415240 
4806.000000	64.380836 
4805.000000	64.365053 
4804.000000	64.368510 
4803.000000	64.388155 
4802.000000	64.418101 
4801.000000	64.450931 
4800.000000	64.478588 
4799.000000	64.495348 
4798.000000	64.498472 
4797.000000	64.490008 
4796.000000	64.475917 
4795.000000	64.465069 
4794.000000	64.466786 
4793.000000	64.488983 
4792.000000	64.536142 
4791.000000	64.608216 
4790.000000	64.700508 
4789.000000	64.804577 
4788.000000	64.909815 
4787.000000	65.005874 
4786.000000	65.084362 
4785.000000	65.139961 
4784.000000	65.171051 
4783.000000	65.179395 
4782.000000	65.169215 
4781.000000	65.146207 
4780.000000	65.115928 
4779.000000	65.083241 
4778.000000	65.051674 
4777.000000	65.024042 
4776.000000	65.001893 
4775.000000	64.986395 
4774.000000	64.978361 
4773.000000	64.978814 
4772.000000	64.988422 
4771.000000	65.007519 
4770.000000	65.035533 
4769.000000	65.070509 
4768.000000	65.109276 
4767.000000	65.147471 
4766.000000	65.179777 
4765.000000	65.200424 
4764.000000	65.204143 
4763.000000	65.187144 
4762.000000	65.147757 
4761.000000	65.087056 
4760.000000	65.008735 
4759.000000	64.919137 
4758.000000	64.826297 
4757.000000	64.738821 
4756.000000	64.664673 
4755.000000	64.610123 
4754.000000	64.578318 
4753.000000	64.569544 
4752.000000	64.581203 
4751.000000	64.608836 
4750.000000	64.646577 
4749.000000	64.689135 
4748.000000	64.732098 
4747.000000	64.772677 
4746.000000	64.809370 
4745.000000	64.841294 
4744.000000	64.867448 
4743.000000	64.886069 
4742.000000	64.894795 
4741.000000	64.891195 
4740.000000	64.873647 
4739.000000	64.842414 
4738.000000	64.800167 
4737.000000	64.751958 
4736.000000	64.704823 
4735.000000	64.666175 
4734.000000	64.643025 
4733.000000	64.640402 
4732.000000	64.660930 
4731.000000	64.704060 
4730.000000	64.766383 
4729.000000	64.841818 
4728.000000	64.922690 
4727.000000	65.000891 
4726.000000	65.069198 
4725.000000	65.121531 
4724.000000	65.154314 
4723.000000	65.166568 
4722.000000	65.159630 
4721.000000	65.137028 
4720.000000	65.103268 
4719.000000	65.063548 
4718.000000	65.022230 
4717.000000	64.982843 
4716.000000	64.947319 
4715.000000	64.916276 
4714.000000	64.889526 
4713.000000	64.866542 
4712.000000	64.846968 
4711.000000	64.830875 
4710.000000	64.818811 
4709.000000	64.811873 
4708.000000	64.810585 
4707.000000	64.815187 
4706.000000	64.825439 
4705.000000	64.840531 
4704.000000	64.859294 
4703.000000	64.880061 
4702.000000	64.900875 
4701.000000	64.919447 
4700.000000	64.933443 
4699.000000	64.940738 
4698.000000	64.939284 
4697.000000	64.927816 
4696.000000	64.906239 
4695.000000	64.875864 
4694.000000	64.839363 
4693.000000	64.800786 
4692.000000	64.765000 
4691.000000	64.736628 
4690.000000	64.719271 
4689.000000	64.714694 
4688.000000	64.722466 
4687.000000	64.739847 
4686.000000	64.762330 
4685.000000	64.784312 
4684.000000	64.800310 
4683.000000	64.805841 
4682.000000	64.798212 
4681.000000	64.776778 
4680.000000	64.743256 
4679.000000	64.701128 
4678.000000	64.655566 
4677.000000	64.612102 
4676.000000	64.576363 
4675.000000	64.552998 
4674.000000	64.545607 
4673.000000	64.555835 
4672.000000	64.584088 
4671.000000	64.629292 
4670.000000	64.689517 
4669.000000	64.761590 
4668.000000	64.841938 
4667.000000	64.926552 
4666.000000	65.011119 
4665.000000	65.091228 
4664.000000	65.162062 
4663.000000	65.218997 
4662.000000	65.257859 
4661.000000	65.275883 
4660.000000	65.271425 
4659.000000	65.244507 
4658.000000	65.197443 
4657.000000	65.134692 
4656.000000	65.062117 
4655.000000	64.985895 
4654.000000	64.912295 
4653.000000	64.846444 
4652.000000	64.792203 
4651.000000	64.751458 
4650.000000	64.724111 
4649.000000	64.708328 
4648.000000	64.701104 
4647.000000	64.698934 
4646.000000	64.697909 
4645.000000	64.695024 
4644.000000	64.687967 
4643.000000	64.675951 
4642.000000	64.658975 
4641.000000	64.638662 
4640.000000	64.617180 
4639.000000	64.597702 
4638.000000	64.582824 
4637.000000	64.575839 
4636.000000	64.579916 
4635.000000	64.597845 
4634.000000	64.631104 
4633.000000	64.680480 
4632.000000	64.745211 
4631.000000	64.822387 
4630.000000	64.906978 
4629.000000	64.992237 
4628.000000	65.070056 
4627.000000	65.132594 
4626.000000	65.173077 
4625.000000	65.186691 
4624.000000	65.171360 
4623.000000	65.129351 
4622.000000	65.066099 
4621.000000	64.989423 
4620.000000	64.908027 
4619.000000	64.831018 
4618.000000	64.765238 
4617.000000	64.715051 
4616.000000	64.681172 
4615.000000	64.661645 
4614.000000	64.652156 
4613.000000	64.647507 
4612.000000	64.642667 
4611.000000	64.633750 
4610.000000	64.618754 
4609.000000	64.597487 
4608.000000	64.571213 
4607.000000	64.541649 
4606.000000	64.510726 
4605.000000	64.479923 
4604.000000	64.450192 
4603.000000	64.422369 
4602.000000	64.398050 
4601.000000	64.380025 
4600.000000	64.371776 
4599.000000	64.376878 
4598.000000	64.398360 
4597.000000	64.437341 
4596.000000	64.491939 
4595.000000	64.557337 
4594.000000	64.626502 
4593.000000	64.691495 
4592.000000	64.745378 
4591.000000	64.783358 
4590.000000	64.803433 
4589.000000	64.806795 
4588.000000	64.797401 
4587.000000	64.780426 
4586.000000	64.760613 
4585.000000	64.741110 
4584.000000	64.723515 
4583.000000	64.707541 
4582.000000	64.691758 
4581.000000	64.674520 
4580.000000	64.654898 
4579.000000	64.632678 
4578.000000	64.608550 
4577.000000	64.583373 
4576.000000	64.557981 
4575.000000	64.532423 
4574.000000	64.506340 
4573.000000	64.478826 
4572.000000	64.449620 
4571.000000	64.419221 
4570.000000	64.389944 
4569.000000	64.365291 
4568.000000	64.349818 
4567.000000	64.347767 
4566.000000	64.362335 
4565.000000	64.394402 
4564.000000	64.442086 
4563.000000	64.501237 
4562.000000	64.565396 
4561.000000	64.627146 
4560.000000	64.679145 
4559.000000	64.715647 
4558.000000	64.733052 
4557.000000	64.730477 
4556.000000	64.709830 
4555.000000	64.675331 
4554.000000	64.632773 
4553.000000	64.588522 
4552.000000	64.547967 
4551.000000	64.514827 
4550.000000	64.490318 
4549.000000	64.473557 
4548.000000	64.461588 
4547.000000	64.450597 
4546.000000	64.437127 
4545.000000	64.419412 
4544.000000	64.397716 
4543.000000	64.374589 
4542.000000	64.354133 
4541.000000	64.340901 
4540.000000	64.338684 
4539.000000	64.348864 
4538.000000	64.370393 
4537.000000	64.399147 
4536.000000	64.428710 
4535.000000	64.452171 
4534.000000	64.463567 
4533.000000	64.459657 
4532.000000	64.440870 
4531.000000	64.411044 
4530.000000	64.376759 
4529.000000	64.344882 
4528.000000	64.320492 
4527.000000	64.306068 
4526.000000	64.300799 
4525.000000	64.302277 
4524.000000	64.307713 
4523.000000	64.315509 
4522.000000	64.325833 
4521.000000	64.340138 
4520.000000	64.360356 
4519.000000	64.386773 
4518.000000	64.417886 
4517.000000	64.450263 
4516.000000	64.479517 
4515.000000	64.501118 
4514.000000	64.512133 
4513.000000	64.512205 
4512.000000	64.504075 
4511.000000	64.492511 
4510.000000	64.483690 
4509.000000	64.482903 
4508.000000	64.494371 
4507.000000	64.519667 
4506.000000	64.558553 
4505.000000	64.609360 
4504.000000	64.669275 
4503.000000	64.735579 
4502.000000	64.804434 
4501.000000	64.871239 
4500.000000	64.930200 
4499.000000	64.974904 
4498.000000	64.999341 
4497.000000	64.998865 
4496.000000	64.972114 
4495.000000	64.920759 
4494.000000	64.848947 
4493.000000	64.761948 
4492.000000	64.665031 
4491.000000	64.562797 
4490.000000	64.458847 
4489.000000	64.356470 
4488.000000	64.259052 
4487.000000	64.170980 
4486.000000	64.097404 
4485.000000	64.044070 
4484.000000	64.014863 
4483.000000	64.012312 
4482.000000	64.036512 
4481.000000	64.084815 
4480.000000	64.150881 
4479.000000	64.226222 
4478.000000	64.300203 
4477.000000	64.363574 
4476.000000	64.410138 
4475.000000	64.437079 
4474.000000	64.443731 
4473.000000	64.434719 
4472.000000	64.419984 
4471.000000	64.406633 
4470.000000	64.396381 
4469.000000	64.390683 
4468.000000	64.390945 
4467.000000	64.394307 
4466.000000	64.395570 
4465.000000	64.395928 
4464.000000	64.400076 
4463.000000	64.409732 
4462.000000	64.423322 
4461.000000	64.439940 
4460.000000	64.454603 
4459.000000	64.459419 
4458.000000	64.443993 
4457.000000	64.391517 
4456.000000	64.291238 
4455.000000	64.147138 
4454.000000	63.976335 
4453.000000	63.799738 
4452.000000	63.649153 
4451.000000	63.555502 
4450.000000	63.554239 
4449.000000	63.668417 
4448.000000	63.927578 
4447.000000	64.360094 
4446.000000	64.993810 
4445.000000	65.846633 
4444.000000	66.916131 
4443.000000	68.174457 
4442.000000	69.566178 
4441.000000	71.018218 
4440.000000	72.467446 
4439.000000	73.869132 
4438.000000	75.215530 
4437.000000	76.513791 
4436.000000	77.785038 
4435.000000	79.015851 
4434.000000	80.161833 
4433.000000	81.111073 
4432.000000	81.715846 
4431.000000	81.801962 
4430.000000	81.233549 
4429.000000	79.939556 
4428.000000	77.963066 
4427.000000	75.455927 
4426.000000	72.675681 
4425.000000	69.926381 
4424.000000	67.503499 
4423.000000	65.636873 
4422.000000	64.445710 
4421.000000	63.939523 
4420.000000	64.032649 
4419.000000	64.574861 
4418.000000	65.392684 
4417.000000	66.313314 
4416.000000	67.191934 
4415.000000	67.909407 
4414.000000	68.380355 
4413.000000	68.564796 
4412.000000	68.464517 
4411.000000	68.119096 
4410.000000	67.591094 
4409.000000	66.959118 
4408.000000	66.297340 
4407.000000	65.662503 
4406.000000	65.088701 
4405.000000	64.600348 
4404.000000	64.206910 
4403.000000	63.915872 
4402.000000	63.727569 
4401.000000	63.635730 
4400.000000	63.628411 
4399.000000	63.680863 
4398.000000	63.766980 
4397.000000	63.855218 
4396.000000	63.923931 
4395.000000	63.965177 
4394.000000	63.979792 
4393.000000	63.969326 
4392.000000	63.943290 
4391.000000	63.915753 
4390.000000	63.896799 
4389.000000	63.889193 
4388.000000	63.892841 
4387.000000	63.905143 
4386.000000	63.923740 
4385.000000	63.947153 
4384.000000	63.973236 
4383.000000	63.999176 
4382.000000	64.022374 
4381.000000	64.040064 
4380.000000	64.048361 
4379.000000	64.044165 
4378.000000	64.024734 
4377.000000	63.990736 
4376.000000	63.949418 
4375.000000	63.911223 
4374.000000	63.885903 
4373.000000	63.881921 
4372.000000	63.904380 
4371.000000	63.954257 
4370.000000	64.027118 
4369.000000	64.116382 
4368.000000	64.215135 
4367.000000	64.317417 
4366.000000	64.419388 
4365.000000	64.518594 
4364.000000	64.613413 
4363.000000	64.702129 
4362.000000	64.782285 
4361.000000	64.850354 
4360.000000	64.902234 
4359.000000	64.934825 
4358.000000	64.946722 
4357.000000	64.939999 
4356.000000	64.919233 
4355.000000	64.891242 
4354.000000	64.863014 
4353.000000	64.840579 
4352.000000	64.827299 
4351.000000	64.824175 
4350.000000	64.829254 
4349.000000	64.839267 
4348.000000	64.850115 
4347.000000	64.858317 
4346.000000	64.861774 
4345.000000	64.859437 
4344.000000	64.852285 
4343.000000	64.842677 
4342.000000	64.834117 
4341.000000	64.830160 
4340.000000	64.833617 
4339.000000	64.846014 
4338.000000	64.866518 
4337.000000	64.891982 
4336.000000	64.917206 
4335.000000	64.936113 
4334.000000	64.942407 
4333.000000	64.931368 
4332.000000	64.901399 
4331.000000	64.854907 
4330.000000	64.798092 
4329.000000	64.739680 
4328.000000	64.689540 
4327.000000	64.655900 
4326.000000	64.643669 
4325.000000	64.652705 
4324.000000	64.677977 
4323.000000	64.710378 
4322.000000	64.739203 
4321.000000	64.754652 
4320.000000	64.749550 
4319.000000	64.721751 
4318.000000	64.673852 
4317.000000	64.613389 
4316.000000	64.550256 
4315.000000	64.494800 
4314.000000	64.455199 
4313.000000	64.435958 
4312.000000	64.437460 
4311.000000	64.456224 
4310.000000	64.486384 
4309.000000	64.521312 
4308.000000	64.555501 
4307.000000	64.585518 
4306.000000	64.610457 
4305.000000	64.631652 
4304.000000	64.651775 
4303.000000	64.673233 
4302.000000	64.697360 
4301.000000	64.723420 
4300.000000	64.749240 
4299.000000	64.771914 
4298.000000	64.788913 
4297.000000	64.799070 
4296.000000	64.803409 
4295.000000	64.805269 
4294.000000	64.808988 
4293.000000	64.818596 
4292.000000	64.836382 
4291.000000	64.862060 
4290.000000	64.892578 
4289.000000	64.922952 
4288.000000	64.947462 
4287.000000	64.961624 
4286.000000	64.963126 
4285.000000	64.952707 
4284.000000	64.933800 
4283.000000	64.911556 
4282.000000	64.891123 
4281.000000	64.876365 
4280.000000	64.868855 
4279.000000	64.867663 
4278.000000	64.870190 
4277.000000	64.873313 
4276.000000	64.874505 
4275.000000	64.872741 
4274.000000	64.868998 
4273.000000	64.865708 
4272.000000	64.865493 
4271.000000	64.870476 
4270.000000	64.881253 
4269.000000	64.896893 
4268.000000	64.914751 
4267.000000	64.931678 
4266.000000	64.945125 
4265.000000	64.953851 
4264.000000	64.958262 
4263.000000	64.960122 
4262.000000	64.961910 
4261.000000	64.965510 
4260.000000	64.971637 
4259.000000	64.979195 
4258.000000	64.985418 
4257.000000	64.986848 
4256.000000	64.980268 
4255.000000	64.963793 
4254.000000	64.937496 
4253.000000	64.903664 
4252.000000	64.866495 
4251.000000	64.830970 
4250.000000	64.801669 
4249.000000	64.781832 
4248.000000	64.772534 
4247.000000	64.772629 
4246.000000	64.778900 
4245.000000	64.787030 
4244.000000	64.792704 
4243.000000	64.792490 
4242.000000	64.784812 
4241.000000	64.769649 
4240.000000	64.749050 
4239.000000	64.725637 
4238.000000	64.702725 
4237.000000	64.683222 
4236.000000	64.669442 
4235.000000	64.662289 
4234.000000	64.661955 
4233.000000	64.668035 
4232.000000	64.680075 
4231.000000	64.697957 
4230.000000	64.721894 
4229.000000	64.751982 
4228.000000	64.788031 
4227.000000	64.828777 
4226.000000	64.871644 
4225.000000	64.912796 
4224.000000	64.948225 
4223.000000	64.974117 
4222.000000	64.987778 
4221.000000	64.988017 
4220.000000	64.975571 
4219.000000	64.952707 
4218.000000	64.922785 
4217.000000	64.889812 
4216.000000	64.857673 
4215.000000	64.830088 
4214.000000	64.810276 
4213.000000	64.801239 
4212.000000	64.804911 
4211.000000	64.822387 
4210.000000	64.854049 
4209.000000	64.898633 
4208.000000	64.953088 
4207.000000	65.012812 
4206.000000	65.071892 
4205.000000	65.124320 
4204.000000	65.164804 
4203.000000	65.189790 
4202.000000	65.197777 
4201.000000	65.189146 
4200.000000	65.165662 
4199.000000	65.129661 
4198.000000	65.083503 
4197.000000	65.028977 
4196.000000	64.967370 
4195.000000	64.899730 
4194.000000	64.827394 
4193.000000	64.752507 
4192.000000	64.678764 
4191.000000	64.610528 
4190.000000	64.553761 
4189.000000	64.514422 
4188.000000	64.498686 
4187.000000	64.510655 
4186.000000	64.552354 
4185.000000	64.622592 
4184.000000	64.716553 
4183.000000	64.825963 
4182.000000	64.939713 
4181.000000	65.045094 
4180.000000	65.129971 
4179.000000	65.184283 
4178.000000	65.202736 
4177.000000	65.185618 
4176.000000	65.139365 
4175.000000	65.075063 
4174.000000	65.006637 
4173.000000	64.947962 
4172.000000	64.909982 
4171.000000	64.898514 
4170.000000	64.913177 
4169.000000	64.947986 
4168.000000	64.993381 
4167.000000	65.038752 
4166.000000	65.074658 
4165.000000	65.094757 
4164.000000	65.097403 
4163.000000	65.084767 
4162.000000	65.060997 
4161.000000	65.031075 
4160.000000	64.999032 
4159.000000	64.967298 
4158.000000	64.936423 
4157.000000	64.905500 
4156.000000	64.873957 
4155.000000	64.841437 
4154.000000	64.808917 
4153.000000	64.777970 
4152.000000	64.750242 
4151.000000	64.726948 
4150.000000	64.708352 
4149.000000	64.693546 
4148.000000	64.680480 
4147.000000	64.667487 
4146.000000	64.653897 
4145.000000	64.640450 
4144.000000	64.629530 
4143.000000	64.624357 
4142.000000	64.628434 
4141.000000	64.644384 
4140.000000	64.673495 
4139.000000	64.715361 
4138.000000	64.768171 
4137.000000	64.829182 
4136.000000	64.895153 
4135.000000	64.963054 
4134.000000	65.029883 
4133.000000	65.092873 
4132.000000	65.149021 
4131.000000	65.195345 
4130.000000	65.228867 
4129.000000	65.247750 
4128.000000	65.251350 
4127.000000	65.240788 
4126.000000	65.219068 
4125.000000	65.191268 
4124.000000	65.162730 
4123.000000	65.138339 
4122.000000	65.121173 
4121.000000	65.112185 
4120.000000	65.110135 
4119.000000	65.112233 
4118.000000	65.115308 
4117.000000	65.116739 
4116.000000	65.114808 
4115.000000	65.109086 
4114.000000	65.099883 
4113.000000	65.087985 
4112.000000	65.074086 
4111.000000	65.058636 
4110.000000	65.041494 
4109.000000	65.022659 
4108.000000	65.002512 
4107.000000	64.982318 
4106.000000	64.963841 
4105.000000	64.949798 
4104.000000	64.943170 
4103.000000	64.946436 
4102.000000	64.960503 
4101.000000	64.984560 
4100.000000	65.016245 
4099.000000	65.051627 
4098.000000	65.086030 
4097.000000	65.114998 
4096.000000	65.135049 
4095.000000	65.144443 
4094.000000	65.143275 
4093.000000	65.133452 
4092.000000	65.117907 
4091.000000	65.100240 
4090.000000	65.083932 
4089.000000	65.071654 
4088.000000	65.065026 
4087.000000	65.064573 
4086.000000	65.069913 
4085.000000	65.079784 
4084.000000	65.092611 
4083.000000	65.106821 
4082.000000	65.121102 
4081.000000	65.134596 
4080.000000	65.146851 
4079.000000	65.157794 
4078.000000	65.167331 
4077.000000	65.175223 
4076.000000	65.180706 
4075.000000	65.182757 
4074.000000	65.180516 
4073.000000	65.173578 
4072.000000	65.162467 
4071.000000	65.148615 
4070.000000	65.134334 
4069.000000	65.122342 
4068.000000	65.115046 
4067.000000	65.113997 
4066.000000	65.119290 
4065.000000	65.129780 
4064.000000	65.143203 
4063.000000	65.156841 
4062.000000	65.168356 
4061.000000	65.176463 
4060.000000	65.181398 
4059.000000	65.184736 
4058.000000	65.188837 
4057.000000	65.196108 
4056.000000	65.208125 
4055.000000	65.225100 
4054.000000	65.245747 
4053.000000	65.267491 
4052.000000	65.286922 
4051.000000	65.300583 
4050.000000	65.306067 
4049.000000	65.302085 
4048.000000	65.288734 
4047.000000	65.267372 
4046.000000	65.240550 
4045.000000	65.211105 
4044.000000	65.181732 
4043.000000	65.154671 
4042.000000	65.131497 
4041.000000	65.113162 
4040.000000	65.100169 
4039.000000	65.092587 
4038.000000	65.090203 
4037.000000	65.092730 
4036.000000	65.100002 
4035.000000	65.111494 
4034.000000	65.126299 
4033.000000	65.143370 
4032.000000	65.161299 
4031.000000	65.178442 
4030.000000	65.192866 
4029.000000	65.202736 
4028.000000	65.206027 
4027.000000	65.201568 
4026.000000	65.188407 
4025.000000	65.166330 
4024.000000	65.135645 
4023.000000	65.097379 
4022.000000	65.053200 
4021.000000	65.005278 
4020.000000	64.956140 
4019.000000	64.908504 
4018.000000	64.864969 
4017.000000	64.827990 
4016.000000	64.799642 
4015.000000	64.781117 
4014.000000	64.773178 
4013.000000	64.775919 
4012.000000	64.789199 
4011.000000	64.812421 
4010.000000	64.844918 
4009.000000	64.885497 
4008.000000	64.932656 
4007.000000	64.984202 
4006.000000	65.037083 
4005.000000	65.087246 
4004.000000	65.130019 
4003.000000	65.160369 
4002.000000	65.174007 
4001.000000	65.167975 
4000.000000	65.141582 
3999.000000	65.096855 
3998.000000	65.038585 
3997.000000	64.973616 
3996.000000	64.910101 
3995.000000	64.856219 
3994.000000	64.818859 
3993.000000	64.802670 
3992.000000	64.809250 
3991.000000	64.837098 
3990.000000	64.882206 
3989.000000	64.938354 
3988.000000	64.998483 
3987.000000	65.055036 
3986.000000	65.101242 
3985.000000	65.131711 
3984.000000	65.142917 
3983.000000	65.133666 
3982.000000	65.105104 
3981.000000	65.060830 
3980.000000	65.006208 
3979.000000	64.948248 
3978.000000	64.893984 
3977.000000	64.850044 
3976.000000	64.820909 
3975.000000	64.808607 
3974.000000	64.812016 
3973.000000	64.827322 
3972.000000	64.849185 
3971.000000	64.871573 
3970.000000	64.889860 
3969.000000	64.901494 
3968.000000	64.906597 
3967.000000	64.907670 
3966.000000	64.908480 
3965.000000	64.912414 
3964.000000	64.921116 
3963.000000	64.933943 
3962.000000	64.947748 
3961.000000	64.957809 
3960.000000	64.959239 
3959.000000	64.948725 
3958.000000	64.925885 
3957.000000	64.893770 
3956.000000	64.857888 
3955.000000	64.824700 
3954.000000	64.799904 
3953.000000	64.786696 
3952.000000	64.784765 
3951.000000	64.790678 
3950.000000	64.799261 
3949.000000	64.805626 
3948.000000	64.806818 
3947.000000	64.803242 
3946.000000	64.797973 
3945.000000	64.796423 
3944.000000	64.803981 
3943.000000	64.824509 
3942.000000	64.858675 
3941.000000	64.903569 
3940.000000	64.953398 
3939.000000	65.000510 
3938.000000	65.037584 
3937.000000	65.059065 
3936.000000	65.062642 
3935.000000	65.048837 
3934.000000	65.020513 
3933.000000	64.981937 
3932.000000	64.937639 
3931.000000	64.891719 
3930.000000	64.847016 
3929.000000	64.805722 
3928.000000	64.769363 
3927.000000	64.739155 
3926.000000	64.716148 
3925.000000	64.701223 
3924.000000	64.694952 
3923.000000	64.697217 
3922.000000	64.707374 
3921.000000	64.723920 
3920.000000	64.744973 
3919.000000	64.768075 
3918.000000	64.790940 
3917.000000	64.811158 
3916.000000	64.827084 
3915.000000	64.838004 
3914.000000	64.844298 
3913.000000	64.846873 
3912.000000	64.847755 
3911.000000	64.849352 
3910.000000	64.854407 
3909.000000	64.865422 
3908.000000	64.884018 
3907.000000	64.910697 
3906.000000	64.944362 
3905.000000	64.982581 
3904.000000	65.021777 
3903.000000	65.058064 
3902.000000	65.087795 
3901.000000	65.108323 
3900.000000	65.118217 
3899.000000	65.117502 
3898.000000	65.107536 
3897.000000	65.090775 
3896.000000	65.070533 
3895.000000	65.049839 
3894.000000	65.031456 
3893.000000	65.017008 
3892.000000	65.006804 
3891.000000	64.999771 
3890.000000	64.993858 
3889.000000	64.986705 
3888.000000	64.976096 
3887.000000	64.961194 
3886.000000	64.942240 
3885.000000	64.921331 
3884.000000	64.901733 
3883.000000	64.887380 
3882.000000	64.881658 
3881.000000	64.886951 
3880.000000	64.903807 
3879.000000	64.930844 
3878.000000	64.964890 
3877.000000	65.001606 
3876.000000	65.036225 
3875.000000	65.064454 
3874.000000	65.082716 
3873.000000	65.088582 
3872.000000	65.080809 
3871.000000	65.059208 
3870.000000	65.024924 
3869.000000	64.980220 
3868.000000	64.928650 
3867.000000	64.874839 
3866.000000	64.823985 
3865.000000	64.781332 
3864.000000	64.751052 
3863.000000	64.735817 
3862.000000	64.736247 
3861.000000	64.750480 
3860.000000	64.774870 
3859.000000	64.804315 
3858.000000	64.833545 
3857.000000	64.857864 
3856.000000	64.874124 
3855.000000	64.880990 
3854.000000	64.879083 
3853.000000	64.870452 
3852.000000	64.858031 
3851.000000	64.844846 
3850.000000	64.833760 
3849.000000	64.826989 
3848.000000	64.826226 
3847.000000	64.832305 
3846.000000	64.845609 
3845.000000	64.865732 
3844.000000	64.891767 
3843.000000	64.922046 
3842.000000	64.954233 
3841.000000	64.985299 
3840.000000	65.012049 
3839.000000	65.031266 
3838.000000	65.039896 
3837.000000	65.036010 
3836.000000	65.019083 
3835.000000	64.990282 
3834.000000	64.951896 
3833.000000	64.907670 
3832.000000	64.862179 
3831.000000	64.820170 
3830.000000	64.785718 
3829.000000	64.761686 
3828.000000	64.749383 
3827.000000	64.748239 
3826.000000	64.755892 
3825.000000	64.768743 
3824.000000	64.782500 
3823.000000	64.793658 
3822.000000	64.799880 
3821.000000	64.800691 
3820.000000	64.797282 
3819.000000	64.792108 
3818.000000	64.787912 
3817.000000	64.787125 
3816.000000	64.791011 
3815.000000	64.799547 
3814.000000	64.811563 
3813.000000	64.825129 
3812.000000	64.838337 
3811.000000	64.849805 
3810.000000	64.859294 
3809.000000	64.867353 
3808.000000	64.875602 
3807.000000	64.886140 
3806.000000	64.901185 
3805.000000	64.922142 
3804.000000	64.949750 
3803.000000	64.983844 
3802.000000	65.023374 
3801.000000	65.066647 
3800.000000	65.111255 
3799.000000	65.154576 
3798.000000	65.193891 
3797.000000	65.226840 
3796.000000	65.251970 
3795.000000	65.268898 
3794.000000	65.278315 
3793.000000	65.281820 
3792.000000	65.281462 
3791.000000	65.279197 
3790.000000	65.276575 
3789.000000	65.274310 
3788.000000	65.272712 
3787.000000	65.271711 
3786.000000	65.271425 
3785.000000	65.271782 
3784.000000	65.273141 
3783.000000	65.275669 
3782.000000	65.279245 
3781.000000	65.283036 
3780.000000	65.285563 
3779.000000	65.284872 
3778.000000	65.278983 
3777.000000	65.266323 
3776.000000	65.246343 
3775.000000	65.219521 
3774.000000	65.187549 
3773.000000	65.152502 
3772.000000	65.116429 
3771.000000	65.080618 
3770.000000	65.045523 
3769.000000	65.011048 
3768.000000	64.976882 
3767.000000	64.943051 
3766.000000	64.910197 
3765.000000	64.879775 
3764.000000	64.853668 
3763.000000	64.833474 
3762.000000	64.820146 
3761.000000	64.813399 
3760.000000	64.811825 
3759.000000	64.813160 
3758.000000	64.815163 
3757.000000	64.816188 
3756.000000	64.816093 
3755.000000	64.815926 
3754.000000	64.817953 
3753.000000	64.824867 
3752.000000	64.839053 
3751.000000	64.861631 
3750.000000	64.892220 
3749.000000	64.928865 
3748.000000	64.968538 
3747.000000	65.008068 
3746.000000	65.044569 
3745.000000	65.076231 
3744.000000	65.102338 
3743.000000	65.123367 
3742.000000	65.140295 
3741.000000	65.154004 
3740.000000	65.165233 
3739.000000	65.174365 
3738.000000	65.181565 
3737.000000	65.186572 
3736.000000	65.189695 
3735.000000	65.191245 
3734.000000	65.191626 
3733.000000	65.190744 
3732.000000	65.188217 
3731.000000	65.183067 
3730.000000	65.173888 
3729.000000	65.159320 
3728.000000	65.138530 
3727.000000	65.111827 
3726.000000	65.080547 
3725.000000	65.047049 
3724.000000	65.014266 
3723.000000	64.985084 
3722.000000	64.961743 
3721.000000	64.945507 
3720.000000	64.936399 
3719.000000	64.933753 
3718.000000	64.936661 
3717.000000	64.944195 
3716.000000	64.955568 
3715.000000	64.970278 
3714.000000	64.987850 
3713.000000	65.007328 
3712.000000	65.027165 
3711.000000	65.045523 
3710.000000	65.060591 
3709.000000	65.071058 
3708.000000	65.076541 
3707.000000	65.077662 
3706.000000	65.075850 
3705.000000	65.073251 
3704.000000	65.071916 
3703.000000	65.073180 
3702.000000	65.077519 
3701.000000	65.084362 
3700.000000	65.092396 
3699.000000	65.100169 
3698.000000	65.106439 
3697.000000	65.110707 
3696.000000	65.112996 
3695.000000	65.113782 
3694.000000	65.113425 
3693.000000	65.112161 
3692.000000	65.109658 
3691.000000	65.105342 
3690.000000	65.098524 
3689.000000	65.088748 
3688.000000	65.076065 
3687.000000	65.061283 
3686.000000	65.045714 
3685.000000	65.031075 
3684.000000	65.019297 
3683.000000	65.012145 
3682.000000	65.011024 
3681.000000	65.016722 
3680.000000	65.029478 
3679.000000	65.048742 
3678.000000	65.073347 
3677.000000	65.101480 
3676.000000	65.130710 
3675.000000	65.158200 
3674.000000	65.181279 
3673.000000	65.197587 
3672.000000	65.205550 
3671.000000	65.204739 
3670.000000	65.196180 
3669.000000	65.181684 
3668.000000	65.163707 
3667.000000	65.144276 
3666.000000	65.125012 
3665.000000	65.106487 
3664.000000	65.088391 
3663.000000	65.069580 
3662.000000	65.048956 
3661.000000	65.025973 
3660.000000	65.000963 
3659.000000	64.975333 
3658.000000	64.951205 
3657.000000	64.930987 
3656.000000	64.916801 
3655.000000	64.909768 
3654.000000	64.910006 
3653.000000	64.916491 
3652.000000	64.927721 
3651.000000	64.942049 
3650.000000	64.958214 
3649.000000	64.975571 
3648.000000	64.994263 
3647.000000	65.014457 
3646.000000	65.036463 
3645.000000	65.059947 
3644.000000	65.083909 
3643.000000	65.106725 
3642.000000	65.126419 
3641.000000	65.141510 
3640.000000	65.151095 
3639.000000	65.155339 
3638.000000	65.155100 
3637.000000	65.151643 
3636.000000	65.146160 
3635.000000	65.139365 
3634.000000	65.131306 
3633.000000	65.121293 
3632.000000	65.108633 
3631.000000	65.092992 
3630.000000	65.074944 
3629.000000	65.056014 
3628.000000	65.038609 
3627.000000	65.025663 
3626.000000	65.019607 
3625.000000	65.021896 
3624.000000	65.032482 
3623.000000	65.050029 
3622.000000	65.071845 
3621.000000	65.094757 
3620.000000	65.115547 
3619.000000	65.131711 
3618.000000	65.141701 
3617.000000	65.145206 
3616.000000	65.142393 
3615.000000	65.134525 
3614.000000	65.123605 
3613.000000	65.112018 
3612.000000	65.102028 
3611.000000	65.095448 
3610.000000	65.093731 
3609.000000	65.097165 
3608.000000	65.105199 
3607.000000	65.116000 
3606.000000	65.127182 
3605.000000	65.136146 
3604.000000	65.140867 
3603.000000	65.140247 
3602.000000	65.134453 
3601.000000	65.125012 
3600.000000	65.114474 
3599.000000	65.105843 
3598.000000	65.101742 
3597.000000	65.103721 
3596.000000	65.111756 
3595.000000	65.124440 
3594.000000	65.138936 
3593.000000	65.151762 
3592.000000	65.159416 
3591.000000	65.159082 
3590.000000	65.149021 
3589.000000	65.128660 
3588.000000	65.098738 
3587.000000	65.061140 
3586.000000	65.018844 
3585.000000	64.975190 
3584.000000	64.934015 
3583.000000	64.898991 
3582.000000	64.873862 
3581.000000	64.861822 
3580.000000	64.865303 
3579.000000	64.885210 
3578.000000	64.920711 
3577.000000	64.968919 
3576.000000	65.024828 
3575.000000	65.081858 
3574.000000	65.132617 
3573.000000	65.170383 
3572.000000	65.190219 
3571.000000	65.190100 
3570.000000	65.171360 
3569.000000	65.138125 
3568.000000	65.096545 
3567.000000	65.052866 
3566.000000	65.012955 
3565.000000	64.980268 
3564.000000	64.955878 
3563.000000	64.938688 
3562.000000	64.926314 
3561.000000	64.916300 
3560.000000	64.907431 
3559.000000	64.900135 
3558.000000	64.896416 
3557.000000	64.899444 
3556.000000	64.911937 
3555.000000	64.935445 
3554.000000	64.969158 
3553.000000	65.010190 
3552.000000	65.053796 
3551.000000	65.094542 
3550.000000	65.127515 
3549.000000	65.149402 
3548.000000	65.159082 
3547.000000	65.157628 
3546.000000	65.147948 
3545.000000	65.134072 
3544.000000	65.120220 
3543.000000	65.109777 
3542.000000	65.104627 
3541.000000	65.105175 
3540.000000	65.110182 
3539.000000	65.117454 
3538.000000	65.124535 
3537.000000	65.129375 
3536.000000	65.131092 
3535.000000	65.129876 
3534.000000	65.126895 
3533.000000	65.123653 
3532.000000	65.121698 
3531.000000	65.121936 
3530.000000	65.124559 
3529.000000	65.128898 
3528.000000	65.133666 
3527.000000	65.137386 
3526.000000	65.138649 
3525.000000	65.136504 
3524.000000	65.130496 
3523.000000	65.120601 
3522.000000	65.107440 
3521.000000	65.091872 
3520.000000	65.074753 
3519.000000	65.056681 
3518.000000	65.038442 
3517.000000	65.020489 
3516.000000	65.003085 
3515.000000	64.986348 
3514.000000	64.970254 
3513.000000	64.954757 
3512.000000	64.939999 
3511.000000	64.926171 
3510.000000	64.913630 
3509.000000	64.903187 
3508.000000	64.895868 
3507.000000	64.892840 
3506.000000	64.895033 
3505.000000	64.903187 
3504.000000	64.917159 
3503.000000	64.936184 
3502.000000	64.958572 
3501.000000	64.981985 
3500.000000	65.003848 
3499.000000	65.021634 
3498.000000	65.033292 
3497.000000	65.037512 
3496.000000	65.034008 
3495.000000	65.023207 
3494.000000	65.006303 
3493.000000	64.984893 
3492.000000	64.960741 
3491.000000	64.935326 
3490.000000	64.910221 
3489.000000	64.886856 
3488.000000	64.866662 
3487.000000	64.851045 
3486.000000	64.841532 
3485.000000	64.839386 
3484.000000	64.845919 
3483.000000	64.861369 
3482.000000	64.885473 
3481.000000	64.916682 
3480.000000	64.952707 
3479.000000	64.990353 
3478.000000	65.026211 
3477.000000	65.057158 
3476.000000	65.080785 
3475.000000	65.095782 
3474.000000	65.102028 
3473.000000	65.100431 
3472.000000	65.092587 
3471.000000	65.080308 
3470.000000	65.065073 
3469.000000	65.047860 
3468.000000	65.029335 
3467.000000	65.009951 
3466.000000	64.990353 
3465.000000	64.971518 
3464.000000	64.954972 
3463.000000	64.942669 
3462.000000	64.936685 
3461.000000	64.938735 
3460.000000	64.949536 
3459.000000	64.968657 
3458.000000	64.994382 
3457.000000	65.024089 
3456.000000	65.054368 
3455.000000	65.082097 
3454.000000	65.104675 
3453.000000	65.120887 
3452.000000	65.130662 
3451.000000	65.134930 
3450.000000	65.135455 
3449.000000	65.133905 
3448.000000	65.131473 
3447.000000	65.128231 
3446.000000	65.123200 
3445.000000	65.114521 
3444.000000	65.100121 
3443.000000	65.078091 
3442.000000	65.047669 
3441.000000	65.009546 
3440.000000	64.966320 
3439.000000	64.921808 
3438.000000	64.880704 
3437.000000	64.847731 
3436.000000	64.826512 
3435.000000	64.819073 
3434.000000	64.825296 
3433.000000	64.843082 
3432.000000	64.868927 
3431.000000	64.898610 
3430.000000	64.928197 
3429.000000	64.954590 
3428.000000	64.976215 
3427.000000	64.992928 
3426.000000	65.005803 
3425.000000	65.016365 
3424.000000	65.025997 
3423.000000	65.035390 
3422.000000	65.043973 
3421.000000	65.050315 
3420.000000	65.052127 
3419.000000	65.047287 
3418.000000	65.034294 
3417.000000	65.012717 
3416.000000	64.983606 
3415.000000	64.949321 
3414.000000	64.912962 
3413.000000	64.877772 
3412.000000	64.846563 
3411.000000	64.821147 
3410.000000	64.801812 
3409.000000	64.787745 
3408.000000	64.777445 
3407.000000	64.769792 
3406.000000	64.763927 
3405.000000	64.760279 
3404.000000	64.760088 
3403.000000	64.765620 
3402.000000	64.778685 
3401.000000	64.800691 
3400.000000	64.831280 
3399.000000	64.868783 
3398.000000	64.910101 
3397.000000	64.951181 
3396.000000	64.987921 
3395.000000	65.016698 
3394.000000	65.035223 
3393.000000	65.042614 
3392.000000	65.039348 
3391.000000	65.027022 
3390.000000	65.007996 
3389.000000	64.985132 
3388.000000	64.961481 
3387.000000	64.940452 
3386.000000	64.925193 
3385.000000	64.918923 
3384.000000	64.923882 
3383.000000	64.941072 
3382.000000	64.969539 
3381.000000	65.006351 
3380.000000	65.046858 
3379.000000	65.085291 
3378.000000	65.116071 
3377.000000	65.134835 
3376.000000	65.139436 
3375.000000	65.130472 
3374.000000	65.110778 
3373.000000	65.085005 
3372.000000	65.058135 
3371.000000	65.034532 
3370.000000	65.016818 
3369.000000	65.005612 
3368.000000	64.999723 
3367.000000	64.997053 
3366.000000	64.995336 
3365.000000	64.992952 
3364.000000	64.989542 
3363.000000	64.985823 
3362.000000	64.982986 
3361.000000	64.982128 
3360.000000	64.983463 
3359.000000	64.986228 
3358.000000	64.988589 
3357.000000	64.988160 
3356.000000	64.982771 
3355.000000	64.971256 
3354.000000	64.953947 
3353.000000	64.932918 
3352.000000	64.911484 
3351.000000	64.893698 
3350.000000	64.883160 
3349.000000	64.882135 
3348.000000	64.891123 
3347.000000	64.908599 
3346.000000	64.931249 
3345.000000	64.954948 
3344.000000	64.975786 
3343.000000	64.990973 
3342.000000	64.999246 
3341.000000	65.000867 
3340.000000	64.997339 
3339.000000	64.990758 
3338.000000	64.983201 
3337.000000	64.976191 
3336.000000	64.970302 
3335.000000	64.965367 
3334.000000	64.960765 
3333.000000	64.955878 
3332.000000	64.950370 
3331.000000	64.944386 
3330.000000	64.938640 
3329.000000	64.934062 
3328.000000	64.931654 
3327.000000	64.932084 
3326.000000	64.935564 
3325.000000	64.941811 
3324.000000	64.949917 
3323.000000	64.958858 
3322.000000	64.967322 
3321.000000	64.974093 
3320.000000	64.977979 
3319.000000	64.978146 
3318.000000	64.974141 
3317.000000	64.966106 
3316.000000	64.954781 
3315.000000	64.941453 
3314.000000	64.927983 
3313.000000	64.916491 
3312.000000	64.908885 
3311.000000	64.906501 
3310.000000	64.909839 
3309.000000	64.918303 
3308.000000	64.930391 
3307.000000	64.943861 
3306.000000	64.956355 
3305.000000	64.965772 
3304.000000	64.970850 
3303.000000	64.971351 
3302.000000	64.967918 
3301.000000	64.962100 
3300.000000	64.955592 
3299.000000	64.950132 
3298.000000	64.947319 
3297.000000	64.948153 
3296.000000	64.952921 
3295.000000	64.961218 
3294.000000	64.972019 
3293.000000	64.983749 
3292.000000	64.994454 
3291.000000	65.002226 
3290.000000	65.005707 
3289.000000	65.004277 
3288.000000	64.998197 
3287.000000	64.988493 
3286.000000	64.976453 
3285.000000	64.963626 
3284.000000	64.951276 
3283.000000	64.940190 
3282.000000	64.930534 
3281.000000	64.922189 
3280.000000	64.914917 
3279.000000	64.908504 
3278.000000	64.903092 
3277.000000	64.898967 
3276.000000	64.896774 
3275.000000	64.896893 
3274.000000	64.899277 
3273.000000	64.903068 
3272.000000	64.906764 
3271.000000	64.908194 
3270.000000	64.905095 
3269.000000	64.895462 
3268.000000	64.878225 
3267.000000	64.853334 
3266.000000	64.822149 
3265.000000	64.787220 
3264.000000	64.752173 
3263.000000	64.720916 
3262.000000	64.697241 
3261.000000	64.684128 
3260.000000	64.683198 
3259.000000	64.694428 
3258.000000	64.716100 
3257.000000	64.745259 
3256.000000	64.778232 
3255.000000	64.811420 
3254.000000	64.841890 
3253.000000	64.867758 
3252.000000	64.888620 
3251.000000	64.905190 
3250.000000	64.918971 
3249.000000	64.931488 
3248.000000	64.943909 
3247.000000	64.956498 
3246.000000	64.968681 
3245.000000	64.979362 
3244.000000	64.987134 
3243.000000	64.991211 
3242.000000	64.991712 
3241.000000	64.989995 
3240.000000	64.988255 
3239.000000	64.989280 
3238.000000	64.995622 
3237.000000	65.008783 
3236.000000	65.028858 
3235.000000	65.054392 
3234.000000	65.082669 
3233.000000	65.109968 
3232.000000	65.132641 
3231.000000	65.147566 
3230.000000	65.153074 
3229.000000	65.148711 
3228.000000	65.135383 
3227.000000	65.114855 
3226.000000	65.089321 
3225.000000	65.060877 
3224.000000	65.031242 
3223.000000	65.001678 
3222.000000	64.972996 
3221.000000	64.946198 
3220.000000	64.922523 
3219.000000	64.903283 
3218.000000	64.889669 
3217.000000	64.882516 
3216.000000	64.882111 
3215.000000	64.887475 
3214.000000	64.897084 
3213.000000	64.908862 
3212.000000	64.920878 
3211.000000	64.931464 
3210.000000	64.939880 
3209.000000	64.946222 
3208.000000	64.951229 
3207.000000	64.955806 
3206.000000	64.960956 
3205.000000	64.967417 
3204.000000	64.975547 
3203.000000	64.985108 
3202.000000	64.995718 
3201.000000	65.006828 
3200.000000	65.017819 
3199.000000	65.028071 
3198.000000	65.036773 
3197.000000	65.042996 
3196.000000	65.045905 
3195.000000	65.044760 
3194.000000	65.039181 
3193.000000	65.029287 
3192.000000	65.016222 
3191.000000	65.001749 
3190.000000	64.987874 
3189.000000	64.976334 
3188.000000	64.968395 
3187.000000	64.964246 
3186.000000	64.963364 
3185.000000	64.964270 
3184.000000	64.965200 
3183.000000	64.964342 
3182.000000	64.960312 
3181.000000	64.952373 
3180.000000	64.940404 
3179.000000	64.925026 
3178.000000	64.907240 
3177.000000	64.888238 
3176.000000	64.869236 
3175.000000	64.851212 
3174.000000	64.835071 
3173.000000	64.821577 
3172.000000	64.811468 
3171.000000	64.805674 
3170.000000	64.805197 
3169.000000	64.810872 
3168.000000	64.823150 
3167.000000	64.842128 
3166.000000	64.867210 
3165.000000	64.896917 
3164.000000	64.928841 
3163.000000	64.959955 
3162.000000	64.986848 
3161.000000	65.006494 
3160.000000	65.016746 
3159.000000	65.017008 
3158.000000	65.008282 
3157.000000	64.993429 
3156.000000	64.976000 
3155.000000	64.959478 
3154.000000	64.946675 
3153.000000	64.939069 
3152.000000	64.936709 
3151.000000	64.938616 
3150.000000	64.943075 
3149.000000	64.948511 
3148.000000	64.953494 
3147.000000	64.957141 
3146.000000	64.958906 
3145.000000	64.958429 
3144.000000	64.955234 
3143.000000	64.948701 
3142.000000	64.938068 
3141.000000	64.922809 
3140.000000	64.903068 
3139.000000	64.879727 
3138.000000	64.854407 
3137.000000	64.829444 
3136.000000	64.807415 
3135.000000	64.790797 
3134.000000	64.781165 
3133.000000	64.779329 
3132.000000	64.785528 
3131.000000	64.799332 
3130.000000	64.819741 
3129.000000	64.845490 
3128.000000	64.875078 
3127.000000	64.906620 
3126.000000	64.937782 
3125.000000	64.966034 
3124.000000	64.988732 
3123.000000	65.003871 
3122.000000	65.010404 
3121.000000	65.008568 
3120.000000	64.999866 
3119.000000	64.986991 
3118.000000	64.973163 
3117.000000	64.961266 
3116.000000	64.953064 
3115.000000	64.948821 
3114.000000	64.947223 
3113.000000	64.945650 
3112.000000	64.941167 
3111.000000	64.931321 
3110.000000	64.915037 
3109.000000	64.892768 
3108.000000	64.866590 
3107.000000	64.839649 
3106.000000	64.815497 
3105.000000	64.797043 
3104.000000	64.786195 
3103.000000	64.783358 
3102.000000	64.787721 
3101.000000	64.797306 
3100.000000	64.809894 
3099.000000	64.823365 
3098.000000	64.836120 
3097.000000	64.847326 
3096.000000	64.856648 
3095.000000	64.863991 
3094.000000	64.869308 
3093.000000	64.872527 
3092.000000	64.873313 
3091.000000	64.871311 
3090.000000	64.866399 
3089.000000	64.858961 
3088.000000	64.849972 
3087.000000	64.840960 
3086.000000	64.833807 
3085.000000	64.830446 
3084.000000	64.832305 
3083.000000	64.840030 
3082.000000	64.853215 
3081.000000	64.870405 
3080.000000	64.889478 
3079.000000	64.908075 
3078.000000	64.923930 
3077.000000	64.935708 
3076.000000	64.942955 
3075.000000	64.946222 
3074.000000	64.946722 
3073.000000	64.946079 
3072.000000	64.945912 
3071.000000	64.947414 
3070.000000	64.951157 
3069.000000	64.956879 
3068.000000	64.963865 
3067.000000	64.970946 
3066.000000	64.977073 
3065.000000	64.981269 
3064.000000	64.982962 
3063.000000	64.981842 
3062.000000	64.978170 
3061.000000	64.972424 
3060.000000	64.965367 
3059.000000	64.957928 
3058.000000	64.950871 
3057.000000	64.945030 
3056.000000	64.940905 
3055.000000	64.938616 
3054.000000	64.937996 
3053.000000	64.938473 
3052.000000	64.939451 
3051.000000	64.940404 
3050.000000	64.941191 
3049.000000	64.941954 
3048.000000	64.943146 
3047.000000	64.945626 
3046.000000	64.949822 
3045.000000	64.955735 
3044.000000	64.962410 
3043.000000	64.968228 
3042.000000	64.970946 
3041.000000	64.968252 
3040.000000	64.958548 
3039.000000	64.941525 
3038.000000	64.918494 
3037.000000	64.892172 
3036.000000	64.866256 
3035.000000	64.844560 
3034.000000	64.830255 
3033.000000	64.825201 
3032.000000	64.829587 
3031.000000	64.842033 
3030.000000	64.860129 
3029.000000	64.880943 
3028.000000	64.901423 
3027.000000	64.919137 
3026.000000	64.932274 
3025.000000	64.939880 
3024.000000	64.941477 
3023.000000	64.937329 
3022.000000	64.927911 
3021.000000	64.913988 
3020.000000	64.896917 
3019.000000	64.877963 
3018.000000	64.858937 
3017.000000	64.841294 
3016.000000	64.826226 
3015.000000	64.814281 
3014.000000	64.805507 
3013.000000	64.799737 
3012.000000	64.796829 
3011.000000	64.796996 
3010.000000	64.800930 
3009.000000	64.809560 
3008.000000	64.823961 
3007.000000	64.844584 
3006.000000	64.871048 
3005.000000	64.901995 
3004.000000	64.935207 
3003.000000	64.967799 
3002.000000	64.996695 
3001.000000	65.019369 
3000.000000	65.033984 
2999.000000	65.040135 
2998.000000	65.038251 
2997.000000	65.029907 
2996.000000	65.017080 
2995.000000	65.002036 
2994.000000	64.986705 
2993.000000	64.973020 
2992.000000	64.962244 
2991.000000	64.955210 
2990.000000	64.952254 
2989.000000	64.953303 
2988.000000	64.957714 
2987.000000	64.964604 
2986.000000	64.972972 
2985.000000	64.981865 
2984.000000	64.990401 
2983.000000	64.997744 
2982.000000	65.003156 
2981.000000	65.005803 
2980.000000	65.004587 
2979.000000	64.998316 
2978.000000	64.985799 
2977.000000	64.966249 
2976.000000	64.939689 
2975.000000	64.907026 
2974.000000	64.870500 
2973.000000	64.833498 
2972.000000	64.799809 
2971.000000	64.772963 
2970.000000	64.755487 
2969.000000	64.748144 
2968.000000	64.749884 
2967.000000	64.757966 
2966.000000	64.768600 
2965.000000	64.777946 
2964.000000	64.782905 
2963.000000	64.781641 
2962.000000	64.773941 
2961.000000	64.760804 
2960.000000	64.744114 
2959.000000	64.726138 
2958.000000	64.708781 
2957.000000	64.693427 
2956.000000	64.680719 
2955.000000	64.670920 
2954.000000	64.663934 
2953.000000	64.659547 
2952.000000	64.657568 
2951.000000	64.657902 
2950.000000	64.660525 
2949.000000	64.665174 
2948.000000	64.671754 
2947.000000	64.680171 
2946.000000	64.690637 
2945.000000	64.703488 
2944.000000	64.719200 
2943.000000	64.738178 
2942.000000	64.760470 
2941.000000	64.785647 
2940.000000	64.812326 
2939.000000	64.838314 
2938.000000	64.860963 
2937.000000	64.878010 
2936.000000	64.887809 
2935.000000	64.889693 
2934.000000	64.884424 
2933.000000	64.873957 
2932.000000	64.860701 
2931.000000	64.846849 
2930.000000	64.833950 
2929.000000	64.822578 
2928.000000	64.812374 
2927.000000	64.802479 
2926.000000	64.792084 
2925.000000	64.780688 
2924.000000	64.768266 
2923.000000	64.755034 
2922.000000	64.741134 
2921.000000	64.726877 
2920.000000	64.711928 
2919.000000	64.696288 
2918.000000	64.679670 
2917.000000	64.662647 
2916.000000	64.646267 
2915.000000	64.632797 
2914.000000	64.624834 
2913.000000	64.625310 
2912.000000	64.636778 
2911.000000	64.660596 
2910.000000	64.696311 
2909.000000	64.741492 
2908.000000	64.792108 
2907.000000	64.842796 
2906.000000	64.887785 
2905.000000	64.922094 
2904.000000	64.942264 
2903.000000	64.946866 
2902.000000	64.936637 
2901.000000	64.914131 
2900.000000	64.883112 
2899.000000	64.847993 
2898.000000	64.812970 
2897.000000	64.781546 
2896.000000	64.755916 
2895.000000	64.737582 
2894.000000	64.726996 
2893.000000	64.723896 
2892.000000	64.727497 
2891.000000	64.736819 
2890.000000	64.750766 
2889.000000	64.768052 
2888.000000	64.787530 
2887.000000	64.807724 
2886.000000	64.827108 
2885.000000	64.843988 
2884.000000	64.856743 
2883.000000	64.863872 
2882.000000	64.864587 
2881.000000	64.858698 
2880.000000	64.846920 
2879.000000	64.830613 
2878.000000	64.811539 
2877.000000	64.791774 
2876.000000	64.773082 
2875.000000	64.756798 
2874.000000	64.743924 
2873.000000	64.735150 
2872.000000	64.730978 
2871.000000	64.731907 
2870.000000	64.738607 
2869.000000	64.751601 
2868.000000	64.771223 
2867.000000	64.797258 
2866.000000	64.828276 
2865.000000	64.861774 
2864.000000	64.894390 
2863.000000	64.922332 
2862.000000	64.942169 
2861.000000	64.951395 
2860.000000	64.949250 
2859.000000	64.936447 
2858.000000	64.915227 
2857.000000	64.888572 
2856.000000	64.859580 
2855.000000	64.830899 
2854.000000	64.804506 
2853.000000	64.781236 
2852.000000	64.761376 
2851.000000	64.744567 
2850.000000	64.730572 
2849.000000	64.719271 
2848.000000	64.710974 
2847.000000	64.705991 
2846.000000	64.704656 
2845.000000	64.707088 
2844.000000	64.712977 
2843.000000	64.721488 
2842.000000	64.731407 
2841.000000	64.741301 
2840.000000	64.749741 
2839.000000	64.755558 
2838.000000	64.757943 
2837.000000	64.756512 
2836.000000	64.751482 
2835.000000	64.743781 
2834.000000	64.734816 
2833.000000	64.726209 
2832.000000	64.719462 
2831.000000	64.715838 
2830.000000	64.715933 
2829.000000	64.719486 
2828.000000	64.725470 
2827.000000	64.732694 
2826.000000	64.739990 
2825.000000	64.746689 
2824.000000	64.752840 
2823.000000	64.759182 
2822.000000	64.767050 
2821.000000	64.777874 
2820.000000	64.792656 
2819.000000	64.811444 
2818.000000	64.833164 
2817.000000	64.855837 
2816.000000	64.877009 
2815.000000	64.894104 
2814.000000	64.905333 
2813.000000	64.910006 
2812.000000	64.908432 
2811.000000	64.901781 
2810.000000	64.891886 
2809.000000	64.880347 
2808.000000	64.868521 
2807.000000	64.856791 
2806.000000	64.844965 
2805.000000	64.832210 
2804.000000	64.817595 
2803.000000	64.800167 
2802.000000	64.779734 
2801.000000	64.756608 
2800.000000	64.731907 
2799.000000	64.707255 
2798.000000	64.684557 
2797.000000	64.665508 
2796.000000	64.651441 
2795.000000	64.643001 
2794.000000	64.640188 
2793.000000	64.642143 
2792.000000	64.647626 
2791.000000	64.655041 
2790.000000	64.662981 
2789.000000	64.670729 
2788.000000	64.678406 
2787.000000	64.686703 
2786.000000	64.696717 
2785.000000	64.709401 
2784.000000	64.725470 
2783.000000	64.744544 
2782.000000	64.765501 
2781.000000	64.786601 
2780.000000	64.805936 
2779.000000	64.821910 
2778.000000	64.833593 
2777.000000	64.840650 
2776.000000	64.843511 
2775.000000	64.843153 
2774.000000	64.840912 
2773.000000	64.838051 
2772.000000	64.835834 
2771.000000	64.835429 
2770.000000	64.837670 
2769.000000	64.843106 
2768.000000	64.851999 
2767.000000	64.864087 
2766.000000	64.878535 
2765.000000	64.893817 
2764.000000	64.907741 
2763.000000	64.917850 
2762.000000	64.921927 
2761.000000	64.918494 
2760.000000	64.907217 
2759.000000	64.889168 
2758.000000	64.866971 
2757.000000	64.843964 
2756.000000	64.823889 
2755.000000	64.809751 
2754.000000	64.803409 
2753.000000	64.805126 
2752.000000	64.813446 
2751.000000	64.825725 
2750.000000	64.838790 
2749.000000	64.849805 
2748.000000	64.856767 
2747.000000	64.859151 
2746.000000	64.857792 
2745.000000	64.854574 
2744.000000	64.851784 
2743.000000	64.851379 
2742.000000	64.854288 
2741.000000	64.860391 
2740.000000	64.868402 
2739.000000	64.876294 
2738.000000	64.881825 
2737.000000	64.883375 
2736.000000	64.880108 
2735.000000	64.872288 
2734.000000	64.861297 
2733.000000	64.848852 
2732.000000	64.836955 
2731.000000	64.827203 
2730.000000	64.820432 
2729.000000	64.817023 
2728.000000	64.816451 
2727.000000	64.817976 
2726.000000	64.820504 
2725.000000	64.823246 
2724.000000	64.825534 
2723.000000	64.827013 
2722.000000	64.827442 
2721.000000	64.826631 
2720.000000	64.824414 
2719.000000	64.820766 
2718.000000	64.815688 
2717.000000	64.809346 
2716.000000	64.802408 
2715.000000	64.795684 
2714.000000	64.790129 
2713.000000	64.786601 
2712.000000	64.785718 
2711.000000	64.787507 
2710.000000	64.791440 
2709.000000	64.796471 
2708.000000	64.801287 
2707.000000	64.804697 
2706.000000	64.805912 
2705.000000	64.804792 
2704.000000	64.801859 
2703.000000	64.798283 
2702.000000	64.795279 
2701.000000	64.793944 
2700.000000	64.794516 
2699.000000	64.796495 
2698.000000	64.798641 
2697.000000	64.799451 
2696.000000	64.797759 
2695.000000	64.792966 
2694.000000	64.785408 
2693.000000	64.776325 
2692.000000	64.767432 
2691.000000	64.760708 
2690.000000	64.757394 
2689.000000	64.758205 
2688.000000	64.762687 
2687.000000	64.769840 
2686.000000	64.778089 
2685.000000	64.785909 
2684.000000	64.791989 
2683.000000	64.795494 
2682.000000	64.796113 
2681.000000	64.793920 
2680.000000	64.789438 
2679.000000	64.783239 
2678.000000	64.776182 
2677.000000	64.769554 
2676.000000	64.764595 
2675.000000	64.762926 
2674.000000	64.765453 
2673.000000	64.772510 
2672.000000	64.783287 
2671.000000	64.795756 
2670.000000	64.807176 
2669.000000	64.814424 
2668.000000	64.814925 
2667.000000	64.807319 
2666.000000	64.791965 
2665.000000	64.770817 
2664.000000	64.747071 
2663.000000	64.724373 
2662.000000	64.706015 
2661.000000	64.694118 
2660.000000	64.689326 
2659.000000	64.690971 
2658.000000	64.697313 
2657.000000	64.706301 
2656.000000	64.716291 
2655.000000	64.726305 
2654.000000	64.736199 
2653.000000	64.746260 
2652.000000	64.756679 
2651.000000	64.767336 
2650.000000	64.777207 
2649.000000	64.784979 
2648.000000	64.788937 
2647.000000	64.788007 
2646.000000	64.782166 
2645.000000	64.772510 
2644.000000	64.761471 
2643.000000	64.751672 
2642.000000	64.745640 
2641.000000	64.744687 
2640.000000	64.748573 
2639.000000	64.755511 
2638.000000	64.762735 
2637.000000	64.767336 
2636.000000	64.767169 
2635.000000	64.761543 
2634.000000	64.751505 
2633.000000	64.739489 
2632.000000	64.728713 
2631.000000	64.722228 
2630.000000	64.721918 
2629.000000	64.728236 
2628.000000	64.739942 
2627.000000	64.754605 
2626.000000	64.769077 
2625.000000	64.780688 
2624.000000	64.787507 
2623.000000	64.788746 
2622.000000	64.784812 
2621.000000	64.776754 
2620.000000	64.766120 
2619.000000	64.754295 
2618.000000	64.742493 
2617.000000	64.731574 
2616.000000	64.721798 
2615.000000	64.713287 
2614.000000	64.706063 
2613.000000	64.700102 
2612.000000	64.695382 
2611.000000	64.691853 
2610.000000	64.689373 
2609.000000	64.687705 
2608.000000	64.686536 
2607.000000	64.685535 
2606.000000	64.684391 
2605.000000	64.682793 
2604.000000	64.680719 
2603.000000	64.678263 
2602.000000	64.675641 
2601.000000	64.673137 
2600.000000	64.671325 
2599.000000	64.670777 
2598.000000	64.672136 
2597.000000	64.675736 
2596.000000	64.681649 
2595.000000	64.689517 
2594.000000	64.698362 
2593.000000	64.706993 
2592.000000	64.714193 
2591.000000	64.718914 
2590.000000	64.720797 
2589.000000	64.720177 
2588.000000	64.717841 
2587.000000	64.715027 
2586.000000	64.713048 
2585.000000	64.712929 
2584.000000	64.715123 
2583.000000	64.719581 
2582.000000	64.725542 
2581.000000	64.731860 
2580.000000	64.737319 
2579.000000	64.740705 
2578.000000	64.741277 
2577.000000	64.738655 
2576.000000	64.732813 
2575.000000	64.724111 
2574.000000	64.713025 
2573.000000	64.700174 
2572.000000	64.686346 
2571.000000	64.672255 
2570.000000	64.658951 
2569.000000	64.647412 
2568.000000	64.638614 
2567.000000	64.633274 
2566.000000	64.631867 
2565.000000	64.634346 
2564.000000	64.640164 
2563.000000	64.648056 
2562.000000	64.656472 
2561.000000	64.663648 
2560.000000	64.668035 
2559.000000	64.668345 
2558.000000	64.664030 
2557.000000	64.655447 
2556.000000	64.643740 
2555.000000	64.630532 
2554.000000	64.617633 
2553.000000	64.606642 
2552.000000	64.598703 
2551.000000	64.594388 
2550.000000	64.593601 
2549.000000	64.595818 
2548.000000	64.600419 
2547.000000	64.606761 
2546.000000	64.614534 
2545.000000	64.623904 
2544.000000	64.635133 
2543.000000	64.648914 
2542.000000	64.665627 
2541.000000	64.685344 
2540.000000	64.707636 
2539.000000	64.731144 
2538.000000	64.753913 
2537.000000	64.773273 
2536.000000	64.786744 
2535.000000	64.791917 
2534.000000	64.787340 
2533.000000	64.772868 
2532.000000	64.749670 
2531.000000	64.720296 
2530.000000	64.688253 
2529.000000	64.657402 
2528.000000	64.631319 
2527.000000	64.612531 
2526.000000	64.602279 
2525.000000	64.600276 
2524.000000	64.605045 
2523.000000	64.614248 
2522.000000	64.625239 
2521.000000	64.635562 
2520.000000	64.643573 
2519.000000	64.648270 
2518.000000	64.649415 
2517.000000	64.647340 
2516.000000	64.642763 
2515.000000	64.636635 
2514.000000	64.629960 
2513.000000	64.623856 
2512.000000	64.619183 
2511.000000	64.616966 
2510.000000	64.617705 
2509.000000	64.621734 
2508.000000	64.628672 
2507.000000	64.637780 
2506.000000	64.647793 
2505.000000	64.657092 
2504.000000	64.664125 
2503.000000	64.667773 
2502.000000	64.667510 
2501.000000	64.663600 
2500.000000	64.657020 
2499.000000	64.649152 
2498.000000	64.641618 
2497.000000	64.635848 
2496.000000	64.632987 
2495.000000	64.633512 
2494.000000	64.637470 
2493.000000	64.644408 
2492.000000	64.653658 
2491.000000	64.664292 
2490.000000	64.675450 
2489.000000	64.686298 
2488.000000	64.695978 
2487.000000	64.703774 
2486.000000	64.709138 
2485.000000	64.711666 
2484.000000	64.711189 
2483.000000	64.707708 
2482.000000	64.701628 
2481.000000	64.693450 
2480.000000	64.683842 
2479.000000	64.673399 
2478.000000	64.662694 
2477.000000	64.652252 
2476.000000	64.642429 
2475.000000	64.633464 
2474.000000	64.625453 
2473.000000	64.618277 
2472.000000	64.611768 
2471.000000	64.605402 
2470.000000	64.598536 
2469.000000	64.590406 
2468.000000	64.580535 
2467.000000	64.568686 
2466.000000	64.555335 
2465.000000	64.541578 
2464.000000	64.529347 
2463.000000	64.520764 
2462.000000	64.517998 
2461.000000	64.522385 
2460.000000	64.534139 
2459.000000	64.551997 
2458.000000	64.573717 
2457.000000	64.596247 
2456.000000	64.616560 
2455.000000	64.632201 
2454.000000	64.641928 
2453.000000	64.645981 
2452.000000	64.645600 
2451.000000	64.642906 
2450.000000	64.640069 
2449.000000	64.638638 
2448.000000	64.639353 
2447.000000	64.641952 
2446.000000	64.645314 
2445.000000	64.648008 
2444.000000	64.648723 
2443.000000	64.646744 
2442.000000	64.642047 
2441.000000	64.635372 
2440.000000	64.627909 
2439.000000	64.621114 
2438.000000	64.616537 
2437.000000	64.615535 
2436.000000	64.619183 
2435.000000	64.628076 
2434.000000	64.642071 
2433.000000	64.660215 
2432.000000	64.680862 
2431.000000	64.701914 
2430.000000	64.721012 
2429.000000	64.735794 
2428.000000	64.744567 
2427.000000	64.746403 
2426.000000	64.741492 
2425.000000	64.730954 
2424.000000	64.716434 
2423.000000	64.699935 
2422.000000	64.683437 
2421.000000	64.668369 
2420.000000	64.655423 
2419.000000	64.644622 
2418.000000	64.635396 
2417.000000	64.627051 
2416.000000	64.619064 
2415.000000	64.611220 
2414.000000	64.603853 
2413.000000	64.597749 
2412.000000	64.593958 
2411.000000	64.593505 
2410.000000	64.597153 
2409.000000	64.605116 
2408.000000	64.616918 
2407.000000	64.631342 
2406.000000	64.646601 
2405.000000	64.660477 
2404.000000	64.670968 
2403.000000	64.676475 
2402.000000	64.676117 
2401.000000	64.669847 
2400.000000	64.658498 
2399.000000	64.643716 
2398.000000	64.627408 
2397.000000	64.611530 
2396.000000	64.597654 
2395.000000	64.587020 
2394.000000	64.580225 
2393.000000	64.577317 
2392.000000	64.577817 
2391.000000	64.580893 
2390.000000	64.585518 
2389.000000	64.590835 
2388.000000	64.596104 
2387.000000	64.600586 
2386.000000	64.604043 
2385.000000	64.606404 
2384.000000	64.608025 
2383.000000	64.609479 
2382.000000	64.611577 
2381.000000	64.615035 
2380.000000	64.620375 
2379.000000	64.627671 
2378.000000	64.636516 
2377.000000	64.645767 
2376.000000	64.654111 
2375.000000	64.659714 
2374.000000	64.661097 
2373.000000	64.656877 
2372.000000	64.646434 
2371.000000	64.629912 
2370.000000	64.608335 
2369.000000	64.583587 
2368.000000	64.558124 
2367.000000	64.534711 
2366.000000	64.515995 
2365.000000	64.504075 
2364.000000	64.500069 
2363.000000	64.503836 
2362.000000	64.514183 
2361.000000	64.528894 
2360.000000	64.545202 
2359.000000	64.560174 
2358.000000	64.571428 
2357.000000	64.577436 
2356.000000	64.577865 
2355.000000	64.573502 
2354.000000	64.565706 
2353.000000	64.556145 
2352.000000	64.546251 
2351.000000	64.537000 
2350.000000	64.528679 
2349.000000	64.521002 
2348.000000	64.513516 
2347.000000	64.505982 
2346.000000	64.498662 
2345.000000	64.492368 
2344.000000	64.488363 
2343.000000	64.487910 
2342.000000	64.491915 
2341.000000	64.500594 
2340.000000	64.513230 
2339.000000	64.528155 
2338.000000	64.543247 
2337.000000	64.556097 
2336.000000	64.564824 
2335.000000	64.568400 
2334.000000	64.566779 
2333.000000	64.560770 
2332.000000	64.551949 
2331.000000	64.542174 
2330.000000	64.533472 
2329.000000	64.527535 
2328.000000	64.525556 
2327.000000	64.527797 
2326.000000	64.534282 
2325.000000	64.544367 
2324.000000	64.556813 
2323.000000	64.570260 
2322.000000	64.583158 
2321.000000	64.594173 
2320.000000	64.602231 
2319.000000	64.606761 
2318.000000	64.607524 
2317.000000	64.604830 
2316.000000	64.599514 
2315.000000	64.592623 
2314.000000	64.585351 
2313.000000	64.578914 
2312.000000	64.574384 
2311.000000	64.572668 
2310.000000	64.574170 
2309.000000	64.578962 
2308.000000	64.586496 
2307.000000	64.595770 
2306.000000	64.605093 
2305.000000	64.612436 
2304.000000	64.615511 
2303.000000	64.612078 
2302.000000	64.600467 
2301.000000	64.579916 
2300.000000	64.550542 
2299.000000	64.513826 
2298.000000	64.472293 
2297.000000	64.429140 
2296.000000	64.387965 
2295.000000	64.352178 
2294.000000	64.324712 
2293.000000	64.307403 
2292.000000	64.301133 
2291.000000	64.305424 
2290.000000	64.319133 
2289.000000	64.340138 
2288.000000	64.366340 
2287.000000	64.395332 
2286.000000	64.425325 
2285.000000	64.454746 
2284.000000	64.482712 
2283.000000	64.508819 
2282.000000	64.533066 
2281.000000	64.555597 
2280.000000	64.576435 
2279.000000	64.595437 
2278.000000	64.612102 
2277.000000	64.625668 
2276.000000	64.635252 
2275.000000	64.640045 
2274.000000	64.639687 
2273.000000	64.634060 
2272.000000	64.623641 
2271.000000	64.609169 
2270.000000	64.592027 
2269.000000	64.573597 
2268.000000	64.555335 
2267.000000	64.538502 
2266.000000	64.524435 
2265.000000	64.514160 
2264.000000	64.508199 
2263.000000	64.506816 
2262.000000	64.509940 
2261.000000	64.517021 
2260.000000	64.526963 
2259.000000	64.538335 
2258.000000	64.549446 
2257.000000	64.558625 
2256.000000	64.564514 
2255.000000	64.566016 
2254.000000	64.562535 
2253.000000	64.553904 
2252.000000	64.540553 
2251.000000	64.523291 
2250.000000	64.503121 
2249.000000	64.481377 
2248.000000	64.459609 
2247.000000	64.439463 
2246.000000	64.422321 
2245.000000	64.409375 
2244.000000	64.401316 
2243.000000	64.398097 
2242.000000	64.399170 
2241.000000	64.403295 
2240.000000	64.409303 
2239.000000	64.415979 
2238.000000	64.422821 
2237.000000	64.429831 
2236.000000	64.437842 
2235.000000	64.447951 
2234.000000	64.461183 
2233.000000	64.478039 
2232.000000	64.497995 
2231.000000	64.519596 
2230.000000	64.540553 
2229.000000	64.558339 
2228.000000	64.570546 
2227.000000	64.575695 
2226.000000	64.573264 
2225.000000	64.564013 
2224.000000	64.549541 
2223.000000	64.531874 
2222.000000	64.513087 
2221.000000	64.494752 
2220.000000	64.477849 
2219.000000	64.462733 
2218.000000	64.449334 
2217.000000	64.437317 
2216.000000	64.426660 
2215.000000	64.417529 
2214.000000	64.410591 
2213.000000	64.406657 
2212.000000	64.406299 
2211.000000	64.409732 
2210.000000	64.416408 
2209.000000	64.425182 
2208.000000	64.434289 
2207.000000	64.441919 
2206.000000	64.446520 
2205.000000	64.447283 
2204.000000	64.444303 
2203.000000	64.438509 
2202.000000	64.431571 
2201.000000	64.425301 
2200.000000	64.421343 
2199.000000	64.420723 
2198.000000	64.423823 
2197.000000	64.430308 
2196.000000	64.439344 
2195.000000	64.449930 
2194.000000	64.461088 
2193.000000	64.472126 
2192.000000	64.482522 
2191.000000	64.491629 
2190.000000	64.498615 
2189.000000	64.502453 
2188.000000	64.502120 
2187.000000	64.496588 
2186.000000	64.485383 
2185.000000	64.468908 
2184.000000	64.448356 
2183.000000	64.425802 
2182.000000	64.403676 
2181.000000	64.384245 
2180.000000	64.369273 
2179.000000	64.359664 
2178.000000	64.355254 
2177.000000	64.355015 
2176.000000	64.357519 
2175.000000	64.361357 
2174.000000	64.365649 
2173.000000	64.370155 
2172.000000	64.375400 
2171.000000	64.382243 
2170.000000	64.391517 
2169.000000	64.403653 
2168.000000	64.418315 
2167.000000	64.434266 
2166.000000	64.449810 
2165.000000	64.462828 
2164.000000	64.471602 
2163.000000	64.474916 
2162.000000	64.472723 
2161.000000	64.465737 
2160.000000	64.455652 
2159.000000	64.444351 
2158.000000	64.433646 
2157.000000	64.424705 
2156.000000	64.417743 
2155.000000	64.412117 
2154.000000	64.406490 
2153.000000	64.399528 
2152.000000	64.390325 
2151.000000	64.378786 
2150.000000	64.365816 
2149.000000	64.353132 
2148.000000	64.342808 
2147.000000	64.336752 
2146.000000	64.336180 
2145.000000	64.341354 
2144.000000	64.351320 
2143.000000	64.364361 
2142.000000	64.378261 
2141.000000	64.390945 
2140.000000	64.400792 
2139.000000	64.407014 
2138.000000	64.409780 
2137.000000	64.409875 
2136.000000	64.408707 
2135.000000	64.407634 
2134.000000	64.407610 
2133.000000	64.409232 
2132.000000	64.412236 
2131.000000	64.415836 
2130.000000	64.418673 
2129.000000	64.419341 
2128.000000	64.416432 
2127.000000	64.409112 
2126.000000	64.397192 
2125.000000	64.381361 
2124.000000	64.363241 
2123.000000	64.344978 
2122.000000	64.329147 
2121.000000	64.318180 
2120.000000	64.314031 
2119.000000	64.317631 
2118.000000	64.328718 
2117.000000	64.345979 
2116.000000	64.367079 
2115.000000	64.389133 
2114.000000	64.409351 
2113.000000	64.425373 
2112.000000	64.435625 
2111.000000	64.439630 
2110.000000	64.437961 
2109.000000	64.432048 
2108.000000	64.423751 
2107.000000	64.414834 
2106.000000	64.406800 
2105.000000	64.400386 
2104.000000	64.395880 
2103.000000	64.392828 
2102.000000	64.390373 
2101.000000	64.387536 
2100.000000	64.383697 
2099.000000	64.378499 
2098.000000	64.372086 
2097.000000	64.365172 
2096.000000	64.358758 
2095.000000	64.354181 
2094.000000	64.352679 
2093.000000	64.355301 
2092.000000	64.362573 
2091.000000	64.374518 
2090.000000	64.390230 
2089.000000	64.408278 
2088.000000	64.426565 
2087.000000	64.442801 
2086.000000	64.454889 
2085.000000	64.461040 
2084.000000	64.460396 
2083.000000	64.453101 
2082.000000	64.440488 
2081.000000	64.424657 
2080.000000	64.408040 
2079.000000	64.393210 
2078.000000	64.382243 
2077.000000	64.376330 
2076.000000	64.375853 
2075.000000	64.380288 
2074.000000	64.388537 
2073.000000	64.399170 
2072.000000	64.410877 
2071.000000	64.422488 
2070.000000	64.433145 
2069.000000	64.442372 
2068.000000	64.449834 
2067.000000	64.455270 
2066.000000	64.458346 
2065.000000	64.458751 
2064.000000	64.456295 
2063.000000	64.450883 
2062.000000	64.442753 
2061.000000	64.432358 
2060.000000	64.420413 
2059.000000	64.407515 
2058.000000	64.394164 
2057.000000	64.380693 
2056.000000	64.367198 
2055.000000	64.353609 
2054.000000	64.339804 
2053.000000	64.325737 
2052.000000	64.311504 
2051.000000	64.297533 
2050.000000	64.284300 
2049.000000	64.272642 
2048.000000	64.263272 
2047.000000	64.257121 
2046.000000	64.254760 
2045.000000	64.256644 
2044.000000	64.262986 
2043.000000	64.273452 
2042.000000	64.287328 
2041.000000	64.303278 
2040.000000	64.319610 
2039.000000	64.334368 
2038.000000	64.345574 
2037.000000	64.351749 
2036.000000	64.352154 
2035.000000	64.346957 
2034.000000	64.337325 
2033.000000	64.325094 
2032.000000	64.312481 
2031.000000	64.301586 
2030.000000	64.293980 
2029.000000	64.290547 
2028.000000	64.291334 
2027.000000	64.295625 
2026.000000	64.302253 
2025.000000	64.309978 
2024.000000	64.317464 
2023.000000	64.323782 
2022.000000	64.328241 
2021.000000	64.330530 
2020.000000	64.330625 
2019.000000	64.328598 
2018.000000	64.324545 
2017.000000	64.318752 
2016.000000	64.311528 
2015.000000	64.303326 
2014.000000	64.294743 
2013.000000	64.286446 
2012.000000	64.279127 
2011.000000	64.273476 
2010.000000	64.270114 
2009.000000	64.269614 
2008.000000	64.272236 
2007.000000	64.278006 
2006.000000	64.286613 
2005.000000	64.297389 
2004.000000	64.309430 
2003.000000	64.321422 
2002.000000	64.331841 
2001.000000	64.339184 
2000.000000	64.341998 
1999.000000	64.339303 
1998.000000	64.330649 
1997.000000	64.315938 
1996.000000	64.295959 
1995.000000	64.271950 
1994.000000	64.245581 
1993.000000	64.218616 
1992.000000	64.192938 
1991.000000	64.170265 
1990.000000	64.152193 
1989.000000	64.139890 
1988.000000	64.134097 
1987.000000	64.135074 
1986.000000	64.142537 
1985.000000	64.155602 
1984.000000	64.172935 
1983.000000	64.192914 
1982.000000	64.213728 
1981.000000	64.233684 
1980.000000	64.251494 
1979.000000	64.266204 
1978.000000	64.277505 
1977.000000	64.285397 
1976.000000	64.290285 
1975.000000	64.292764 
1974.000000	64.293575 
1973.000000	64.293432 
1972.000000	64.293074 
1971.000000	64.293479 
1970.000000	64.295411 
1969.000000	64.299750 
1968.000000	64.306759 
1967.000000	64.316248 
1966.000000	64.327311 
1965.000000	64.338326 
1964.000000	64.347338 
1963.000000	64.352607 
1962.000000	64.352917 
1961.000000	64.348220 
1960.000000	64.339447 
1959.000000	64.328455 
1958.000000	64.317536 
1957.000000	64.308977 
1956.000000	64.304375 
1955.000000	64.304137 
1954.000000	64.307641 
1953.000000	64.313268 
1952.000000	64.319062 
1951.000000	64.323043 
1950.000000	64.323878 
1949.000000	64.321064 
1948.000000	64.314818 
1947.000000	64.306163 
1946.000000	64.296150 
1945.000000	64.285898 
1944.000000	64.276123 
1943.000000	64.267063 
1942.000000	64.258646 
1941.000000	64.250516 
1940.000000	64.242482 
1939.000000	64.234375 
1938.000000	64.226365 
1937.000000	64.218807 
1936.000000	64.212179 
1935.000000	64.207148 
1934.000000	64.204168 
1933.000000	64.203667 
1932.000000	64.206099 
1931.000000	64.211916 
1930.000000	64.221334 
1929.000000	64.234447 
1928.000000	64.251136 
1927.000000	64.270734 
1926.000000	64.292097 
1925.000000	64.313650 
1924.000000	64.333486 
1923.000000	64.349842 
1922.000000	64.361262 
1921.000000	64.367318 
1920.000000	64.368176 
1919.000000	64.365124 
1918.000000	64.359688 
1917.000000	64.353561 
1916.000000	64.347839 
1915.000000	64.343142 
1914.000000	64.339017 
1913.000000	64.334487 
1912.000000	64.328122 
1911.000000	64.318966 
1910.000000	64.306259 
1909.000000	64.290189 
1908.000000	64.271378 
1907.000000	64.251112 
1906.000000	64.230704 
1905.000000	64.211344 
1904.000000	64.193892 
1903.000000	64.178657 
1902.000000	64.165592 
1901.000000	64.154338 
1900.000000	64.144587 
1899.000000	64.136147 
1898.000000	64.128923 
1897.000000	64.123225 
1896.000000	64.119148 
1895.000000	64.116859 
1894.000000	64.116287 
1893.000000	64.117383 
1892.000000	64.119744 
1891.000000	64.123106 
1890.000000	64.127254 
1889.000000	64.132094 
1888.000000	64.137697 
1887.000000	64.144253 
1886.000000	64.151978 
1885.000000	64.160895 
1884.000000	64.170861 
1883.000000	64.181375 
1882.000000	64.191579 
1881.000000	64.200425 
1880.000000	64.207029 
1879.000000	64.210724 
1878.000000	64.211368 
1877.000000	64.209532 
1876.000000	64.206314 
1875.000000	64.203143 
1874.000000	64.201331 
1873.000000	64.201879 
1872.000000	64.205098 
1871.000000	64.210534 
1870.000000	64.216947 
1869.000000	64.222836 
1868.000000	64.226675 
1867.000000	64.227557 
1866.000000	64.225149 
1865.000000	64.220046 
1864.000000	64.213395 
1863.000000	64.206576 
1862.000000	64.200544 
1861.000000	64.195942 
1860.000000	64.192533 
1859.000000	64.189457 
1858.000000	64.185690 
1857.000000	64.180278 
1856.000000	64.172816 
1855.000000	64.163565 
1854.000000	64.153361 
1853.000000	64.143538 
1852.000000	64.135408 
1851.000000	64.129996 
1850.000000	64.127707 
1849.000000	64.128303 
1848.000000	64.131021 
1847.000000	64.134669 
1846.000000	64.138150 
1845.000000	64.140629 
1844.000000	64.141368 
1843.000000	64.139914 
1842.000000	64.136004 
1841.000000	64.129471 
1840.000000	64.120221 
1839.000000	64.108276 
1838.000000	64.093995 
1837.000000	64.078259 
1836.000000	64.062309 
1835.000000	64.047765 
1834.000000	64.036417 
1833.000000	64.029788 
1832.000000	64.028787 
1831.000000	64.033317 
1830.000000	64.042329 
1829.000000	64.053821 
1828.000000	64.065194 
1827.000000	64.074015 
1826.000000	64.078307 
1825.000000	64.077329 
1824.000000	64.071488 
1823.000000	64.062643 
1822.000000	64.053535 
1821.000000	64.047241 
1820.000000	64.046382 
1819.000000	64.052653 
1818.000000	64.066362 
1817.000000	64.086413 
1816.000000	64.110350 
1815.000000	64.135098 
1814.000000	64.157581 
1813.000000	64.175248 
1812.000000	64.186620 
1811.000000	64.191341 
1810.000000	64.190196 
1809.000000	64.184641 
1808.000000	64.176583 
1807.000000	64.167642 
1806.000000	64.159226 
1805.000000	64.152097 
1804.000000	64.146494 
1803.000000	64.142465 
1802.000000	64.139842 
1801.000000	64.138531 
1800.000000	64.138507 
1799.000000	64.139866 
1798.000000	64.142584 
1797.000000	64.146494 
1796.000000	64.151048 
1795.000000	64.155387 
1794.000000	64.158582 
1793.000000	64.159607 
1792.000000	64.157819 
1791.000000	64.152908 
1790.000000	64.145064 
1789.000000	64.134836 
1788.000000	64.123058 
1787.000000	64.110684 
1786.000000	64.098620 
1785.000000	64.087700 
1784.000000	64.078283 
1783.000000	64.070630 
1782.000000	64.064979 
1781.000000	64.061665 
1780.000000	64.060640 
1779.000000	64.061927 
1778.000000	64.065361 
1777.000000	64.070677 
1776.000000	64.077329 
1775.000000	64.084458 
1774.000000	64.091277 
1773.000000	64.097166 
1772.000000	64.101552 
1771.000000	64.104294 
1770.000000	64.105558 
1769.000000	64.105701 
1768.000000	64.105272 
1767.000000	64.104747 
1766.000000	64.104247 
1765.000000	64.103770 
1764.000000	64.103007 
1763.000000	64.101266 
1762.000000	64.097666 
1761.000000	64.091491 
1760.000000	64.081883 
1759.000000	64.068150 
1758.000000	64.049911 
1757.000000	64.027070 
1756.000000	64.000177 
1755.000000	63.970279 
1754.000000	63.938856 
1753.000000	63.907814 
1752.000000	63.879013 
1751.000000	63.853979 
1750.000000	63.833427 
1749.000000	63.817310 
1748.000000	63.804626 
1747.000000	63.793826 
1746.000000	63.783288 
1745.000000	63.771629 
1744.000000	63.758277 
1743.000000	63.743638 
1742.000000	63.728928 
1741.000000	63.716030 
1740.000000	63.706994 
1739.000000	63.703703 
1738.000000	63.707184 
1737.000000	63.717627 
1736.000000	63.734388 
1735.000000	63.755965 
1734.000000	63.780617 
1733.000000	63.806176 
1732.000000	63.830471 
1731.000000	63.851404 
1730.000000	63.867163 
1729.000000	63.876438 
1728.000000	63.878417 
1727.000000	63.873195 
1726.000000	63.861799 
1725.000000	63.846302 
1724.000000	63.829255 
1723.000000	63.813591 
1722.000000	63.802266 
1721.000000	63.797616 
1720.000000	63.800883 
1719.000000	63.812160 
1718.000000	63.830304 
1717.000000	63.853192 
1716.000000	63.878011 
1715.000000	63.901734 
1714.000000	63.921523 
1713.000000	63.935232 
1712.000000	63.941669 
1711.000000	63.940548 
1710.000000	63.932681 
1709.000000	63.919639 
1708.000000	63.903498 
1707.000000	63.886857 
1706.000000	63.872146 
1705.000000	63.861536 
1704.000000	63.856554 
1703.000000	63.857913 
1702.000000	63.865375 
1701.000000	63.878154 
1700.000000	63.894820 
1699.000000	63.913583 
1698.000000	63.932728 
1697.000000	63.950681 
1696.000000	63.966202 
1695.000000	63.978481 
1694.000000	63.986945 
1693.000000	63.991141 
1692.000000	63.990569 
1691.000000	63.984799 
1690.000000	63.973259 
1689.000000	63.955402 
1688.000000	63.931226 
1687.000000	63.901281 
1686.000000	63.867139 
1685.000000	63.831210 
1684.000000	63.796639 
1683.000000	63.766694 
1682.000000	63.744235 
1681.000000	63.731026 
1680.000000	63.727450 
1679.000000	63.732337 
1678.000000	63.743257 
1677.000000	63.757252 
1676.000000	63.771224 
1675.000000	63.783097 
1674.000000	63.791632 
1673.000000	63.796925 
1672.000000	63.799881 
1671.000000	63.801908 
1670.000000	63.804268 
1669.000000	63.807773 
1668.000000	63.812375 
1667.000000	63.817405 
1666.000000	63.822054 
1665.000000	63.825559 
1664.000000	63.827610 
1663.000000	63.828253 
1662.000000	63.827943 
1661.000000	63.827347 
1660.000000	63.827085 
1659.000000	63.827681 
1658.000000	63.829421 
1657.000000	63.832592 
1656.000000	63.837575 
1655.000000	63.844561 
1654.000000	63.853788 
1653.000000	63.865303 
1652.000000	63.878965 
1651.000000	63.893961 
1650.000000	63.908934 
1649.000000	63.922429 
1648.000000	63.932776 
1647.000000	63.938474 
1646.000000	63.938426 
1645.000000	63.932204 
1644.000000	63.919854 
1643.000000	63.902115 
1642.000000	63.880133 
1641.000000	63.855123 
1640.000000	63.828778 
1639.000000	63.803076 
1638.000000	63.780307 
1637.000000	63.762688 
1636.000000	63.752365 
1635.000000	63.750886 
1634.000000	63.758850 
1633.000000	63.775634 
1632.000000	63.799595 
1631.000000	63.828206 
1630.000000	63.858509 
1629.000000	63.887691 
1628.000000	63.913488 
1627.000000	63.934588 
1626.000000	63.950705 
1625.000000	63.962268 
1624.000000	63.970494 
1623.000000	63.976526 
1622.000000	63.981509 
1621.000000	63.985800 
1620.000000	63.989472 
1619.000000	63.991570 
1618.000000	63.991260 
1617.000000	63.987350 
1616.000000	63.979053 
1615.000000	63.965892 
1614.000000	63.948130 
1613.000000	63.926577 
1612.000000	63.902735 
1611.000000	63.878512 
1610.000000	63.856005 
1609.000000	63.837194 
1608.000000	63.823795 
1607.000000	63.816833 
1606.000000	63.816666 
1605.000000	63.822841 
1604.000000	63.833975 
1603.000000	63.848066 
1602.000000	63.862657 
1601.000000	63.875055 
1600.000000	63.882970 
1599.000000	63.884377 
1598.000000	63.878393 
1597.000000	63.865351 
1596.000000	63.846969 
1595.000000	63.825893 
1594.000000	63.805150 
1593.000000	63.788127 
1592.000000	63.777303 
1591.000000	63.774132 
1590.000000	63.778614 
1589.000000	63.789510 
1588.000000	63.804650 
1587.000000	63.821339 
1586.000000	63.837051 
1585.000000	63.849830 
1584.000000	63.858675 
1583.000000	63.863635 
1582.000000	63.865566 
1581.000000	63.865804 
1580.000000	63.866043 
1579.000000	63.867855 
1578.000000	63.872337 
1577.000000	63.879847 
1576.000000	63.890123 
1575.000000	63.902354 
1574.000000	63.915252 
1573.000000	63.927102 
1572.000000	63.936257 
1571.000000	63.941121 
1570.000000	63.940215 
1569.000000	63.932514 
1568.000000	63.917613 
1567.000000	63.895845 
1566.000000	63.868308 
1565.000000	63.836741 
1564.000000	63.803529 
1563.000000	63.771080 
1562.000000	63.741564 
1561.000000	63.716650 
1560.000000	63.697195 
1559.000000	63.683652 
1558.000000	63.675951 
1557.000000	63.674044 
1556.000000	63.677716 
1555.000000	63.687038 
1554.000000	63.701915 
1553.000000	63.722038 
1552.000000	63.746547 
1551.000000	63.774037 
1550.000000	63.802528 
1549.000000	63.829779 
1548.000000	63.853836 
1547.000000	63.873314 
1546.000000	63.887834 
1545.000000	63.898086 
1544.000000	63.905215 
1543.000000	63.910698 
1542.000000	63.915491 
1541.000000	63.919854 
1540.000000	63.923192 
1539.000000	63.924551 
1538.000000	63.922572 
1537.000000	63.916707 
1536.000000	63.906764 
1535.000000	63.893532 
1534.000000	63.878154 
1533.000000	63.862156 
1532.000000	63.847112 
1531.000000	63.834452 
1530.000000	63.825082 
1529.000000	63.819575 
1528.000000	63.817930 
1527.000000	63.819837 
1526.000000	63.824462 
1525.000000	63.830852 
1524.000000	63.838005 
1523.000000	63.845014 
1522.000000	63.851046 
1521.000000	63.855576 
1520.000000	63.858509 
1519.000000	63.860177 
1518.000000	63.861012 
1517.000000	63.861775 
1516.000000	63.863205 
1515.000000	63.865876 
1514.000000	63.870072 
1513.000000	63.875651 
1512.000000	63.882112 
1511.000000	63.888621 
1510.000000	63.894224 
1509.000000	63.897848 
1508.000000	63.898563 
1507.000000	63.895392 
1506.000000	63.887834 
1505.000000	63.875627 
1504.000000	63.858985 
1503.000000	63.838601 
1502.000000	63.815665 
1501.000000	63.791871 
1500.000000	63.769412 
1499.000000	63.750457 
1498.000000	63.736963 
1497.000000	63.730192 
1496.000000	63.730287 
1495.000000	63.736343 
1494.000000	63.746452 
1493.000000	63.758254 
1492.000000	63.769459 
1491.000000	63.778233 
1490.000000	63.783740 
1489.000000	63.785743 
1488.000000	63.784742 
1487.000000	63.781547 
1486.000000	63.777303 
1485.000000	63.772892 
1484.000000	63.768887 
1483.000000	63.765883 
1482.000000	63.763833 
1481.000000	63.762450 
1480.000000	63.760900 
1479.000000	63.758087 
1478.000000	63.752770 
1477.000000	63.743901 
1476.000000	63.730978 
1475.000000	63.714098 
1474.000000	63.694310 
1473.000000	63.673520 
1472.000000	63.654279 
1471.000000	63.639545 
1470.000000	63.631963 
1469.000000	63.633513 
1468.000000	63.644981 
1467.000000	63.665986 
1466.000000	63.694739 
1465.000000	63.728570 
1464.000000	63.764286 
1463.000000	63.798880 
1462.000000	63.829660 
1461.000000	63.854908 
1460.000000	63.873744 
1459.000000	63.886141 
1458.000000	63.892745 
1457.000000	63.894319 
1456.000000	63.891816 
1455.000000	63.885712 
1454.000000	63.876295 
1453.000000	63.863301 
1452.000000	63.846588 
1451.000000	63.825988 
1450.000000	63.801980 
1449.000000	63.775444 
1448.000000	63.748025 
1447.000000	63.721680 
1446.000000	63.698482 
1445.000000	63.680338 
1444.000000	63.668513 
1443.000000	63.663625 
1442.000000	63.665533 
1441.000000	63.673400 
1440.000000	63.685965 
1439.000000	63.701653 
1438.000000	63.718914 
1437.000000	63.736367 
1436.000000	63.752865 
1435.000000	63.767719 
1434.000000	63.780546 
1433.000000	63.791084 
1432.000000	63.799095 
1431.000000	63.804268 
1430.000000	63.806223 
1429.000000	63.804459 
1428.000000	63.798379 
1427.000000	63.787817 
1426.000000	63.772964 
1425.000000	63.754630 
1424.000000	63.734102 
1423.000000	63.713216 
1422.000000	63.693690 
1421.000000	63.677120 
1420.000000	63.664221 
1419.000000	63.654804 
1418.000000	63.647818 
1417.000000	63.641619 
1416.000000	63.634443 
1415.000000	63.624882 
1414.000000	63.612508 
1413.000000	63.597965 
1412.000000	63.582682 
1411.000000	63.568758 
1410.000000	63.558197 
1409.000000	63.552403 
1408.000000	63.551759 
1407.000000	63.555622 
1406.000000	63.562154 
1405.000000	63.569235 
1404.000000	63.574862 
1403.000000	63.577723 
1402.000000	63.577413 
1401.000000	63.574671 
1400.000000	63.570952 
1399.000000	63.568091 
1398.000000	63.567733 
1397.000000	63.570761 
1396.000000	63.577294 
1395.000000	63.586473 
1394.000000	63.596940 
1393.000000	63.606715 
1392.000000	63.613891 
1391.000000	63.616824 
1390.000000	63.614726 
1389.000000	63.607597 
1388.000000	63.596367 
1387.000000	63.582730 
1386.000000	63.568663 
1385.000000	63.556098 
1384.000000	63.546228 
1383.000000	63.539552 
1382.000000	63.535714 
1381.000000	63.533592 
1380.000000	63.531780 
1379.000000	63.529014 
1378.000000	63.524508 
1377.000000	63.517999 
1376.000000	63.510131 
1375.000000	63.501811 
1374.000000	63.494277 
1373.000000	63.488650 
1372.000000	63.485693 
1371.000000	63.485622 
1370.000000	63.488030 
1369.000000	63.492321 
1368.000000	63.497519 
1367.000000	63.502764 
1366.000000	63.507270 
1365.000000	63.510346 
1364.000000	63.511562 
1363.000000	63.510704 
1362.000000	63.507819 
1361.000000	63.503432 
1360.000000	63.498210 
1359.000000	63.493061 
1358.000000	63.488888 
1357.000000	63.486433 
1356.000000	63.486123 
1355.000000	63.488101 
1354.000000	63.492059 
1353.000000	63.497757 
1352.000000	63.504791 
1351.000000	63.512825 
1350.000000	63.521742 
1349.000000	63.531374 
1348.000000	63.541650 
1347.000000	63.552308 
1346.000000	63.562917 
1345.000000	63.572859 
1344.000000	63.581490 
1343.000000	63.588285 
1342.000000	63.593029 
1341.000000	63.595867 
1340.000000	63.597369 
1339.000000	63.598465 
1338.000000	63.599896 
1337.000000	63.602328 
1336.000000	63.606023 
1335.000000	63.610887 
1334.000000	63.616704 
1333.000000	63.622951 
1332.000000	63.629102 
1331.000000	63.634443 
1330.000000	63.638138 
1329.000000	63.639259 
1328.000000	63.636827 
1327.000000	63.630151 
1326.000000	63.618874 
1325.000000	63.603377 
1324.000000	63.584685 
1323.000000	63.564515 
1322.000000	63.544917 
1321.000000	63.528108 
1320.000000	63.515973 
1319.000000	63.509774 
1318.000000	63.509893 
1317.000000	63.515758 
1316.000000	63.525891 
1315.000000	63.538336 
1314.000000	63.550949 
1313.000000	63.561677 
1312.000000	63.569045 
1311.000000	63.572287 
1310.000000	63.571286 
1309.000000	63.566565 
1308.000000	63.559222 
1307.000000	63.550496 
1306.000000	63.541603 
1305.000000	63.533496 
1304.000000	63.526725 
1303.000000	63.521456 
1302.000000	63.517427 
1301.000000	63.514256 
1300.000000	63.511490 
1299.000000	63.509011 
1298.000000	63.506746 
1297.000000	63.505101 
1296.000000	63.504600 
1295.000000	63.505768 
1294.000000	63.508892 
1293.000000	63.513922 
1292.000000	63.520407 
1291.000000	63.527512 
1290.000000	63.534283 
1289.000000	63.539719 
1288.000000	63.543081 
1287.000000	63.543963 
1286.000000	63.542413 
1285.000000	63.538432 
1284.000000	63.532114 
1283.000000	63.523221 
1282.000000	63.511514 
1281.000000	63.496661 
1280.000000	63.478827 
1279.000000	63.458728 
1278.000000	63.437843 
1277.000000	63.418245 
1276.000000	63.402366 
1275.000000	63.392543 
1274.000000	63.390254 
1273.000000	63.395833 
1272.000000	63.408088 
1271.000000	63.424587 
1270.000000	63.442015 
1269.000000	63.456892 
1268.000000	63.466334 
1267.000000	63.468480 
1266.000000	63.462996 
1265.000000	63.450837 
1264.000000	63.434267 
1263.000000	63.416028 
1262.000000	63.399028 
1261.000000	63.385701 
1260.000000	63.377618 
1259.000000	63.375496 
1258.000000	63.379001 
1257.000000	63.386821 
1256.000000	63.397073 
1255.000000	63.407611 
1254.000000	63.416290 
1253.000000	63.421440 
1252.000000	63.421964 
1251.000000	63.417840 
1250.000000	63.410043 
1249.000000	63.400506 
1248.000000	63.391566 
1247.000000	63.385510 
1246.000000	63.384127 
1245.000000	63.388299 
1244.000000	63.397598 
1243.000000	63.410472 
1242.000000	63.424491 
1241.000000	63.437151 
1240.000000	63.446068 
1239.000000	63.449931 
1238.000000	63.448476 
1237.000000	63.442778 
1236.000000	63.434624 
1235.000000	63.426733 
1234.000000	63.421559 
1233.000000	63.421487 
1232.000000	63.427925 
1231.000000	63.441324 
1230.000000	63.460898 
1229.000000	63.484883 
1228.000000	63.510775 
1227.000000	63.535404 
1226.000000	63.555431 
1225.000000	63.567733 
1224.000000	63.569974 
1223.000000	63.560914 
1222.000000	63.540911 
1221.000000	63.511776 
1220.000000	63.476753 
1219.000000	63.440084 
1218.000000	63.406348 
1217.000000	63.379788 
1216.000000	63.363409 
1215.000000	63.358688 
1214.000000	63.365316 
1213.000000	63.381338 
1212.000000	63.403654 
1211.000000	63.428521 
1210.000000	63.452672 
1209.000000	63.473248 
1208.000000	63.488721 
1207.000000	63.498640 
1206.000000	63.503766 
1205.000000	63.505291 
1204.000000	63.504743 
1203.000000	63.503551 
1202.000000	63.502693 
1201.000000	63.502621 
1200.000000	63.503170 
1199.000000	63.503813 
1198.000000	63.503670 
1197.000000	63.501763 
1196.000000	63.497400 
1195.000000	63.490176 
1194.000000	63.479924 
1193.000000	63.467121 
1192.000000	63.452482 
1191.000000	63.437294 
1190.000000	63.422989 
1189.000000	63.410997 
1188.000000	63.402485 
1187.000000	63.398146 
1186.000000	63.398146 
1185.000000	63.401937 
1184.000000	63.408493 
1183.000000	63.416242 
1182.000000	63.423418 
1181.000000	63.428282 
1180.000000	63.429093 
1179.000000	63.424634 
1178.000000	63.414192 
1177.000000	63.397765 
1176.000000	63.376021 
1175.000000	63.350248 
1174.000000	63.322186 
1173.000000	63.293528 
1172.000000	63.265705 
1171.000000	63.239765 
1170.000000	63.216400 
1169.000000	63.195776 
1168.000000	63.177919 
1167.000000	63.162922 
1166.000000	63.151335 
1165.000000	63.143849 
1164.000000	63.141274 
1163.000000	63.144254 
1162.000000	63.152647 
1161.000000	63.165330 
1160.000000	63.180494 
1159.000000	63.195371 
1158.000000	63.207411 
1157.000000	63.214564 
1156.000000	63.216257 
1155.000000	63.213300 
1154.000000	63.207960 
1153.000000	63.203191 
1152.000000	63.202023 
1151.000000	63.206648 
1150.000000	63.217663 
1149.000000	63.234114 
1148.000000	63.253784 
1147.000000	63.273930 
1146.000000	63.292050 
1145.000000	63.306665 
1144.000000	63.317799 
1143.000000	63.326692 
1142.000000	63.335204 
1141.000000	63.345098 
1140.000000	63.357257 
1139.000000	63.371419 
1138.000000	63.386178 
1137.000000	63.399243 
1136.000000	63.408517 
1135.000000	63.412094 
1134.000000	63.409042 
1133.000000	63.399362 
1132.000000	63.383841 
1131.000000	63.364243 
1130.000000	63.343071 
1129.000000	63.322997 
1128.000000	63.306641 
1127.000000	63.295722 
1126.000000	63.291263 
1125.000000	63.292956 
1124.000000	63.299345 
1123.000000	63.308429 
1122.000000	63.317990 
1121.000000	63.326334 
1120.000000	63.332271 
1119.000000	63.335180 
1118.000000	63.334941 
1117.000000	63.331556 
1116.000000	63.325095 
1115.000000	63.315916 
1114.000000	63.304519 
1113.000000	63.291740 
1112.000000	63.278651 
1111.000000	63.266539 
1110.000000	63.256525 
1109.000000	63.249444 
1108.000000	63.245558 
1107.000000	63.244628 
1106.000000	63.245940 
1105.000000	63.248348 
1104.000000	63.250517 
1103.000000	63.250970 
1102.000000	63.248872 
1101.000000	63.243579 
1100.000000	63.235473 
1099.000000	63.225817 
1098.000000	63.216710 
1097.000000	63.210773 
1096.000000	63.210320 
1095.000000	63.216876 
1094.000000	63.230609 
1093.000000	63.250422 
1092.000000	63.274002 
1091.000000	63.298439 
1090.000000	63.320660 
1089.000000	63.338112 
1088.000000	63.349342 
1087.000000	63.354039 
1086.000000	63.352727 
1085.000000	63.346862 
1084.000000	63.338303 
1083.000000	63.328909 
1082.000000	63.320517 
1081.000000	63.314151 
1080.000000	63.310527 
1079.000000	63.309669 
1078.000000	63.311100 
1077.000000	63.313961 
1076.000000	63.317084 
1075.000000	63.319158 
1074.000000	63.318991 
1073.000000	63.315820 
1072.000000	63.309478 
1071.000000	63.300585 
1070.000000	63.290286 
1069.000000	63.280248 
1068.000000	63.272213 
1067.000000	63.267731 
1066.000000	63.267517 
1065.000000	63.271474 
1064.000000	63.278651 
1063.000000	63.287329 
1062.000000	63.295578 
1061.000000	63.301324 
1060.000000	63.302969 
1059.000000	63.299441 
1058.000000	63.290572 
1057.000000	63.277101 
1056.000000	63.260698 
1055.000000	63.243317 
1054.000000	63.227009 
1053.000000	63.213729 
1052.000000	63.204956 
1051.000000	63.201427 
1050.000000	63.203001 
1049.000000	63.208723 
1048.000000	63.216757 
1047.000000	63.224887 
1046.000000	63.230609 
1045.000000	63.231515 
1044.000000	63.225722 
1043.000000	63.212299 
1042.000000	63.191652 
1041.000000	63.165450 
1040.000000	63.136792 
1039.000000	63.109612 
1038.000000	63.088130 
1037.000000	63.076043 
1036.000000	63.075923 
1035.000000	63.088560 
1034.000000	63.112616 
1033.000000	63.144683 
1032.000000	63.179922 
1031.000000	63.212800 
1030.000000	63.238263 
1029.000000	63.252735 
1028.000000	63.254427 
1027.000000	63.244056 
1026.000000	63.224005 
1025.000000	63.198590 
1024.000000	63.172435 
1023.000000	63.150191 
1022.000000	63.135480 
1021.000000	63.130497 
1020.000000	63.135957 
1019.000000	63.150787 
1018.000000	63.172340 
1017.000000	63.197112 
1016.000000	63.221335 
1015.000000	63.241720 
1014.000000	63.256025 
1013.000000	63.263630 
1012.000000	63.265395 
1011.000000	63.263487 
1010.000000	63.260436 
1009.000000	63.258695 
1008.000000	63.259696 
1007.000000	63.263678 
1006.000000	63.269066 
1005.000000	63.273429 
1004.000000	63.273739 
1003.000000	63.267207 
1002.000000	63.252067 
1001.000000	63.228058 
1000.000000	63.196706 
999.000000	 63.160872 
998.000000	 63.124513 
997.000000	 63.091278 
996.000000	 63.064336 
995.000000	 63.045501 
994.000000	 63.035464 
993.000000	 63.033437 
992.000000	 63.037943 
991.000000	 63.047003 
990.000000	 63.059163 
989.000000	 63.073372 
988.000000	 63.089609 
987.000000	 63.108420 
986.000000	 63.130617 
985.000000	 63.156604 
984.000000	 63.186097 
983.000000	 63.217639 
982.000000	 63.248944 
981.000000	 63.277149 
980.000000	 63.299655 
979.000000	 63.314676 
978.000000	 63.321733 
977.000000	 63.321495 
976.000000	 63.315415 
975.000000	 63.305187 
974.000000	 63.292455 
973.000000	 63.278222 
972.000000	 63.262891 
971.000000	 63.246369 
970.000000	 63.228654 
969.000000	 63.210129 
968.000000	 63.191986 
967.000000	 63.175797 
966.000000	 63.163518 
965.000000	 63.156771 
964.000000	 63.156318 
963.000000	 63.161778 
962.000000	 63.171768 
961.000000	 63.184237 
960.000000	 63.196969 
959.000000	 63.208198 
958.000000	 63.216853 
957.000000	 63.222527 
956.000000	 63.225364 
955.000000	 63.225555 
954.000000	 63.223218 
953.000000	 63.218379 
952.000000	 63.211297 
951.000000	 63.202524 
950.000000	 63.193178 
949.000000	 63.185334 
948.000000	 63.180971 
947.000000	 63.182067 
946.000000	 63.189315 
945.000000	 63.201737 
944.000000	 63.216447 
943.000000	 63.229227 
942.000000	 63.235378 
941.000000	 63.230633 
940.000000	 63.212847 
939.000000	 63.182663 
938.000000	 63.143539 
937.000000	 63.101100 
936.000000	 63.062047 
935.000000	 63.032507 
934.000000	 63.016796 
933.000000	 63.016343 
932.000000	 63.029813 
931.000000	 63.053274 
930.000000	 63.081550 
929.000000	 63.109350 
928.000000	 63.132238 
927.000000	 63.147377 
926.000000	 63.153433 
925.000000	 63.150858 
924.000000	 63.140773 
923.000000	 63.125300 
922.000000	 63.106679 
921.000000	 63.087606 
920.000000	 63.070917 
919.000000	 63.059473 
918.000000	 63.055610 
917.000000	 63.060951 
916.000000	 63.076090 
915.000000	 63.100337 
914.000000	 63.131809 
913.000000	 63.167548 
912.000000	 63.204145 
911.000000	 63.238167 
910.000000	 63.266825 
909.000000	 63.288283 
908.000000	 63.301706 
907.000000	 63.307118 
906.000000	 63.305187 
905.000000	 63.297009 
904.000000	 63.283967 
903.000000	 63.267493 
902.000000	 63.249135 
901.000000	 63.230586 
900.000000	 63.213610 
899.000000	 63.199758 
898.000000	 63.190507 
897.000000	 63.186502 
896.000000	 63.188219 
895.000000	 63.195776 
894.000000	 63.209199 
893.000000	 63.228464 
892.000000	 63.253140 
891.000000	 63.282513 
890.000000	 63.315081 
889.000000	 63.348650 
888.000000	 63.380074 
887.000000	 63.405799 
886.000000	 63.422393 
885.000000	 63.427162 
884.000000	 63.419103 
883.000000	 63.399219 
882.000000	 63.370323 
881.000000	 63.336682 
880.000000	 63.303160 
879.000000	 63.274312 
878.000000	 63.253116 
877.000000	 63.240647 
876.000000	 63.235998 
875.000000	 63.236808 
874.000000	 63.239836 
873.000000	 63.242077 
872.000000	 63.241147 
871.000000	 63.235855 
870.000000	 63.226151 
869.000000	 63.213014 
868.000000	 63.197898 
867.000000	 63.182377 
866.000000	 63.167810 
865.000000	 63.155174 
864.000000	 63.145065 
863.000000	 63.137388 
862.000000	 63.132071 
861.000000	 63.128423 
860.000000	 63.125443 
859.000000	 63.121747 
858.000000	 63.115882 
857.000000	 63.106536 
856.000000	 63.092708 
855.000000	 63.074183 
854.000000	 63.051652 
853.000000	 63.026666 
852.000000	 63.001465 
851.000000	 62.978386 
850.000000	 62.959599 
849.000000	 62.946414 
848.000000	 62.939310 
847.000000	 62.937855 
846.000000	 62.941026 
845.000000	 62.947559 
844.000000	 62.956428 
843.000000	 62.966895 
842.000000	 62.978577 
841.000000	 62.991356 
840.000000	 63.005304 
839.000000	 63.020110 
838.000000	 63.035559 
837.000000	 63.050937 
836.000000	 63.066196 
835.000000	 63.081431 
834.000000	 63.097667 
833.000000	 63.116431 
832.000000	 63.139319 
831.000000	 63.167810 
830.000000	 63.202214 
829.000000	 63.241696 
828.000000	 63.283801 
827.000000	 63.324880 
826.000000	 63.360738 
825.000000	 63.387560 
824.000000	 63.402700 
823.000000	 63.405084 
822.000000	 63.394927 
821.000000	 63.373470 
820.000000	 63.342595 
819.000000	 63.304567 
818.000000	 63.261389 
817.000000	 63.215231 
816.000000	 63.168549 
815.000000	 63.124299 
814.000000	 63.085699 
813.000000	 63.056302 
812.000000	 63.039278 
811.000000	 63.036870 
810.000000	 63.049888 
809.000000	 63.077020 
808.000000	 63.114881 
807.000000	 63.158011 
806.000000	 63.199925 
805.000000	 63.233828 
804.000000	 63.253521 
803.000000	 63.255000 
802.000000	 63.237071 
801.000000	 63.201594 
800.000000	 63.152861 
799.000000	 63.097405 
798.000000	 63.042640 
797.000000	 62.995529 
796.000000	 62.961435 
795.000000	 62.943434 
794.000000	 62.942218 
793.000000	 62.956023 
792.000000	 62.981390 
791.000000	 63.014340 
790.000000	 63.051271 
789.000000	 63.089346 
788.000000	 63.127350 
787.000000	 63.164901 
786.000000	 63.202381 
785.000000	 63.240361 
784.000000	 63.278722 
783.000000	 63.316535 
782.000000	 63.351416 
781.000000	 63.380861 
780.000000	 63.401436 
779.000000	 63.410067 
778.000000	 63.403940 
777.000000	 63.381934 
776.000000	 63.344025 
775.000000	 63.292002 
774.000000	 63.228702 
773.000000	 63.158297 
772.000000	 63.085484 
771.000000	 63.015413 
770.000000	 62.952804 
769.000000	 62.901544 
768.000000	 62.864232 
767.000000	 62.842035 
766.000000	 62.834262 
765.000000	 62.838959 
764.000000	 62.853097 
763.000000	 62.873530 
762.000000	 62.896776 
761.000000	 62.920188 
760.000000	 62.941837 
759.000000	 62.961149 
758.000000	 62.977886 
757.000000	 62.992930 
756.000000	 63.007521 
755.000000	 63.023185 
754.000000	 63.041329 
753.000000	 63.062572 
752.000000	 63.087248 
751.000000	 63.114404 
750.000000	 63.142371 
749.000000	 63.168287 
748.000000	 63.189029 
747.000000	 63.201141 
746.000000	 63.202166 
745.000000	 63.190388 
744.000000	 63.165688 
743.000000	 63.129544 
742.000000	 63.085007 
741.000000	 63.035750 
740.000000	 62.985372 
739.000000	 62.937068 
738.000000	 62.893056 
737.000000	 62.854647 
736.000000	 62.822270 
735.000000	 62.795996 
734.000000	 62.775778 
733.000000	 62.761998 
732.000000	 62.755370 
731.000000	 62.756395 
730.000000	 62.765121 
729.000000	 62.780594 
728.000000	 62.800979 
727.000000	 62.822985 
726.000000	 62.843203 
725.000000	 62.858223 
724.000000	 62.866020 
723.000000	 62.866258 
722.000000	 62.860584 
721.000000	 62.852215 
720.000000	 62.845277 
719.000000	 62.843871 
718.000000	 62.850666 
717.000000	 62.866353 
716.000000	 62.889122 
715.000000	 62.915110 
714.000000	 62.938618 
713.000000	 62.953186 
712.000000	 62.953209 
711.000000	 62.935161 
710.000000	 62.897849 
709.000000	 62.843155 
708.000000	 62.775993 
707.000000	 62.703227 
706.000000	 62.632274 
705.000000	 62.570095 
704.000000	 62.521910 
703.000000	 62.490701 
702.000000	 62.476587 
701.000000	 62.477731 
700.000000	 62.490415 
699.000000	 62.510824 
698.000000	 62.535905 
697.000000	 62.564182 
696.000000	 62.594699 
695.000000	 62.628221 
694.000000	 62.665772 
693.000000	 62.708425 
692.000000	 62.756061 
691.000000	 62.807464 
690.000000	 62.860155 
689.000000	 62.911176 
688.000000	 62.957644 
687.000000	 62.997913 
686.000000	 63.031816 
685.000000	 63.060688 
684.000000	 63.086533 
683.000000	 63.111424 
682.000000	 63.136386 
681.000000	 63.161158 
680.000000	 63.184213 
679.000000	 63.204097 
678.000000	 63.218927 
677.000000	 63.228416 
676.000000	 63.231253 
675.000000	 63.226199 
674.000000	 63.210487 
673.000000	 63.180232 
672.000000	 63.131570 
671.000000	 63.061928 
670.000000	 62.972044 
669.000000	 62.866544 
668.000000	 62.754774 
667.000000	 62.649512 
666.000000	 62.564373 
665.000000	 62.510657 
664.000000	 62.494277 
663.000000	 62.513971 
662.000000	 62.561273 
661.000000	 62.622570 
660.000000	 62.681937 
659.000000	 62.725162 
658.000000	 62.742924 
657.000000	 62.732386 
656.000000	 62.697148 
655.000000	 62.645626 
654.000000	 62.587809 
653.000000	 62.532615 
652.000000	 62.485980 
651.000000	 62.449431 
650.000000	 62.421703 
649.000000	 62.398290 
648.000000	 62.374520 
647.000000	 62.345314 
646.000000	 62.307643 
645.000000	 62.259888 
644.000000	 62.201380 
643.000000	 62.133550 
642.000000	 62.058544 
641.000000	 61.981606 
640.000000	 61.909317 
639.000000	 61.851167 
638.000000	 61.817908 
637.000000	 61.819863 
636.000000	 61.864209 
635.000000	 61.953139 
634.000000	 62.082338 
633.000000	 62.240171 
632.000000	 62.409496 
631.000000	 62.570738 
630.000000	 62.705826 
629.000000	 62.802386 
628.000000	 62.855958 
627.000000	 62.870025 
626.000000	 62.854838 
625.000000	 62.824440 
624.000000	 62.793087 
623.000000	 62.772059 
622.000000	 62.767291 
621.000000	 62.780117 
620.000000	 62.807416 
619.000000	 62.845325 
618.000000	 62.889480 
617.000000	 62.937664 
616.000000	 62.988996 
615.000000	 63.043546 
614.000000	 63.101077 
613.000000	 63.159513 
612.000000	 63.215851 
611.000000	 63.266062 
610.000000	 63.307023 
609.000000	 63.337326 
608.000000	 63.358592 
607.000000	 63.374853 
606.000000	 63.389825 
605.000000	 63.404774 
604.000000	 63.417172 
603.000000	 63.420319 
602.000000	 63.405060 
601.000000	 63.362050 
600.000000	 63.285207 
599.000000	 63.174128 
598.000000	 63.036298 
597.000000	 62.885212 
596.000000	 62.737369 
595.000000	 62.608361 
594.000000	 62.509322 
593.000000	 62.444543 
592.000000	 62.410521 
591.000000	 62.398767 
590.000000	 62.398266 
589.000000	 62.399816 
588.000000	 62.397956 
587.000000	 62.392997 
586.000000	 62.389469 
585.000000	 62.394881 
584.000000	 62.415313 
583.000000	 62.455320 
582.000000	 62.515473 
581.000000	 62.593555 
580.000000	 62.684774 
579.000000	 62.784242 
578.000000	 62.887430 
577.000000	 62.990355 
576.000000	 63.088655 
575.000000	 63.177108 
574.000000	 63.249182 
573.000000	 63.297009 
572.000000	 63.313317 
571.000000	 63.293600 
570.000000	 63.237714 
569.000000	 63.152074 
568.000000	 63.047981 
567.000000	 62.941265 
566.000000	 62.846970 
565.000000	 62.776899 
564.000000	 62.736415 
563.000000	 62.723159 
562.000000	 62.729167 
561.000000	 62.743186 
560.000000	 62.755322 
559.000000	 62.759757 
558.000000	 62.756752 
557.000000	 62.752246 
556.000000	 62.753438 
555.000000	 62.765049 
554.000000	 62.786388 
553.000000	 62.810373 
552.000000	 62.824654 
551.000000	 62.815141 
550.000000	 62.771224 
549.000000	 62.689399 
548.000000	 62.575721 
547.000000	 62.444019 
546.000000	 62.313365 
545.000000	 62.201166 
544.000000	 62.118053 
543.000000	 62.064051 
542.000000	 62.028503 
541.000000	 61.993288 
540.000000	 61.938834 
539.000000	 61.849689 
538.000000	 61.719751 
537.000000	 61.554694 
536.000000	 61.368227 
535.000000	 61.183142 
534.000000	 61.021876 
533.000000	 60.908269 
532.000000	 60.860824 
531.000000	 60.892534 
530.000000	 61.007952 
529.000000	 61.201906 
528.000000	 61.459469 
527.000000	 61.756706 
526.000000	 62.063837 
525.000000	 62.349152 
524.000000	 62.584948 
523.000000	 62.752175 
522.000000	 62.844061 
521.000000	 62.869048 
520.000000	 62.847065 
519.000000	 62.805318 
518.000000	 62.769770 
517.000000	 62.759041 
516.000000	 62.779617 
515.000000	 62.826466 
514.000000	 62.885355 
513.000000	 62.940406 
512.000000	 62.977933 
511.000000	 62.995362 
510.000000	 62.996220 
509.000000	 62.988400 
508.000000	 62.979650 
507.000000	 62.971520 
506.000000	 62.961864 
505.000000	 62.944293 
504.000000	 62.914323 
503.000000	 62.872123 
502.000000	 62.825322 
501.000000	 62.788057 
500.000000	 62.776613 
499.000000	 62.803840 
498.000000	 62.871789 
497.000000	 62.968921 
496.000000	 63.069438 
495.000000	 63.139271 
494.000000	 63.144993 
493.000000	 63.064050 
492.000000	 62.891292 
491.000000	 62.643599 
490.000000	 62.356376 
489.000000	 62.077689 
488.000000	 61.855316 
487.000000	 61.727881 
486.000000	 61.716747 
485.000000	 61.820912 
484.000000	 62.021017 
483.000000	 62.279582 
482.000000	 62.549948 
481.000000	 62.784790 
480.000000	 62.944602 
479.000000	 63.005924 
478.000000	 62.963199 
477.000000	 62.830376 
476.000000	 62.634992 
475.000000	 62.413907 
474.000000	 62.204766 
473.000000	 62.039661 
472.000000	 61.939597 
471.000000	 61.914205 
470.000000	 61.961698 
469.000000	 62.070846 
468.000000	 62.224197 
467.000000	 62.402009 
466.000000	 62.585186 
465.000000	 62.755107 
464.000000	 62.897515 
463.000000	 63.000774 
462.000000	 63.060712 
461.000000	 63.077259 
460.000000	 63.059401 
459.000000	 63.022565 
458.000000	 62.988209 
457.000000	 62.982559 
456.000000	 63.027644 
455.000000	 63.137507 
454.000000	 63.311171 
453.000000	 63.534545 
452.000000	 63.778591 
451.000000	 64.006996 
450.000000	 64.180803 
449.000000	 64.267945 
448.000000	 64.248609 
447.000000	 64.120101 
446.000000	 63.895058 
445.000000	 63.598322 
444.000000	 63.260507 
443.000000	 62.911701 
442.000000	 62.577533 
441.000000	 62.275791 
440.000000	 62.014842 
439.000000	 61.796259 
438.000000	 61.617994 
437.000000	 61.478638 
436.000000	 61.379027 
435.000000	 61.324667 
434.000000	 61.314964 
433.000000	 61.351442 
432.000000	 61.437582 
431.000000	 61.575770 
430.000000	 61.757779 
429.000000	 61.970973 
428.000000	 62.200903 
427.000000	 62.429499 
426.000000	 62.636470 
425.000000	 62.802648 
424.000000	 62.913775 
423.000000	 62.960314 
422.000000	 62.939620 
421.000000	 62.854623 
420.000000	 62.714028 
419.000000	 62.531828 
418.000000	 62.327218 
417.000000	 62.125039 
416.000000	 61.953234 
415.000000	 61.845612 
414.000000	 61.831736 
413.000000	 61.933875 
412.000000	 62.149405 
411.000000	 62.455916 
410.000000	 62.793731 
409.000000	 63.075494 
408.000000	 63.189601 
407.000000	 63.026213 
406.000000	 62.497639 
405.000000	 61.558580 
404.000000	 60.227918 
403.000000	 58.596348 
402.000000	 56.813120 
401.000000	 55.054402 
400.000000	 53.499197 
399.000000	 52.302360 
398.000000	 51.555228 
397.000000	 51.260542 
396.000000	 51.359486 
395.000000	 51.757979 
394.000000	 52.332019 
393.000000	 52.947306 
392.000000	 53.514289 
391.000000	 54.000186 
390.000000	 54.413127 
389.000000	 54.785108 
388.000000	 55.160379 
387.000000	 55.569624 
386.000000	 56.004214 
385.000000	 56.416559 
384.000000	 56.744837 
383.000000	 56.930780 
382.000000	 56.922483 
381.000000	 56.710696 
380.000000	 56.367707 
379.000000	 56.024527 
378.000000	 55.776858 
377.000000	 55.739831 
376.000000	 56.045365 
375.000000	 56.810474 
374.000000	 58.068251 
373.000000	 59.836935 
372.000000	 62.028932 
371.000000	 64.644837 
370.000000	 67.750930 

