PE IR       SPECTRUM    SPECTRUM    ASCII       PEDS        1.60        
  -1
BZ6FA3~1.ASC
17/04/07
17:55:06.00
17/04/07
17:55:06.00
tln
$BZ1503107-1_t0057$<tbV0>[10.4,0.0,8.0,0.0,27,1,0]
370.000000
64









2002,4.07    
MIRTGS : RIGHTBACK : INTERNAL 2
MIR : ON : INTERNAL 2
OPTKBR

0.200000
8
8.000000
FILLER
RATIO
SPECTRUM
UNLOCKED 256

DOUBLE
64
COMBINED
1
0
0


1.000000
RATIO


1
0
TRUE
51149
0
LEFT NOT FITTED RIGHT NOT FITTED 0
NONE
NONE
15600
12.000000
4.427000
51148
TRUE
1 0 8 72 0 0 0 0 

15798.010000






#HDR
-1
-1
#GR
CM-1
%T
0.00002384185791015625
0.0
5000.000000
-1.000000
4631
8
73.691368
37.745785
#DATA
5000.000000	64.604663 
4999.000000	64.683151 
4998.000000	64.783000 
4997.000000	64.892983 
4996.000000	65.001511 
4995.000000	65.095472 
4994.000000	65.166521 
4993.000000	65.209865 
4992.000000	65.230059 
4991.000000	65.239596 
4990.000000	65.256834 
4989.000000	65.302014 
4988.000000	65.389251 
4987.000000	65.522527 
4986.000000	65.690612 
4985.000000	65.868926 
4984.000000	66.021704 
4983.000000	66.109776 
4982.000000	66.098356 
4981.000000	65.965175 
4980.000000	65.703105 
4979.000000	65.323448 
4978.000000	64.852523 
4977.000000	64.330601 
4976.000000	63.804459 
4975.000000	63.323855 
4974.000000	62.935233 
4973.000000	62.676525 
4972.000000	62.572550 
4971.000000	62.630701 
4970.000000	62.839722 
4969.000000	63.170218 
4968.000000	63.575267 
4967.000000	64.000678 
4966.000000	64.388465 
4965.000000	64.692783 
4964.000000	64.883518 
4963.000000	64.954900 
4962.000000	64.922690 
4961.000000	64.819097 
4960.000000	64.683318 
4959.000000	64.550280 
4958.000000	64.443016 
4957.000000	64.367938 
4956.000000	64.316797 
4955.000000	64.272403 
4954.000000	64.217185 
4953.000000	64.140796 
4952.000000	64.045238 
4951.000000	63.944101 
4950.000000	63.859963 
4949.000000	63.815474 
4948.000000	63.828730 
4947.000000	63.905358 
4946.000000	64.039826 
4945.000000	64.214134 
4944.000000	64.406013 
4943.000000	64.595913 
4942.000000	64.771389 
4941.000000	64.928770 
4940.000000	65.072321 
4939.000000	65.210676 
4938.000000	65.351176 
4937.000000	65.495848 
4936.000000	65.638089 
4935.000000	65.763783 
4934.000000	65.854811 
4933.000000	65.896058 
4932.000000	65.877914 
4931.000000	65.801024 
4930.000000	65.675044 
4929.000000	65.517139 
4928.000000	65.347599 
4927.000000	65.185809 
4926.000000	65.045857 
4925.000000	64.934921 
4924.000000	64.854598 
4923.000000	64.802241 
4922.000000	64.773869 
4921.000000	64.765667 
4920.000000	64.774847 
4919.000000	64.799952 
4918.000000	64.838647 
4917.000000	64.888453 
4916.000000	64.943647 
4915.000000	64.998340 
4914.000000	65.046572 
4913.000000	65.084362 
4912.000000	65.110135 
4911.000000	65.125250 
4910.000000	65.134024 
4909.000000	65.141010 
4908.000000	65.149235 
4907.000000	65.159893 
4906.000000	65.172505 
4905.000000	65.185308 
4904.000000	65.196323 
4903.000000	65.204405 
4902.000000	65.209794 
4901.000000	65.214037 
4900.000000	65.219306 
4899.000000	65.227198 
4898.000000	65.237903 
4897.000000	65.250039 
4896.000000	65.260791 
4895.000000	65.266561 
4894.000000	65.263819 
4893.000000	65.251231 
4892.000000	65.229463 
4891.000000	65.201449 
4890.000000	65.171504 
4889.000000	65.144157 
4888.000000	65.123224 
4887.000000	65.110945 
4886.000000	65.107393 
4885.000000	65.110611 
4884.000000	65.116977 
4883.000000	65.121984 
4882.000000	65.121674 
4881.000000	65.112996 
4880.000000	65.095806 
4879.000000	65.072941 
4878.000000	65.050101 
4877.000000	65.034270 
4876.000000	65.032672 
4875.000000	65.050363 
4874.000000	65.088748 
4873.000000	65.144467 
4872.000000	65.209794 
4871.000000	65.273785 
4870.000000	65.324664 
4869.000000	65.352201 
4868.000000	65.349984 
4867.000000	65.316867 
4866.000000	65.257310 
4865.000000	65.180468 
4864.000000	65.098237 
4863.000000	65.022420 
4862.000000	64.962863 
4861.000000	64.925169 
4860.000000	64.910292 
4859.000000	64.914822 
4858.000000	64.932990 
4857.000000	64.957976 
4856.000000	64.983844 
4855.000000	65.006470 
4854.000000	65.023756 
4853.000000	65.035510 
4852.000000	65.042448 
4851.000000	65.045332 
4850.000000	65.043807 
4849.000000	65.037155 
4848.000000	65.024399 
4847.000000	65.005517 
4846.000000	64.981818 
4845.000000	64.956951 
4844.000000	64.936041 
4843.000000	64.924550 
4842.000000	64.926338 
4841.000000	64.942240 
4840.000000	64.969491 
4839.000000	65.001416 
4838.000000	65.030360 
4837.000000	65.049695 
4836.000000	65.056371 
4835.000000	65.052247 
4834.000000	65.042996 
4833.000000	65.036439 
4832.000000	65.039348 
4831.000000	65.055465 
4830.000000	65.083551 
4829.000000	65.117168 
4828.000000	65.146541 
4827.000000	65.161776 
4826.000000	65.155529 
4825.000000	65.125560 
4824.000000	65.075039 
4823.000000	65.011954 
4822.000000	64.946484 
4821.000000	64.888215 
4820.000000	64.843368 
4819.000000	64.813327 
4818.000000	64.794898 
4817.000000	64.781975 
4816.000000	64.768195 
4815.000000	64.749121 
4814.000000	64.723420 
4813.000000	64.693808 
4812.000000	64.665269 
4811.000000	64.644789 
4810.000000	64.638018 
4809.000000	64.648842 
4808.000000	64.678096 
4807.000000	64.723443 
4806.000000	64.779806 
4805.000000	64.840435 
4804.000000	64.898538 
4803.000000	64.948153 
4802.000000	64.985251 
4801.000000	65.007567 
4800.000000	65.014934 
4799.000000	65.007996 
4798.000000	64.987874 
4797.000000	64.956021 
4796.000000	64.914059 
4795.000000	64.864659 
4794.000000	64.811801 
4793.000000	64.760565 
4792.000000	64.716935 
4791.000000	64.686846 
4790.000000	64.675378 
4789.000000	64.685320 
4788.000000	64.717006 
4787.000000	64.768195 
4786.000000	64.835047 
4785.000000	64.912247 
4784.000000	64.994621 
4783.000000	65.077948 
4782.000000	65.159225 
4781.000000	65.236115 
4780.000000	65.306997 
4779.000000	65.369772 
4778.000000	65.422534 
4777.000000	65.463304 
4776.000000	65.490794 
4775.000000	65.505409 
4774.000000	65.508723 
4773.000000	65.504550 
4772.000000	65.496373 
4771.000000	65.487098 
4770.000000	65.477061 
4769.000000	65.464282 
4768.000000	65.444540 
4767.000000	65.412759 
4766.000000	65.364718 
4765.000000	65.298724 
4764.000000	65.216159 
4763.000000	65.121150 
4762.000000	65.019989 
4761.000000	64.919424 
4760.000000	64.824843 
4759.000000	64.739608 
4758.000000	64.664268 
4757.000000	64.597964 
4756.000000	64.538908 
4755.000000	64.486551 
4754.000000	64.441108 
4753.000000	64.405512 
4752.000000	64.383769 
4751.000000	64.381146 
4750.000000	64.400362 
4749.000000	64.442443 
4748.000000	64.504909 
4747.000000	64.582777 
4746.000000	64.668536 
4745.000000	64.754223 
4744.000000	64.832448 
4743.000000	64.897537 
4742.000000	64.946293 
4741.000000	64.977407 
4740.000000	64.991021 
4739.000000	64.988636 
4738.000000	64.972543 
4737.000000	64.945697 
4736.000000	64.911365 
4735.000000	64.874005 
4734.000000	64.838099 
4733.000000	64.808201 
4732.000000	64.787483 
4731.000000	64.777708 
4730.000000	64.778280 
4729.000000	64.785838 
4728.000000	64.795732 
4727.000000	64.802598 
4726.000000	64.802718 
4725.000000	64.794182 
4724.000000	64.778351 
4723.000000	64.759159 
4722.000000	64.742279 
4721.000000	64.733147 
4720.000000	64.735913 
4719.000000	64.751887 
4718.000000	64.780092 
4717.000000	64.817976 
4716.000000	64.862036 
4715.000000	64.908933 
4714.000000	64.955997 
4713.000000	65.001440 
4712.000000	65.043616 
4711.000000	65.080785 
4710.000000	65.110659 
4709.000000	65.130662 
4708.000000	65.138506 
4707.000000	65.132713 
4706.000000	65.113401 
4705.000000	65.082550 
4704.000000	65.044307 
4703.000000	65.003943 
4702.000000	64.967012 
4701.000000	64.938211 
4700.000000	64.920592 
4699.000000	64.915037 
4698.000000	64.920735 
4697.000000	64.935016 
4696.000000	64.954447 
4695.000000	64.974737 
4694.000000	64.991426 
4693.000000	65.000581 
4692.000000	64.998841 
4691.000000	64.984512 
4690.000000	64.957880 
4689.000000	64.921808 
4688.000000	64.881348 
4687.000000	64.843487 
4686.000000	64.815497 
4685.000000	64.803409 
4684.000000	64.810585 
4683.000000	64.837002 
4682.000000	64.879155 
4681.000000	64.930462 
4680.000000	64.982914 
4679.000000	65.028738 
4678.000000	65.062117 
4677.000000	65.080380 
4676.000000	65.084052 
4675.000000	65.075874 
4674.000000	65.059828 
4673.000000	65.039944 
4672.000000	65.018939 
4671.000000	64.997816 
4670.000000	64.976358 
4669.000000	64.954352 
4668.000000	64.932441 
4667.000000	64.912772 
4666.000000	64.898991 
4665.000000	64.895677 
4664.000000	64.906597 
4663.000000	64.933109 
4662.000000	64.973044 
4661.000000	65.020632 
4660.000000	65.067052 
4659.000000	65.102458 
4658.000000	65.118408 
4657.000000	65.110301 
4656.000000	65.078520 
4655.000000	65.028834 
4654.000000	64.971041 
4653.000000	64.916849 
4652.000000	64.877200 
4651.000000	64.859747 
4650.000000	64.867305 
4649.000000	64.897537 
4648.000000	64.944553 
4647.000000	64.999961 
4646.000000	65.055441 
4645.000000	65.104198 
4644.000000	65.142297 
4643.000000	65.169048 
4642.000000	65.185570 
4641.000000	65.195035 
4640.000000	65.200805 
4639.000000	65.206432 
4638.000000	65.214633 
4637.000000	65.227317 
4636.000000	65.245509 
4635.000000	65.269446 
4634.000000	65.298891 
4633.000000	65.332460 
4632.000000	65.367817 
4631.000000	65.401625 
4630.000000	65.429973 
4629.000000	65.449118 
4628.000000	65.456056 
4627.000000	65.449500 
4626.000000	65.429925 
4625.000000	65.399742 
4624.000000	65.362691 
4623.000000	65.323543 
4622.000000	65.286397 
4621.000000	65.254163 
4620.000000	65.227699 
4619.000000	65.206336 
4618.000000	65.187740 
4617.000000	65.168762 
4616.000000	65.146255 
4615.000000	65.117740 
4614.000000	65.083098 
4613.000000	65.044355 
4612.000000	65.005779 
4611.000000	64.972329 
4610.000000	64.949512 
4609.000000	64.941859 
4608.000000	64.951634 
4607.000000	64.978146 
4606.000000	65.017318 
4605.000000	65.062522 
4604.000000	65.105509 
4603.000000	65.138292 
4602.000000	65.155148 
4601.000000	65.154266 
4600.000000	65.137648 
4599.000000	65.110945 
4598.000000	65.081930 
4597.000000	65.058970 
4596.000000	65.048837 
4595.000000	65.055584 
4594.000000	65.080308 
4593.000000	65.120816 
4592.000000	65.173506 
4591.000000	65.232849 
4590.000000	65.292859 
4589.000000	65.347385 
4588.000000	65.391230 
4587.000000	65.420150 
4586.000000	65.430665 
4585.000000	65.421319 
4584.000000	65.392923 
4583.000000	65.348505 
4582.000000	65.293073 
4581.000000	65.232968 
4580.000000	65.175390 
4579.000000	65.125703 
4578.000000	65.086770 
4577.000000	65.057945 
4576.000000	65.035676 
4575.000000	65.014815 
4574.000000	64.990258 
4573.000000	64.958381 
4572.000000	64.918684 
4571.000000	64.873743 
4570.000000	64.829015 
4569.000000	64.790511 
4568.000000	64.764213 
4567.000000	64.754533 
4566.000000	64.763736 
4565.000000	64.791107 
4564.000000	64.834237 
4563.000000	64.889168 
4562.000000	64.952039 
4561.000000	65.018868 
4560.000000	65.087318 
4559.000000	65.156078 
4558.000000	65.225076 
4557.000000	65.294098 
4556.000000	65.363025 
4555.000000	65.431141 
4554.000000	65.496683 
4553.000000	65.556883 
4552.000000	65.608334 
4551.000000	65.647578 
4550.000000	65.671968 
4549.000000	65.680313 
4548.000000	65.673089 
4547.000000	65.652418 
4546.000000	65.622472 
4545.000000	65.587997 
4544.000000	65.553545 
4543.000000	65.522146 
4542.000000	65.495467 
4541.000000	65.473175 
4540.000000	65.453767 
4539.000000	65.435028 
4538.000000	65.415191 
4537.000000	65.393638 
4536.000000	65.370988 
4535.000000	65.348768 
4534.000000	65.329027 
4533.000000	65.313029 
4532.000000	65.300631 
4531.000000	65.289783 
4530.000000	65.276598 
4529.000000	65.256524 
4528.000000	65.225982 
4527.000000	65.182995 
4526.000000	65.127897 
4525.000000	65.064167 
4524.000000	64.997911 
4523.000000	64.936447 
4522.000000	64.886927 
4521.000000	64.855575 
4520.000000	64.846634 
4519.000000	64.861702 
4518.000000	64.899468 
4517.000000	64.955735 
4516.000000	65.024256 
4515.000000	65.097379 
4514.000000	65.167737 
4513.000000	65.228581 
4512.000000	65.275645 
4511.000000	65.306878 
4510.000000	65.323400 
4509.000000	65.328574 
4508.000000	65.327215 
4507.000000	65.324997 
4506.000000	65.326237 
4505.000000	65.333604 
4504.000000	65.346455 
4503.000000	65.362024 
4502.000000	65.374994 
4501.000000	65.379333 
4500.000000	65.369653 
4499.000000	65.343046 
4498.000000	65.299224 
4497.000000	65.241098 
4496.000000	65.174627 
4495.000000	65.108203 
4494.000000	65.051770 
4493.000000	65.014839 
4492.000000	65.005207 
4491.000000	65.026760 
4490.000000	65.077733 
4489.000000	65.150880 
4488.000000	65.234231 
4487.000000	65.313744 
4486.000000	65.376663 
4485.000000	65.413546 
4484.000000	65.419483 
4483.000000	65.395164 
4482.000000	65.347766 
4481.000000	65.286946 
4480.000000	65.219998 
4479.000000	65.153098 
4478.000000	65.093135 
4477.000000	65.043377 
4476.000000	65.000796 
4475.000000	64.964818 
4474.000000	64.940929 
4473.000000	64.935374 
4472.000000	64.954328 
4471.000000	64.999246 
4470.000000	65.064740 
4469.000000	65.143442 
4468.000000	65.227675 
4467.000000	65.305233 
4466.000000	65.363740 
4465.000000	65.402221 
4464.000000	65.427756 
4463.000000	65.450930 
4462.000000	65.480470 
4461.000000	65.520477 
4460.000000	65.564465 
4459.000000	65.601658 
4458.000000	65.609979 
4457.000000	65.568518 
4456.000000	65.448522 
4455.000000	65.234255 
4454.000000	64.902281 
4453.000000	64.438319 
4452.000000	63.818097 
4451.000000	63.017225 
4450.000000	62.013888 
4449.000000	60.796523 
4448.000000	59.390616 
4447.000000	57.861638 
4446.000000	56.336045 
4445.000000	54.982948 
4444.000000	54.007792 
4443.000000	53.610134 
4442.000000	53.947305 
4441.000000	55.090236 
4440.000000	57.000136 
4439.000000	59.518074 
4438.000000	62.384009 
4437.000000	65.272808 
4436.000000	67.846727 
4435.000000	69.812297 
4434.000000	70.969367 
4433.000000	71.240878 
4432.000000	70.678591 
4431.000000	69.441246 
4430.000000	67.768597 
4429.000000	65.917134 
4428.000000	64.126491 
4427.000000	62.569546 
4426.000000	61.357283 
4425.000000	60.518193 
4424.000000	60.032439 
4423.000000	59.840559 
4422.000000	59.878683 
4421.000000	60.084652 
4420.000000	60.404229 
4419.000000	60.797715 
4418.000000	61.228466 
4417.000000	61.673188 
4416.000000	62.111783 
4415.000000	62.536692 
4414.000000	62.946057 
4413.000000	63.338899 
4412.000000	63.710689 
4411.000000	64.051103 
4410.000000	64.344787 
4409.000000	64.579534 
4408.000000	64.747571 
4407.000000	64.849495 
4406.000000	64.893221 
4405.000000	64.901876 
4404.000000	64.899945 
4403.000000	64.904165 
4402.000000	64.921736 
4401.000000	64.954400 
4400.000000	64.994621 
4399.000000	65.034699 
4398.000000	65.063786 
4397.000000	65.069341 
4396.000000	65.045404 
4395.000000	64.997363 
4394.000000	64.936923 
4393.000000	64.877414 
4392.000000	64.834403 
4391.000000	64.821410 
4390.000000	64.846205 
4389.000000	64.909172 
4388.000000	65.001893 
4387.000000	65.109205 
4386.000000	65.214991 
4385.000000	65.305852 
4384.000000	65.371727 
4383.000000	65.408778 
4382.000000	65.420937 
4381.000000	65.417814 
4380.000000	65.409970 
4379.000000	65.406489 
4378.000000	65.414214 
4377.000000	65.435171 
4376.000000	65.466642 
4375.000000	65.502285 
4374.000000	65.535688 
4373.000000	65.561318 
4372.000000	65.576887 
4371.000000	65.583515 
4370.000000	65.585398 
4369.000000	65.588116 
4368.000000	65.596818 
4367.000000	65.614414 
4366.000000	65.640807 
4365.000000	65.672421 
4364.000000	65.703392 
4363.000000	65.727019 
4362.000000	65.737676 
4361.000000	65.731716 
4360.000000	65.708327 
4359.000000	65.668773 
4358.000000	65.615868 
4357.000000	65.552806 
4356.000000	65.482616 
4355.000000	65.408420 
4354.000000	65.333056 
4353.000000	65.259361 
4352.000000	65.190148 
4351.000000	65.128755 
4350.000000	65.078282 
4349.000000	65.040731 
4348.000000	65.017127 
4347.000000	65.006279 
4346.000000	65.006160 
4345.000000	65.013360 
4344.000000	65.024971 
4343.000000	65.038633 
4342.000000	65.053367 
4341.000000	65.069007 
4340.000000	65.085434 
4339.000000	65.101718 
4338.000000	65.115642 
4337.000000	65.123820 
4336.000000	65.122890 
4335.000000	65.110230 
4334.000000	65.085840 
4333.000000	65.052390 
4332.000000	65.014529 
4331.000000	64.977836 
4330.000000	64.947175 
4329.000000	64.925622 
4328.000000	64.913749 
4327.000000	64.909648 
4326.000000	64.910197 
4325.000000	64.912033 
4324.000000	64.912629 
4323.000000	64.911365 
4322.000000	64.909267 
4321.000000	64.909124 
4320.000000	64.913606 
4319.000000	64.925432 
4318.000000	64.945435 
4317.000000	64.973354 
4316.000000	65.007376 
4315.000000	65.045094 
4314.000000	65.084290 
4313.000000	65.123057 
4312.000000	65.160036 
4311.000000	65.194487 
4310.000000	65.225863 
4309.000000	65.253877 
4308.000000	65.278267 
4307.000000	65.299105 
4306.000000	65.316605 
4305.000000	65.331292 
4304.000000	65.343570 
4303.000000	65.353894 
4302.000000	65.362167 
4301.000000	65.367960 
4300.000000	65.370035 
4299.000000	65.367031 
4298.000000	65.357208 
4297.000000	65.339088 
4296.000000	65.311694 
4295.000000	65.275287 
4294.000000	65.231227 
4293.000000	65.181875 
4292.000000	65.130400 
4291.000000	65.080451 
4290.000000	65.035724 
4289.000000	64.999580 
4288.000000	64.974474 
4287.000000	64.961719 
4286.000000	64.961481 
4285.000000	64.972829 
4284.000000	64.993691 
4283.000000	65.020823 
4282.000000	65.050649 
4281.000000	65.079545 
4280.000000	65.104079 
4279.000000	65.121197 
4278.000000	65.128779 
4277.000000	65.125536 
4276.000000	65.111088 
4275.000000	65.085911 
4274.000000	65.051269 
4273.000000	65.009641 
4272.000000	64.964389 
4271.000000	64.920020 
4270.000000	64.881634 
4269.000000	64.854764 
4268.000000	64.844679 
4267.000000	64.855027 
4266.000000	64.887189 
4265.000000	64.939141 
4264.000000	65.005755 
4263.000000	65.078616 
4262.000000	65.147495 
4261.000000	65.201878 
4260.000000	65.233135 
4259.000000	65.236282 
4258.000000	65.211176 
4257.000000	65.162611 
4256.000000	65.099287 
4255.000000	65.031313 
4254.000000	64.968276 
4253.000000	64.917016 
4252.000000	64.880585 
4251.000000	64.858078 
4250.000000	64.845919 
4249.000000	64.839196 
4248.000000	64.833807 
4247.000000	64.827632 
4246.000000	64.821553 
4245.000000	64.818453 
4244.000000	64.822912 
4243.000000	64.838910 
4242.000000	64.869093 
4241.000000	64.913678 
4240.000000	64.969658 
4239.000000	65.031695 
4238.000000	65.092349 
4237.000000	65.144395 
4236.000000	65.180778 
4235.000000	65.196013 
4234.000000	65.187168 
4233.000000	65.153956 
4232.000000	65.099668 
4231.000000	65.030646 
4230.000000	64.955544 
4229.000000	64.883947 
4228.000000	64.824843 
4227.000000	64.785146 
4226.000000	64.768004 
4225.000000	64.772629 
4224.000000	64.794397 
4223.000000	64.826130 
4222.000000	64.860010 
4221.000000	64.889454 
4220.000000	64.910340 
4219.000000	64.921951 
4218.000000	64.926362 
4217.000000	64.927887 
4216.000000	64.931011 
4215.000000	64.939618 
4214.000000	64.955592 
4213.000000	64.979028 
4212.000000	65.008950 
4211.000000	65.043449 
4210.000000	65.081191 
4209.000000	65.120482 
4208.000000	65.160226 
4207.000000	65.198469 
4206.000000	65.232110 
4205.000000	65.256953 
4204.000000	65.268540 
4203.000000	65.262889 
4202.000000	65.237808 
4201.000000	65.194058 
4200.000000	65.135741 
4199.000000	65.070128 
4198.000000	65.006256 
4197.000000	64.952850 
4196.000000	64.916491 
4195.000000	64.900517 
4194.000000	64.904499 
4193.000000	64.924788 
4192.000000	64.955663 
4191.000000	64.991116 
4190.000000	65.026378 
4189.000000	65.058112 
4188.000000	65.084910 
4187.000000	65.106320 
4186.000000	65.122365 
4185.000000	65.132403 
4184.000000	65.134978 
4183.000000	65.128207 
4182.000000	65.109944 
4181.000000	65.079212 
4180.000000	65.036296 
4179.000000	64.983272 
4178.000000	64.923787 
4177.000000	64.862799 
4176.000000	64.805221 
4175.000000	64.755344 
4174.000000	64.716339 
4173.000000	64.690065 
4172.000000	64.677143 
4171.000000	64.677357 
4170.000000	64.689898 
4169.000000	64.713716 
4168.000000	64.747262 
4167.000000	64.789080 
4166.000000	64.836621 
4165.000000	64.887404 
4164.000000	64.938592 
4163.000000	64.987778 
4162.000000	65.033197 
4161.000000	65.073776 
4160.000000	65.109515 
4159.000000	65.140295 
4158.000000	65.165948 
4157.000000	65.184879 
4156.000000	65.194964 
4155.000000	65.192914 
4154.000000	65.175676 
4153.000000	65.141344 
4152.000000	65.090489 
4151.000000	65.026497 
4150.000000	64.955592 
4149.000000	64.885663 
4148.000000	64.824962 
4147.000000	64.780235 
4146.000000	64.755439 
4145.000000	64.750885 
4144.000000	64.763569 
4143.000000	64.788079 
4142.000000	64.818215 
4141.000000	64.848423 
4140.000000	64.874982 
4139.000000	64.896345 
4138.000000	64.913320 
4137.000000	64.927291 
4136.000000	64.940261 
4135.000000	64.953804 
4134.000000	64.969062 
4133.000000	64.986205 
4132.000000	65.004968 
4131.000000	65.025520 
4130.000000	65.048003 
4129.000000	65.073132 
4128.000000	65.101027 
4127.000000	65.131378 
4126.000000	65.162634 
4125.000000	65.192055 
4124.000000	65.216088 
4123.000000	65.231108 
4122.000000	65.234375 
4121.000000	65.225052 
4120.000000	65.204358 
4119.000000	65.175533 
4118.000000	65.143275 
4117.000000	65.112853 
4116.000000	65.088915 
4115.000000	65.074300 
4114.000000	65.069890 
4113.000000	65.074324 
4112.000000	65.084266 
4111.000000	65.095281 
4110.000000	65.102934 
4109.000000	65.103745 
4108.000000	65.096044 
4107.000000	65.080499 
4106.000000	65.059471 
4105.000000	65.036725 
4104.000000	65.016388 
4103.000000	65.002202 
4102.000000	64.996433 
4101.000000	64.999747 
4100.000000	65.011167 
4099.000000	65.028381 
4098.000000	65.048456 
4097.000000	65.068316 
4096.000000	65.085601 
4095.000000	65.098500 
4094.000000	65.105986 
4093.000000	65.107512 
4092.000000	65.102934 
4091.000000	65.092253 
4090.000000	65.075755 
4089.000000	65.054178 
4088.000000	65.028810 
4087.000000	65.001940 
4086.000000	64.976429 
4085.000000	64.955282 
4084.000000	64.940929 
4083.000000	64.934730 
4082.000000	64.936423 
4081.000000	64.944100 
4080.000000	64.954566 
4079.000000	64.964056 
4078.000000	64.969515 
4077.000000	64.969229 
4076.000000	64.963388 
4075.000000	64.953970 
4074.000000	64.944219 
4073.000000	64.937448 
4072.000000	64.936065 
4071.000000	64.941000 
4070.000000	64.951252 
4069.000000	64.964222 
4068.000000	64.976692 
4067.000000	64.985799 
4066.000000	64.989972 
4065.000000	64.989399 
4064.000000	64.985823 
4063.000000	64.982008 
4062.000000	64.980506 
4061.000000	64.982867 
4060.000000	64.989089 
4059.000000	64.997768 
4058.000000	65.006232 
4057.000000	65.011739 
4056.000000	65.012407 
4055.000000	65.007734 
4054.000000	64.998626 
4053.000000	64.987015 
4052.000000	64.975261 
4051.000000	64.965534 
4050.000000	64.959144 
4049.000000	64.956402 
4048.000000	64.956688 
4047.000000	64.959025 
4046.000000	64.962720 
4045.000000	64.967441 
4044.000000	64.973306 
4043.000000	64.980769 
4042.000000	64.990067 
4041.000000	65.001082 
4040.000000	65.013217 
4039.000000	65.025472 
4038.000000	65.036892 
4037.000000	65.047001 
4036.000000	65.056014 
4035.000000	65.064764 
4034.000000	65.074348 
4033.000000	65.085506 
4032.000000	65.098381 
4031.000000	65.112113 
4030.000000	65.125131 
4029.000000	65.135478 
4028.000000	65.141487 
4027.000000	65.142512 
4026.000000	65.138745 
4025.000000	65.131855 
4024.000000	65.123510 
4023.000000	65.115070 
4022.000000	65.106701 
4021.000000	65.097570 
4020.000000	65.086030 
4019.000000	65.070152 
4018.000000	65.049123 
4017.000000	65.023732 
4016.000000	64.996623 
4015.000000	64.971852 
4014.000000	64.953970 
4013.000000	64.946651 
4012.000000	64.951944 
4011.000000	64.969396 
4010.000000	64.996194 
4009.000000	65.027546 
4008.000000	65.058064 
4007.000000	65.082812 
4006.000000	65.098214 
4005.000000	65.102767 
4004.000000	65.096974 
4003.000000	65.083217 
4002.000000	65.064525 
4001.000000	65.044617 
4000.000000	65.027308 
3999.000000	65.016317 
3998.000000	65.014791 
3997.000000	65.024900 
3996.000000	65.047812 
3995.000000	65.082883 
3994.000000	65.128016 
3993.000000	65.179467 
3992.000000	65.232443 
3991.000000	65.281724 
3990.000000	65.322589 
3989.000000	65.351438 
3988.000000	65.366315 
3987.000000	65.367293 
3986.000000	65.356206 
3985.000000	65.336155 
3984.000000	65.311002 
3983.000000	65.284538 
3982.000000	65.260219 
3981.000000	65.240550 
3980.000000	65.226674 
3979.000000	65.218830 
3978.000000	65.215945 
3977.000000	65.216112 
3976.000000	65.216779 
3975.000000	65.214920 
3974.000000	65.207934 
3973.000000	65.194082 
3972.000000	65.173220 
3971.000000	65.146780 
3970.000000	65.117692 
3969.000000	65.089654 
3968.000000	65.066552 
3967.000000	65.051484 
3966.000000	65.046072 
3965.000000	65.050292 
3964.000000	65.062189 
3963.000000	65.078520 
3962.000000	65.095353 
3961.000000	65.109229 
3960.000000	65.117669 
3959.000000	65.119504 
3958.000000	65.115308 
3957.000000	65.107083 
3956.000000	65.097665 
3955.000000	65.090036 
3954.000000	65.086269 
3953.000000	65.087127 
3952.000000	65.092277 
3951.000000	65.100216 
3950.000000	65.108466 
3949.000000	65.114259 
3948.000000	65.115475 
3947.000000	65.111136 
3946.000000	65.101528 
3945.000000	65.088415 
3944.000000	65.074372 
3943.000000	65.062403 
3942.000000	65.054988 
3941.000000	65.053391 
3940.000000	65.057539 
3939.000000	65.065789 
3938.000000	65.075683 
3937.000000	65.084075 
3936.000000	65.088081 
3935.000000	65.085363 
3934.000000	65.074706 
3933.000000	65.056347 
3932.000000	65.031838 
3931.000000	65.004658 
3930.000000	64.979624 
3929.000000	64.962291 
3928.000000	64.957904 
3927.000000	64.970660 
3926.000000	65.002560 
3925.000000	65.052604 
3924.000000	65.116739 
3923.000000	65.188121 
3922.000000	65.258479 
3921.000000	65.319633 
3920.000000	65.365195 
3919.000000	65.391635 
3918.000000	65.399026 
3917.000000	65.390729 
3916.000000	65.371823 
3915.000000	65.347838 
3914.000000	65.322899 
3913.000000	65.299463 
3912.000000	65.277576 
3911.000000	65.256190 
3910.000000	65.233731 
3909.000000	65.209889 
3908.000000	65.185284 
3907.000000	65.161895 
3906.000000	65.141892 
3905.000000	65.126943 
3904.000000	65.117239 
3903.000000	65.111136 
3902.000000	65.105414 
3901.000000	65.096306 
3900.000000	65.080571 
3899.000000	65.056872 
3898.000000	65.026307 
3897.000000	64.992523 
3896.000000	64.960646 
3895.000000	64.936399 
3894.000000	64.924168 
3893.000000	64.926433 
3892.000000	64.943218 
3891.000000	64.972424 
3890.000000	65.010190 
3889.000000	65.051865 
3888.000000	65.093374 
3887.000000	65.131425 
3886.000000	65.163540 
3885.000000	65.188622 
3884.000000	65.206241 
3883.000000	65.216827 
3882.000000	65.221142 
3881.000000	65.220260 
3880.000000	65.215396 
3879.000000	65.208053 
3878.000000	65.200018 
3877.000000	65.193104 
3876.000000	65.188813 
3875.000000	65.188002 
3874.000000	65.190911 
3873.000000	65.196728 
3872.000000	65.203785 
3871.000000	65.210199 
3870.000000	65.214276 
3869.000000	65.214848 
3868.000000	65.211296 
3867.000000	65.204167 
3866.000000	65.194487 
3865.000000	65.183472 
3864.000000	65.171933 
3863.000000	65.160202 
3862.000000	65.147709 
3861.000000	65.133237 
3860.000000	65.115451 
3859.000000	65.093374 
3858.000000	65.066933 
3857.000000	65.037631 
3856.000000	65.008020 
3855.000000	64.981055 
3854.000000	64.959692 
3853.000000	64.945888 
3852.000000	64.940094 
3851.000000	64.941072 
3850.000000	64.946603 
3849.000000	64.954233 
3848.000000	64.962363 
3847.000000	64.970827 
3846.000000	64.981102 
3845.000000	64.995932 
3844.000000	65.018296 
3843.000000	65.050339 
3842.000000	65.092229 
3841.000000	65.141439 
3840.000000	65.193367 
3839.000000	65.241646 
3838.000000	65.279769 
3837.000000	65.302515 
3836.000000	65.307307 
3835.000000	65.294265 
3834.000000	65.266323 
3833.000000	65.228247 
3832.000000	65.185618 
3831.000000	65.143442 
3830.000000	65.105462 
3829.000000	65.073633 
3828.000000	65.048313 
3827.000000	65.028572 
3826.000000	65.013313 
3825.000000	65.001368 
3824.000000	64.992165 
3823.000000	64.985775 
3822.000000	64.982676 
3821.000000	64.983510 
3820.000000	64.988613 
3819.000000	64.997673 
3818.000000	65.009665 
3817.000000	65.023136 
3816.000000	65.036416 
3815.000000	65.047979 
3814.000000	65.056657 
3813.000000	65.062022 
3812.000000	65.064144 
3811.000000	65.063738 
3810.000000	65.061593 
3809.000000	65.058755 
3808.000000	65.055847 
3807.000000	65.053343 
3806.000000	65.051078 
3805.000000	65.048503 
3804.000000	65.044403 
3803.000000	65.037369 
3802.000000	65.025782 
3801.000000	65.008354 
3800.000000	64.984202 
3799.000000	64.953279 
3798.000000	64.916849 
3797.000000	64.877390 
3796.000000	64.838838 
3795.000000	64.805984 
3794.000000	64.783835 
3793.000000	64.776921 
3792.000000	64.788484 
3791.000000	64.819836 
3790.000000	64.869809 
3789.000000	64.934849 
3788.000000	65.009164 
3787.000000	65.085816 
3786.000000	65.157485 
3785.000000	65.217757 
3784.000000	65.262103 
3783.000000	65.288424 
3782.000000	65.297269 
3781.000000	65.291094 
3780.000000	65.274071 
3779.000000	65.250349 
3778.000000	65.224194 
3777.000000	65.198326 
3776.000000	65.174293 
3775.000000	65.152001 
3774.000000	65.131092 
3773.000000	65.110754 
3772.000000	65.090656 
3771.000000	65.070986 
3770.000000	65.052795 
3769.000000	65.037679 
3768.000000	65.027332 
3767.000000	65.023183 
3766.000000	65.025949 
3765.000000	65.035653 
3764.000000	65.051507 
3763.000000	65.072202 
3762.000000	65.096020 
3761.000000	65.120840 
3760.000000	65.144348 
3759.000000	65.164041 
3758.000000	65.177631 
3757.000000	65.183258 
3756.000000	65.180039 
3755.000000	65.167880 
3754.000000	65.148091 
3753.000000	65.123152 
3752.000000	65.096640 
3751.000000	65.072488 
3750.000000	65.054392 
3749.000000	65.045118 
3748.000000	65.045952 
3747.000000	65.056705 
3746.000000	65.075397 
3745.000000	65.098428 
3744.000000	65.121793 
3743.000000	65.141654 
3742.000000	65.155148 
3741.000000	65.160703 
3740.000000	65.158462 
3739.000000	65.150046 
3738.000000	65.137982 
3737.000000	65.124940 
3736.000000	65.113282 
3735.000000	65.104508 
3734.000000	65.099120 
3733.000000	65.096855 
3732.000000	65.096735 
3731.000000	65.097808 
3730.000000	65.099453 
3729.000000	65.101838 
3728.000000	65.105366 
3727.000000	65.110826 
3726.000000	65.118741 
3725.000000	65.129637 
3724.000000	65.143322 
3723.000000	65.159535 
3722.000000	65.177798 
3721.000000	65.197873 
3720.000000	65.219855 
3719.000000	65.243864 
3718.000000	65.269780 
3717.000000	65.297102 
3716.000000	65.324640 
3715.000000	65.350723 
3714.000000	65.373373 
3713.000000	65.390825 
3712.000000	65.401983 
3711.000000	65.406560 
3710.000000	65.405154 
3709.000000	65.399122 
3708.000000	65.389895 
3707.000000	65.378737 
3706.000000	65.366125 
3705.000000	65.352034 
3704.000000	65.335869 
3703.000000	65.317106 
3702.000000	65.295720 
3701.000000	65.272283 
3700.000000	65.248131 
3699.000000	65.225267 
3698.000000	65.205645 
3697.000000	65.190649 
3696.000000	65.181064 
3695.000000	65.176677 
3694.000000	65.176677 
3693.000000	65.179705 
3692.000000	65.184402 
3691.000000	65.189743 
3690.000000	65.195059 
3689.000000	65.200114 
3688.000000	65.205073 
3687.000000	65.210413 
3686.000000	65.216374 
3685.000000	65.222883 
3684.000000	65.229630 
3683.000000	65.235900 
3682.000000	65.240836 
3681.000000	65.243458 
3680.000000	65.242886 
3679.000000	65.238571 
3678.000000	65.230274 
3677.000000	65.218353 
3676.000000	65.203189 
3675.000000	65.185689 
3674.000000	65.167069 
3673.000000	65.148711 
3672.000000	65.131807 
3671.000000	65.117573 
3670.000000	65.107107 
3669.000000	65.101146 
3668.000000	65.100121 
3667.000000	65.104150 
3666.000000	65.112924 
3665.000000	65.125632 
3664.000000	65.140819 
3663.000000	65.156602 
3662.000000	65.170788 
3661.000000	65.181112 
3660.000000	65.185737 
3659.000000	65.183377 
3658.000000	65.173768 
3657.000000	65.157699 
3656.000000	65.136981 
3655.000000	65.114140 
3654.000000	65.091991 
3653.000000	65.073418 
3652.000000	65.060806 
3651.000000	65.055775 
3650.000000	65.058994 
3649.000000	65.070295 
3648.000000	65.088820 
3647.000000	65.113162 
3646.000000	65.141487 
3645.000000	65.171861 
3644.000000	65.202450 
3643.000000	65.231394 
3642.000000	65.257358 
3641.000000	65.279030 
3640.000000	65.295815 
3639.000000	65.307736 
3638.000000	65.315461 
3637.000000	65.320134 
3636.000000	65.323138 
3635.000000	65.326023 
3634.000000	65.329599 
3633.000000	65.333962 
3632.000000	65.338182 
3631.000000	65.340471 
3630.000000	65.338706 
3629.000000	65.331077 
3628.000000	65.316438 
3627.000000	65.294766 
3626.000000	65.267300 
3625.000000	65.236520 
3624.000000	65.205192 
3623.000000	65.176296 
3622.000000	65.152001 
3621.000000	65.133714 
3620.000000	65.121698 
3619.000000	65.115666 
3618.000000	65.114784 
3617.000000	65.118455 
3616.000000	65.126013 
3615.000000	65.137600 
3614.000000	65.153622 
3613.000000	65.174603 
3612.000000	65.200448 
3611.000000	65.230345 
3610.000000	65.262627 
3609.000000	65.295004 
3608.000000	65.324640 
3607.000000	65.348696 
3606.000000	65.364694 
3605.000000	65.371060 
3604.000000	65.367531 
3603.000000	65.354561 
3602.000000	65.333366 
3601.000000	65.305900 
3600.000000	65.274572 
3599.000000	65.241765 
3598.000000	65.209865 
3597.000000	65.181326 
3596.000000	65.158152 
3595.000000	65.142273 
3594.000000	65.134811 
3593.000000	65.136170 
3592.000000	65.145373 
3591.000000	65.160036 
3590.000000	65.176749 
3589.000000	65.191316 
3588.000000	65.199899 
3587.000000	65.199327 
3586.000000	65.188550 
3585.000000	65.168380 
3584.000000	65.141892 
3583.000000	65.113592 
3582.000000	65.088677 
3581.000000	65.071702 
3580.000000	65.066266 
3579.000000	65.074157 
3578.000000	65.095162 
3577.000000	65.127229 
3576.000000	65.166950 
3575.000000	65.210175 
3574.000000	65.252590 
3573.000000	65.290212 
3572.000000	65.319609 
3571.000000	65.338325 
3570.000000	65.345048 
3569.000000	65.339708 
3568.000000	65.323376 
3567.000000	65.298175 
3566.000000	65.267276 
3565.000000	65.234303 
3564.000000	65.203166 
3563.000000	65.177249 
3562.000000	65.159106 
3561.000000	65.150022 
3560.000000	65.150189 
3559.000000	65.158462 
3558.000000	65.172672 
3557.000000	65.190362 
3556.000000	65.208840 
3555.000000	65.225863 
3554.000000	65.239739 
3553.000000	65.249562 
3552.000000	65.255212 
3551.000000	65.257287 
3550.000000	65.256929 
3549.000000	65.255403 
3548.000000	65.253877 
3547.000000	65.253520 
3546.000000	65.255141 
3545.000000	65.259456 
3544.000000	65.266680 
3543.000000	65.276789 
3542.000000	65.288829 
3541.000000	65.301322 
3540.000000	65.311813 
3539.000000	65.317440 
3538.000000	65.315294 
3537.000000	65.303158 
3536.000000	65.280079 
3535.000000	65.246868 
3534.000000	65.206265 
3533.000000	65.162611 
3532.000000	65.121030 
3531.000000	65.086746 
3530.000000	65.063858 
3529.000000	65.054726 
3528.000000	65.059685 
3527.000000	65.076828 
3526.000000	65.102934 
3525.000000	65.134096 
3524.000000	65.166330 
3523.000000	65.196394 
3522.000000	65.222001 
3521.000000	65.242028 
3520.000000	65.256214 
3519.000000	65.264844 
3518.000000	65.268802 
3517.000000	65.269064 
3516.000000	65.267014 
3515.000000	65.263819 
3514.000000	65.260696 
3513.000000	65.258264 
3512.000000	65.256905 
3511.000000	65.255880 
3510.000000	65.254020 
3509.000000	65.249490 
3508.000000	65.240359 
3507.000000	65.224909 
3506.000000	65.202355 
3505.000000	65.173125 
3504.000000	65.139079 
3503.000000	65.103149 
3502.000000	65.068888 
3501.000000	65.039801 
3500.000000	65.018749 
3499.000000	65.007114 
3498.000000	65.004682 
3497.000000	65.009689 
3496.000000	65.019273 
3495.000000	65.030312 
3494.000000	65.040040 
3493.000000	65.046501 
3492.000000	65.048980 
3491.000000	65.047979 
3490.000000	65.044784 
3489.000000	65.041041 
3488.000000	65.038084 
3487.000000	65.036487 
3486.000000	65.035724 
3485.000000	65.034604 
3484.000000	65.031337 
3483.000000	65.024137 
3482.000000	65.011763 
3481.000000	64.994096 
3480.000000	64.972281 
3479.000000	64.948487 
3478.000000	64.925742 
3477.000000	64.907264 
3476.000000	64.895868 
3475.000000	64.893364 
3474.000000	64.900207 
3473.000000	64.915442 
3472.000000	64.936757 
3471.000000	64.960956 
3470.000000	64.984703 
3469.000000	65.005159 
3468.000000	65.020418 
3467.000000	65.029907 
3466.000000	65.034389 
3465.000000	65.035772 
3464.000000	65.036582 
3463.000000	65.039396 
3462.000000	65.046143 
3461.000000	65.057873 
3460.000000	65.074777 
3459.000000	65.095782 
3458.000000	65.119457 
3457.000000	65.143704 
3456.000000	65.166330 
3455.000000	65.185165 
3454.000000	65.198612 
3453.000000	65.205359 
3452.000000	65.204691 
3451.000000	65.196371 
3450.000000	65.180969 
3449.000000	65.159559 
3448.000000	65.133881 
3447.000000	65.105915 
3446.000000	65.077877 
3445.000000	65.051817 
3444.000000	65.029263 
3443.000000	65.011096 
3442.000000	64.997339 
3441.000000	64.987468 
3440.000000	64.980411 
3439.000000	64.974880 
3438.000000	64.969611 
3437.000000	64.963674 
3436.000000	64.956688 
3435.000000	64.948391 
3434.000000	64.939308 
3433.000000	64.930129 
3432.000000	64.922118 
3431.000000	64.916467 
3430.000000	64.914393 
3429.000000	64.916777 
3428.000000	64.923787 
3427.000000	64.935207 
3426.000000	64.950013 
3425.000000	64.966797 
3424.000000	64.983654 
3423.000000	64.998602 
3422.000000	65.009737 
3421.000000	65.015459 
3420.000000	65.014815 
3419.000000	65.007710 
3418.000000	64.994931 
3417.000000	64.978122 
3416.000000	64.959836 
3415.000000	64.943051 
3414.000000	64.930701 
3413.000000	64.925026 
3412.000000	64.927148 
3411.000000	64.936757 
3410.000000	64.951777 
3409.000000	64.968991 
3408.000000	64.984560 
3407.000000	64.995360 
3406.000000	64.999389 
3405.000000	64.996767 
3404.000000	64.989662 
3403.000000	64.981722 
3402.000000	64.976835 
3401.000000	64.978241 
3400.000000	64.987230 
3399.000000	65.002894 
3398.000000	65.022301 
3397.000000	65.041136 
3396.000000	65.054965 
3395.000000	65.060520 
3394.000000	65.056490 
3393.000000	65.043830 
3392.000000	65.025568 
3391.000000	65.005636 
3390.000000	64.987921 
3389.000000	64.975118 
3388.000000	64.968228 
3387.000000	64.966702 
3386.000000	64.968872 
3385.000000	64.972615 
3384.000000	64.976477 
3383.000000	64.980006 
3382.000000	64.984059 
3381.000000	64.990568 
3380.000000	65.001749 
3379.000000	65.019440 
3378.000000	65.044450 
3377.000000	65.075969 
3376.000000	65.111374 
3375.000000	65.147137 
3374.000000	65.178632 
3373.000000	65.201592 
3372.000000	65.212631 
3371.000000	65.210151 
3370.000000	65.194773 
3369.000000	65.169167 
3368.000000	65.137910 
3367.000000	65.106582 
3366.000000	65.080499 
3365.000000	65.063810 
3364.000000	65.058183 
3363.000000	65.062284 
3362.000000	65.071988 
3361.000000	65.081477 
3360.000000	65.084290 
3359.000000	65.075373 
3358.000000	65.052175 
3357.000000	65.015864 
3356.000000	64.970946 
3355.000000	64.924311 
3354.000000	64.883565 
3353.000000	64.855146 
3352.000000	64.842653 
3351.000000	64.846014 
3350.000000	64.861536 
3349.000000	64.883065 
3348.000000	64.903950 
3347.000000	64.918565 
3346.000000	64.923715 
3345.000000	64.919137 
3344.000000	64.906978 
3343.000000	64.891052 
3342.000000	64.875245 
3341.000000	64.862704 
3340.000000	64.854931 
3339.000000	64.852166 
3338.000000	64.853763 
3337.000000	64.858627 
3336.000000	64.865994 
3335.000000	64.875698 
3334.000000	64.888143 
3333.000000	64.903712 
3332.000000	64.922237 
3331.000000	64.942598 
3330.000000	64.962816 
3329.000000	64.980411 
3328.000000	64.992737 
3327.000000	64.998126 
3326.000000	64.995694 
3325.000000	64.985823 
3324.000000	64.969921 
3323.000000	64.949965 
3322.000000	64.928627 
3321.000000	64.908409 
3320.000000	64.892053 
3319.000000	64.882040 
3318.000000	64.880681 
3317.000000	64.889669 
3316.000000	64.909958 
3315.000000	64.941477 
3314.000000	64.982724 
3313.000000	65.030932 
3312.000000	65.082406 
3311.000000	65.132880 
3310.000000	65.178227 
3309.000000	65.214920 
3308.000000	65.240883 
3307.000000	65.255284 
3306.000000	65.258741 
3305.000000	65.252780 
3304.000000	65.239453 
3303.000000	65.220785 
3302.000000	65.198898 
3301.000000	65.175437 
3300.000000	65.151977 
3299.000000	65.129542 
3298.000000	65.108895 
3297.000000	65.090298 
3296.000000	65.073275 
3295.000000	65.057206 
3294.000000	65.041232 
3293.000000	65.024948 
3292.000000	65.008354 
3291.000000	64.992356 
3290.000000	64.978384 
3289.000000	64.968442 
3288.000000	64.964556 
3287.000000	64.968276 
3286.000000	64.979982 
3285.000000	64.998769 
3284.000000	65.022540 
3283.000000	65.048336 
3282.000000	65.073108 
3281.000000	65.094089 
3280.000000	65.109419 
3279.000000	65.118432 
3278.000000	65.121603 
3277.000000	65.119957 
3276.000000	65.114784 
3275.000000	65.107274 
3274.000000	65.097880 
3273.000000	65.086865 
3272.000000	65.073943 
3271.000000	65.058732 
3270.000000	65.041136 
3269.000000	65.021705 
3268.000000	65.001583 
3267.000000	64.982342 
3266.000000	64.965915 
3265.000000	64.954137 
3264.000000	64.948463 
3263.000000	64.949631 
3262.000000	64.957642 
3261.000000	64.971756 
3260.000000	64.990639 
3259.000000	65.012478 
3258.000000	65.035438 
3257.000000	65.057802 
3256.000000	65.078067 
3255.000000	65.095043 
3254.000000	65.107989 
3253.000000	65.116524 
3252.000000	65.120625 
3251.000000	65.120553 
3250.000000	65.116834 
3249.000000	65.110111 
3248.000000	65.101099 
3247.000000	65.090608 
3246.000000	65.079522 
3245.000000	65.068483 
3244.000000	65.058183 
3243.000000	65.048861 
3242.000000	65.040707 
3241.000000	65.033435 
3240.000000	65.026426 
3239.000000	65.018868 
3238.000000	65.009951 
3237.000000	64.999365 
3236.000000	64.987349 
3235.000000	64.975214 
3234.000000	64.964938 
3233.000000	64.959144 
3232.000000	64.960503 
3231.000000	64.971113 
3230.000000	64.991736 
3229.000000	65.021681 
3228.000000	65.058588 
3227.000000	65.098881 
3226.000000	65.138339 
3225.000000	65.172958 
3224.000000	65.199565 
3223.000000	65.216541 
3222.000000	65.223765 
3221.000000	65.222382 
3220.000000	65.214252 
3219.000000	65.201449 
3218.000000	65.185856 
3217.000000	65.168786 
3216.000000	65.151190 
3215.000000	65.133881 
3214.000000	65.117621 
3213.000000	65.103745 
3212.000000	65.093493 
3211.000000	65.088272 
3210.000000	65.088963 
3209.000000	65.095424 
3208.000000	65.106534 
3207.000000	65.119862 
3206.000000	65.132403 
3205.000000	65.141129 
3204.000000	65.143990 
3203.000000	65.140318 
3202.000000	65.131378 
3201.000000	65.120100 
3200.000000	65.110421 
3199.000000	65.106344 
3198.000000	65.110874 
3197.000000	65.125274 
3196.000000	65.148591 
3195.000000	65.177655 
3194.000000	65.208005 
3193.000000	65.234684 
3192.000000	65.253376 
3191.000000	65.261173 
3190.000000	65.257120 
3189.000000	65.242433 
3188.000000	65.219902 
3187.000000	65.193271 
3186.000000	65.166306 
3185.000000	65.142011 
3184.000000	65.122747 
3183.000000	65.109467 
3182.000000	65.102219 
3181.000000	65.100121 
3180.000000	65.102124 
3179.000000	65.106701 
3178.000000	65.112304 
3177.000000	65.117454 
3176.000000	65.120649 
3175.000000	65.120863 
3174.000000	65.117383 
3173.000000	65.110230 
3172.000000	65.099930 
3171.000000	65.087437 
3170.000000	65.073728 
3169.000000	65.059781 
3168.000000	65.046143 
3167.000000	65.032792 
3166.000000	65.019488 
3165.000000	65.005803 
3164.000000	64.991521 
3163.000000	64.977073 
3162.000000	64.963483 
3161.000000	64.952039 
3160.000000	64.944601 
3159.000000	64.942693 
3158.000000	64.947509 
3157.000000	64.959239 
3156.000000	64.977192 
3155.000000	64.999628 
3154.000000	65.024471 
3153.000000	65.049505 
3152.000000	65.072751 
3151.000000	65.093016 
3150.000000	65.109729 
3149.000000	65.123057 
3148.000000	65.133619 
3147.000000	65.142297 
3146.000000	65.149807 
3145.000000	65.156555 
3144.000000	65.162611 
3143.000000	65.167474 
3142.000000	65.170621 
3141.000000	65.171337 
3140.000000	65.169143 
3139.000000	65.163707 
3138.000000	65.155243 
3137.000000	65.144276 
3136.000000	65.131568 
3135.000000	65.118002 
3134.000000	65.104627 
3133.000000	65.092587 
3132.000000	65.082836 
3131.000000	65.076065 
3130.000000	65.072822 
3129.000000	65.072870 
3128.000000	65.075564 
3127.000000	65.079450 
3126.000000	65.082645 
3125.000000	65.083217 
3124.000000	65.079522 
3123.000000	65.070581 
3122.000000	65.056133 
3121.000000	65.037012 
3120.000000	65.015053 
3119.000000	64.992499 
3118.000000	64.971685 
3117.000000	64.954829 
3116.000000	64.943552 
3115.000000	64.938712 
3114.000000	64.940476 
3113.000000	64.948391 
3112.000000	64.961624 
3111.000000	64.979076 
3110.000000	64.999556 
3109.000000	65.021657 
3108.000000	65.044164 
3107.000000	65.065765 
3106.000000	65.085458 
3105.000000	65.102529 
3104.000000	65.116763 
3103.000000	65.128517 
3102.000000	65.138030 
3101.000000	65.145611 
3100.000000	65.151047 
3099.000000	65.153837 
3098.000000	65.152835 
3097.000000	65.146732 
3096.000000	65.134382 
3095.000000	65.115356 
3094.000000	65.090084 
3093.000000	65.059947 
3092.000000	65.027141 
3091.000000	64.994502 
3090.000000	64.964771 
3089.000000	64.940357 
3088.000000	64.922904 
3087.000000	64.913201 
3086.000000	64.911484 
3085.000000	64.917492 
3084.000000	64.930438 
3083.000000	64.949417 
3082.000000	64.973402 
3081.000000	65.001153 
3080.000000	65.030837 
3079.000000	65.060544 
3078.000000	65.088081 
3077.000000	65.111446 
3076.000000	65.128946 
3075.000000	65.139722 
3074.000000	65.143918 
3073.000000	65.142560 
3072.000000	65.137314 
3071.000000	65.130186 
3070.000000	65.123176 
3069.000000	65.117788 
3068.000000	65.114903 
3067.000000	65.114855 
3066.000000	65.117359 
3065.000000	65.121865 
3064.000000	65.127706 
3063.000000	65.133953 
3062.000000	65.139532 
3061.000000	65.143132 
3060.000000	65.143394 
3059.000000	65.138888 
3058.000000	65.128397 
3057.000000	65.111494 
3056.000000	65.088605 
3055.000000	65.061426 
3054.000000	65.032434 
3053.000000	65.004611 
3052.000000	64.980864 
3051.000000	64.963173 
3050.000000	64.952421 
3049.000000	64.947795 
3048.000000	64.947438 
3047.000000	64.948987 
3046.000000	64.950251 
3045.000000	64.949870 
3044.000000	64.947605 
3043.000000	64.944410 
3042.000000	64.942145 
3041.000000	64.942789 
3040.000000	64.947772 
3039.000000	64.957427 
3038.000000	64.971089 
3037.000000	64.987134 
3036.000000	65.003395 
3035.000000	65.017509 
3034.000000	65.027761 
3033.000000	65.033221 
3032.000000	65.033912 
3031.000000	65.030384 
3030.000000	65.023565 
3029.000000	65.014314 
3028.000000	65.003347 
3027.000000	64.991164 
3026.000000	64.978027 
3025.000000	64.964342 
3024.000000	64.950537 
3023.000000	64.937305 
3022.000000	64.925599 
3021.000000	64.916563 
3020.000000	64.911270 
3019.000000	64.910721 
3018.000000	64.915513 
3017.000000	64.925980 
3016.000000	64.941906 
3015.000000	64.962935 
3014.000000	64.988398 
3013.000000	65.017843 
3012.000000	65.050816 
3011.000000	65.086936 
3010.000000	65.125489 
3009.000000	65.165352 
3008.000000	65.204620 
3007.000000	65.240645 
3006.000000	65.270233 
3005.000000	65.290331 
3004.000000	65.298318 
3003.000000	65.292859 
3002.000000	65.273976 
3001.000000	65.243649 
3000.000000	65.205144 
2999.000000	65.162587 
2998.000000	65.120291 
2997.000000	65.082120 
2996.000000	65.050792 
2995.000000	65.027785 
2994.000000	65.013456 
2993.000000	65.007138 
2992.000000	65.007901 
2991.000000	65.014576 
2990.000000	65.025949 
2989.000000	65.040731 
2988.000000	65.057587 
2987.000000	65.074753 
2986.000000	65.090394 
2985.000000	65.102601 
2984.000000	65.109658 
2983.000000	65.110301 
2982.000000	65.104055 
2981.000000	65.091228 
2980.000000	65.072798 
2979.000000	65.050053 
2978.000000	65.024805 
2977.000000	64.998483 
2976.000000	64.972209 
2975.000000	64.946341 
2974.000000	64.920806 
2973.000000	64.895129 
2972.000000	64.868617 
2971.000000	64.841175 
2970.000000	64.812994 
2969.000000	64.785337 
2968.000000	64.760065 
2967.000000	64.739847 
2966.000000	64.727115 
2965.000000	64.724063 
2964.000000	64.731812 
2963.000000	64.750361 
2962.000000	64.778065 
2961.000000	64.812326 
2960.000000	64.849567 
2959.000000	64.886188 
2958.000000	64.919066 
2957.000000	64.946007 
2956.000000	64.965939 
2955.000000	64.978885 
2954.000000	64.985489 
2953.000000	64.986777 
2952.000000	64.983463 
2951.000000	64.976167 
2950.000000	64.964842 
2949.000000	64.949488 
2948.000000	64.930248 
2947.000000	64.907813 
2946.000000	64.883399 
2945.000000	64.859199 
2944.000000	64.837741 
2943.000000	64.821410 
2942.000000	64.811968 
2941.000000	64.810276 
2940.000000	64.816021 
2939.000000	64.827752 
2938.000000	64.843225 
2937.000000	64.859890 
2936.000000	64.875555 
2935.000000	64.888525 
2934.000000	64.898157 
2933.000000	64.904475 
2932.000000	64.908242 
2931.000000	64.910602 
2930.000000	64.912605 
2929.000000	64.914822 
2928.000000	64.917588 
2927.000000	64.920806 
2926.000000	64.923930 
2925.000000	64.926385 
2924.000000	64.927530 
2923.000000	64.927124 
2922.000000	64.925289 
2921.000000	64.922642 
2920.000000	64.920234 
2919.000000	64.919471 
2918.000000	64.921808 
2917.000000	64.928388 
2916.000000	64.939618 
2915.000000	64.954924 
2914.000000	64.972734 
2913.000000	64.990735 
2912.000000	65.006184 
2911.000000	65.016651 
2910.000000	65.020442 
2909.000000	65.016889 
2908.000000	65.006494 
2907.000000	64.990758 
2906.000000	64.971661 
2905.000000	64.951229 
2904.000000	64.931130 
2903.000000	64.912247 
2902.000000	64.894843 
2901.000000	64.878702 
2900.000000	64.863634 
2899.000000	64.849710 
2898.000000	64.837646 
2897.000000	64.828562 
2896.000000	64.823937 
2895.000000	64.825153 
2894.000000	64.832949 
2893.000000	64.847230 
2892.000000	64.866852 
2891.000000	64.889788 
2890.000000	64.913344 
2889.000000	64.934635 
2888.000000	64.951109 
2887.000000	64.960908 
2886.000000	64.963293 
2885.000000	64.958643 
2884.000000	64.948177 
2883.000000	64.933919 
2882.000000	64.918160 
2881.000000	64.902949 
2880.000000	64.889812 
2879.000000	64.879631 
2878.000000	64.872765 
2877.000000	64.869165 
2876.000000	64.868307 
2875.000000	64.869761 
2874.000000	64.873003 
2873.000000	64.877700 
2872.000000	64.883637 
2871.000000	64.890599 
2870.000000	64.898467 
2869.000000	64.907217 
2868.000000	64.916729 
2867.000000	64.927029 
2866.000000	64.938020 
2865.000000	64.949560 
2864.000000	64.961600 
2863.000000	64.973711 
2862.000000	64.985418 
2861.000000	64.996218 
2860.000000	65.005517 
2859.000000	65.012884 
2858.000000	65.018367 
2857.000000	65.022134 
2856.000000	65.024757 
2855.000000	65.026569 
2854.000000	65.027737 
2853.000000	65.027832 
2852.000000	65.025997 
2851.000000	65.021324 
2850.000000	65.012931 
2849.000000	65.000438 
2848.000000	64.984273 
2847.000000	64.965462 
2846.000000	64.945483 
2845.000000	64.925980 
2844.000000	64.908266 
2843.000000	64.893150 
2842.000000	64.880895 
2841.000000	64.871263 
2840.000000	64.863777 
2839.000000	64.857983 
2838.000000	64.853692 
2837.000000	64.850902 
2836.000000	64.849948 
2835.000000	64.850926 
2834.000000	64.853906 
2833.000000	64.858388 
2832.000000	64.863729 
2831.000000	64.869046 
2830.000000	64.873743 
2829.000000	64.877462 
2828.000000	64.880323 
2827.000000	64.882612 
2826.000000	64.884686 
2825.000000	64.886617 
2824.000000	64.888072 
2823.000000	64.888143 
2822.000000	64.885735 
2821.000000	64.879727 
2820.000000	64.869403 
2819.000000	64.854669 
2818.000000	64.836549 
2817.000000	64.816927 
2816.000000	64.798283 
2815.000000	64.783310 
2814.000000	64.774489 
2813.000000	64.773392 
2812.000000	64.780592 
2811.000000	64.795351 
2810.000000	64.815855 
2809.000000	64.839768 
2808.000000	64.864468 
2807.000000	64.887785 
2806.000000	64.908075 
2805.000000	64.924645 
2804.000000	64.937543 
2803.000000	64.947581 
2802.000000	64.955735 
2801.000000	64.962911 
2800.000000	64.969635 
2799.000000	64.975953 
2798.000000	64.981412 
2797.000000	64.985394 
2796.000000	64.987254 
2795.000000	64.986681 
2794.000000	64.983797 
2793.000000	64.979171 
2792.000000	64.973783 
2791.000000	64.968848 
2790.000000	64.965391 
2789.000000	64.964175 
2788.000000	64.965462 
2787.000000	64.969158 
2786.000000	64.974522 
2785.000000	64.980483 
2784.000000	64.985823 
2783.000000	64.989328 
2782.000000	64.990043 
2781.000000	64.987421 
2780.000000	64.981627 
2779.000000	64.973187 
2778.000000	64.963078 
2777.000000	64.952731 
2776.000000	64.943456 
2775.000000	64.936375 
2774.000000	64.932155 
2773.000000	64.931058 
2772.000000	64.932703 
2771.000000	64.936351 
2770.000000	64.941024 
2769.000000	64.945650 
2768.000000	64.949369 
2767.000000	64.951634 
2766.000000	64.952325 
2765.000000	64.951777 
2764.000000	64.950585 
2763.000000	64.949536 
2762.000000	64.949440 
2761.000000	64.950966 
2760.000000	64.954471 
2759.000000	64.959573 
2758.000000	64.965510 
2757.000000	64.970922 
2756.000000	64.974069 
2755.000000	64.973330 
2754.000000	64.967465 
2753.000000	64.955997 
2752.000000	64.939451 
2751.000000	64.919161 
2750.000000	64.896941 
2749.000000	64.874958 
2748.000000	64.855217 
2747.000000	64.839482 
2746.000000	64.828610 
2745.000000	64.822936 
2744.000000	64.822292 
2743.000000	64.826178 
2742.000000	64.833927 
2741.000000	64.844894 
2740.000000	64.858317 
2739.000000	64.873313 
2738.000000	64.888954 
2737.000000	64.903903 
2736.000000	64.916872 
2735.000000	64.926719 
2734.000000	64.932680 
2733.000000	64.934492 
2732.000000	64.932560 
2731.000000	64.927697 
2730.000000	64.921021 
2729.000000	64.913678 
2728.000000	64.906859 
2727.000000	64.901447 
2726.000000	64.898443 
2725.000000	64.898490 
2724.000000	64.902353 
2723.000000	64.910626 
2722.000000	64.923620 
2721.000000	64.941287 
2720.000000	64.962935 
2719.000000	64.987325 
2718.000000	65.012764 
2717.000000	65.037345 
2716.000000	65.059280 
2715.000000	65.077328 
2714.000000	65.090870 
2713.000000	65.100073 
2712.000000	65.105509 
2711.000000	65.107774 
2710.000000	65.107393 
2709.000000	65.104317 
2708.000000	65.098357 
2707.000000	65.089035 
2706.000000	65.076279 
2705.000000	65.060234 
2704.000000	65.041804 
2703.000000	65.022206 
2702.000000	65.002918 
2701.000000	64.985442 
2700.000000	64.970993 
2699.000000	64.960145 
2698.000000	64.952826 
2697.000000	64.948296 
2696.000000	64.945435 
2695.000000	64.942860 
2694.000000	64.939355 
2693.000000	64.934110 
2692.000000	64.926815 
2691.000000	64.917683 
2690.000000	64.907431 
2689.000000	64.897131 
2688.000000	64.887976 
2687.000000	64.880919 
2686.000000	64.876556 
2685.000000	64.875173 
2684.000000	64.876651 
2683.000000	64.880418 
2682.000000	64.885759 
2681.000000	64.892077 
2680.000000	64.899015 
2679.000000	64.906573 
2678.000000	64.914989 
2677.000000	64.924240 
2676.000000	64.934372 
2675.000000	64.944958 
2674.000000	64.955282 
2673.000000	64.964365 
2672.000000	64.971256 
2671.000000	64.975476 
2670.000000	64.976930 
2669.000000	64.975976 
2668.000000	64.973378 
2667.000000	64.970278 
2666.000000	64.967703 
2665.000000	64.966344 
2664.000000	64.966344 
2663.000000	64.967322 
2662.000000	64.968204 
2661.000000	64.967465 
2660.000000	64.963483 
2659.000000	64.954972 
2658.000000	64.941096 
2657.000000	64.921927 
2656.000000	64.898443 
2655.000000	64.872527 
2654.000000	64.846706 
2653.000000	64.823818 
2652.000000	64.806365 
2651.000000	64.796137 
2650.000000	64.793610 
2649.000000	64.798355 
2648.000000	64.808535 
2647.000000	64.821910 
2646.000000	64.836025 
2645.000000	64.849066 
2644.000000	64.860010 
2643.000000	64.868688 
2642.000000	64.875721 
2641.000000	64.882135 
2640.000000	64.888858 
2639.000000	64.896512 
2638.000000	64.905309 
2637.000000	64.914846 
2636.000000	64.924550 
2635.000000	64.933609 
2634.000000	64.941191 
2633.000000	64.946818 
2632.000000	64.950108 
2631.000000	64.950847 
2630.000000	64.948987 
2629.000000	64.944553 
2628.000000	64.937758 
2627.000000	64.928984 
2626.000000	64.918923 
2625.000000	64.908599 
2624.000000	64.899420 
2623.000000	64.892673 
2622.000000	64.889574 
2621.000000	64.891028 
2620.000000	64.897441 
2619.000000	64.908504 
2618.000000	64.923405 
2617.000000	64.940881 
2616.000000	64.959335 
2615.000000	64.977192 
2614.000000	64.992785 
2613.000000	65.004611 
2612.000000	65.011548 
2611.000000	65.012860 
2610.000000	65.008544 
2609.000000	64.998936 
2608.000000	64.985084 
2607.000000	64.968514 
2606.000000	64.951086 
2605.000000	64.934802 
2604.000000	64.921498 
2603.000000	64.912462 
2602.000000	64.908289 
2601.000000	64.908909 
2600.000000	64.913558 
2599.000000	64.921116 
2598.000000	64.930176 
2597.000000	64.939522 
2596.000000	64.948153 
2595.000000	64.955449 
2594.000000	64.961147 
2593.000000	64.965105 
2592.000000	64.967250 
2591.000000	64.967513 
2590.000000	64.965772 
2589.000000	64.961719 
2588.000000	64.955306 
2587.000000	64.946436 
2586.000000	64.935421 
2585.000000	64.922833 
2584.000000	64.909505 
2583.000000	64.896440 
2582.000000	64.884543 
2581.000000	64.874601 
2580.000000	64.866971 
2579.000000	64.861726 
2578.000000	64.858579 
2577.000000	64.856863 
2576.000000	64.855647 
2575.000000	64.854025 
2574.000000	64.851140 
2573.000000	64.846515 
2572.000000	64.840006 
2571.000000	64.831805 
2570.000000	64.822530 
2569.000000	64.812946 
2568.000000	64.804005 
2567.000000	64.796566 
2566.000000	64.791178 
2565.000000	64.788198 
2564.000000	64.787602 
2563.000000	64.789056 
2562.000000	64.792060 
2561.000000	64.795923 
2560.000000	64.800143 
2559.000000	64.804196 
2558.000000	64.807820 
2557.000000	64.810967 
2556.000000	64.813947 
2555.000000	64.817214 
2554.000000	64.821386 
2553.000000	64.827132 
2552.000000	64.835047 
2551.000000	64.845395 
2550.000000	64.857912 
2549.000000	64.871501 
2548.000000	64.884805 
2547.000000	64.896154 
2546.000000	64.903759 
2545.000000	64.906477 
2544.000000	64.904046 
2543.000000	64.897251 
2542.000000	64.887619 
2541.000000	64.877271 
2540.000000	64.868426 
2539.000000	64.862704 
2538.000000	64.860963 
2537.000000	64.862895 
2536.000000	64.867281 
2535.000000	64.872384 
2534.000000	64.876508 
2533.000000	64.878344 
2532.000000	64.877319 
2531.000000	64.873600 
2530.000000	64.867830 
2529.000000	64.861083 
2528.000000	64.854216 
2527.000000	64.848136 
2526.000000	64.843511 
2525.000000	64.841079 
2524.000000	64.841651 
2523.000000	64.846181 
2522.000000	64.855623 
2521.000000	64.870715 
2520.000000	64.891505 
2519.000000	64.917302 
2518.000000	64.946484 
2517.000000	64.976668 
2516.000000	65.004849 
2515.000000	65.028238 
2514.000000	65.044569 
2513.000000	65.052652 
2512.000000	65.052223 
2511.000000	65.043926 
2510.000000	65.029096 
2509.000000	65.009427 
2508.000000	64.986610 
2507.000000	64.962291 
2506.000000	64.938068 
2505.000000	64.915490 
2504.000000	64.896082 
2503.000000	64.881443 
2502.000000	64.872884 
2501.000000	64.871191 
2500.000000	64.876794 
2499.000000	64.889359 
2498.000000	64.908027 
2497.000000	64.931178 
2496.000000	64.956903 
2495.000000	64.982867 
2494.000000	65.006947 
2493.000000	65.027165 
2492.000000	65.042018 
2491.000000	65.050363 
2490.000000	65.051746 
2489.000000	65.046215 
2488.000000	65.034484 
2487.000000	65.018010 
2486.000000	64.998579 
2485.000000	64.978432 
2484.000000	64.959907 
2483.000000	64.945054 
2482.000000	64.935183 
2481.000000	64.930772 
2480.000000	64.931249 
2479.000000	64.935040 
2478.000000	64.939928 
2477.000000	64.943408 
2476.000000	64.943051 
2475.000000	64.937376 
2474.000000	64.925980 
2473.000000	64.909791 
2472.000000	64.890694 
2471.000000	64.871406 
2470.000000	64.854836 
2469.000000	64.843416 
2468.000000	64.838457 
2467.000000	64.840078 
2466.000000	64.847040 
2465.000000	64.857339 
2464.000000	64.868426 
2463.000000	64.878010 
2462.000000	64.884233 
2461.000000	64.886212 
2460.000000	64.883899 
2459.000000	64.877939 
2458.000000	64.869236 
2457.000000	64.858770 
2456.000000	64.847350 
2455.000000	64.835453 
2454.000000	64.823532 
2453.000000	64.811921 
2452.000000	64.801168 
2451.000000	64.792132 
2450.000000	64.785933 
2449.000000	64.783620 
2448.000000	64.786052 
2447.000000	64.793515 
2446.000000	64.805746 
2445.000000	64.822077 
2444.000000	64.841437 
2443.000000	64.862370 
2442.000000	64.883732 
2441.000000	64.904594 
2440.000000	64.924311 
2439.000000	64.942431 
2438.000000	64.958763 
2437.000000	64.972901 
2436.000000	64.984583 
2435.000000	64.993309 
2434.000000	64.998555 
2433.000000	64.999938 
2432.000000	64.997196 
2431.000000	64.990615 
2430.000000	64.980769 
2429.000000	64.968657 
2428.000000	64.955711 
2427.000000	64.943289 
2426.000000	64.932751 
2425.000000	64.924907 
2424.000000	64.920377 
2423.000000	64.918923 
2422.000000	64.919614 
2421.000000	64.920830 
2420.000000	64.920568 
2419.000000	64.916729 
2418.000000	64.907503 
2417.000000	64.891767 
2416.000000	64.869308 
2415.000000	64.841103 
2414.000000	64.809417 
2413.000000	64.777183 
2412.000000	64.747714 
2411.000000	64.724278 
2410.000000	64.709496 
2409.000000	64.704728 
2408.000000	64.709925 
2407.000000	64.723634 
2406.000000	64.743471 
2405.000000	64.766120 
2404.000000	64.788746 
2403.000000	64.808940 
2402.000000	64.825606 
2401.000000	64.838767 
2400.000000	64.849662 
2399.000000	64.860177 
2398.000000	64.872217 
2397.000000	64.887166 
2396.000000	64.905047 
2395.000000	64.924716 
2394.000000	64.943671 
2393.000000	64.958953 
2392.000000	64.967465 
2391.000000	64.966893 
2390.000000	64.956188 
2389.000000	64.935922 
2388.000000	64.908170 
2387.000000	64.875817 
2386.000000	64.842343 
2385.000000	64.810919 
2384.000000	64.783930 
2383.000000	64.762639 
2382.000000	64.747405 
2381.000000	64.737725 
2380.000000	64.732694 
2379.000000	64.731359 
2378.000000	64.732789 
2377.000000	64.736294 
2376.000000	64.741158 
2375.000000	64.746665 
2374.000000	64.751648 
2373.000000	64.755058 
2372.000000	64.755773 
2371.000000	64.753103 
2370.000000	64.746785 
2369.000000	64.737367 
2368.000000	64.726209 
2367.000000	64.715123 
2366.000000	64.705920 
2365.000000	64.700198 
2364.000000	64.698791 
2363.000000	64.701843 
2362.000000	64.708495 
2361.000000	64.717507 
2360.000000	64.727354 
2359.000000	64.736723 
2358.000000	64.744806 
2357.000000	64.751195 
2356.000000	64.756059 
2355.000000	64.759898 
2354.000000	64.763498 
2353.000000	64.767408 
2352.000000	64.772105 
2351.000000	64.777874 
2350.000000	64.784836 
2349.000000	64.792966 
2348.000000	64.801979 
2347.000000	64.811635 
2346.000000	64.821267 
2345.000000	64.830231 
2344.000000	64.837479 
2343.000000	64.842009 
2342.000000	64.842653 
2341.000000	64.838695 
2340.000000	64.829754 
2339.000000	64.816164 
2338.000000	64.798974 
2337.000000	64.779734 
2336.000000	64.760494 
2335.000000	64.743399 
2334.000000	64.730334 
2333.000000	64.722704 
2332.000000	64.721250 
2331.000000	64.725899 
2330.000000	64.735865 
2329.000000	64.749813 
2328.000000	64.765810 
2327.000000	64.781594 
2326.000000	64.795255 
2325.000000	64.805054 
2324.000000	64.809775 
2323.000000	64.808797 
2322.000000	64.802312 
2321.000000	64.791083 
2320.000000	64.776515 
2319.000000	64.760208 
2318.000000	64.743947 
2317.000000	64.729261 
2316.000000	64.717364 
2315.000000	64.708828 
2314.000000	64.703655 
2313.000000	64.701318 
2312.000000	64.701104 
2311.000000	64.702177 
2310.000000	64.703893 
2309.000000	64.706087 
2308.000000	64.708971 
2307.000000	64.713120 
2306.000000	64.719057 
2305.000000	64.727282 
2304.000000	64.737725 
2303.000000	64.749574 
2302.000000	64.761471 
2301.000000	64.771723 
2300.000000	64.778614 
2299.000000	64.780998 
2298.000000	64.778304 
2297.000000	64.771103 
2296.000000	64.760851 
2295.000000	64.749431 
2294.000000	64.738798 
2293.000000	64.730644 
2292.000000	64.725828 
2291.000000	64.724302 
2290.000000	64.725327 
2289.000000	64.727568 
2288.000000	64.729642 
2287.000000	64.730310 
2286.000000	64.728975 
2285.000000	64.725661 
2284.000000	64.721131 
2283.000000	64.716482 
2282.000000	64.713048 
2281.000000	64.711880 
2280.000000	64.713597 
2279.000000	64.718389 
2278.000000	64.725708 
2277.000000	64.734673 
2276.000000	64.744281 
2275.000000	64.753746 
2274.000000	64.762544 
2273.000000	64.770579 
2272.000000	64.778232 
2271.000000	64.786195 
2270.000000	64.794969 
2269.000000	64.804959 
2268.000000	64.815974 
2267.000000	64.827251 
2266.000000	64.837622 
2265.000000	64.845609 
2264.000000	64.849781 
2263.000000	64.849042 
2262.000000	64.843249 
2261.000000	64.832782 
2260.000000	64.818906 
2259.000000	64.803075 
2258.000000	64.787054 
2257.000000	64.772248 
2256.000000	64.759516 
2255.000000	64.748907 
2254.000000	64.739871 
2253.000000	64.731383 
2252.000000	64.722323 
2251.000000	64.711761 
2250.000000	64.699482 
2249.000000	64.685940 
2248.000000	64.672255 
2247.000000	64.659905 
2246.000000	64.650392 
2245.000000	64.644718 
2244.000000	64.643383 
2243.000000	64.646005 
2242.000000	64.651656 
2241.000000	64.659214 
2240.000000	64.667868 
2239.000000	64.677119 
2238.000000	64.686942 
2237.000000	64.697790 
2236.000000	64.710235 
2235.000000	64.724540 
2234.000000	64.740490 
2233.000000	64.757299 
2232.000000	64.773726 
2231.000000	64.788269 
2230.000000	64.799618 
2229.000000	64.806985 
2228.000000	64.810180 
2227.000000	64.809846 
2226.000000	64.807057 
2225.000000	64.803004 
2224.000000	64.798665 
2223.000000	64.794778 
2222.000000	64.791560 
2221.000000	64.788842 
2220.000000	64.786338 
2219.000000	64.783740 
2218.000000	64.780926 
2217.000000	64.778089 
2216.000000	64.775633 
2215.000000	64.774179 
2214.000000	64.774537 
2213.000000	64.777326 
2212.000000	64.783000 
2211.000000	64.791440 
2210.000000	64.802098 
2209.000000	64.813852 
2208.000000	64.825153 
2207.000000	64.834427 
2206.000000	64.840340 
2205.000000	64.842104 
2204.000000	64.839649 
2203.000000	64.833784 
2202.000000	64.825916 
2201.000000	64.817786 
2200.000000	64.811015 
2199.000000	64.806771 
2198.000000	64.805531 
2197.000000	64.806914 
2196.000000	64.809727 
2195.000000	64.812183 
2194.000000	64.812469 
2193.000000	64.808988 
2192.000000	64.800786 
2191.000000	64.787745 
2190.000000	64.770698 
2189.000000	64.751219 
2188.000000	64.731597 
2187.000000	64.713931 
2186.000000	64.700317 
2185.000000	64.692115 
2184.000000	64.690089 
2183.000000	64.694285 
2182.000000	64.703774 
2181.000000	64.717197 
2180.000000	64.732527 
2179.000000	64.747357 
2178.000000	64.759159 
2177.000000	64.765524 
2176.000000	64.764666 
2175.000000	64.755749 
2174.000000	64.739155 
2173.000000	64.716291 
2172.000000	64.689302 
2171.000000	64.660644 
2170.000000	64.632654 
2169.000000	64.607381 
2168.000000	64.586329 
2167.000000	64.570593 
2166.000000	64.560890 
2165.000000	64.557552 
2164.000000	64.560556 
2163.000000	64.569544 
2162.000000	64.583444 
2161.000000	64.600634 
2160.000000	64.619064 
2159.000000	64.636492 
2158.000000	64.650750 
2157.000000	64.660167 
2156.000000	64.663553 
2155.000000	64.660739 
2154.000000	64.652490 
2153.000000	64.640450 
2152.000000	64.626836 
2151.000000	64.614176 
2150.000000	64.604687 
2149.000000	64.600038 
2148.000000	64.600920 
2147.000000	64.607024 
2146.000000	64.617395 
2145.000000	64.630508 
2144.000000	64.644765 
2143.000000	64.658784 
2142.000000	64.671444 
2141.000000	64.681768 
2140.000000	64.689040 
2139.000000	64.692592 
2138.000000	64.691972 
2137.000000	64.686965 
2136.000000	64.677953 
2135.000000	64.666104 
2134.000000	64.653253 
2133.000000	64.641785 
2132.000000	64.633917 
2131.000000	64.631533 
2130.000000	64.635348 
2129.000000	64.644742 
2128.000000	64.657616 
2127.000000	64.670944 
2126.000000	64.681529 
2125.000000	64.686727 
2124.000000	64.685416 
2123.000000	64.678025 
2122.000000	64.666700 
2121.000000	64.654636 
2120.000000	64.645171 
2119.000000	64.640760 
2118.000000	64.642429 
2117.000000	64.649438 
2116.000000	64.659357 
2115.000000	64.668965 
2114.000000	64.675021 
2113.000000	64.675498 
2112.000000	64.669823 
2111.000000	64.659166 
2110.000000	64.646244 
2109.000000	64.634776 
2108.000000	64.627981 
2107.000000	64.628314 
2106.000000	64.636874 
2105.000000	64.653134 
2104.000000	64.675402 
2103.000000	64.700984 
2102.000000	64.727115 
2101.000000	64.751243 
2100.000000	64.771556 
2099.000000	64.786958 
2098.000000	64.796876 
2097.000000	64.801144 
2096.000000	64.799880 
2095.000000	64.793276 
2094.000000	64.781498 
2093.000000	64.764976 
2092.000000	64.744520 
2091.000000	64.721298 
2090.000000	64.696669 
2089.000000	64.672231 
2088.000000	64.649367 
2087.000000	64.628958 
2086.000000	64.611148 
2085.000000	64.595437 
2084.000000	64.580607 
2083.000000	64.565300 
2082.000000	64.548206 
2081.000000	64.528489 
2080.000000	64.506459 
2079.000000	64.483118 
2078.000000	64.460635 
2077.000000	64.441394 
2076.000000	64.427900 
2075.000000	64.421892 
2074.000000	64.424371 
2073.000000	64.434957 
2072.000000	64.452528 
2071.000000	64.475393 
2070.000000	64.501523 
2069.000000	64.528918 
2068.000000	64.555859 
2067.000000	64.580988 
2066.000000	64.603233 
2065.000000	64.621782 
2064.000000	64.635968 
2063.000000	64.645314 
2062.000000	64.649796 
2061.000000	64.649701 
2060.000000	64.645862 
2059.000000	64.639401 
2058.000000	64.631748 
2057.000000	64.624309 
2056.000000	64.618372 
2055.000000	64.614725 
2054.000000	64.613771 
2053.000000	64.615535 
2052.000000	64.619565 
2051.000000	64.625287 
2050.000000	64.632081 
2049.000000	64.639353 
2048.000000	64.646673 
2047.000000	64.653706 
2046.000000	64.660191 
2045.000000	64.666032 
2044.000000	64.671230 
2043.000000	64.675831 
2042.000000	64.680075 
2041.000000	64.684224 
2040.000000	64.688611 
2039.000000	64.693307 
2038.000000	64.698147 
2037.000000	64.702892 
2036.000000	64.707016 
2035.000000	64.709925 
2034.000000	64.710974 
2033.000000	64.709591 
2032.000000	64.705657 
2031.000000	64.699339 
2030.000000	64.691281 
2029.000000	64.682483 
2028.000000	64.674186 
2027.000000	64.667630 
2026.000000	64.663934 
2025.000000	64.663672 
2024.000000	64.666914 
2023.000000	64.673185 
2022.000000	64.681482 
2021.000000	64.690685 
2020.000000	64.699649 
2019.000000	64.707517 
2018.000000	64.713811 
2017.000000	64.718413 
2016.000000	64.721465 
2015.000000	64.723181 
2014.000000	64.723610 
2013.000000	64.722681 
2012.000000	64.719963 
2011.000000	64.715051 
2010.000000	64.707732 
2009.000000	64.698243 
2008.000000	64.687371 
2007.000000	64.676260 
2006.000000	64.666223 
2005.000000	64.658379 
2004.000000	64.653158 
2003.000000	64.650559 
2002.000000	64.649868 
2001.000000	64.649987 
2000.000000	64.649915 
1999.000000	64.648818 
1998.000000	64.646601 
1997.000000	64.643740 
1996.000000	64.641213 
1995.000000	64.640235 
1994.000000	64.641928 
1993.000000	64.647006 
1992.000000	64.655256 
1991.000000	64.665913 
1990.000000	64.677596 
1989.000000	64.688634 
1988.000000	64.697217 
1987.000000	64.701867 
1986.000000	64.701747 
1985.000000	64.696621 
1984.000000	64.686918 
1983.000000	64.673638 
1982.000000	64.658164 
1981.000000	64.642238 
1980.000000	64.627504 
1979.000000	64.615392 
1978.000000	64.606857 
1977.000000	64.602398 
1976.000000	64.601969 
1975.000000	64.604902 
1974.000000	64.610099 
1973.000000	64.616370 
1972.000000	64.622497 
1971.000000	64.627408 
1970.000000	64.630436 
1969.000000	64.631199 
1968.000000	64.629769 
1967.000000	64.626336 
1966.000000	64.621138 
1965.000000	64.614415 
1964.000000	64.606213 
1963.000000	64.596605 
1962.000000	64.585804 
1961.000000	64.574027 
1960.000000	64.561915 
1959.000000	64.550304 
1958.000000	64.540100 
1957.000000	64.532065 
1956.000000	64.526844 
1955.000000	64.524674 
1954.000000	64.525341 
1953.000000	64.528393 
1952.000000	64.533066 
1951.000000	64.538836 
1950.000000	64.545392 
1949.000000	64.552807 
1948.000000	64.561271 
1947.000000	64.571189 
1946.000000	64.582920 
1945.000000	64.596486 
1944.000000	64.611482 
1943.000000	64.627194 
1942.000000	64.642596 
1941.000000	64.656376 
1940.000000	64.667296 
1939.000000	64.674282 
1938.000000	64.676737 
1937.000000	64.674329 
1936.000000	64.667248 
1935.000000	64.655876 
1934.000000	64.640974 
1933.000000	64.623570 
1932.000000	64.604735 
1931.000000	64.585614 
1930.000000	64.567399 
1929.000000	64.551234 
1928.000000	64.538168 
1927.000000	64.529013 
1926.000000	64.524388 
1925.000000	64.524507 
1924.000000	64.529228 
1923.000000	64.537906 
1922.000000	64.549493 
1921.000000	64.562678 
1920.000000	64.576029 
1919.000000	64.588046 
1918.000000	64.597654 
1917.000000	64.604115 
1916.000000	64.607286 
1915.000000	64.607405 
1914.000000	64.605283 
1913.000000	64.602136 
1912.000000	64.599251 
1911.000000	64.597725 
1910.000000	64.598321 
1909.000000	64.601230 
1908.000000	64.606237 
1907.000000	64.612507 
1906.000000	64.618921 
1905.000000	64.624285 
1904.000000	64.627504 
1903.000000	64.628052 
1902.000000	64.625692 
1901.000000	64.620661 
1900.000000	64.613556 
1899.000000	64.605069 
1898.000000	64.595913 
1897.000000	64.586329 
1896.000000	64.576530 
1895.000000	64.566516 
1894.000000	64.556264 
1893.000000	64.546060 
1892.000000	64.536356 
1891.000000	64.528036 
1890.000000	64.521813 
1889.000000	64.518451 
1888.000000	64.518189 
1887.000000	64.520859 
1886.000000	64.525580 
1885.000000	64.531230 
1884.000000	64.536404 
1883.000000	64.539957 
1882.000000	64.541196 
1881.000000	64.540076 
1880.000000	64.537143 
1879.000000	64.533615 
1878.000000	64.530849 
1877.000000	64.530110 
1876.000000	64.532279 
1875.000000	64.537668 
1874.000000	64.545989 
1873.000000	64.556384 
1872.000000	64.567708 
1871.000000	64.578676 
1870.000000	64.588093 
1869.000000	64.595031 
1868.000000	64.599061 
1867.000000	64.600181 
1866.000000	64.598917 
1865.000000	64.595842 
1864.000000	64.591908 
1863.000000	64.588046 
1862.000000	64.585065 
1861.000000	64.583563 
1860.000000	64.583873 
1859.000000	64.585947 
1858.000000	64.589357 
1857.000000	64.593601 
1856.000000	64.597892 
1855.000000	64.601421 
1854.000000	64.603424 
1853.000000	64.603400 
1852.000000	64.601087 
1851.000000	64.596509 
1850.000000	64.590096 
1849.000000	64.582347 
1848.000000	64.573979 
1847.000000	64.565658 
1846.000000	64.557909 
1845.000000	64.550971 
1844.000000	64.544844 
1843.000000	64.539122 
1842.000000	64.533329 
1841.000000	64.526748 
1840.000000	64.518713 
1839.000000	64.508938 
1838.000000	64.497303 
1837.000000	64.484262 
1836.000000	64.470553 
1835.000000	64.457464 
1834.000000	64.446377 
1833.000000	64.438867 
1832.000000	64.436101 
1831.000000	64.438867 
1830.000000	64.447164 
1829.000000	64.460325 
1828.000000	64.476847 
1827.000000	64.494657 
1826.000000	64.511466 
1825.000000	64.525079 
1824.000000	64.533710 
1823.000000	64.536333 
1822.000000	64.532804 
1821.000000	64.523720 
1820.000000	64.510488 
1819.000000	64.494800 
1818.000000	64.478516 
1817.000000	64.463281 
1816.000000	64.450263 
1815.000000	64.440274 
1814.000000	64.433598 
1813.000000	64.430284 
1812.000000	64.430117 
1811.000000	64.432740 
1810.000000	64.437937 
1809.000000	64.445161 
1808.000000	64.453983 
1807.000000	64.463591 
1806.000000	64.473342 
1805.000000	64.482426 
1804.000000	64.490222 
1803.000000	64.496326 
1802.000000	64.500546 
1801.000000	64.502978 
1800.000000	64.504075 
1799.000000	64.504265 
1798.000000	64.504146 
1797.000000	64.504122 
1796.000000	64.504408 
1795.000000	64.504981 
1794.000000	64.505648 
1793.000000	64.506173 
1792.000000	64.506125 
1791.000000	64.505124 
1790.000000	64.502716 
1789.000000	64.498615 
1788.000000	64.492654 
1787.000000	64.484763 
1786.000000	64.475226 
1785.000000	64.464306 
1784.000000	64.452648 
1783.000000	64.440917 
1782.000000	64.429688 
1781.000000	64.419174 
1780.000000	64.409375 
1779.000000	64.400100 
1778.000000	64.391183 
1777.000000	64.382624 
1776.000000	64.374518 
1775.000000	64.367461 
1774.000000	64.362335 
1773.000000	64.360237 
1772.000000	64.362001 
1771.000000	64.368247 
1770.000000	64.378905 
1769.000000	64.393353 
1768.000000	64.410042 
1767.000000	64.427113 
1766.000000	64.442348 
1765.000000	64.453601 
1764.000000	64.459300 
1763.000000	64.458608 
1762.000000	64.451622 
1761.000000	64.439630 
1760.000000	64.424633 
1759.000000	64.409351 
1758.000000	64.396405 
1757.000000	64.388108 
1756.000000	64.385533 
1755.000000	64.388251 
1754.000000	64.394235 
1753.000000	64.400386 
1752.000000	64.402961 
1751.000000	64.398550 
1750.000000	64.384913 
1749.000000	64.361596 
1748.000000	64.330124 
1747.000000	64.293360 
1746.000000	64.255070 
1745.000000	64.219117 
1744.000000	64.188623 
1743.000000	64.165401 
1742.000000	64.149832 
1741.000000	64.141154 
1740.000000	64.137792 
1739.000000	64.138174 
1738.000000	64.140796 
1737.000000	64.144873 
1736.000000	64.149904 
1735.000000	64.156126 
1734.000000	64.163517 
1733.000000	64.172124 
1732.000000	64.181685 
1731.000000	64.191913 
1730.000000	64.202380 
1729.000000	64.212870 
1728.000000	64.223051 
1727.000000	64.232945 
1726.000000	64.242577 
1725.000000	64.252376 
1724.000000	64.262652 
1723.000000	64.273905 
1722.000000	64.286494 
1721.000000	64.300489 
1720.000000	64.315652 
1719.000000	64.331269 
1718.000000	64.346241 
1717.000000	64.359188 
1716.000000	64.368700 
1715.000000	64.373683 
1714.000000	64.373779 
1713.000000	64.369297 
1712.000000	64.361166 
1711.000000	64.350819 
1710.000000	64.340090 
1709.000000	64.330387 
1708.000000	64.322638 
1707.000000	64.317083 
1706.000000	64.313507 
1705.000000	64.311289 
1704.000000	64.309906 
1703.000000	64.309048 
1702.000000	64.308762 
1701.000000	64.309144 
1700.000000	64.310050 
1699.000000	64.310932 
1698.000000	64.311003 
1697.000000	64.309072 
1696.000000	64.304089 
1695.000000	64.295387 
1694.000000	64.283227 
1693.000000	64.268970 
1692.000000	64.254808 
1691.000000	64.243412 
1690.000000	64.237356 
1689.000000	64.238643 
1688.000000	64.247894 
1687.000000	64.264154 
1686.000000	64.285135 
1685.000000	64.307594 
1684.000000	64.328098 
1683.000000	64.343786 
1682.000000	64.352917 
1681.000000	64.355301 
1680.000000	64.352273 
1679.000000	64.346194 
1678.000000	64.339685 
1677.000000	64.334869 
1676.000000	64.333271 
1675.000000	64.335155 
1674.000000	64.339756 
1673.000000	64.345574 
1672.000000	64.350843 
1671.000000	64.354038 
1670.000000	64.354252 
1669.000000	64.351224 
1668.000000	64.345359 
1667.000000	64.337372 
1666.000000	64.327979 
1665.000000	64.317703 
1664.000000	64.306712 
1663.000000	64.294910 
1662.000000	64.282202 
1661.000000	64.268589 
1660.000000	64.254307 
1659.000000	64.239883 
1658.000000	64.226102 
1657.000000	64.213728 
1656.000000	64.203739 
1655.000000	64.197087 
1654.000000	64.194893 
1653.000000	64.198040 
1652.000000	64.207172 
1651.000000	64.222431 
1650.000000	64.243149 
1649.000000	64.267730 
1648.000000	64.293694 
1647.000000	64.317917 
1646.000000	64.337062 
1645.000000	64.348459 
1644.000000	64.350461 
1643.000000	64.342832 
1642.000000	64.326858 
1641.000000	64.305210 
1640.000000	64.281320 
1639.000000	64.258623 
1638.000000	64.239907 
1637.000000	64.226818 
1636.000000	64.219737 
1635.000000	64.217805 
1634.000000	64.219450 
1633.000000	64.222836 
1632.000000	64.226078 
1631.000000	64.227747 
1630.000000	64.226698 
1629.000000	64.222264 
1628.000000	64.214062 
1627.000000	64.202141 
1626.000000	64.186835 
1625.000000	64.168882 
1624.000000	64.149641 
1623.000000	64.130878 
1622.000000	64.114880 
1621.000000	64.103889 
1620.000000	64.099860 
1619.000000	64.103937 
1618.000000	64.116120 
1617.000000	64.135169 
1616.000000	64.158630 
1615.000000	64.183473 
1614.000000	64.206528 
1613.000000	64.225292 
1612.000000	64.238548 
1611.000000	64.246320 
1610.000000	64.249849 
1609.000000	64.250969 
1608.000000	64.251661 
1607.000000	64.253211 
1606.000000	64.256024 
1605.000000	64.259481 
1604.000000	64.262104 
1603.000000	64.262366 
1602.000000	64.259099 
1601.000000	64.252066 
1600.000000	64.242076 
1599.000000	64.230799 
1598.000000	64.220285 
1597.000000	64.212298 
1596.000000	64.207935 
1595.000000	64.207363 
1594.000000	64.209818 
1593.000000	64.214038 
1592.000000	64.218807 
1591.000000	64.223337 
1590.000000	64.227318 
1589.000000	64.230942 
1588.000000	64.234495 
1587.000000	64.237976 
1586.000000	64.240813 
1585.000000	64.241743 
1584.000000	64.239215 
1583.000000	64.231657 
1582.000000	64.218282 
1581.000000	64.199376 
1580.000000	64.176535 
1579.000000	64.152503 
1578.000000	64.130496 
1577.000000	64.113593 
1576.000000	64.104008 
1575.000000	64.102625 
1574.000000	64.108872 
1573.000000	64.121031 
1572.000000	64.136648 
1571.000000	64.153146 
1570.000000	64.168381 
1569.000000	64.180946 
1568.000000	64.190196 
1567.000000	64.196181 
1566.000000	64.199209 
1565.000000	64.199876 
1564.000000	64.198660 
1563.000000	64.196133 
1562.000000	64.192819 
1561.000000	64.189338 
1560.000000	64.186525 
1559.000000	64.185023 
1558.000000	64.185261 
1557.000000	64.187097 
1556.000000	64.189982 
1555.000000	64.192914 
1554.000000	64.194750 
1553.000000	64.194655 
1552.000000	64.192128 
1551.000000	64.187169 
1550.000000	64.180207 
1549.000000	64.171886 
1548.000000	64.163041 
1547.000000	64.154338 
1546.000000	64.146399 
1545.000000	64.139747 
1544.000000	64.134955 
1543.000000	64.132404 
1542.000000	64.132428 
1541.000000	64.135241 
1540.000000	64.140725 
1539.000000	64.148449 
1538.000000	64.157700 
1537.000000	64.167237 
1536.000000	64.175772 
1535.000000	64.182209 
1534.000000	64.185953 
1533.000000	64.186811 
1532.000000	64.185070 
1531.000000	64.181447 
1530.000000	64.176821 
1529.000000	64.171934 
1528.000000	64.167571 
1527.000000	64.164447 
1526.000000	64.163327 
1525.000000	64.164829 
1524.000000	64.169359 
1523.000000	64.177036 
1522.000000	64.187502 
1521.000000	64.199924 
1520.000000	64.213252 
1519.000000	64.226317 
1518.000000	64.238023 
1517.000000	64.247775 
1516.000000	64.255142 
1515.000000	64.260268 
1514.000000	64.263725 
1513.000000	64.266300 
1512.000000	64.268732 
1511.000000	64.271450 
1510.000000	64.274740 
1509.000000	64.278244 
1508.000000	64.281225 
1507.000000	64.282488 
1506.000000	64.280700 
1505.000000	64.274573 
1504.000000	64.263224 
1503.000000	64.246249 
1502.000000	64.224219 
1501.000000	64.198660 
1500.000000	64.171862 
1499.000000	64.146637 
1498.000000	64.125800 
1497.000000	64.111375 
1496.000000	64.104294 
1495.000000	64.103841 
1494.000000	64.108347 
1493.000000	64.115452 
1492.000000	64.123034 
1491.000000	64.129662 
1490.000000	64.135193 
1489.000000	64.140534 
1488.000000	64.147496 
1487.000000	64.157724 
1486.000000	64.172410 
1485.000000	64.191794 
1484.000000	64.214873 
1483.000000	64.239668 
1482.000000	64.263367 
1481.000000	64.282965 
1480.000000	64.295816 
1479.000000	64.300322 
1478.000000	64.296102 
1477.000000	64.284348 
1476.000000	64.267325 
1475.000000	64.248013 
1474.000000	64.229464 
1473.000000	64.214158 
1472.000000	64.203572 
1471.000000	64.198160 
1470.000000	64.197540 
1469.000000	64.200758 
1468.000000	64.206814 
1467.000000	64.214658 
1466.000000	64.223432 
1465.000000	64.232254 
1464.000000	64.240169 
1463.000000	64.246106 
1462.000000	64.249014 
1461.000000	64.247798 
1460.000000	64.241838 
1459.000000	64.231085 
1458.000000	64.216542 
1457.000000	64.199852 
1456.000000	64.183306 
1455.000000	64.169001 
1454.000000	64.158391 
1453.000000	64.151954 
1452.000000	64.149045 
1451.000000	64.148378 
1450.000000	64.148306 
1449.000000	64.147520 
1448.000000	64.145302 
1447.000000	64.141798 
1446.000000	64.137673 
1445.000000	64.133810 
1444.000000	64.130830 
1443.000000	64.129114 
1442.000000	64.128494 
1441.000000	64.128684 
1440.000000	64.129090 
1439.000000	64.129281 
1438.000000	64.128923 
1437.000000	64.127779 
1436.000000	64.125776 
1435.000000	64.122724 
1434.000000	64.118647 
1433.000000	64.113354 
1432.000000	64.107012 
1431.000000	64.100146 
1430.000000	64.093828 
1429.000000	64.089512 
1428.000000	64.088964 
1427.000000	64.093804 
1426.000000	64.105010 
1425.000000	64.122653 
1424.000000	64.145541 
1423.000000	64.171409 
1422.000000	64.197063 
1421.000000	64.219164 
1420.000000	64.234733 
1419.000000	64.241600 
1418.000000	64.238762 
1417.000000	64.226603 
1416.000000	64.206790 
1415.000000	64.181900 
1414.000000	64.154958 
1413.000000	64.128971 
1412.000000	64.106440 
1411.000000	64.088940 
1410.000000	64.077210 
1409.000000	64.070987 
1408.000000	64.069271 
1407.000000	64.070606 
1406.000000	64.073324 
1405.000000	64.076113 
1404.000000	64.077758 
1403.000000	64.077854 
1402.000000	64.076328 
1401.000000	64.073872 
1400.000000	64.071440 
1399.000000	64.070081 
1398.000000	64.070796 
1397.000000	64.074063 
1396.000000	64.079856 
1395.000000	64.087438 
1394.000000	64.095568 
1393.000000	64.102721 
1392.000000	64.107394 
1391.000000	64.108538 
1390.000000	64.105772 
1389.000000	64.099621 
1388.000000	64.091324 
1387.000000	64.082622 
1386.000000	64.075446 
1385.000000	64.071154 
1384.000000	64.070677 
1383.000000	64.073848 
1382.000000	64.079809 
1381.000000	64.087295 
1380.000000	64.094901 
1379.000000	64.101648 
1378.000000	64.106941 
1377.000000	64.110589 
1376.000000	64.112758 
1375.000000	64.113593 
1374.000000	64.113235 
1373.000000	64.111566 
1372.000000	64.108395 
1371.000000	64.103531 
1370.000000	64.096856 
1369.000000	64.088749 
1368.000000	64.080047 
1367.000000	64.072012 
1366.000000	64.066290 
1365.000000	64.064383 
1364.000000	64.067602 
1363.000000	64.076471 
1362.000000	64.090418 
1361.000000	64.107775 
1360.000000	64.125943 
1359.000000	64.141654 
1358.000000	64.151620 
1357.000000	64.153170 
1356.000000	64.144849 
1355.000000	64.126968 
1354.000000	64.101552 
1353.000000	64.072132 
1352.000000	64.043140 
1351.000000	64.018797 
1350.000000	64.002275 
1349.000000	63.994956 
1348.000000	63.996243 
1347.000000	64.003777 
1346.000000	64.014291 
1345.000000	64.024424 
1344.000000	64.031648 
1343.000000	64.034748 
1342.000000	64.033985 
1341.000000	64.030838 
1340.000000	64.027333 
1339.000000	64.025378 
1338.000000	64.026188 
1337.000000	64.029884 
1336.000000	64.035820 
1335.000000	64.042687 
1334.000000	64.049196 
1333.000000	64.054536 
1332.000000	64.058613 
1331.000000	64.062142 
1330.000000	64.066052 
1329.000000	64.071464 
1328.000000	64.078927 
1327.000000	64.088320 
1326.000000	64.098763 
1325.000000	64.108872 
1324.000000	64.116954 
1323.000000	64.121651 
1322.000000	64.122152 
1321.000000	64.118623 
1320.000000	64.111876 
1319.000000	64.103317 
1318.000000	64.094614 
1317.000000	64.087271 
1316.000000	64.082217 
1315.000000	64.079689 
1314.000000	64.079093 
1313.000000	64.079284 
1312.000000	64.078903 
1311.000000	64.076662 
1310.000000	64.071774 
1309.000000	64.064121 
1308.000000	64.054560 
1307.000000	64.044690 
1306.000000	64.036655 
1305.000000	64.032506 
1304.000000	64.033794 
1303.000000	64.041018 
1302.000000	64.053368 
1301.000000	64.068937 
1300.000000	64.085006 
1299.000000	64.098668 
1298.000000	64.107489 
1297.000000	64.109921 
1296.000000	64.105653 
1295.000000	64.095664 
1294.000000	64.081764 
1293.000000	64.066290 
1292.000000	64.051628 
1291.000000	64.039683 
1290.000000	64.031553 
1289.000000	64.027357 
1288.000000	64.026522 
1287.000000	64.027810 
1286.000000	64.029860 
1285.000000	64.031434 
1284.000000	64.031696 
1283.000000	64.030385 
1282.000000	64.027738 
1281.000000	64.024400 
1280.000000	64.021301 
1279.000000	64.019417 
1278.000000	64.019465 
1277.000000	64.021873 
1276.000000	64.026689 
1275.000000	64.033579 
1274.000000	64.041924 
1273.000000	64.050793 
1272.000000	64.059114 
1271.000000	64.065933 
1270.000000	64.070343 
1269.000000	64.071607 
1268.000000	64.069151 
1267.000000	64.062666 
1266.000000	64.052104 
1265.000000	64.037871 
1264.000000	64.020586 
1263.000000	64.001250 
1262.000000	63.980817 
1261.000000	63.960146 
1260.000000	63.939857 
1259.000000	63.920521 
1258.000000	63.902735 
1257.000000	63.887047 
1256.000000	63.874125 
1255.000000	63.864588 
1254.000000	63.858938 
1253.000000	63.857269 
1252.000000	63.859057 
1251.000000	63.863396 
1250.000000	63.869023 
1249.000000	63.874793 
1248.000000	63.879752 
1247.000000	63.883447 
1246.000000	63.885927 
1245.000000	63.887333 
1244.000000	63.887882 
1243.000000	63.887572 
1242.000000	63.885998 
1241.000000	63.882493 
1240.000000	63.876342 
1239.000000	63.867282 
1238.000000	63.855624 
1237.000000	63.842606 
1236.000000	63.830208 
1235.000000	63.820886 
1234.000000	63.816809 
1233.000000	63.819456 
1232.000000	63.829255 
1231.000000	63.845252 
1230.000000	63.865232 
1229.000000	63.886165 
1228.000000	63.905000 
1227.000000	63.918924 
1226.000000	63.926029 
1225.000000	63.925290 
1224.000000	63.916993 
1223.000000	63.902211 
1222.000000	63.882732 
1221.000000	63.860678 
1220.000000	63.838362 
1219.000000	63.818216 
1218.000000	63.802170 
1217.000000	63.791990 
1216.000000	63.788890 
1215.000000	63.793301 
1214.000000	63.805031 
1213.000000	63.822960 
1212.000000	63.845491 
1211.000000	63.870501 
1210.000000	63.895988 
1209.000000	63.920116 
1208.000000	63.941621 
1207.000000	63.959765 
1206.000000	63.974428 
1205.000000	63.985657 
1204.000000	63.993573 
1203.000000	63.997840 
1202.000000	63.997983 
1201.000000	63.993406 
1200.000000	63.983702 
1199.000000	63.969087 
1198.000000	63.950371 
1197.000000	63.929104 
1196.000000	63.907527 
1195.000000	63.888072 
1194.000000	63.872694 
1193.000000	63.862562 
1192.000000	63.857984 
1191.000000	63.858318 
1190.000000	63.862109 
1189.000000	63.867855 
1188.000000	63.874101 
1187.000000	63.880038 
1186.000000	63.885211 
1185.000000	63.889837 
1184.000000	63.894200 
1183.000000	63.898801 
1182.000000	63.903689 
1181.000000	63.908958 
1180.000000	63.914632 
1179.000000	63.920831 
1178.000000	63.927769 
1177.000000	63.935685 
1176.000000	63.944649 
1175.000000	63.954281 
1174.000000	63.963675 
1173.000000	63.971185 
1172.000000	63.974809 
1171.000000	63.972616 
1170.000000	63.963270 
1169.000000	63.946247 
1168.000000	63.922119 
1167.000000	63.892793 
1166.000000	63.861083 
1165.000000	63.830018 
1164.000000	63.802289 
1163.000000	63.780117 
1162.000000	63.764572 
1161.000000	63.755750 
1160.000000	63.752841 
1159.000000	63.754320 
1158.000000	63.758420 
1157.000000	63.763260 
1156.000000	63.767313 
1155.000000	63.769006 
1154.000000	63.767623 
1153.000000	63.762950 
1152.000000	63.755631 
1151.000000	63.746881 
1150.000000	63.738393 
1149.000000	63.732075 
1148.000000	63.729548 
1147.000000	63.732004 
1146.000000	63.739919 
1145.000000	63.753080 
1144.000000	63.770556 
1143.000000	63.790941 
1142.000000	63.812732 
1141.000000	63.834428 
1140.000000	63.854885 
1139.000000	63.873219 
1138.000000	63.888883 
1137.000000	63.901138 
1136.000000	63.909554 
1135.000000	63.913321 
1134.000000	63.911604 
1133.000000	63.903379 
1132.000000	63.888287 
1131.000000	63.866567 
1130.000000	63.839268 
1129.000000	63.808274 
1128.000000	63.776302 
1127.000000	63.746237 
1126.000000	63.720846 
1125.000000	63.702034 
1124.000000	63.690543 
1123.000000	63.685941 
1122.000000	63.686943 
1121.000000	63.691473 
1120.000000	63.697290 
1119.000000	63.702702 
1118.000000	63.706874 
1117.000000	63.709831 
1116.000000	63.712525 
1115.000000	63.716387 
1114.000000	63.723087 
1113.000000	63.733792 
1112.000000	63.749051 
1111.000000	63.768792 
1110.000000	63.792133 
1109.000000	63.817691 
1108.000000	63.843798 
1107.000000	63.868737 
1106.000000	63.890981 
1105.000000	63.909435 
1104.000000	63.923382 
1103.000000	63.932800 
1102.000000	63.938021 
1101.000000	63.939642 
1100.000000	63.937997 
1099.000000	63.933157 
1098.000000	63.924694 
1097.000000	63.912034 
1096.000000	63.894414 
1095.000000	63.871526 
1094.000000	63.843703 
1093.000000	63.812279 
1092.000000	63.779377 
1091.000000	63.747596 
1090.000000	63.719511 
1089.000000	63.697195 
1088.000000	63.681769 
1087.000000	63.673639 
1086.000000	63.672113 
1085.000000	63.676238 
1084.000000	63.685178 
1083.000000	63.698482 
1082.000000	63.716268 
1081.000000	63.738751 
1080.000000	63.765692 
1079.000000	63.796019 
1078.000000	63.827538 
1077.000000	63.857197 
1076.000000	63.881468 
1075.000000	63.897156 
1074.000000	63.902235 
1073.000000	63.896226 
1072.000000	63.880467 
1071.000000	63.857817 
1070.000000	63.831877 
1069.000000	63.806414 
1068.000000	63.784527 
1067.000000	63.768219 
1066.000000	63.758254 
1065.000000	63.754129 
1064.000000	63.754844 
1063.000000	63.758969 
1062.000000	63.765120 
1061.000000	63.772010 
1060.000000	63.778710 
1059.000000	63.784551 
1058.000000	63.789415 
1057.000000	63.793587 
1056.000000	63.798117 
1055.000000	63.804674 
1054.000000	63.815021 
1053.000000	63.830780 
1052.000000	63.852643 
1051.000000	63.880157 
1050.000000	63.911366 
1049.000000	63.943290 
1048.000000	63.972163 
1047.000000	63.994336 
1046.000000	64.006638 
1045.000000	64.007329 
1044.000000	63.996124 
1043.000000	63.974237 
1042.000000	63.943958 
1041.000000	63.908147 
1040.000000	63.869690 
1039.000000	63.831114 
1038.000000	63.794207 
1037.000000	63.760137 
1036.000000	63.729667 
1035.000000	63.703560 
1034.000000	63.682699 
1033.000000	63.668417 
1032.000000	63.661861 
1031.000000	63.664317 
1030.000000	63.676357 
1029.000000	63.697886 
1028.000000	63.727498 
1027.000000	63.762497 
1026.000000	63.799333 
1025.000000	63.834047 
1024.000000	63.862800 
1023.000000	63.882660 
1022.000000	63.892006 
1021.000000	63.891005 
1020.000000	63.881468 
1019.000000	63.866472 
1018.000000	63.849782 
1017.000000	63.835000 
1016.000000	63.825082 
1015.000000	63.821816 
1014.000000	63.825654 
1013.000000	63.835763 
1012.000000	63.850450 
1011.000000	63.867163 
1010.000000	63.883256 
1009.000000	63.896393 
1008.000000	63.904833 
1007.000000	63.907694 
1006.000000	63.905167 
1005.000000	63.898062 
1004.000000	63.887882 
1003.000000	63.876175 
1002.000000	63.864660 
1001.000000	63.854575 
1000.000000	63.847041 
999.000000	 63.842940 
998.000000	 63.843059 
997.000000	 63.848185 
996.000000	 63.858771 
995.000000	 63.875102 
994.000000	 63.896846 
993.000000	 63.922691 
992.000000	 63.950538 
991.000000	 63.977599 
990.000000	 64.000964 
989.000000	 64.017891 
988.000000	 64.026618 
987.000000	 64.026880 
986.000000	 64.019823 
985.000000	 64.007735 
984.000000	 63.993191 
983.000000	 63.978219 
982.000000	 63.963890 
981.000000	 63.949990 
980.000000	 63.935375 
979.000000	 63.918304 
978.000000	 63.897514 
977.000000	 63.872408 
976.000000	 63.843822 
975.000000	 63.813567 
974.000000	 63.784193 
973.000000	 63.758301 
972.000000	 63.737964 
971.000000	 63.724231 
970.000000	 63.717007 
969.000000	 63.714861 
968.000000	 63.715553 
967.000000	 63.716173 
966.000000	 63.714170 
965.000000	 63.707399 
964.000000	 63.694500 
963.000000	 63.675379 
962.000000	 63.651037 
961.000000	 63.623738 
960.000000	 63.596415 
959.000000	 63.572716 
958.000000	 63.555908 
957.000000	 63.548445 
956.000000	 63.551282 
955.000000	 63.563609 
954.000000	 63.582897 
953.000000	 63.605260 
952.000000	 63.626313 
951.000000	 63.642215 
950.000000	 63.650441 
949.000000	 63.649749 
948.000000	 63.640761 
947.000000	 63.625407 
946.000000	 63.606619 
945.000000	 63.587355 
944.000000	 63.570141 
943.000000	 63.556766 
942.000000	 63.548088 
941.000000	 63.543939 
940.000000	 63.543844 
939.000000	 63.547253 
938.000000	 63.554024 
937.000000	 63.564324 
936.000000	 63.578796 
935.000000	 63.597917 
934.000000	 63.621807 
933.000000	 63.649821 
932.000000	 63.680291 
931.000000	 63.710737 
930.000000	 63.738393 
929.000000	 63.760590 
928.000000	 63.775634 
927.000000	 63.783025 
926.000000	 63.783764 
925.000000	 63.779973 
924.000000	 63.774728 
923.000000	 63.770723 
922.000000	 63.769888 
921.000000	 63.772439 
920.000000	 63.777422 
919.000000	 63.782691 
918.000000	 63.785862 
917.000000	 63.784909 
916.000000	 63.779187 
915.000000	 63.769435 
914.000000	 63.757586 
913.000000	 63.746261 
912.000000	 63.738083 
911.000000	 63.734984 
910.000000	 63.737750 
909.000000	 63.745784 
908.000000	 63.757324 
907.000000	 63.769745 
906.000000	 63.780355 
905.000000	 63.786506 
904.000000	 63.786363 
903.000000	 63.779211 
902.000000	 63.765716 
901.000000	 63.747549 
900.000000	 63.727402 
899.000000	 63.708758 
898.000000	 63.695359 
897.000000	 63.690710 
896.000000	 63.697433 
895.000000	 63.717126 
894.000000	 63.749575 
893.000000	 63.793039 
892.000000	 63.844084 
891.000000	 63.898110 
890.000000	 63.950014 
889.000000	 63.994789 
888.000000	 64.028310 
887.000000	 64.047694 
886.000000	 64.051795 
885.000000	 64.041185 
884.000000	 64.017939 
883.000000	 63.985228 
882.000000	 63.946580 
881.000000	 63.905644 
880.000000	 63.865184 
879.000000	 63.826870 
878.000000	 63.791203 
877.000000	 63.757920 
876.000000	 63.726329 
875.000000	 63.695955 
874.000000	 63.666772 
873.000000	 63.639664 
872.000000	 63.616132 
871.000000	 63.598203 
870.000000	 63.587450 
869.000000	 63.584876 
868.000000	 63.590383 
867.000000	 63.602805 
866.000000	 63.620018 
865.000000	 63.639259 
864.000000	 63.657689 
863.000000	 63.672947 
862.000000	 63.683390 
861.000000	 63.688397 
860.000000	 63.688325 
859.000000	 63.684368 
858.000000	 63.677883 
857.000000	 63.670134 
856.000000	 63.661885 
855.000000	 63.653397 
854.000000	 63.644599 
853.000000	 63.635587 
852.000000	 63.626646 
851.000000	 63.618755 
850.000000	 63.613390 
849.000000	 63.612103 
848.000000	 63.616061 
847.000000	 63.625621 
846.000000	 63.640046 
845.000000	 63.657402 
844.000000	 63.675117 
843.000000	 63.690447 
842.000000	 63.701295 
841.000000	 63.706755 
840.000000	 63.707208 
839.000000	 63.704276 
838.000000	 63.700199 
837.000000	 63.697004 
836.000000	 63.696455 
835.000000	 63.699150 
834.000000	 63.705277 
833.000000	 63.714694 
832.000000	 63.727331 
831.000000	 63.743567 
830.000000	 63.763928 
829.000000	 63.788962 
828.000000	 63.818526 
827.000000	 63.851356 
826.000000	 63.885021 
825.000000	 63.916134 
824.000000	 63.941097 
823.000000	 63.956952 
822.000000	 63.961887 
821.000000	 63.955569 
820.000000	 63.939523 
819.000000	 63.916349 
818.000000	 63.889241 
817.000000	 63.861060 
816.000000	 63.833808 
815.000000	 63.808345 
814.000000	 63.784432 
813.000000	 63.761162 
812.000000	 63.737702 
811.000000	 63.713550 
810.000000	 63.689303 
809.000000	 63.666391 
808.000000	 63.646316 
807.000000	 63.630628 
806.000000	 63.619804 
805.000000	 63.613414 
804.000000	 63.609862 
803.000000	 63.607168 
802.000000	 63.603329 
801.000000	 63.597512 
800.000000	 63.590097 
799.000000	 63.583111 
798.000000	 63.579678 
797.000000	 63.583040 
796.000000	 63.595533 
795.000000	 63.617777 
794.000000	 63.648080 
793.000000	 63.682699 
792.000000	 63.716697 
791.000000	 63.745546 
790.000000	 63.766074 
789.000000	 63.777256 
788.000000	 63.780164 
787.000000	 63.777041 
786.000000	 63.770461 
785.000000	 63.761925 
784.000000	 63.751792 
783.000000	 63.739180 
782.000000	 63.722753 
781.000000	 63.701558 
780.000000	 63.675951 
779.000000	 63.648080 
778.000000	 63.621592 
777.000000	 63.600873 
776.000000	 63.590025 
775.000000	 63.591623 
774.000000	 63.606047 
773.000000	 63.631248 
772.000000	 63.663315 
771.000000	 63.697290 
770.000000	 63.728404 
769.000000	 63.753080 
768.000000	 63.769388 
767.000000	 63.777089 
766.000000	 63.777327 
765.000000	 63.771915 
764.000000	 63.763022 
763.000000	 63.752102 
762.000000	 63.740348 
761.000000	 63.727712 
760.000000	 63.713836 
759.000000	 63.697290 
758.000000	 63.676714 
757.000000	 63.650894 
756.000000	 63.618969 
755.000000	 63.581085 
754.000000	 63.538241 
753.000000	 63.492631 
752.000000	 63.447070 
751.000000	 63.404870 
750.000000	 63.369154 
749.000000	 63.342595 
748.000000	 63.326954 
747.000000	 63.322782 
746.000000	 63.329148 
745.000000	 63.344097 
744.000000	 63.364696 
743.000000	 63.387894 
742.000000	 63.410735 
741.000000	 63.430976 
740.000000	 63.447451 
739.000000	 63.459968 
738.000000	 63.469028 
737.000000	 63.475656 
736.000000	 63.480949 
735.000000	 63.485765 
734.000000	 63.490605 
733.000000	 63.496088 
732.000000	 63.502597 
731.000000	 63.511109 
730.000000	 63.522219 
729.000000	 63.536643 
728.000000	 63.553905 
727.000000	 63.573074 
726.000000	 63.591647 
725.000000	 63.606286 
724.000000	 63.613057 
723.000000	 63.608670 
722.000000	 63.591003 
721.000000	 63.559579 
720.000000	 63.516354 
719.000000	 63.465714 
718.000000	 63.413858 
717.000000	 63.367533 
716.000000	 63.333010 
715.000000	 63.314604 
714.000000	 63.313889 
713.000000	 63.329291 
712.000000	 63.356232 
711.000000	 63.388156 
710.000000	 63.417935 
709.000000	 63.439655 
708.000000	 63.449454 
707.000000	 63.446497 
706.000000	 63.432502 
705.000000	 63.411378 
704.000000	 63.387799 
703.000000	 63.366055 
702.000000	 63.349151 
701.000000	 63.338565 
700.000000	 63.334083 
699.000000	 63.334655 
698.000000	 63.339352 
697.000000	 63.347887 
696.000000	 63.360571 
695.000000	 63.378763 
694.000000	 63.404297 
693.000000	 63.438153 
692.000000	 63.479423 
691.000000	 63.524866 
690.000000	 63.568973 
689.000000	 63.605141 
688.000000	 63.627314 
687.000000	 63.631510 
686.000000	 63.617110 
685.000000	 63.587951 
684.000000	 63.551425 
683.000000	 63.516473 
682.000000	 63.491463 
681.000000	 63.482332 
680.000000	 63.491201 
679.000000	 63.516449 
678.000000	 63.553237 
677.000000	 63.595318 
676.000000	 63.636350 
675.000000	 63.671970 
674.000000	 63.699293 
673.000000	 63.717126 
672.000000	 63.724613 
671.000000	 63.720393 
670.000000	 63.702249 
669.000000	 63.667321 
668.000000	 63.613438 
667.000000	 63.540315 
666.000000	 63.451337 
665.000000	 63.353896 
664.000000	 63.259434 
663.000000	 63.181900 
662.000000	 63.134217 
661.000000	 63.125467 
660.000000	 63.159060 
659.000000	 63.231468 
658.000000	 63.332772 
657.000000	 63.448452 
656.000000	 63.563084 
655.000000	 63.662886 
654.000000	 63.738775 
653.000000	 63.786578 
652.000000	 63.805747 
651.000000	 63.798618 
650.000000	 63.768529 
649.000000	 63.719201 
648.000000	 63.653898 
647.000000	 63.576245 
646.000000	 63.491010 
645.000000	 63.404417 
644.000000	 63.325691 
643.000000	 63.263678 
642.000000	 63.226032 
641.000000	 63.215970 
640.000000	 63.231873 
639.000000	 63.265466 
638.000000	 63.303518 
637.000000	 63.330316 
636.000000	 63.331508 
635.000000	 63.297581 
634.000000	 63.226580 
633.000000	 63.124442 
632.000000	 63.004422 
631.000000	 62.884306 
630.000000	 62.783575 
629.000000	 62.719988 
628.000000	 62.706398 
627.000000	 62.749242 
626.000000	 62.846589 
625.000000	 62.989354 
624.000000	 63.161134 
623.000000	 63.341307 
622.000000	 63.506793 
621.000000	 63.635540 
620.000000	 63.709425 
619.000000	 63.717150 
618.000000	 63.655376 
617.000000	 63.528680 
616.000000	 63.349103 
615.000000	 63.135409 
614.000000	 62.908720 
613.000000	 62.689495 
612.000000	 62.495303 
611.000000	 62.339520 
610.000000	 62.229561 
609.000000	 62.167239 
608.000000	 62.149739 
607.000000	 62.171149 
606.000000	 62.223362 
605.000000	 62.297558 
604.000000	 62.383818 
603.000000	 62.473058 
602.000000	 62.556958 
601.000000	 62.629747 
600.000000	 62.687492 
599.000000	 62.729501 
598.000000	 62.757301 
597.000000	 62.775111 
596.000000	 62.788176 
595.000000	 62.802577 
594.000000	 62.824487 
593.000000	 62.858915 
592.000000	 62.908291 
591.000000	 62.972903 
590.000000	 63.051056 
589.000000	 63.139653 
588.000000	 63.234615 
587.000000	 63.332200 
586.000000	 63.429331 
585.000000	 63.524198 
584.000000	 63.616323 
583.000000	 63.704967 
582.000000	 63.788342 
581.000000	 63.863611 
580.000000	 63.926863 
579.000000	 63.973093 
578.000000	 63.997101 
577.000000	 63.995504 
576.000000	 63.967180 
575.000000	 63.914704 
574.000000	 63.842892 
573.000000	 63.758659 
572.000000	 63.668060 
571.000000	 63.575911 
570.000000	 63.483762 
569.000000	 63.390135 
568.000000	 63.292074 
567.000000	 63.186883 
566.000000	 63.074922 
565.000000	 62.959980 
564.000000	 62.850832 
563.000000	 62.759208 
562.000000	 62.697911 
561.000000	 62.676763 
560.000000	 62.700176 
559.000000	 62.764668 
558.000000	 62.859630 
557.000000	 62.968683 
556.000000	 63.073563 
555.000000	 63.157773 
554.000000	 63.209533 
553.000000	 63.223648 
552.000000	 63.201713 
551.000000	 63.150906 
550.000000	 63.081002 
549.000000	 63.002276 
548.000000	 62.923502 
547.000000	 62.851119 
546.000000	 62.789869 
545.000000	 62.742853 
544.000000	 62.713098 
543.000000	 62.702775 
542.000000	 62.713479 
541.000000	 62.745022 
540.000000	 62.792873 
539.000000	 62.850975 
538.000000	 62.910437 
537.000000	 62.964677 
536.000000	 63.009381 
535.000000	 63.046264 
534.000000	 63.082766 
533.000000	 63.129401 
532.000000	 63.195967 
531.000000	 63.288116 
530.000000	 63.405537 
529.000000	 63.538289 
528.000000	 63.668298 
527.000000	 63.775253 
526.000000	 63.842058 
525.000000	 63.860225 
524.000000	 63.832283 
523.000000	 63.770961 
522.000000	 63.695025 
521.000000	 63.624119 
520.000000	 63.573193 
519.000000	 63.546848 
518.000000	 63.540530 
517.000000	 63.544440 
516.000000	 63.547825 
515.000000	 63.545060 
514.000000	 63.536548 
513.000000	 63.529419 
512.000000	 63.533949 
511.000000	 63.556575 
510.000000	 63.600516 
509.000000	 63.660764 
508.000000	 63.730740 
507.000000	 63.801002 
506.000000	 63.870549 
505.000000	 63.947629 
504.000000	 64.051175 
503.000000	 64.205741 
502.000000	 64.432311 
501.000000	 64.739274 
500.000000	 65.113997 
499.000000	 65.521168 
498.000000	 65.906023 
497.000000	 66.204953 
496.000000	 66.359949 
495.000000	 66.332316 
494.000000	 66.114020 
493.000000	 65.729761 
492.000000	 65.232872 
491.000000	 64.692640 
490.000000	 64.180779 
489.000000	 63.754749 
488.000000	 63.449525 
487.000000	 63.270545 
486.000000	 63.199138 
485.000000	 63.199234 
484.000000	 63.229751 
483.000000	 63.256025 
482.000000	 63.255929 
481.000000	 63.226151 
480.000000	 63.174176 
479.000000	 63.120293 
478.000000	 63.085532 
477.000000	 63.089346 
476.000000	 63.140726 
475.000000	 63.239908 
474.000000	 63.378167 
473.000000	 63.539671 
472.000000	 63.704991 
471.000000	 63.853812 
470.000000	 63.967990 
469.000000	 64.031815 
468.000000	 64.034271 
467.000000	 63.970112 
466.000000	 63.841223 
465.000000	 63.656783 
464.000000	 63.433289 
463.000000	 63.193154 
462.000000	 62.961578 
461.000000	 62.766003 
460.000000	 62.628626 
459.000000	 62.561583 
458.000000	 62.565040 
457.000000	 62.630033 
456.000000	 62.737464 
455.000000	 62.860774 
454.000000	 62.972497 
453.000000	 63.049650 
452.000000	 63.077354 
451.000000	 63.049864 
450.000000	 62.972044 
449.000000	 62.856054 
448.000000	 62.719273 
447.000000	 62.579751 
446.000000	 62.452840 
445.000000	 62.348532 
444.000000	 62.270927 
443.000000	 62.219285 
442.000000	 62.188792 
441.000000	 62.174010 
440.000000	 62.170839 
439.000000	 62.180209 
438.000000	 62.204575 
437.000000	 62.251377 
436.000000	 62.331032 
435.000000	 62.454843 
434.000000	 62.630319 
433.000000	 62.858319 
432.000000	 63.126730 
431.000000	 63.416123 
430.000000	 63.704133 
429.000000	 63.969755 
428.000000	 64.195489 
427.000000	 64.373850 
426.000000	 64.512705 
425.000000	 64.624261 
424.000000	 64.719963 
423.000000	 64.805364 
422.000000	 64.879846 
421.000000	 64.930796 
420.000000	 64.938330 
419.000000	 64.884138 
418.000000	 64.758419 
417.000000	 64.570736 
416.000000	 64.348602 
415.000000	 64.125847 
414.000000	 63.932251 
413.000000	 63.785314 
412.000000	 63.685870 
411.000000	 63.605093 
410.000000	 63.506960 
409.000000	 63.362455 
408.000000	 63.171792 
407.000000	 62.964582 
406.000000	 62.806081 
405.000000	 62.781071 
404.000000	 62.975549 
403.000000	 63.432407 
402.000000	 64.159393 
401.000000	 65.125989 
400.000000	 66.265702 
399.000000	 67.470574 
398.000000	 68.644237 
397.000000	 69.729495 
396.000000	 70.700645 
395.000000	 71.563696 
394.000000	 72.324657 
393.000000	 72.973752 
392.000000	 73.459506 
391.000000	 73.691368 
390.000000	 73.557257 
389.000000	 72.950792 
388.000000	 71.818876 
387.000000	 70.181703 
386.000000	 68.115806 
385.000000	 65.760660 
384.000000	 63.309311 
383.000000	 60.978436 
382.000000	 58.992147 
381.000000	 57.513236 
380.000000	 56.659507 
379.000000	 56.401324 
378.000000	 56.586527 
377.000000	 56.907892 
376.000000	 56.957507 
375.000000	 56.312942 
374.000000	 54.624509 
373.000000	 51.732110 
372.000000	 47.709584 
371.000000	 42.880010 
370.000000	 37.745785 

