PE IR       SPECTRUM    SPECTRUM    ASCII       PEDS        1.60        
  -1
BZ6D23~1.ASC
17/04/07
15:19:05.00
17/04/07
15:19:05.00
tln
$BZ1503107-1_t0025$<tbV0>[7.8,-7.8,8.0,0.0,27,1,0]
370.000000
64









2002,4.07    
MIRTGS : RIGHTBACK : INTERNAL 2
MIR : ON : INTERNAL 2
OPTKBR

0.200000
8
8.000000
FILLER
RATIO
SPECTRUM
UNLOCKED 256

DOUBLE
64
COMBINED
1
0
0


1.000000
RATIO


1
0
TRUE
51149
0
LEFT NOT FITTED RIGHT NOT FITTED 0
NONE
NONE
15600
12.000000
4.427000
51148
TRUE
1 0 8 72 0 0 0 0 

15798.010000






#HDR
-1
-1
#GR
CM-1
%T
0.00002384185791015625
0.0
5000.000000
-1.000000
4631
8
81.629562
40.182733
#DATA
5000.000000	65.736865 
4999.000000	65.609645 
4998.000000	65.455651 
4997.000000	65.285634 
4996.000000	65.110874 
4995.000000	64.942598 
4994.000000	64.790582 
4993.000000	64.662814 
4992.000000	64.564418 
4991.000000	64.497709 
4990.000000	64.461660 
4989.000000	64.452004 
4988.000000	64.462280 
4987.000000	64.484524 
4986.000000	64.510536 
4985.000000	64.532542 
4984.000000	64.545130 
4983.000000	64.545655 
4982.000000	64.533686 
4981.000000	64.510369 
4980.000000	64.478278 
4979.000000	64.440560 
4978.000000	64.400005 
4977.000000	64.358901 
4976.000000	64.318776 
4975.000000	64.280748 
4974.000000	64.246273 
4973.000000	64.216899 
4972.000000	64.193558 
4971.000000	64.177250 
4970.000000	64.168310 
4969.000000	64.167380 
4968.000000	64.174365 
4967.000000	64.189457 
4966.000000	64.212799 
4965.000000	64.243960 
4964.000000	64.281630 
4963.000000	64.323139 
4962.000000	64.364743 
4961.000000	64.401316 
4960.000000	64.426946 
4959.000000	64.436578 
4958.000000	64.427351 
4957.000000	64.399385 
4956.000000	64.356350 
4955.000000	64.305257 
4954.000000	64.255428 
4953.000000	64.216446 
4952.000000	64.196801 
4951.000000	64.201998 
4950.000000	64.234399 
4949.000000	64.293551 
4948.000000	64.376854 
4947.000000	64.480137 
4946.000000	64.598131 
4945.000000	64.725112 
4944.000000	64.853811 
4943.000000	64.976382 
4942.000000	65.082812 
4941.000000	65.162277 
4940.000000	65.204286 
4939.000000	65.201473 
4938.000000	65.151119 
4937.000000	65.056967 
4936.000000	64.929294 
4935.000000	64.784264 
4934.000000	64.641022 
4933.000000	64.518809 
4932.000000	64.433169 
4931.000000	64.393186 
4930.000000	64.401173 
4929.000000	64.452743 
4928.000000	64.538192 
4927.000000	64.644265 
4926.000000	64.756464 
4925.000000	64.861011 
4924.000000	64.945173 
4923.000000	64.999008 
4922.000000	65.015077 
4921.000000	64.990401 
4920.000000	64.926075 
4919.000000	64.829206 
4918.000000	64.712142 
4917.000000	64.591670 
4916.000000	64.487266 
4915.000000	64.416575 
4914.000000	64.393353 
4913.000000	64.422607 
4912.000000	64.500141 
4911.000000	64.611625 
4910.000000	64.736104 
4909.000000	64.849638 
4908.000000	64.930605 
4907.000000	64.963746 
4906.000000	64.942598 
4905.000000	64.870643 
4904.000000	64.759826 
4903.000000	64.626789 
4902.000000	64.488697 
4901.000000	64.360332 
4900.000000	64.251422 
4899.000000	64.166331 
4898.000000	64.104557 
4897.000000	64.062952 
4896.000000	64.037632 
4895.000000	64.025211 
4894.000000	64.024424 
4893.000000	64.034128 
4892.000000	64.055228 
4891.000000	64.087748 
4890.000000	64.132165 
4889.000000	64.187288 
4888.000000	64.251375 
4887.000000	64.321231 
4886.000000	64.393973 
4885.000000	64.467024 
4884.000000	64.539313 
4883.000000	64.611101 
4882.000000	64.683628 
4881.000000	64.758491 
4880.000000	64.836072 
4879.000000	64.915037 
4878.000000	64.990758 
4877.000000	65.056109 
4876.000000	65.102314 
4875.000000	65.121269 
4874.000000	65.107727 
4873.000000	65.061616 
4872.000000	64.988803 
4871.000000	64.900827 
4870.000000	64.813733 
4869.000000	64.744734 
4868.000000	64.707708 
4867.000000	64.710640 
4866.000000	64.753723 
4865.000000	64.829897 
4864.000000	64.927101 
4863.000000	65.031194 
4862.000000	65.129208 
4861.000000	65.211415 
4860.000000	65.272951 
4859.000000	65.312886 
4858.000000	65.332531 
4857.000000	65.333962 
4856.000000	65.318632 
4855.000000	65.286612 
4854.000000	65.237021 
4853.000000	65.169692 
4852.000000	65.087080 
4851.000000	64.994812 
4850.000000	64.901947 
4849.000000	64.819550 
4848.000000	64.758825 
4847.000000	64.728331 
4846.000000	64.732098 
4845.000000	64.769053 
4844.000000	64.832830 
4843.000000	64.913415 
4842.000000	64.998674 
4841.000000	65.076065 
4840.000000	65.135169 
4839.000000	65.168190 
4838.000000	65.172028 
4837.000000	65.147852 
4836.000000	65.101027 
4835.000000	65.040254 
4834.000000	64.975309 
4833.000000	64.915800 
4832.000000	64.868450 
4831.000000	64.836907 
4830.000000	64.820480 
4829.000000	64.815783 
4828.000000	64.817214 
4827.000000	64.818859 
4826.000000	64.816451 
4825.000000	64.808320 
4824.000000	64.796113 
4823.000000	64.784026 
4822.000000	64.777493 
4821.000000	64.781403 
4820.000000	64.798879 
4819.000000	64.830207 
4818.000000	64.872598 
4817.000000	64.920568 
4816.000000	64.967870 
4815.000000	65.008425 
4814.000000	65.037417 
4813.000000	65.051984 
4812.000000	65.051245 
4811.000000	65.036821 
4810.000000	65.012288 
4809.000000	64.982533 
4808.000000	64.952850 
4807.000000	64.927983 
4806.000000	64.911794 
4805.000000	64.906311 
4804.000000	64.911961 
4803.000000	64.927244 
4802.000000	64.949035 
4801.000000	64.973521 
4800.000000	64.996957 
4799.000000	65.016412 
4798.000000	65.030145 
4797.000000	65.038371 
4796.000000	65.042901 
4795.000000	65.047264 
4794.000000	65.055513 
4793.000000	65.071678 
4792.000000	65.098571 
4791.000000	65.136981 
4790.000000	65.184974 
4789.000000	65.238308 
4788.000000	65.290760 
4787.000000	65.335297 
4786.000000	65.365314 
4785.000000	65.376210 
4784.000000	65.366458 
4783.000000	65.337872 
4782.000000	65.295457 
4781.000000	65.246725 
4780.000000	65.200066 
4779.000000	65.163254 
4778.000000	65.141701 
4777.000000	65.137839 
4776.000000	65.150475 
4775.000000	65.175700 
4774.000000	65.207624 
4773.000000	65.240001 
4772.000000	65.267705 
4771.000000	65.287709 
4770.000000	65.299582 
4769.000000	65.304803 
4768.000000	65.306425 
4767.000000	65.307903 
4766.000000	65.311837 
4765.000000	65.319347 
4764.000000	65.329861 
4763.000000	65.341830 
4762.000000	65.353226 
4761.000000	65.363097 
4760.000000	65.372610 
4759.000000	65.384984 
4758.000000	65.404629 
4757.000000	65.435576 
4756.000000	65.480542 
4755.000000	65.538740 
4754.000000	65.605425 
4753.000000	65.672254 
4752.000000	65.729165 
4751.000000	65.766263 
4750.000000	65.776872 
4749.000000	65.758538 
4748.000000	65.714073 
4747.000000	65.650653 
4746.000000	65.578651 
4745.000000	65.508675 
4744.000000	65.449094 
4743.000000	65.404796 
4742.000000	65.376734 
4741.000000	65.362691 
4740.000000	65.358805 
4739.000000	65.361166 
4738.000000	65.366983 
4737.000000	65.374898 
4736.000000	65.384578 
4735.000000	65.395116 
4734.000000	65.404677 
4733.000000	65.409636 
4732.000000	65.405368 
4731.000000	65.386629 
4730.000000	65.349578 
4729.000000	65.293908 
4728.000000	65.223431 
4727.000000	65.145635 
4726.000000	65.070867 
4725.000000	65.009856 
4724.000000	64.972138 
4723.000000	64.963293 
4722.000000	64.984989 
4721.000000	65.034294 
4720.000000	65.105438 
4719.000000	65.190792 
4718.000000	65.282869 
4717.000000	65.375018 
4716.000000	65.462446 
4715.000000	65.541887 
4714.000000	65.611338 
4713.000000	65.669441 
4712.000000	65.715146 
4711.000000	65.747094 
4710.000000	65.763902 
4709.000000	65.763616 
4708.000000	65.744805 
4707.000000	65.706157 
4706.000000	65.647125 
4705.000000	65.568161 
4704.000000	65.471220 
4703.000000	65.360498 
4702.000000	65.242314 
4701.000000	65.125465 
4700.000000	65.019893 
4699.000000	64.936017 
4698.000000	64.882588 
4697.000000	64.865684 
4696.000000	64.886593 
4695.000000	64.942240 
4694.000000	65.025091 
4693.000000	65.124797 
4692.000000	65.229415 
4691.000000	65.327572 
4690.000000	65.409755 
4689.000000	65.469217 
4688.000000	65.502095 
4687.000000	65.507268 
4686.000000	65.485882 
4685.000000	65.440821 
4684.000000	65.376067 
4683.000000	65.297245 
4682.000000	65.211081 
4681.000000	65.125417 
4680.000000	65.048122 
4679.000000	64.986586 
4678.000000	64.945864 
4677.000000	64.928364 
4676.000000	64.932918 
4675.000000	64.954781 
4674.000000	64.986872 
4673.000000	65.021038 
4672.000000	65.050125 
4671.000000	65.068769 
4670.000000	65.074634 
4669.000000	65.068316 
4668.000000	65.052723 
4667.000000	65.031266 
4666.000000	65.007758 
4665.000000	64.984917 
4664.000000	64.965081 
4663.000000	64.950180 
4662.000000	64.941954 
4661.000000	64.941906 
4660.000000	64.951252 
4659.000000	64.970612 
4658.000000	64.998579 
4657.000000	65.031909 
4656.000000	65.065932 
4655.000000	65.095615 
4654.000000	65.116643 
4653.000000	65.126872 
4652.000000	65.126824 
4651.000000	65.119481 
4650.000000	65.110063 
4649.000000	65.103936 
4648.000000	65.104365 
4647.000000	65.111947 
4646.000000	65.124130 
4645.000000	65.136528 
4644.000000	65.144562 
4643.000000	65.145015 
4642.000000	65.137672 
4641.000000	65.124750 
4640.000000	65.110492 
4639.000000	65.099167 
4638.000000	65.093350 
4637.000000	65.092992 
4636.000000	65.095138 
4635.000000	65.095114 
4634.000000	65.087795 
4633.000000	65.069270 
4632.000000	65.038061 
4631.000000	64.995431 
4630.000000	64.945459 
4629.000000	64.893817 
4628.000000	64.846730 
4627.000000	64.809250 
4626.000000	64.784812 
4625.000000	64.774918 
4624.000000	64.778828 
4623.000000	64.794754 
4622.000000	64.819240 
4621.000000	64.847922 
4620.000000	64.875674 
4619.000000	64.896774 
4618.000000	64.906311 
4617.000000	64.900779 
4616.000000	64.879560 
4615.000000	64.844489 
4614.000000	64.800381 
4613.000000	64.754152 
4612.000000	64.713048 
4611.000000	64.683318 
4610.000000	64.668869 
4609.000000	64.670372 
4608.000000	64.685130 
4607.000000	64.708209 
4606.000000	64.733076 
4605.000000	64.753365 
4604.000000	64.764118 
4603.000000	64.763212 
4602.000000	64.751434 
4601.000000	64.732336 
4600.000000	64.711475 
4599.000000	64.694738 
4598.000000	64.687371 
4597.000000	64.692115 
4596.000000	64.709329 
4595.000000	64.735937 
4594.000000	64.766430 
4593.000000	64.793086 
4592.000000	64.807868 
4591.000000	64.803862 
4590.000000	64.776587 
4589.000000	64.725351 
4588.000000	64.653182 
4587.000000	64.567089 
4586.000000	64.476609 
4585.000000	64.392662 
4584.000000	64.325284 
4583.000000	64.282131 
4582.000000	64.266991 
4581.000000	64.279460 
4580.000000	64.314913 
4579.000000	64.365601 
4578.000000	64.422225 
4577.000000	64.475870 
4576.000000	64.519667 
4575.000000	64.549756 
4574.000000	64.565753 
4573.000000	64.570069 
4572.000000	64.566802 
4571.000000	64.560317 
4570.000000	64.553880 
4569.000000	64.548754 
4568.000000	64.543986 
4567.000000	64.537692 
4566.000000	64.527559 
4565.000000	64.511823 
4564.000000	64.490246 
4563.000000	64.464950 
4562.000000	64.439320 
4561.000000	64.417123 
4560.000000	64.401292 
4559.000000	64.392614 
4558.000000	64.389896 
4557.000000	64.389824 
4556.000000	64.388632 
4555.000000	64.382839 
4554.000000	64.371418 
4553.000000	64.356088 
4552.000000	64.341521 
4551.000000	64.334034 
4550.000000	64.340138 
4549.000000	64.364385 
4548.000000	64.408063 
4547.000000	64.467573 
4546.000000	64.535474 
4545.000000	64.600682 
4544.000000	64.651012 
4543.000000	64.674258 
4542.000000	64.661669 
4541.000000	64.608216 
4540.000000	64.513063 
4539.000000	64.380431 
4538.000000	64.218854 
4537.000000	64.040875 
4536.000000	63.861680 
4535.000000	63.697600 
4534.000000	63.564062 
4533.000000	63.473320 
4532.000000	63.432955 
4531.000000	63.443660 
4530.000000	63.498783 
4529.000000	63.586068 
4528.000000	63.689112 
4527.000000	63.791370 
4526.000000	63.878130 
4525.000000	63.940262 
4524.000000	63.974905 
4523.000000	63.985419 
4522.000000	63.979721 
4521.000000	63.967823 
4520.000000	63.959431 
4519.000000	63.961720 
4518.000000	63.978314 
4517.000000	64.009690 
4516.000000	64.053440 
4515.000000	64.106988 
4514.000000	64.167213 
4513.000000	64.231991 
4512.000000	64.298629 
4511.000000	64.364457 
4510.000000	64.424943 
4509.000000	64.473485 
4508.000000	64.502167 
4507.000000	64.503550 
4506.000000	64.472436 
4505.000000	64.408087 
4504.000000	64.315366 
4503.000000	64.205336 
4502.000000	64.092254 
4501.000000	63.990879 
4500.000000	63.913249 
4499.000000	63.866281 
4498.000000	63.851141 
4497.000000	63.863778 
4496.000000	63.895940 
4495.000000	63.937544 
4494.000000	63.979196 
4493.000000	64.014506 
4492.000000	64.039540 
4491.000000	64.054703 
4490.000000	64.063262 
4489.000000	64.071273 
4488.000000	64.085531 
4487.000000	64.111733 
4486.000000	64.153075 
4485.000000	64.208531 
4484.000000	64.273095 
4483.000000	64.338231 
4482.000000	64.394474 
4481.000000	64.432787 
4480.000000	64.446854 
4479.000000	64.434337 
4478.000000	64.397954 
4477.000000	64.344000 
4476.000000	64.281296 
4475.000000	64.218640 
4474.000000	64.163303 
4473.000000	64.118862 
4472.000000	64.085721 
4471.000000	64.059257 
4470.000000	64.031934 
4469.000000	63.997125 
4468.000000	63.951849 
4467.000000	63.897562 
4466.000000	63.840603 
4465.000000	63.790917 
4464.000000	63.759636 
4463.000000	63.755536 
4462.000000	63.782048 
4461.000000	63.837814 
4460.000000	63.914966 
4459.000000	63.995194 
4458.000000	64.058089 
4457.000000	64.090871 
4456.000000	64.087796 
4455.000000	64.046549 
4454.000000	63.972830 
4453.000000	63.885259 
4452.000000	63.800859 
4451.000000	63.727211 
4450.000000	63.664770 
4449.000000	63.602828 
4448.000000	63.536095 
4447.000000	63.470530 
4446.000000	63.424396 
4445.000000	63.425183 
4444.000000	63.502097 
4443.000000	63.677000 
4442.000000	63.947868 
4441.000000	64.286589 
4440.000000	64.646601 
4439.000000	64.975714 
4438.000000	65.225124 
4437.000000	65.370821 
4436.000000	65.414333 
4435.000000	65.401291 
4434.000000	65.394568 
4433.000000	65.490579 
4432.000000	65.794754 
4431.000000	66.413331 
4430.000000	67.428159 
4429.000000	68.873023 
4428.000000	70.728659 
4427.000000	72.896409 
4426.000000	75.219249 
4425.000000	77.478814 
4424.000000	79.441928 
4423.000000	80.881714 
4422.000000	81.629562 
4421.000000	81.592845 
4420.000000	80.779194 
4419.000000	79.293465 
4418.000000	77.325272 
4417.000000	75.112271 
4416.000000	72.901725 
4415.000000	70.911121 
4414.000000	69.295644 
4413.000000	68.128156 
4412.000000	67.398238 
4411.000000	67.026376 
4410.000000	66.894340 
4409.000000	66.875791 
4408.000000	66.870284 
4407.000000	66.805696 
4406.000000	66.658878 
4405.000000	66.433954 
4404.000000	66.164612 
4403.000000	65.875220 
4402.000000	65.590000 
4401.000000	65.320611 
4400.000000	65.070819 
4399.000000	64.839673 
4398.000000	64.625859 
4397.000000	64.436459 
4396.000000	64.280080 
4395.000000	64.161515 
4394.000000	64.086151 
4393.000000	64.057755 
4392.000000	64.073729 
4391.000000	64.122414 
4390.000000	64.190173 
4389.000000	64.263105 
4388.000000	64.330887 
4387.000000	64.388561 
4386.000000	64.430856 
4385.000000	64.453220 
4384.000000	64.458036 
4383.000000	64.452171 
4382.000000	64.438676 
4381.000000	64.419364 
4380.000000	64.400577 
4379.000000	64.388704 
4378.000000	64.388060 
4377.000000	64.399886 
4376.000000	64.422059 
4375.000000	64.449405 
4374.000000	64.474749 
4373.000000	64.490938 
4372.000000	64.494395 
4371.000000	64.483594 
4370.000000	64.458417 
4369.000000	64.420652 
4368.000000	64.373731 
4367.000000	64.321303 
4366.000000	64.266490 
4365.000000	64.212322 
4364.000000	64.161896 
4363.000000	64.117336 
4362.000000	64.079594 
4361.000000	64.048624 
4360.000000	64.023327 
4359.000000	64.002299 
4358.000000	63.984012 
4357.000000	63.966989 
4356.000000	63.950085 
4355.000000	63.932085 
4354.000000	63.912439 
4353.000000	63.890385 
4352.000000	63.866543 
4351.000000	63.842511 
4350.000000	63.821768 
4349.000000	63.808631 
4348.000000	63.808035 
4347.000000	63.824009 
4346.000000	63.858890 
4345.000000	63.911962 
4344.000000	63.979625 
4343.000000	64.055776 
4342.000000	64.132642 
4341.000000	64.202380 
4340.000000	64.257836 
4339.000000	64.293789 
4338.000000	64.307570 
4337.000000	64.299297 
4336.000000	64.271402 
4335.000000	64.227986 
4334.000000	64.174818 
4333.000000	64.118385 
4332.000000	64.065361 
4331.000000	64.021539 
4330.000000	63.992047 
4329.000000	63.980245 
4328.000000	63.987231 
4327.000000	64.011192 
4326.000000	64.048051 
4325.000000	64.091587 
4324.000000	64.134383 
4323.000000	64.169144 
4322.000000	64.190125 
4321.000000	64.194226 
4320.000000	64.180970 
4319.000000	64.153194 
4318.000000	64.115834 
4317.000000	64.075255 
4316.000000	64.037895 
4315.000000	64.009165 
4314.000000	63.992619 
4313.000000	63.989830 
4312.000000	64.000391 
4311.000000	64.022374 
4310.000000	64.052724 
4309.000000	64.088463 
4308.000000	64.127063 
4307.000000	64.166450 
4306.000000	64.205050 
4305.000000	64.241409 
4304.000000	64.274311 
4303.000000	64.302659 
4302.000000	64.325761 
4301.000000	64.343738 
4300.000000	64.357495 
4299.000000	64.369273 
4298.000000	64.381527 
4297.000000	64.396595 
4296.000000	64.415693 
4295.000000	64.438724 
4294.000000	64.464020 
4293.000000	64.489221 
4292.000000	64.511561 
4291.000000	64.528894 
4290.000000	64.540052 
4289.000000	64.545392 
4288.000000	64.546132 
4287.000000	64.544415 
4286.000000	64.542126 
4285.000000	64.540362 
4284.000000	64.539599 
4283.000000	64.539885 
4282.000000	64.541125 
4281.000000	64.543437 
4280.000000	64.547300 
4279.000000	64.553546 
4278.000000	64.562869 
4277.000000	64.575624 
4276.000000	64.590978 
4275.000000	64.607095 
4274.000000	64.621996 
4273.000000	64.634013 
4272.000000	64.642548 
4271.000000	64.648079 
4270.000000	64.652490 
4269.000000	64.657783 
4268.000000	64.665508 
4267.000000	64.675927 
4266.000000	64.687705 
4265.000000	64.698576 
4264.000000	64.705443 
4263.000000	64.706492 
4262.000000	64.701795 
4261.000000	64.694261 
4260.000000	64.689135 
4259.000000	64.692831 
4258.000000	64.711213 
4257.000000	64.747428 
4256.000000	64.800763 
4255.000000	64.865684 
4254.000000	64.932870 
4253.000000	64.991140 
4252.000000	65.030026 
4251.000000	65.042424 
4250.000000	65.026450 
4249.000000	64.985942 
4248.000000	64.929652 
4247.000000	64.869260 
4246.000000	64.816427 
4245.000000	64.780163 
4244.000000	64.764642 
4243.000000	64.768910 
4242.000000	64.786982 
4241.000000	64.810466 
4240.000000	64.830493 
4239.000000	64.840412 
4238.000000	64.837503 
4237.000000	64.822888 
4236.000000	64.801621 
4235.000000	64.780521 
4234.000000	64.766716 
4233.000000	64.765214 
4232.000000	64.778351 
4231.000000	64.805293 
4230.000000	64.842748 
4229.000000	64.886069 
4228.000000	64.930295 
4227.000000	64.971399 
4226.000000	65.006518 
4225.000000	65.034055 
4224.000000	65.053391 
4223.000000	65.064287 
4222.000000	65.066576 
4221.000000	65.060067 
4220.000000	65.044927 
4219.000000	65.021872 
4218.000000	64.992737 
4217.000000	64.960455 
4216.000000	64.928817 
4215.000000	64.901614 
4214.000000	64.882397 
4213.000000	64.873099 
4212.000000	64.873743 
4211.000000	64.882445 
4210.000000	64.895844 
4209.000000	64.910316 
4208.000000	64.923119 
4207.000000	64.932918 
4206.000000	64.940047 
4205.000000	64.946198 
4204.000000	64.953494 
4203.000000	64.963698 
4202.000000	64.977192 
4201.000000	64.993071 
4200.000000	65.009212 
4199.000000	65.023064 
4198.000000	65.032553 
4197.000000	65.036964 
4196.000000	65.037345 
4195.000000	65.036153 
4194.000000	65.036487 
4193.000000	65.041184 
4192.000000	65.051984 
4191.000000	65.069079 
4190.000000	65.090727 
4189.000000	65.113997 
4188.000000	65.135049 
4187.000000	65.150642 
4186.000000	65.158438 
4185.000000	65.157246 
4184.000000	65.147233 
4183.000000	65.129637 
4182.000000	65.106701 
4181.000000	65.081000 
4180.000000	65.055394 
4179.000000	65.032744 
4178.000000	65.015435 
4177.000000	65.005350 
4176.000000	65.003275 
4175.000000	65.008974 
4174.000000	65.020966 
4173.000000	65.037012 
4172.000000	65.054273 
4171.000000	65.070009 
4170.000000	65.082454 
4169.000000	65.091490 
4168.000000	65.098547 
4167.000000	65.106439 
4166.000000	65.118789 
4165.000000	65.138912 
4164.000000	65.168786 
4163.000000	65.208148 
4162.000000	65.254688 
4161.000000	65.303707 
4160.000000	65.349674 
4159.000000	65.386652 
4158.000000	65.409851 
4157.000000	65.416383 
4156.000000	65.405988 
4155.000000	65.381169 
4154.000000	65.346789 
4153.000000	65.308880 
4152.000000	65.273904 
4151.000000	65.246534 
4150.000000	65.229010 
4149.000000	65.220689 
4148.000000	65.218639 
4147.000000	65.218329 
4146.000000	65.215134 
4145.000000	65.205478 
4144.000000	65.187978 
4143.000000	65.163278 
4142.000000	65.133762 
4141.000000	65.102863 
4140.000000	65.073966 
4139.000000	65.049576 
4138.000000	65.031075 
4137.000000	65.018415 
4136.000000	65.010833 
4135.000000	65.007734 
4134.000000	65.008831 
4133.000000	65.014028 
4132.000000	65.023803 
4131.000000	65.038609 
4130.000000	65.058898 
4129.000000	65.083599 
4128.000000	65.111565 
4127.000000	65.141534 
4126.000000	65.172362 
4125.000000	65.203428 
4124.000000	65.234041 
4123.000000	65.263319 
4122.000000	65.289926 
4121.000000	65.312242 
4120.000000	65.328598 
4119.000000	65.337920 
4118.000000	65.340709 
4117.000000	65.339446 
4116.000000	65.338373 
4115.000000	65.342473 
4114.000000	65.356731 
4113.000000	65.384197 
4112.000000	65.425205 
4111.000000	65.475893 
4110.000000	65.529465 
4109.000000	65.576267 
4108.000000	65.606117 
4107.000000	65.610170 
4106.000000	65.583157 
4105.000000	65.524649 
4104.000000	65.439558 
4103.000000	65.337443 
4102.000000	65.230584 
4101.000000	65.132308 
4100.000000	65.054273 
4099.000000	65.004634 
4098.000000	64.986920 
4097.000000	64.999604 
4096.000000	65.037107 
4095.000000	65.090942 
4094.000000	65.151715 
4093.000000	65.211176 
4092.000000	65.263605 
4091.000000	65.306186 
4090.000000	65.338706 
4089.000000	65.363073 
4088.000000	65.381908 
4087.000000	65.397620 
4086.000000	65.411329 
4085.000000	65.423011 
4084.000000	65.431261 
4083.000000	65.434646 
4082.000000	65.431642 
4081.000000	65.421867 
4080.000000	65.405726 
4079.000000	65.384721 
4078.000000	65.360903 
4077.000000	65.336203 
4076.000000	65.312194 
4075.000000	65.289735 
4074.000000	65.269470 
4073.000000	65.251803 
4072.000000	65.237283 
4071.000000	65.226912 
4070.000000	65.221428 
4069.000000	65.220880 
4068.000000	65.224432 
4067.000000	65.230369 
4066.000000	65.236449 
4065.000000	65.240454 
4064.000000	65.240859 
4063.000000	65.237236 
4062.000000	65.230894 
4061.000000	65.224528 
4060.000000	65.221214 
4059.000000	65.223503 
4058.000000	65.232777 
4057.000000	65.248966 
4056.000000	65.270113 
4055.000000	65.293192 
4054.000000	65.314888 
4053.000000	65.332436 
4052.000000	65.344357 
4051.000000	65.350604 
4050.000000	65.352153 
4049.000000	65.350651 
4048.000000	65.347647 
4047.000000	65.344190 
4046.000000	65.340757 
4045.000000	65.337252 
4044.000000	65.333604 
4043.000000	65.329241 
4042.000000	65.323686 
4041.000000	65.316176 
4040.000000	65.306138 
4039.000000	65.292501 
4038.000000	65.274047 
4037.000000	65.249681 
4036.000000	65.218997 
4035.000000	65.182518 
4034.000000	65.142202 
4033.000000	65.101170 
4032.000000	65.063500 
4031.000000	65.033411 
4030.000000	65.014576 
4029.000000	65.009212 
4028.000000	65.017652 
4027.000000	65.038275 
4026.000000	65.067529 
4025.000000	65.100836 
4024.000000	65.133118 
4023.000000	65.159678 
4022.000000	65.176749 
4021.000000	65.181541 
4020.000000	65.173363 
4019.000000	65.153312 
4018.000000	65.124487 
4017.000000	65.091204 
4016.000000	65.059161 
4015.000000	65.034484 
4014.000000	65.022635 
4013.000000	65.027427 
4012.000000	65.049934 
4011.000000	65.088295 
4010.000000	65.137577 
4009.000000	65.190839 
4008.000000	65.240168 
4007.000000	65.278720 
4006.000000	65.302157 
4005.000000	65.309810 
4004.000000	65.304827 
4003.000000	65.293121 
4002.000000	65.282082 
4001.000000	65.278601 
4000.000000	65.287375 
3999.000000	65.309453 
3998.000000	65.342569 
3997.000000	65.381217 
3996.000000	65.418601 
3995.000000	65.447473 
3994.000000	65.462636 
3993.000000	65.460705 
3992.000000	65.441083 
3991.000000	65.404987 
3990.000000	65.354967 
3989.000000	65.294384 
3988.000000	65.226840 
3987.000000	65.156340 
3986.000000	65.086936 
3985.000000	65.023350 
3984.000000	64.970731 
3983.000000	64.933991 
3982.000000	64.916825 
3981.000000	64.920926 
3980.000000	64.945125 
3979.000000	64.984703 
3978.000000	65.032172 
3977.000000	65.078306 
3976.000000	65.114355 
3975.000000	65.133261 
3974.000000	65.131998 
3973.000000	65.111422 
3972.000000	65.076828 
3971.000000	65.036296 
3970.000000	64.999055 
3969.000000	64.973187 
3968.000000	64.964008 
3967.000000	64.973545 
3966.000000	64.999413 
3965.000000	65.036296 
3964.000000	65.076279 
3963.000000	65.111398 
3962.000000	65.134143 
3961.000000	65.139198 
3960.000000	65.123701 
3959.000000	65.087652 
3958.000000	65.033340 
3957.000000	64.964842 
3956.000000	64.887809 
3955.000000	64.808940 
3954.000000	64.735198 
3953.000000	64.673185 
3952.000000	64.628624 
3951.000000	64.605689 
3950.000000	64.606142 
3949.000000	64.629292 
3948.000000	64.671444 
3947.000000	64.727234 
3946.000000	64.789700 
3945.000000	64.852523 
3944.000000	64.909768 
3943.000000	64.957809 
3942.000000	64.995098 
3941.000000	65.022420 
3940.000000	65.041828 
3939.000000	65.055942 
3938.000000	65.066933 
3937.000000	65.076184 
3936.000000	65.084433 
3935.000000	65.091896 
3934.000000	65.098929 
3933.000000	65.106296 
3932.000000	65.115451 
3931.000000	65.127897 
3930.000000	65.144872 
3929.000000	65.166187 
3928.000000	65.190243 
3927.000000	65.214180 
3926.000000	65.234518 
3925.000000	65.248131 
3924.000000	65.253210 
3923.000000	65.249562 
3922.000000	65.238714 
3921.000000	65.223836 
3920.000000	65.208673 
3919.000000	65.196681 
3918.000000	65.190100 
3917.000000	65.189480 
3916.000000	65.193867 
3915.000000	65.201163 
3914.000000	65.208768 
3913.000000	65.214300 
3912.000000	65.216231 
3911.000000	65.214323 
3910.000000	65.209317 
3909.000000	65.202403 
3908.000000	65.194749 
3907.000000	65.186810 
3906.000000	65.178179 
3905.000000	65.167689 
3904.000000	65.153503 
3903.000000	65.133929 
3902.000000	65.107750 
3901.000000	65.074944 
3900.000000	65.037012 
3899.000000	64.996862 
3898.000000	64.958310 
3897.000000	64.925265 
3896.000000	64.900994 
3895.000000	64.887714 
3894.000000	64.885711 
3893.000000	64.893722 
3892.000000	64.909124 
3891.000000	64.928817 
3890.000000	64.949512 
3889.000000	64.968800 
3888.000000	64.984941 
3887.000000	64.997816 
3886.000000	65.008163 
3885.000000	65.017795 
3884.000000	65.028691 
3883.000000	65.042924 
3882.000000	65.062141 
3881.000000	65.086770 
3880.000000	65.116310 
3879.000000	65.148806 
3878.000000	65.181231 
3877.000000	65.209579 
3876.000000	65.229701 
3875.000000	65.237832 
3874.000000	65.231633 
3873.000000	65.210533 
3872.000000	65.176081 
3871.000000	65.132212 
3870.000000	65.084362 
3869.000000	65.038490 
3868.000000	64.999818 
3867.000000	64.972233 
3866.000000	64.957308 
3865.000000	64.954233 
3864.000000	64.960408 
3863.000000	64.972019 
3862.000000	64.985585 
3861.000000	64.998602 
3860.000000	65.010190 
3859.000000	65.020942 
3858.000000	65.032386 
3857.000000	65.046238 
3856.000000	65.063190 
3855.000000	65.082621 
3854.000000	65.102171 
3853.000000	65.118455 
3852.000000	65.127730 
3851.000000	65.127372 
3850.000000	65.116572 
3849.000000	65.097022 
3848.000000	65.072464 
3847.000000	65.048122 
3846.000000	65.029525 
3845.000000	65.021252 
3844.000000	65.025830 
3843.000000	65.042924 
3842.000000	65.069937 
3841.000000	65.102267 
3840.000000	65.134692 
3839.000000	65.162205 
3838.000000	65.180993 
3837.000000	65.189170 
3836.000000	65.186786 
3835.000000	65.176057 
3834.000000	65.159893 
3833.000000	65.142250 
3832.000000	65.126872 
3831.000000	65.117216 
3830.000000	65.115904 
3829.000000	65.124440 
3828.000000	65.143346 
3827.000000	65.171647 
3826.000000	65.207290 
3825.000000	65.247154 
3824.000000	65.287280 
3823.000000	65.323448 
3822.000000	65.351724 
3821.000000	65.369057 
3820.000000	65.373682 
3819.000000	65.365171 
3818.000000	65.344429 
3817.000000	65.313458 
3816.000000	65.275216 
3815.000000	65.233373 
3814.000000	65.191912 
3813.000000	65.154767 
3812.000000	65.125441 
3811.000000	65.106773 
3810.000000	65.100502 
3809.000000	65.106773 
3808.000000	65.124320 
3807.000000	65.150690 
3806.000000	65.182518 
3805.000000	65.215706 
3804.000000	65.246438 
3803.000000	65.271425 
3802.000000	65.288519 
3801.000000	65.296816 
3800.000000	65.296888 
3799.000000	65.290451 
3798.000000	65.280103 
3797.000000	65.268731 
3796.000000	65.259218 
3795.000000	65.253853 
3794.000000	65.253925 
3793.000000	65.259289 
3792.000000	65.268301 
3791.000000	65.278077 
3790.000000	65.284752 
3789.000000	65.284419 
3788.000000	65.273976 
3787.000000	65.251946 
3786.000000	65.219044 
3785.000000	65.178132 
3784.000000	65.133333 
3783.000000	65.089559 
3782.000000	65.051507 
3781.000000	65.022993 
3780.000000	65.005993 
3779.000000	65.000820 
3778.000000	65.006208 
3777.000000	65.019536 
3776.000000	65.037512 
3775.000000	65.056753 
3774.000000	65.074062 
3773.000000	65.087199 
3772.000000	65.094828 
3771.000000	65.096640 
3770.000000	65.093016 
3769.000000	65.084981 
3768.000000	65.073680 
3767.000000	65.060305 
3766.000000	65.045785 
3765.000000	65.030550 
3764.000000	65.014648 
3763.000000	64.998173 
3762.000000	64.981651 
3761.000000	64.966034 
3760.000000	64.953279 
3759.000000	64.945745 
3758.000000	64.945936 
3757.000000	64.955425 
3756.000000	64.974427 
3755.000000	65.001511 
3754.000000	65.033841 
3753.000000	65.067386 
3752.000000	65.098071 
3751.000000	65.122795 
3750.000000	65.139603 
3749.000000	65.148162 
3748.000000	65.149569 
3747.000000	65.145683 
3746.000000	65.138840 
3745.000000	65.130972 
3744.000000	65.123581 
3743.000000	65.117502 
3742.000000	65.113210 
3741.000000	65.111207 
3740.000000	65.112042 
3739.000000	65.116596 
3738.000000	65.125727 
3737.000000	65.140175 
3736.000000	65.159988 
3735.000000	65.184688 
3734.000000	65.212988 
3733.000000	65.243530 
3732.000000	65.274786 
3731.000000	65.305948 
3730.000000	65.336894 
3729.000000	65.368127 
3728.000000	65.400552 
3727.000000	65.435004 
3726.000000	65.471935 
3725.000000	65.510535 
3724.000000	65.549159 
3723.000000	65.584897 
3722.000000	65.614867 
3721.000000	65.636157 
3720.000000	65.646839 
3719.000000	65.646147 
3718.000000	65.635251 
3717.000000	65.616536 
3716.000000	65.593433 
3715.000000	65.569305 
3714.000000	65.546941 
3713.000000	65.528106 
3712.000000	65.513300 
3711.000000	65.501952 
3710.000000	65.492939 
3709.000000	65.484952 
3708.000000	65.477228 
3707.000000	65.469574 
3706.000000	65.462613 
3705.000000	65.457201 
3704.000000	65.454316 
3703.000000	65.454530 
3702.000000	65.457534 
3701.000000	65.461993 
3700.000000	65.465497 
3699.000000	65.464973 
3698.000000	65.457129 
3697.000000	65.439105 
3696.000000	65.409374 
3695.000000	65.368199 
3694.000000	65.318107 
3693.000000	65.263366 
3692.000000	65.209770 
3691.000000	65.163612 
3690.000000	65.130305 
3689.000000	65.113377 
3688.000000	65.113544 
3687.000000	65.128660 
3686.000000	65.153956 
3685.000000	65.183305 
3684.000000	65.210604 
3683.000000	65.231466 
3682.000000	65.243959 
3681.000000	65.248894 
3680.000000	65.249276 
3679.000000	65.249252 
3678.000000	65.252661 
3677.000000	65.262055 
3676.000000	65.277934 
3675.000000	65.298819 
3674.000000	65.321993 
3673.000000	65.343999 
3672.000000	65.361857 
3671.000000	65.373539 
3670.000000	65.378594 
3669.000000	65.377783 
3668.000000	65.372776 
3667.000000	65.365624 
3666.000000	65.358209 
3665.000000	65.351772 
3664.000000	65.346860 
3663.000000	65.343379 
3662.000000	65.341114 
3661.000000	65.339350 
3660.000000	65.337085 
3659.000000	65.333342 
3658.000000	65.327382 
3657.000000	65.318536 
3656.000000	65.306568 
3655.000000	65.291690 
3654.000000	65.274691 
3653.000000	65.256881 
3652.000000	65.240001 
3651.000000	65.225720 
3650.000000	65.215492 
3649.000000	65.210533 
3648.000000	65.211105 
3647.000000	65.216851 
3646.000000	65.226435 
3645.000000	65.237855 
3644.000000	65.248799 
3643.000000	65.256714 
3642.000000	65.259933 
3641.000000	65.257501 
3640.000000	65.249919 
3639.000000	65.238785 
3638.000000	65.227055 
3637.000000	65.218186 
3636.000000	65.215826 
3635.000000	65.222764 
3634.000000	65.240287 
3633.000000	65.267944 
3632.000000	65.303373 
3631.000000	65.342807 
3630.000000	65.381765 
3629.000000	65.415978 
3628.000000	65.442204 
3627.000000	65.458822 
3626.000000	65.465831 
3625.000000	65.464663 
3624.000000	65.457725 
3623.000000	65.447473 
3622.000000	65.436172 
3621.000000	65.425109 
3620.000000	65.414977 
3619.000000	65.405559 
3618.000000	65.396618 
3617.000000	65.387749 
3616.000000	65.379023 
3615.000000	65.370726 
3614.000000	65.363550 
3613.000000	65.358161 
3612.000000	65.354776 
3611.000000	65.353059 
3610.000000	65.352153 
3609.000000	65.350627 
3608.000000	65.346932 
3607.000000	65.339779 
3606.000000	65.328669 
3605.000000	65.313982 
3604.000000	65.297055 
3603.000000	65.280079 
3602.000000	65.265774 
3601.000000	65.256643 
3600.000000	65.254354 
3599.000000	65.259861 
3598.000000	65.272712 
3597.000000	65.291094 
3596.000000	65.312123 
3595.000000	65.332293 
3594.000000	65.347909 
3593.000000	65.355920 
3592.000000	65.354537 
3591.000000	65.343332 
3590.000000	65.323781 
3589.000000	65.298748 
3588.000000	65.272045 
3587.000000	65.247440 
3586.000000	65.227961 
3585.000000	65.215349 
3584.000000	65.209579 
3583.000000	65.209245 
3582.000000	65.211820 
3581.000000	65.214323 
3580.000000	65.214109 
3579.000000	65.209388 
3578.000000	65.199494 
3577.000000	65.184903 
3576.000000	65.166950 
3575.000000	65.147328 
3574.000000	65.127778 
3573.000000	65.109825 
3572.000000	65.094447 
3571.000000	65.082311 
3570.000000	65.073800 
3569.000000	65.069293 
3568.000000	65.068936 
3567.000000	65.073037 
3566.000000	65.081524 
3565.000000	65.094256 
3564.000000	65.110731 
3563.000000	65.129971 
3562.000000	65.150451 
3561.000000	65.170025 
3560.000000	65.186071 
3559.000000	65.195679 
3558.000000	65.196323 
3557.000000	65.186095 
3556.000000	65.164303 
3555.000000	65.131950 
3554.000000	65.091824 
3553.000000	65.048146 
3552.000000	65.005922 
3551.000000	64.970183 
3550.000000	64.945363 
3549.000000	64.933991 
3548.000000	64.936614 
3547.000000	64.951658 
3546.000000	64.976048 
3545.000000	65.005540 
3544.000000	65.035915 
3543.000000	65.063667 
3542.000000	65.086627 
3541.000000	65.103697 
3540.000000	65.115070 
3539.000000	65.121483 
3538.000000	65.123963 
3537.000000	65.123367 
3536.000000	65.120005 
3535.000000	65.114188 
3534.000000	65.105557 
3533.000000	65.093851 
3532.000000	65.078926 
3531.000000	65.061187 
3530.000000	65.041422 
3529.000000	65.020942 
3528.000000	65.001511 
3527.000000	64.984917 
3526.000000	64.973068 
3525.000000	64.967536 
3524.000000	64.969539 
3523.000000	64.979481 
3522.000000	64.996910 
3521.000000	65.020418 
3520.000000	65.048027 
3519.000000	65.077257 
3518.000000	65.105652 
3517.000000	65.131092 
3516.000000	65.152025 
3515.000000	65.167784 
3514.000000	65.178561 
3513.000000	65.185332 
3512.000000	65.189123 
3511.000000	65.191197 
3510.000000	65.192747 
3509.000000	65.194821 
3508.000000	65.198159 
3507.000000	65.203189 
3506.000000	65.210270 
3505.000000	65.219235 
3504.000000	65.229797 
3503.000000	65.241074 
3502.000000	65.251874 
3501.000000	65.260601 
3500.000000	65.265655 
3499.000000	65.265870 
3498.000000	65.260815 
3497.000000	65.251135 
3496.000000	65.238308 
3495.000000	65.224170 
3494.000000	65.210366 
3493.000000	65.197873 
3492.000000	65.186548 
3491.000000	65.175247 
3490.000000	65.161895 
3489.000000	65.144276 
3488.000000	65.120673 
3487.000000	65.090513 
3486.000000	65.054917 
3485.000000	65.016222 
3484.000000	64.978265 
3483.000000	64.945483 
3482.000000	64.922261 
3481.000000	64.911651 
3480.000000	64.915108 
3479.000000	64.931750 
3478.000000	64.958596 
3477.000000	64.991044 
3476.000000	65.023732 
3475.000000	65.051627 
3474.000000	65.070891 
3473.000000	65.079450 
3472.000000	65.077376 
3471.000000	65.066504 
3470.000000	65.049791 
3469.000000	65.030574 
3468.000000	65.011787 
3467.000000	64.995217 
3466.000000	64.981627 
3465.000000	64.970850 
3464.000000	64.962339 
3463.000000	64.955568 
3462.000000	64.950633 
3461.000000	64.948081 
3460.000000	64.948534 
3459.000000	64.952516 
3458.000000	64.959836 
3457.000000	64.969730 
3456.000000	64.980268 
3455.000000	64.989352 
3454.000000	64.995288 
3453.000000	64.996790 
3452.000000	64.993286 
3451.000000	64.985132 
3450.000000	64.973545 
3449.000000	64.960074 
3448.000000	64.946222 
3447.000000	64.933037 
3446.000000	64.921259 
3445.000000	64.911198 
3444.000000	64.903092 
3443.000000	64.897036 
3442.000000	64.893198 
3441.000000	64.891529 
3440.000000	64.891910 
3439.000000	64.893770 
3438.000000	64.896225 
3437.000000	64.898085 
3436.000000	64.898324 
3435.000000	64.896249 
3434.000000	64.892244 
3433.000000	64.887261 
3432.000000	64.883232 
3431.000000	64.882469 
3430.000000	64.887857 
3429.000000	64.901614 
3428.000000	64.925265 
3427.000000	64.959073 
3426.000000	65.001511 
3425.000000	65.049386 
3424.000000	65.098047 
3423.000000	65.142154 
3422.000000	65.176630 
3421.000000	65.197515 
3420.000000	65.202808 
3419.000000	65.192985 
3418.000000	65.170693 
3417.000000	65.140390 
3416.000000	65.107440 
3415.000000	65.077185 
3414.000000	65.053915 
3413.000000	65.040135 
3412.000000	65.036344 
3411.000000	65.041637 
3410.000000	65.054249 
3409.000000	65.072298 
3408.000000	65.093946 
3407.000000	65.117835 
3406.000000	65.142965 
3405.000000	65.168619 
3404.000000	65.193557 
3403.000000	65.216493 
3402.000000	65.236330 
3401.000000	65.251970 
3400.000000	65.263056 
3399.000000	65.269684 
3398.000000	65.272712 
3397.000000	65.273094 
3396.000000	65.271878 
3395.000000	65.269851 
3394.000000	65.267539 
3393.000000	65.265226 
3392.000000	65.263032 
3391.000000	65.261507 
3390.000000	65.261507 
3389.000000	65.264034 
3388.000000	65.269851 
3387.000000	65.278673 
3386.000000	65.288901 
3385.000000	65.297532 
3384.000000	65.300774 
3383.000000	65.294671 
3382.000000	65.276408 
3381.000000	65.245318 
3380.000000	65.203261 
3379.000000	65.154433 
3378.000000	65.104603 
3377.000000	65.059924 
3376.000000	65.025496 
3375.000000	65.004491 
3374.000000	64.997553 
3373.000000	65.002822 
3372.000000	65.016674 
3371.000000	65.034723 
3370.000000	65.052914 
3369.000000	65.068268 
3368.000000	65.079426 
3367.000000	65.086531 
3366.000000	65.090870 
3365.000000	65.093994 
3364.000000	65.097117 
3363.000000	65.100789 
3362.000000	65.104651 
3361.000000	65.107655 
3360.000000	65.108299 
3359.000000	65.105223 
3358.000000	65.097618 
3357.000000	65.085506 
3356.000000	65.070033 
3355.000000	65.053272 
3354.000000	65.037751 
3353.000000	65.026211 
3352.000000	65.020799 
3351.000000	65.023112 
3350.000000	65.033507 
3349.000000	65.051269 
3348.000000	65.075016 
3347.000000	65.102791 
3346.000000	65.132474 
3345.000000	65.161705 
3344.000000	65.188193 
3343.000000	65.209794 
3342.000000	65.224742 
3341.000000	65.231943 
3340.000000	65.231013 
3339.000000	65.222597 
3338.000000	65.208339 
3337.000000	65.190601 
3336.000000	65.172123 
3335.000000	65.155601 
3334.000000	65.143203 
3333.000000	65.135979 
3332.000000	65.133857 
3331.000000	65.135765 
3330.000000	65.139889 
3329.000000	65.144228 
3328.000000	65.146875 
3327.000000	65.146517 
3326.000000	65.142655 
3325.000000	65.135240 
3324.000000	65.124940 
3323.000000	65.112376 
3322.000000	65.098404 
3321.000000	65.083408 
3320.000000	65.068030 
3319.000000	65.052700 
3318.000000	65.038061 
3317.000000	65.025091 
3316.000000	65.014958 
3315.000000	65.008854 
3314.000000	65.007805 
3313.000000	65.012383 
3312.000000	65.022516 
3311.000000	65.037202 
3310.000000	65.054821 
3309.000000	65.073251 
3308.000000	65.090346 
3307.000000	65.104460 
3306.000000	65.114688 
3305.000000	65.120983 
3304.000000	65.124154 
3303.000000	65.125703 
3302.000000	65.127134 
3301.000000	65.129566 
3300.000000	65.133547 
3299.000000	65.138769 
3298.000000	65.144276 
3297.000000	65.148496 
3296.000000	65.149998 
3295.000000	65.147686 
3294.000000	65.141105 
3293.000000	65.130567 
3292.000000	65.117120 
3291.000000	65.102267 
3290.000000	65.087532 
3289.000000	65.074396 
3288.000000	65.063786 
3287.000000	65.056419 
3286.000000	65.052795 
3285.000000	65.053153 
3284.000000	65.057635 
3283.000000	65.066337 
3282.000000	65.079212 
3281.000000	65.095829 
3280.000000	65.115237 
3279.000000	65.136218 
3278.000000	65.157198 
3277.000000	65.176391 
3276.000000	65.192103 
3275.000000	65.203166 
3274.000000	65.209054 
3273.000000	65.210080 
3272.000000	65.207123 
3271.000000	65.201830 
3270.000000	65.195918 
3269.000000	65.191221 
3268.000000	65.188813 
3267.000000	65.189099 
3266.000000	65.191245 
3265.000000	65.193653 
3264.000000	65.193915 
3263.000000	65.189528 
3262.000000	65.178418 
3261.000000	65.159487 
3260.000000	65.133142 
3259.000000	65.101170 
3258.000000	65.066862 
3257.000000	65.034174 
3256.000000	65.006995 
3255.000000	64.988255 
3254.000000	64.979290 
3253.000000	64.979720 
3252.000000	64.987516 
3251.000000	64.999890 
3250.000000	65.013504 
3249.000000	65.025544 
3248.000000	65.034413 
3247.000000	65.039944 
3246.000000	65.042901 
3245.000000	65.044856 
3244.000000	65.047597 
3243.000000	65.052533 
3242.000000	65.060186 
3241.000000	65.070152 
3240.000000	65.080976 
3239.000000	65.090870 
3238.000000	65.097999 
3237.000000	65.101027 
3236.000000	65.099382 
3235.000000	65.093779 
3234.000000	65.085911 
3233.000000	65.078449 
3232.000000	65.074324 
3231.000000	65.076327 
3230.000000	65.086364 
3229.000000	65.104746 
3228.000000	65.129947 
3227.000000	65.158581 
3226.000000	65.185928 
3225.000000	65.206718 
3224.000000	65.216135 
3223.000000	65.210652 
3222.000000	65.189194 
3221.000000	65.152931 
3220.000000	65.105652 
3219.000000	65.052700 
3218.000000	65.000367 
3217.000000	64.954757 
3216.000000	64.920878 
3215.000000	64.901900 
3214.000000	64.898991 
3213.000000	64.911365 
3212.000000	64.936590 
3211.000000	64.971160 
3210.000000	65.011143 
3209.000000	65.052342 
3208.000000	65.091228 
3207.000000	65.124773 
3206.000000	65.151023 
3205.000000	65.168762 
3204.000000	65.177750 
3203.000000	65.178537 
3202.000000	65.171766 
3201.000000	65.158200 
3200.000000	65.138411 
3199.000000	65.113043 
3198.000000	65.082621 
3197.000000	65.048074 
3196.000000	65.010976 
3195.000000	64.973711 
3194.000000	64.939546 
3193.000000	64.912056 
3192.000000	64.894437 
3191.000000	64.889073 
3190.000000	64.896345 
3189.000000	64.914917 
3188.000000	64.941453 
3187.000000	64.971995 
3186.000000	65.002179 
3185.000000	65.029120 
3184.000000	65.051531 
3183.000000	65.070056 
3182.000000	65.086793 
3181.000000	65.104460 
3180.000000	65.125179 
3179.000000	65.149974 
3178.000000	65.178465 
3177.000000	65.208721 
3176.000000	65.237760 
3175.000000	65.262532 
3174.000000	65.280890 
3173.000000	65.291738 
3172.000000	65.295267 
3171.000000	65.292692 
3170.000000	65.285778 
3169.000000	65.276360 
3168.000000	65.265798 
3167.000000	65.255069 
3166.000000	65.244722 
3165.000000	65.235328 
3164.000000	65.227341 
3163.000000	65.221261 
3162.000000	65.217685 
3161.000000	65.216946 
3160.000000	65.219163 
3159.000000	65.224194 
3158.000000	65.231418 
3157.000000	65.239858 
3156.000000	65.248203 
3155.000000	65.254998 
3154.000000	65.258574 
3153.000000	65.257263 
3152.000000	65.249586 
3151.000000	65.234708 
3150.000000	65.212631 
3149.000000	65.184426 
3148.000000	65.152359 
3147.000000	65.119624 
3146.000000	65.089845 
3145.000000	65.066218 
3144.000000	65.050935 
3143.000000	65.044593 
3142.000000	65.045642 
3141.000000	65.050983 
3140.000000	65.056443 
3139.000000	65.058016 
3138.000000	65.052890 
3137.000000	65.040326 
3136.000000	65.021514 
3135.000000	64.999771 
3134.000000	64.979147 
3133.000000	64.963865 
3132.000000	64.956712 
3131.000000	64.958834 
3130.000000	64.969372 
3129.000000	64.985895 
3128.000000	65.005302 
3127.000000	65.024614 
3126.000000	65.041899 
3125.000000	65.056514 
3124.000000	65.069127 
3123.000000	65.080952 
3122.000000	65.092897 
3121.000000	65.104842 
3120.000000	65.115427 
3119.000000	65.122199 
3118.000000	65.122318 
3117.000000	65.113425 
3116.000000	65.094780 
3115.000000	65.067911 
3114.000000	65.036559 
3113.000000	65.005755 
3112.000000	64.980912 
3111.000000	64.966630 
3110.000000	64.965724 
3109.000000	64.978456 
3108.000000	65.002918 
3107.000000	65.035510 
3106.000000	65.071916 
3105.000000	65.108132 
3104.000000	65.141344 
3103.000000	65.169811 
3102.000000	65.193128 
3101.000000	65.211439 
3100.000000	65.224838 
3099.000000	65.233206 
3098.000000	65.235590 
3097.000000	65.230894 
3096.000000	65.218067 
3095.000000	65.196704 
3094.000000	65.167570 
3093.000000	65.132856 
3092.000000	65.095925 
3091.000000	65.061020 
3090.000000	65.032577 
3089.000000	65.014719 
3088.000000	65.010309 
3087.000000	65.020799 
3086.000000	65.045714 
3085.000000	65.082883 
3084.000000	65.128517 
3083.000000	65.177893 
3082.000000	65.225744 
3081.000000	65.267348 
3080.000000	65.298724 
3079.000000	65.317606 
3078.000000	65.323424 
3077.000000	65.317511 
3076.000000	65.302538 
3075.000000	65.282011 
3074.000000	65.259933 
3073.000000	65.239500 
3072.000000	65.223073 
3071.000000	65.211772 
3070.000000	65.205645 
3069.000000	65.203738 
3068.000000	65.204787 
3067.000000	65.207290 
3066.000000	65.209913 
3065.000000	65.211534 
3064.000000	65.211510 
3063.000000	65.209436 
3062.000000	65.205121 
3061.000000	65.198540 
3060.000000	65.189933 
3059.000000	65.179824 
3058.000000	65.168786 
3057.000000	65.157675 
3056.000000	65.147209 
3055.000000	65.137982 
3054.000000	65.130186 
3053.000000	65.123343 
3052.000000	65.116834 
3051.000000	65.109944 
3050.000000	65.102267 
3049.000000	65.093564 
3048.000000	65.084338 
3047.000000	65.075421 
3046.000000	65.067934 
3045.000000	65.062832 
3044.000000	65.060830 
3043.000000	65.061950 
3042.000000	65.065932 
3041.000000	65.072011 
3040.000000	65.079355 
3039.000000	65.087318 
3038.000000	65.095615 
3037.000000	65.104079 
3036.000000	65.112781 
3035.000000	65.121603 
3034.000000	65.130019 
3033.000000	65.137195 
3032.000000	65.141868 
3031.000000	65.142774 
3030.000000	65.139007 
3029.000000	65.130114 
3028.000000	65.116596 
3027.000000	65.099787 
3026.000000	65.081667 
3025.000000	65.064716 
3024.000000	65.051269 
3023.000000	65.043354 
3022.000000	65.042281 
3021.000000	65.048503 
3020.000000	65.061450 
3019.000000	65.079569 
3018.000000	65.100812 
3017.000000	65.122890 
3016.000000	65.143442 
3015.000000	65.160632 
3014.000000	65.173125 
3013.000000	65.180444 
3012.000000	65.182900 
3011.000000	65.181517 
3010.000000	65.177655 
3009.000000	65.173077 
3008.000000	65.169310 
3007.000000	65.167593 
3006.000000	65.168380 
3005.000000	65.171408 
3004.000000	65.175676 
3003.000000	65.179610 
3002.000000	65.181684 
3001.000000	65.180635 
3000.000000	65.176224 
2999.000000	65.168952 
2998.000000	65.160202 
2997.000000	65.152001 
2996.000000	65.146374 
2995.000000	65.144920 
2994.000000	65.148472 
2993.000000	65.156602 
2992.000000	65.167832 
2991.000000	65.180134 
2990.000000	65.191173 
2989.000000	65.198945 
2988.000000	65.201950 
2987.000000	65.199470 
2986.000000	65.191268 
2985.000000	65.177440 
2984.000000	65.158152 
2983.000000	65.133666 
2982.000000	65.104603 
2981.000000	65.071868 
2980.000000	65.036988 
2979.000000	65.002107 
2978.000000	64.969539 
2977.000000	64.941620 
2976.000000	64.919877 
2975.000000	64.904952 
2974.000000	64.896488 
2973.000000	64.893317 
2972.000000	64.893794 
2971.000000	64.896583 
2970.000000	64.900779 
2969.000000	64.906549 
2968.000000	64.914608 
2967.000000	64.926266 
2966.000000	64.942479 
2965.000000	64.963626 
2964.000000	64.988994 
2963.000000	65.017080 
2962.000000	65.045642 
2961.000000	65.072464 
2960.000000	65.095782 
2959.000000	65.114450 
2958.000000	65.128159 
2957.000000	65.137243 
2956.000000	65.142273 
2955.000000	65.143918 
2954.000000	65.142321 
2953.000000	65.137434 
2952.000000	65.128803 
2951.000000	65.115857 
2950.000000	65.098237 
2949.000000	65.075969 
2948.000000	65.049839 
2947.000000	65.021395 
2946.000000	64.992785 
2945.000000	64.966416 
2944.000000	64.944672 
2943.000000	64.929461 
2942.000000	64.921712 
2941.000000	64.921355 
2940.000000	64.927339 
2939.000000	64.937710 
2938.000000	64.950084 
2937.000000	64.961934 
2936.000000	64.971470 
2935.000000	64.977717 
2934.000000	64.981102 
2933.000000	64.982891 
2932.000000	64.985203 
2931.000000	64.990258 
2930.000000	64.999818 
2929.000000	65.014624 
2928.000000	65.034127 
2927.000000	65.056419 
2926.000000	65.078735 
2925.000000	65.097498 
2924.000000	65.109205 
2923.000000	65.111231 
2922.000000	65.102076 
2921.000000	65.081930 
2920.000000	65.052604 
2919.000000	65.017580 
2918.000000	64.981079 
2917.000000	64.947819 
2916.000000	64.921641 
2915.000000	64.905214 
2914.000000	64.899754 
2913.000000	64.904713 
2912.000000	64.918327 
2911.000000	64.937973 
2910.000000	64.960861 
2909.000000	64.984488 
2908.000000	65.006852 
2907.000000	65.026879 
2906.000000	65.043902 
2905.000000	65.058112 
2904.000000	65.070056 
2903.000000	65.080308 
2902.000000	65.089297 
2901.000000	65.097045 
2900.000000	65.103125 
2899.000000	65.106773 
2898.000000	65.107059 
2897.000000	65.103483 
2896.000000	65.095925 
2895.000000	65.085101 
2894.000000	65.072226 
2893.000000	65.058922 
2892.000000	65.046668 
2891.000000	65.036511 
2890.000000	65.028667 
2889.000000	65.022563 
2888.000000	65.017080 
2887.000000	65.010905 
2886.000000	65.002942 
2885.000000	64.992642 
2884.000000	64.980387 
2883.000000	64.967322 
2882.000000	64.955401 
2881.000000	64.946603 
2880.000000	64.942669 
2879.000000	64.944267 
2878.000000	64.951324 
2877.000000	64.962863 
2876.000000	64.977169 
2875.000000	64.992308 
2874.000000	65.006637 
2873.000000	65.019035 
2872.000000	65.029311 
2871.000000	65.037775 
2870.000000	65.045022 
2869.000000	65.051603 
2868.000000	65.057706 
2867.000000	65.062999 
2866.000000	65.066528 
2865.000000	65.067148 
2864.000000	65.064048 
2863.000000	65.057039 
2862.000000	65.046977 
2861.000000	65.035772 
2860.000000	65.026116 
2859.000000	65.020394 
2858.000000	65.020251 
2857.000000	65.025568 
2856.000000	65.034747 
2855.000000	65.044569 
2854.000000	65.051031 
2853.000000	65.050458 
2852.000000	65.040397 
2851.000000	65.020465 
2850.000000	64.992594 
2849.000000	64.960694 
2848.000000	64.930009 
2847.000000	64.905977 
2846.000000	64.893102 
2845.000000	64.894056 
2844.000000	64.909124 
2843.000000	64.936375 
2842.000000	64.971780 
2841.000000	65.010190 
2840.000000	65.046453 
2839.000000	65.075874 
2838.000000	65.095472 
2837.000000	65.103888 
2836.000000	65.101933 
2835.000000	65.092134 
2834.000000	65.078067 
2833.000000	65.064024 
2832.000000	65.053701 
2831.000000	65.049862 
2830.000000	65.053439 
2829.000000	65.064024 
2828.000000	65.079355 
2827.000000	65.096259 
2826.000000	65.111184 
2825.000000	65.121197 
2824.000000	65.124583 
2823.000000	65.121197 
2822.000000	65.112519 
2821.000000	65.101194 
2820.000000	65.090489 
2819.000000	65.083241 
2818.000000	65.081501 
2817.000000	65.085768 
2816.000000	65.095376 
2815.000000	65.108251 
2814.000000	65.121889 
2813.000000	65.133643 
2812.000000	65.141487 
2811.000000	65.144276 
2810.000000	65.141606 
2809.000000	65.134310 
2808.000000	65.123844 
2807.000000	65.112376 
2806.000000	65.102100 
2805.000000	65.095162 
2804.000000	65.093421 
2803.000000	65.098047 
2802.000000	65.109515 
2801.000000	65.127182 
2800.000000	65.149497 
2799.000000	65.174221 
2798.000000	65.198469 
2797.000000	65.219783 
2796.000000	65.236330 
2795.000000	65.247201 
2794.000000	65.252423 
2793.000000	65.252900 
2792.000000	65.249872 
2791.000000	65.244317 
2790.000000	65.236759 
2789.000000	65.227127 
2788.000000	65.214943 
2787.000000	65.199899 
2786.000000	65.181922 
2785.000000	65.161776 
2784.000000	65.140795 
2783.000000	65.120935 
2782.000000	65.104484 
2781.000000	65.093469 
2780.000000	65.089464 
2779.000000	65.092945 
2778.000000	65.103363 
2777.000000	65.119194 
2776.000000	65.138101 
2775.000000	65.157604 
2774.000000	65.175318 
2773.000000	65.189313 
2772.000000	65.198349 
2771.000000	65.201854 
2770.000000	65.199923 
2769.000000	65.193200 
2768.000000	65.182614 
2767.000000	65.169191 
2766.000000	65.154194 
2765.000000	65.139079 
2764.000000	65.125274 
2763.000000	65.114164 
2762.000000	65.106892 
2761.000000	65.104269 
2760.000000	65.106534 
2759.000000	65.113306 
2758.000000	65.123534 
2757.000000	65.135860 
2756.000000	65.148591 
2755.000000	65.160465 
2754.000000	65.170431 
2753.000000	65.178155 
2752.000000	65.183925 
2751.000000	65.188455 
2750.000000	65.192651 
2749.000000	65.197348 
2748.000000	65.202808 
2747.000000	65.208768 
2746.000000	65.214514 
2745.000000	65.218830 
2744.000000	65.220379 
2743.000000	65.218067 
2742.000000	65.211343 
2741.000000	65.200257 
2740.000000	65.185618 
2739.000000	65.168690 
2738.000000	65.151119 
2737.000000	65.134716 
2736.000000	65.120911 
2735.000000	65.110564 
2734.000000	65.103745 
2733.000000	65.100121 
2732.000000	65.099048 
2731.000000	65.099406 
2730.000000	65.100288 
2729.000000	65.101003 
2728.000000	65.101385 
2727.000000	65.101432 
2726.000000	65.101337 
2725.000000	65.101170 
2724.000000	65.100836 
2723.000000	65.099978 
2722.000000	65.097761 
2721.000000	65.093398 
2720.000000	65.085864 
2719.000000	65.074563 
2718.000000	65.059351 
2717.000000	65.040683 
2716.000000	65.019345 
2715.000000	64.996767 
2714.000000	64.974546 
2713.000000	64.954566 
2712.000000	64.938879 
2711.000000	64.929628 
2710.000000	64.928770 
2709.000000	64.938068 
2708.000000	64.958357 
2707.000000	64.989757 
2706.000000	65.031003 
2705.000000	65.079617 
2704.000000	65.131807 
2703.000000	65.183019 
2702.000000	65.228438 
2701.000000	65.263938 
2700.000000	65.286540 
2699.000000	65.294933 
2698.000000	65.289998 
2697.000000	65.274119 
2696.000000	65.250945 
2695.000000	65.224432 
2694.000000	65.198588 
2693.000000	65.176224 
2692.000000	65.159058 
2691.000000	65.147423 
2690.000000	65.140557 
2689.000000	65.136718 
2688.000000	65.134000 
2687.000000	65.130448 
2686.000000	65.124797 
2685.000000	65.116667 
2684.000000	65.106415 
2683.000000	65.095257 
2682.000000	65.084791 
2681.000000	65.076661 
2680.000000	65.071988 
2679.000000	65.071177 
2678.000000	65.073490 
2677.000000	65.077376 
2676.000000	65.080714 
2675.000000	65.081167 
2674.000000	65.076994 
2673.000000	65.067601 
2672.000000	65.053796 
2671.000000	65.037488 
2670.000000	65.021657 
2669.000000	65.009450 
2668.000000	65.003609 
2667.000000	65.005683 
2666.000000	65.015959 
2665.000000	65.033316 
2664.000000	65.055537 
2663.000000	65.079903 
2662.000000	65.103673 
2661.000000	65.124368 
2660.000000	65.140295 
2659.000000	65.150523 
2658.000000	65.154743 
2657.000000	65.153145 
2656.000000	65.146279 
2655.000000	65.134835 
2654.000000	65.119791 
2653.000000	65.102100 
2652.000000	65.083003 
2651.000000	65.063714 
2650.000000	65.045380 
2649.000000	65.028929 
2648.000000	65.014839 
2647.000000	65.003657 
2646.000000	64.995718 
2645.000000	64.991331 
2644.000000	64.990806 
2643.000000	64.994168 
2642.000000	65.001130 
2641.000000	65.010952 
2640.000000	65.022206 
2639.000000	65.033316 
2638.000000	65.042543 
2637.000000	65.048670 
2636.000000	65.051174 
2635.000000	65.050339 
2634.000000	65.047311 
2633.000000	65.043568 
2632.000000	65.040779 
2631.000000	65.039968 
2630.000000	65.041255 
2629.000000	65.043926 
2628.000000	65.046596 
2627.000000	65.047788 
2626.000000	65.046238 
2625.000000	65.041351 
2624.000000	65.033292 
2623.000000	65.022683 
2622.000000	65.010356 
2621.000000	64.997005 
2620.000000	64.982986 
2619.000000	64.968514 
2618.000000	64.953780 
2617.000000	64.939260 
2616.000000	64.925861 
2615.000000	64.914584 
2614.000000	64.906668 
2613.000000	64.902830 
2612.000000	64.903283 
2611.000000	64.907407 
2610.000000	64.914059 
2609.000000	64.921784 
2608.000000	64.929580 
2607.000000	64.937257 
2606.000000	64.945721 
2605.000000	64.956593 
2604.000000	64.971733 
2603.000000	64.992475 
2602.000000	65.018844 
2601.000000	65.049219 
2600.000000	65.080475 
2599.000000	65.108466 
2598.000000	65.129256 
2597.000000	65.139698 
2596.000000	65.138459 
2595.000000	65.126132 
2594.000000	65.105366 
2593.000000	65.079903 
2592.000000	65.053987 
2591.000000	65.031075 
2590.000000	65.013504 
2589.000000	65.001845 
2588.000000	64.995098 
2587.000000	64.991116 
2586.000000	64.987468 
2585.000000	64.982104 
2584.000000	64.973998 
2583.000000	64.963388 
2582.000000	64.951586 
2581.000000	64.940595 
2580.000000	64.932656 
2579.000000	64.929509 
2578.000000	64.931774 
2577.000000	64.939022 
2576.000000	64.949607 
2575.000000	64.961123 
2574.000000	64.970970 
2573.000000	64.976930 
2572.000000	64.977931 
2571.000000	64.973974 
2570.000000	64.966487 
2569.000000	64.957809 
2568.000000	64.950919 
2567.000000	64.948415 
2566.000000	64.952301 
2565.000000	64.963674 
2564.000000	64.982151 
2563.000000	65.006279 
2562.000000	65.033531 
2561.000000	65.060687 
2560.000000	65.084481 
2559.000000	65.102243 
2558.000000	65.112113 
2557.000000	65.113496 
2556.000000	65.107083 
2555.000000	65.094518 
2554.000000	65.078163 
2553.000000	65.060472 
2552.000000	65.043663 
2551.000000	65.029263 
2550.000000	65.018153 
2549.000000	65.010476 
2548.000000	65.005970 
2547.000000	65.004110 
2546.000000	65.004253 
2545.000000	65.005874 
2544.000000	65.008425 
2543.000000	65.011453 
2542.000000	65.014243 
2541.000000	65.016388 
2540.000000	65.017223 
2539.000000	65.016555 
2538.000000	65.014481 
2537.000000	65.011501 
2536.000000	65.008568 
2535.000000	65.006637 
2534.000000	65.006375 
2533.000000	65.007734 
2532.000000	65.010118 
2531.000000	65.012216 
2530.000000	65.012764 
2529.000000	65.010404 
2528.000000	65.004229 
2527.000000	64.994001 
2526.000000	64.980244 
2525.000000	64.963793 
2524.000000	64.945697 
2523.000000	64.927029 
2522.000000	64.908719 
2521.000000	64.891529 
2520.000000	64.876365 
2519.000000	64.864110 
2518.000000	64.855885 
2517.000000	64.852929 
2516.000000	64.856266 
2515.000000	64.866018 
2514.000000	64.881706 
2513.000000	64.901638 
2512.000000	64.923453 
2511.000000	64.944577 
2510.000000	64.962744 
2509.000000	64.976692 
2508.000000	64.986038 
2507.000000	64.991259 
2506.000000	64.993476 
2505.000000	64.993977 
2504.000000	64.993548 
2503.000000	64.992690 
2502.000000	64.991283 
2501.000000	64.988875 
2500.000000	64.984941 
2499.000000	64.979100 
2498.000000	64.971399 
2497.000000	64.962220 
2496.000000	64.952659 
2495.000000	64.944052 
2494.000000	64.937973 
2493.000000	64.935708 
2492.000000	64.938092 
2491.000000	64.945435 
2490.000000	64.957427 
2489.000000	64.973068 
2488.000000	64.990830 
2487.000000	65.009117 
2486.000000	65.026092 
2485.000000	65.040493 
2484.000000	65.051436 
2483.000000	65.058827 
2482.000000	65.063214 
2481.000000	65.065431 
2480.000000	65.066695 
2479.000000	65.067887 
2478.000000	65.069580 
2477.000000	65.071582 
2476.000000	65.073418 
2475.000000	65.073871 
2474.000000	65.071558 
2473.000000	65.064883 
2472.000000	65.052485 
2471.000000	65.033555 
2470.000000	65.008020 
2469.000000	64.976930 
2468.000000	64.942431 
2467.000000	64.907431 
2466.000000	64.875197 
2465.000000	64.848828 
2464.000000	64.830422 
2463.000000	64.820837 
2462.000000	64.819502 
2461.000000	64.824557 
2460.000000	64.833760 
2459.000000	64.844512 
2458.000000	64.855194 
2457.000000	64.864993 
2456.000000	64.874267 
2455.000000	64.884042 
2454.000000	64.895629 
2453.000000	64.909720 
2452.000000	64.926099 
2451.000000	64.943432 
2450.000000	64.959716 
2449.000000	64.972639 
2448.000000	64.980387 
2447.000000	64.982008 
2446.000000	64.977598 
2445.000000	64.968419 
2444.000000	64.956188 
2443.000000	64.942860 
2442.000000	64.930129 
2441.000000	64.919233 
2440.000000	64.910888 
2439.000000	64.905405 
2438.000000	64.902687 
2437.000000	64.902448 
2436.000000	64.904522 
2435.000000	64.908814 
2434.000000	64.915037 
2433.000000	64.923119 
2432.000000	64.932799 
2431.000000	64.943933 
2430.000000	64.956235 
2429.000000	64.969515 
2428.000000	64.983534 
2427.000000	64.997839 
2426.000000	65.012001 
2425.000000	65.025019 
2424.000000	65.035796 
2423.000000	65.042924 
2422.000000	65.044975 
2421.000000	65.040779 
2420.000000	65.029835 
2419.000000	65.012359 
2418.000000	64.989590 
2417.000000	64.963507 
2416.000000	64.936709 
2415.000000	64.911913 
2414.000000	64.891624 
2413.000000	64.877605 
2412.000000	64.870762 
2411.000000	64.871001 
2410.000000	64.877367 
2409.000000	64.888215 
2408.000000	64.901685 
2407.000000	64.915704 
2406.000000	64.928627 
2405.000000	64.939022 
2404.000000	64.946174 
2403.000000	64.949893 
2402.000000	64.950847 
2401.000000	64.950156 
2400.000000	64.949321 
2399.000000	64.950037 
2398.000000	64.953851 
2397.000000	64.961838 
2396.000000	64.974260 
2395.000000	64.990735 
2394.000000	65.009999 
2393.000000	65.030097 
2392.000000	65.048789 
2391.000000	65.063953 
2390.000000	65.073990 
2389.000000	65.077972 
2388.000000	65.075683 
2387.000000	65.067458 
2386.000000	65.054416 
2385.000000	65.037870 
2384.000000	65.019369 
2383.000000	65.000391 
2382.000000	64.982414 
2381.000000	64.966726 
2380.000000	64.954233 
2379.000000	64.945507 
2378.000000	64.940619 
2377.000000	64.939141 
2376.000000	64.940500 
2375.000000	64.943909 
2374.000000	64.948368 
2373.000000	64.953088 
2372.000000	64.957284 
2371.000000	64.960503 
2370.000000	64.962387 
2369.000000	64.962744 
2368.000000	64.961481 
2367.000000	64.958548 
2366.000000	64.954042 
2365.000000	64.948368 
2364.000000	64.942073 
2363.000000	64.935851 
2362.000000	64.930272 
2361.000000	64.925503 
2360.000000	64.921283 
2359.000000	64.916777 
2358.000000	64.910960 
2357.000000	64.902806 
2356.000000	64.891982 
2355.000000	64.878964 
2354.000000	64.865279 
2353.000000	64.853096 
2352.000000	64.844846 
2351.000000	64.842557 
2350.000000	64.847493 
2349.000000	64.859414 
2348.000000	64.877057 
2347.000000	64.898109 
2346.000000	64.919829 
2345.000000	64.939618 
2344.000000	64.955449 
2343.000000	64.966320 
2342.000000	64.971971 
2341.000000	64.972734 
2340.000000	64.969158 
2339.000000	64.961886 
2338.000000	64.951443 
2337.000000	64.938306 
2336.000000	64.923238 
2335.000000	64.907312 
2334.000000	64.891886 
2333.000000	64.878559 
2332.000000	64.868736 
2331.000000	64.863467 
2330.000000	64.863109 
2329.000000	64.867138 
2328.000000	64.874458 
2327.000000	64.883375 
2326.000000	64.892101 
2325.000000	64.899325 
2324.000000	64.904332 
2323.000000	64.907312 
2322.000000	64.909076 
2321.000000	64.910912 
2320.000000	64.914226 
2319.000000	64.920139 
2318.000000	64.929103 
2317.000000	64.940857 
2316.000000	64.954519 
2315.000000	64.968705 
2314.000000	64.981913 
2313.000000	64.992785 
2312.000000	65.000486 
2311.000000	65.004634 
2310.000000	65.005683 
2309.000000	65.004539 
2308.000000	65.002131 
2307.000000	64.999198 
2306.000000	64.995837 
2305.000000	64.991593 
2304.000000	64.985632 
2303.000000	64.976978 
2302.000000	64.965152 
2301.000000	64.950442 
2300.000000	64.934015 
2299.000000	64.917969 
2298.000000	64.904928 
2297.000000	64.897155 
2296.000000	64.896440 
2295.000000	64.903283 
2294.000000	64.916896 
2293.000000	64.935135 
2292.000000	64.955115 
2291.000000	64.973783 
2290.000000	64.988541 
2289.000000	64.997529 
2288.000000	65.000152 
2287.000000	64.996647 
2286.000000	64.988160 
2285.000000	64.976048 
2284.000000	64.961910 
2283.000000	64.947152 
2282.000000	64.933037 
2281.000000	64.920520 
2280.000000	64.910411 
2279.000000	64.903140 
2278.000000	64.898943 
2277.000000	64.897799 
2276.000000	64.899182 
2275.000000	64.902377 
2274.000000	64.906311 
2273.000000	64.910030 
2272.000000	64.912652 
2271.000000	64.913725 
2270.000000	64.913272 
2269.000000	64.911699 
2268.000000	64.909648 
2267.000000	64.907670 
2266.000000	64.906263 
2265.000000	64.905405 
2264.000000	64.904689 
2263.000000	64.903402 
2262.000000	64.900708 
2261.000000	64.896035 
2260.000000	64.889168 
2259.000000	64.880394 
2258.000000	64.870285 
2257.000000	64.859914 
2256.000000	64.850378 
2255.000000	64.842796 
2254.000000	64.837837 
2253.000000	64.835858 
2252.000000	64.836668 
2251.000000	64.839744 
2250.000000	64.844393 
2249.000000	64.849710 
2248.000000	64.854884 
2247.000000	64.859271 
2246.000000	64.862656 
2245.000000	64.865040 
2244.000000	64.866971 
2243.000000	64.869356 
2242.000000	64.873337 
2241.000000	64.880299 
2240.000000	64.891433 
2239.000000	64.907503 
2238.000000	64.928412 
2237.000000	64.953207 
2236.000000	64.979672 
2235.000000	65.005064 
2234.000000	65.026068 
2233.000000	65.039539 
2232.000000	65.043115 
2231.000000	65.035820 
2230.000000	65.018320 
2229.000000	64.992761 
2228.000000	64.962577 
2227.000000	64.931917 
2226.000000	64.904713 
2225.000000	64.884090 
2224.000000	64.871978 
2223.000000	64.868617 
2222.000000	64.872860 
2221.000000	64.882373 
2220.000000	64.894413 
2219.000000	64.906120 
2218.000000	64.914989 
2217.000000	64.919400 
2216.000000	64.918327 
2215.000000	64.911890 
2214.000000	64.900779 
2213.000000	64.886283 
2212.000000	64.870071 
2211.000000	64.854049 
2210.000000	64.840149 
2209.000000	64.830088 
2208.000000	64.825105 
2207.000000	64.825820 
2206.000000	64.832186 
2205.000000	64.843297 
2204.000000	64.857482 
2203.000000	64.872574 
2202.000000	64.886260 
2201.000000	64.896512 
2200.000000	64.901924 
2199.000000	64.902019 
2198.000000	64.897370 
2197.000000	64.889478 
2196.000000	64.880514 
2195.000000	64.872479 
2194.000000	64.867115 
2193.000000	64.865469 
2192.000000	64.867782 
2191.000000	64.873528 
2190.000000	64.881658 
2189.000000	64.891052 
2188.000000	64.900541 
2187.000000	64.909482 
2186.000000	64.917421 
2185.000000	64.924144 
2184.000000	64.929342 
2183.000000	64.932489 
2182.000000	64.933085 
2181.000000	64.930486 
2180.000000	64.924502 
2179.000000	64.915561 
2178.000000	64.904785 
2177.000000	64.893794 
2176.000000	64.884471 
2175.000000	64.878487 
2174.000000	64.876651 
2173.000000	64.878869 
2172.000000	64.883947 
2171.000000	64.890122 
2170.000000	64.895510 
2169.000000	64.898705 
2168.000000	64.899230 
2167.000000	64.897632 
2166.000000	64.895272 
2165.000000	64.893794 
2164.000000	64.894533 
2163.000000	64.897966 
2162.000000	64.903521 
2161.000000	64.910006 
2160.000000	64.915776 
2159.000000	64.919137 
2158.000000	64.919304 
2157.000000	64.915800 
2156.000000	64.908766 
2155.000000	64.898300 
2154.000000	64.884424 
2153.000000	64.866685 
2152.000000	64.844417 
2151.000000	64.817118 
2150.000000	64.784979 
2149.000000	64.749407 
2148.000000	64.713096 
2147.000000	64.679861 
2146.000000	64.653897 
2145.000000	64.638900 
2144.000000	64.637112 
2143.000000	64.648795 
2142.000000	64.671993 
2141.000000	64.702868 
2140.000000	64.736771 
2139.000000	64.769101 
2138.000000	64.796280 
2137.000000	64.816403 
2136.000000	64.829444 
2135.000000	64.836573 
2134.000000	64.840054 
2133.000000	64.842176 
2132.000000	64.844703 
2131.000000	64.848613 
2130.000000	64.853549 
2129.000000	64.858627 
2128.000000	64.862346 
2127.000000	64.863443 
2126.000000	64.861106 
2125.000000	64.855456 
2124.000000	64.847373 
2123.000000	64.838361 
2122.000000	64.830064 
2121.000000	64.823794 
2120.000000	64.820623 
2119.000000	64.820909 
2118.000000	64.824461 
2117.000000	64.830636 
2116.000000	64.838671 
2115.000000	64.847731 
2114.000000	64.857101 
2113.000000	64.866089 
2112.000000	64.873862 
2111.000000	64.879536 
2110.000000	64.882254 
2109.000000	64.881348 
2108.000000	64.876270 
2107.000000	64.866852 
2106.000000	64.854025 
2105.000000	64.839148 
2104.000000	64.824080 
2103.000000	64.810538 
2102.000000	64.800190 
2101.000000	64.793729 
2100.000000	64.790940 
2099.000000	64.791011 
2098.000000	64.792537 
2097.000000	64.794540 
2096.000000	64.796638 
2095.000000	64.799690 
2094.000000	64.805459 
2093.000000	64.816212 
2092.000000	64.833974 
2091.000000	64.859437 
2090.000000	64.891123 
2089.000000	64.925479 
2088.000000	64.957213 
2087.000000	64.980363 
2086.000000	64.989423 
2085.000000	64.981126 
2084.000000	64.954757 
2083.000000	64.912629 
2082.000000	64.859342 
2081.000000	64.800810 
2080.000000	64.742994 
2079.000000	64.690685 
2078.000000	64.646935 
2077.000000	64.612960 
2076.000000	64.588499 
2075.000000	64.572620 
2074.000000	64.564275 
2073.000000	64.562988 
2072.000000	64.568924 
2071.000000	64.582633 
2070.000000	64.604520 
2069.000000	64.634037 
2068.000000	64.669513 
2067.000000	64.707946 
2066.000000	64.745640 
2065.000000	64.778685 
2064.000000	64.804220 
2063.000000	64.820766 
2062.000000	64.828753 
2061.000000	64.830088 
2060.000000	64.827561 
2059.000000	64.824032 
2058.000000	64.821624 
2057.000000	64.821553 
2056.000000	64.823961 
2055.000000	64.828109 
2054.000000	64.833354 
2053.000000	64.838695 
2052.000000	64.843535 
2051.000000	64.847493 
2050.000000	64.850330 
2049.000000	64.851760 
2048.000000	64.851284 
2047.000000	64.848661 
2046.000000	64.843893 
2045.000000	64.837551 
2044.000000	64.830613 
2043.000000	64.824509 
2042.000000	64.820861 
2041.000000	64.820814 
2040.000000	64.824748 
2039.000000	64.831972 
2038.000000	64.840888 
2037.000000	64.849424 
2036.000000	64.855694 
2035.000000	64.858603 
2034.000000	64.858031 
2033.000000	64.855217 
2032.000000	64.852142 
2031.000000	64.850831 
2030.000000	64.852809 
2029.000000	64.858365 
2028.000000	64.866638 
2027.000000	64.875555 
2026.000000	64.882564 
2025.000000	64.885377 
2024.000000	64.882612 
2023.000000	64.874291 
2022.000000	64.861869 
2021.000000	64.847946 
2020.000000	64.835548 
2019.000000	64.827322 
2018.000000	64.824962 
2017.000000	64.828848 
2016.000000	64.838123 
2015.000000	64.850831 
2014.000000	64.864563 
2013.000000	64.877009 
2012.000000	64.886498 
2011.000000	64.892268 
2010.000000	64.894390 
2009.000000	64.893722 
2008.000000	64.891505 
2007.000000	64.888978 
2006.000000	64.887166 
2005.000000	64.886593 
2004.000000	64.887380 
2003.000000	64.888954 
2002.000000	64.890313 
2001.000000	64.890241 
2000.000000	64.887547 
1999.000000	64.881420 
1998.000000	64.871478 
1997.000000	64.858174 
1996.000000	64.842534 
1995.000000	64.826130 
1994.000000	64.810729 
1993.000000	64.797973 
1992.000000	64.789009 
1991.000000	64.784383 
1990.000000	64.783978 
1989.000000	64.787173 
1988.000000	64.792990 
1987.000000	64.800405 
1986.000000	64.808368 
1985.000000	64.815974 
1984.000000	64.822411 
1983.000000	64.826869 
1982.000000	64.828610 
1981.000000	64.826941 
1980.000000	64.821648 
1979.000000	64.813160 
1978.000000	64.802789 
1977.000000	64.792680 
1976.000000	64.785313 
1975.000000	64.783072 
1974.000000	64.787602 
1973.000000	64.799261 
1972.000000	64.817070 
1971.000000	64.838528 
1970.000000	64.860463 
1969.000000	64.879560 
1968.000000	64.893174 
1967.000000	64.899802 
1966.000000	64.899206 
1965.000000	64.892435 
1964.000000	64.881277 
1963.000000	64.867544 
1962.000000	64.853000 
1961.000000	64.838838 
1960.000000	64.825868 
1959.000000	64.814662 
1958.000000	64.805889 
1957.000000	64.800310 
1956.000000	64.798712 
1955.000000	64.801788 
1954.000000	64.809513 
1953.000000	64.821004 
1952.000000	64.834618 
1951.000000	64.848423 
1950.000000	64.860248 
1949.000000	64.868497 
1948.000000	64.872646 
1947.000000	64.873361 
1946.000000	64.872336 
1945.000000	64.871668 
1944.000000	64.873433 
1943.000000	64.878726 
1942.000000	64.887619 
1941.000000	64.898753 
1940.000000	64.909887 
1939.000000	64.918303 
1938.000000	64.921617 
1937.000000	64.918136 
1936.000000	64.907407 
1935.000000	64.890098 
1934.000000	64.867806 
1933.000000	64.842629 
1932.000000	64.816832 
1931.000000	64.792346 
1930.000000	64.770650 
1929.000000	64.752531 
1928.000000	64.738082 
1927.000000	64.726901 
1926.000000	64.718270 
1925.000000	64.711308 
1924.000000	64.705181 
1923.000000	64.699029 
1922.000000	64.692664 
1921.000000	64.686250 
1920.000000	64.680624 
1919.000000	64.676880 
1918.000000	64.676451 
1917.000000	64.680528 
1916.000000	64.689922 
1915.000000	64.704632 
1914.000000	64.723634 
1913.000000	64.745140 
1912.000000	64.766907 
1911.000000	64.786458 
1910.000000	64.801669 
1909.000000	64.811086 
1908.000000	64.814138 
1907.000000	64.811182 
1906.000000	64.803314 
1905.000000	64.791941 
1904.000000	64.778804 
1903.000000	64.765357 
1902.000000	64.752626 
1901.000000	64.741277 
1900.000000	64.731717 
1899.000000	64.724349 
1898.000000	64.719533 
1897.000000	64.717650 
1896.000000	64.718985 
1895.000000	64.723849 
1894.000000	64.732074 
1893.000000	64.743041 
1892.000000	64.755535 
1891.000000	64.767885 
1890.000000	64.778161 
1889.000000	64.784693 
1888.000000	64.786124 
1887.000000	64.781904 
1886.000000	64.772295 
1885.000000	64.758443 
1884.000000	64.741969 
1883.000000	64.724898 
1882.000000	64.708924 
1881.000000	64.695405 
1880.000000	64.685153 
1879.000000	64.678525 
1878.000000	64.675760 
1877.000000	64.676904 
1876.000000	64.681911 
1875.000000	64.690709 
1874.000000	64.703154 
1873.000000	64.718723 
1872.000000	64.736294 
1871.000000	64.754390 
1870.000000	64.771032 
1869.000000	64.784288 
1868.000000	64.792418 
1867.000000	64.794397 
1866.000000	64.790010 
1865.000000	64.779973 
1864.000000	64.765930 
1863.000000	64.750027 
1862.000000	64.734649 
1861.000000	64.721989 
1860.000000	64.713931 
1859.000000	64.711737 
1858.000000	64.715933 
1857.000000	64.726376 
1856.000000	64.741969 
1855.000000	64.761090 
1854.000000	64.781427 
1853.000000	64.800548 
1852.000000	64.816164 
1851.000000	64.826512 
1850.000000	64.830803 
1849.000000	64.829349 
1848.000000	64.823484 
1847.000000	64.815258 
1846.000000	64.806914 
1845.000000	64.800333 
1844.000000	64.796710 
1843.000000	64.796113 
1842.000000	64.797759 
1841.000000	64.799976 
1840.000000	64.801096 
1839.000000	64.799547 
1838.000000	64.794397 
1837.000000	64.785480 
1836.000000	64.773178 
1835.000000	64.758300 
1834.000000	64.741802 
1833.000000	64.724540 
1832.000000	64.707112 
1831.000000	64.689993 
1830.000000	64.673542 
1829.000000	64.658308 
1828.000000	64.645004 
1827.000000	64.634418 
1826.000000	64.627313 
1825.000000	64.624142 
1824.000000	64.624977 
1823.000000	64.629173 
1822.000000	64.635443 
1821.000000	64.642143 
1820.000000	64.647603 
1819.000000	64.650344 
1818.000000	64.649510 
1817.000000	64.644837 
1816.000000	64.636945 
1815.000000	64.626741 
1814.000000	64.615654 
1813.000000	64.605236 
1812.000000	64.596986 
1811.000000	64.592170 
1810.000000	64.591670 
1809.000000	64.595746 
1808.000000	64.604043 
1807.000000	64.615774 
1806.000000	64.629626 
1805.000000	64.644050 
1804.000000	64.657568 
1803.000000	64.668750 
1802.000000	64.676690 
1801.000000	64.680743 
1800.000000	64.680838 
1799.000000	64.677309 
1798.000000	64.670848 
1797.000000	64.662337 
1796.000000	64.652705 
1795.000000	64.643096 
1794.000000	64.634585 
1793.000000	64.628171 
1792.000000	64.624476 
1791.000000	64.623737 
1790.000000	64.625597 
1789.000000	64.629149 
1788.000000	64.632892 
1787.000000	64.635181 
1786.000000	64.634633 
1785.000000	64.630603 
1784.000000	64.623236 
1783.000000	64.613533 
1782.000000	64.602994 
1781.000000	64.593410 
1780.000000	64.586138 
1779.000000	64.581990 
1778.000000	64.580988 
1777.000000	64.582562 
1776.000000	64.585804 
1775.000000	64.589810 
1774.000000	64.594054 
1773.000000	64.598345 
1772.000000	64.602971 
1771.000000	64.608216 
1770.000000	64.614224 
1769.000000	64.620637 
1768.000000	64.626526 
1767.000000	64.630436 
1766.000000	64.630818 
1765.000000	64.626502 
1764.000000	64.616799 
1763.000000	64.602112 
1762.000000	64.583492 
1761.000000	64.562773 
1760.000000	64.541816 
1759.000000	64.522218 
1758.000000	64.504957 
1757.000000	64.490151 
1756.000000	64.477300 
1755.000000	64.465570 
1754.000000	64.454412 
1753.000000	64.443564 
1752.000000	64.433455 
1751.000000	64.425182 
1750.000000	64.420104 
1749.000000	64.419341 
1748.000000	64.423656 
1747.000000	64.432811 
1746.000000	64.445781 
1745.000000	64.460730 
1744.000000	64.475250 
1743.000000	64.486956 
1742.000000	64.493751 
1741.000000	64.494371 
1740.000000	64.488554 
1739.000000	64.476966 
1738.000000	64.461183 
1737.000000	64.443373 
1736.000000	64.425754 
1735.000000	64.410257 
1734.000000	64.398336 
1733.000000	64.390516 
1732.000000	64.386391 
1731.000000	64.384746 
1730.000000	64.383792 
1729.000000	64.381766 
1728.000000	64.376950 
1727.000000	64.368486 
1726.000000	64.356255 
1725.000000	64.341211 
1724.000000	64.324927 
1723.000000	64.309644 
1722.000000	64.297556 
1721.000000	64.290738 
1720.000000	64.290595 
1719.000000	64.297699 
1718.000000	64.311814 
1717.000000	64.331912 
1716.000000	64.356231 
1715.000000	64.382767 
1714.000000	64.409494 
1713.000000	64.434742 
1712.000000	64.457488 
1711.000000	64.477324 
1710.000000	64.494466 
1709.000000	64.509725 
1708.000000	64.523839 
1707.000000	64.537811 
1706.000000	64.551949 
1705.000000	64.566040 
1704.000000	64.578986 
1703.000000	64.589548 
1702.000000	64.596033 
1701.000000	64.596986 
1700.000000	64.591550 
1699.000000	64.579772 
1698.000000	64.562940 
1697.000000	64.543271 
1696.000000	64.523673 
1695.000000	64.507341 
1694.000000	64.496946 
1693.000000	64.494228 
1692.000000	64.499473 
1691.000000	64.511656 
1690.000000	64.528465 
1689.000000	64.546895 
1688.000000	64.563798 
1687.000000	64.576435 
1686.000000	64.583063 
1685.000000	64.583158 
1684.000000	64.577174 
1683.000000	64.566540 
1682.000000	64.553380 
1681.000000	64.540171 
1680.000000	64.529180 
1679.000000	64.522218 
1678.000000	64.520597 
1677.000000	64.524912 
1676.000000	64.535117 
1675.000000	64.550209 
1674.000000	64.568686 
1673.000000	64.588594 
1672.000000	64.607620 
1671.000000	64.623713 
1670.000000	64.635157 
1669.000000	64.640831 
1668.000000	64.640498 
1667.000000	64.634609 
1666.000000	64.623928 
1665.000000	64.609575 
1664.000000	64.592790 
1663.000000	64.574623 
1662.000000	64.555931 
1661.000000	64.537405 
1660.000000	64.519596 
1659.000000	64.502882 
1658.000000	64.487457 
1657.000000	64.473152 
1656.000000	64.459776 
1655.000000	64.446854 
1654.000000	64.434361 
1653.000000	64.422249 
1652.000000	64.410996 
1651.000000	64.401412 
1650.000000	64.394760 
1649.000000	64.392209 
1648.000000	64.394640 
1647.000000	64.402413 
1646.000000	64.414978 
1645.000000	64.430832 
1644.000000	64.447927 
1643.000000	64.463925 
1642.000000	64.476966 
1641.000000	64.485788 
1640.000000	64.490222 
1639.000000	64.491128 
1638.000000	64.490151 
1637.000000	64.489269 
1636.000000	64.490103 
1635.000000	64.493465 
1634.000000	64.499139 
1633.000000	64.505982 
1632.000000	64.512228 
1631.000000	64.515829 
1630.000000	64.515352 
1629.000000	64.510297 
1628.000000	64.501261 
1627.000000	64.489674 
1626.000000	64.477825 
1625.000000	64.467906 
1624.000000	64.461612 
1623.000000	64.459633 
1622.000000	64.461708 
1621.000000	64.466381 
1620.000000	64.471697 
1619.000000	64.475655 
1618.000000	64.476656 
1617.000000	64.474129 
1616.000000	64.468455 
1615.000000	64.461135 
1614.000000	64.454197 
1613.000000	64.449882 
1612.000000	64.449954 
1611.000000	64.455318 
1610.000000	64.465808 
1609.000000	64.480066 
1608.000000	64.495730 
1607.000000	64.510011 
1606.000000	64.520478 
1605.000000	64.525341 
1604.000000	64.524126 
1603.000000	64.517641 
1602.000000	64.507770 
1601.000000	64.496850 
1600.000000	64.487123 
1599.000000	64.480113 
1598.000000	64.476346 
1597.000000	64.475417 
1596.000000	64.476060 
1595.000000	64.477038 
1594.000000	64.476919 
1593.000000	64.474725 
1592.000000	64.470267 
1591.000000	64.463806 
1590.000000	64.456415 
1589.000000	64.449405 
1588.000000	64.444398 
1587.000000	64.442777 
1586.000000	64.445734 
1585.000000	64.453840 
1584.000000	64.467072 
1583.000000	64.484715 
1582.000000	64.505577 
1581.000000	64.528131 
1580.000000	64.550709 
1579.000000	64.571547 
1578.000000	64.589166 
1577.000000	64.602565 
1576.000000	64.610981 
1575.000000	64.613986 
1574.000000	64.611768 
1573.000000	64.604949 
1572.000000	64.594388 
1571.000000	64.581418 
1570.000000	64.567494 
1569.000000	64.554238 
1568.000000	64.543271 
1567.000000	64.536142 
1566.000000	64.534068 
1565.000000	64.537644 
1564.000000	64.546895 
1563.000000	64.560842 
1562.000000	64.577889 
1561.000000	64.595723 
1560.000000	64.611673 
1559.000000	64.623260 
1558.000000	64.628744 
1557.000000	64.627313 
1556.000000	64.619278 
1555.000000	64.605879 
1554.000000	64.588856 
1553.000000	64.570021 
1552.000000	64.550924 
1551.000000	64.532566 
1550.000000	64.515447 
1549.000000	64.499640 
1548.000000	64.485073 
1547.000000	64.471626 
1546.000000	64.459323 
1545.000000	64.448332 
1544.000000	64.439010 
1543.000000	64.431834 
1542.000000	64.427232 
1541.000000	64.425587 
1540.000000	64.426851 
1539.000000	64.430499 
1538.000000	64.435482 
1537.000000	64.440584 
1536.000000	64.444494 
1535.000000	64.446139 
1534.000000	64.444851 
1533.000000	64.440679 
1532.000000	64.434266 
1531.000000	64.426612 
1530.000000	64.418983 
1529.000000	64.412569 
1528.000000	64.408469 
1527.000000	64.407539 
1526.000000	64.410328 
1525.000000	64.417004 
1524.000000	64.427399 
1523.000000	64.441227 
1522.000000	64.457821 
1521.000000	64.476442 
1520.000000	64.496207 
1519.000000	64.516162 
1518.000000	64.535593 
1517.000000	64.553928 
1516.000000	64.570879 
1515.000000	64.586400 
1514.000000	64.600658 
1513.000000	64.613819 
1512.000000	64.626002 
1511.000000	64.637041 
1510.000000	64.646673 
1509.000000	64.654445 
1508.000000	64.660143 
1507.000000	64.663648 
1506.000000	64.665293 
1505.000000	64.665365 
1504.000000	64.664459 
1503.000000	64.662742 
1502.000000	64.660120 
1501.000000	64.656186 
1500.000000	64.650249 
1499.000000	64.641690 
1498.000000	64.630341 
1497.000000	64.616632 
1496.000000	64.601659 
1495.000000	64.587163 
1494.000000	64.574933 
1493.000000	64.566397 
1492.000000	64.561891 
1491.000000	64.560675 
1490.000000	64.561009 
1489.000000	64.560675 
1488.000000	64.557647 
1487.000000	64.550590 
1486.000000	64.539313 
1485.000000	64.524745 
1484.000000	64.508771 
1483.000000	64.493441 
1482.000000	64.480710 
1481.000000	64.471888 
1480.000000	64.467501 
1479.000000	64.467096 
1478.000000	64.469385 
1477.000000	64.472794 
1476.000000	64.475727 
1475.000000	64.476895 
1474.000000	64.475870 
1473.000000	64.473032 
1472.000000	64.469647 
1471.000000	64.467334 
1470.000000	64.467978 
1469.000000	64.472770 
1468.000000	64.482450 
1467.000000	64.496612 
1466.000000	64.513945 
1465.000000	64.532256 
1464.000000	64.549040 
1463.000000	64.561986 
1462.000000	64.569520 
1461.000000	64.571070 
1460.000000	64.567112 
1459.000000	64.559054 
1458.000000	64.548993 
1457.000000	64.538979 
1456.000000	64.530801 
1455.000000	64.525461 
1454.000000	64.523124 
1453.000000	64.523077 
1452.000000	64.524221 
1451.000000	64.525294 
1450.000000	64.525294 
1449.000000	64.523601 
1448.000000	64.520192 
1447.000000	64.515590 
1446.000000	64.510679 
1445.000000	64.506363 
1444.000000	64.503431 
1443.000000	64.502573 
1442.000000	64.504170 
1441.000000	64.508247 
1440.000000	64.514303 
1439.000000	64.521241 
1438.000000	64.527249 
1437.000000	64.530348 
1436.000000	64.528512 
1435.000000	64.520192 
1434.000000	64.504885 
1433.000000	64.483451 
1432.000000	64.457988 
1431.000000	64.431595 
1430.000000	64.407587 
1429.000000	64.388847 
1428.000000	64.377140 
1427.000000	64.372611 
1426.000000	64.373898 
1425.000000	64.378523 
1424.000000	64.383387 
1423.000000	64.385843 
1422.000000	64.384078 
1421.000000	64.377617 
1420.000000	64.367079 
1419.000000	64.353966 
1418.000000	64.340186 
1417.000000	64.327406 
1416.000000	64.317035 
1415.000000	64.309978 
1414.000000	64.306926 
1413.000000	64.308333 
1412.000000	64.314699 
1411.000000	64.326238 
1410.000000	64.342927 
1409.000000	64.364242 
1408.000000	64.388823 
1407.000000	64.414739 
1406.000000	64.439535 
1405.000000	64.460539 
1404.000000	64.475846 
1403.000000	64.484214 
1402.000000	64.485716 
1401.000000	64.481234 
1400.000000	64.472317 
1399.000000	64.460468 
1398.000000	64.447045 
1397.000000	64.432883 
1396.000000	64.418315 
1395.000000	64.403343 
1394.000000	64.388346 
1393.000000	64.373874 
1392.000000	64.361143 
1391.000000	64.351367 
1390.000000	64.345741 
1389.000000	64.344882 
1388.000000	64.348602 
1387.000000	64.355683 
1386.000000	64.364171 
1385.000000	64.371657 
1384.000000	64.375877 
1383.000000	64.375305 
1382.000000	64.369487 
1381.000000	64.359116 
1380.000000	64.345908 
1379.000000	64.332008 
1378.000000	64.319634 
1377.000000	64.310503 
1376.000000	64.305639 
1375.000000	64.305186 
1374.000000	64.308691 
1373.000000	64.315366 
1372.000000	64.324331 
1371.000000	64.334917 
1370.000000	64.346456 
1369.000000	64.358234 
1368.000000	64.369535 
1367.000000	64.379429 
1366.000000	64.387011 
1365.000000	64.391183 
1364.000000	64.391303 
1363.000000	64.387202 
1362.000000	64.379525 
1361.000000	64.369344 
1360.000000	64.358186 
1359.000000	64.347338 
1358.000000	64.337611 
1357.000000	64.328932 
1356.000000	64.320516 
1355.000000	64.311027 
1354.000000	64.299464 
1353.000000	64.285469 
1352.000000	64.269518 
1351.000000	64.253187 
1350.000000	64.238500 
1349.000000	64.227986 
1348.000000	64.223361 
1347.000000	64.226055 
1346.000000	64.236378 
1345.000000	64.254069 
1344.000000	64.278244 
1343.000000	64.307880 
1342.000000	64.341735 
1341.000000	64.378404 
1340.000000	64.416313 
1339.000000	64.453530 
1338.000000	64.487600 
1337.000000	64.516115 
1336.000000	64.536619 
1335.000000	64.547491 
1334.000000	64.547967 
1333.000000	64.538764 
1332.000000	64.521694 
1331.000000	64.499187 
1330.000000	64.473676 
1329.000000	64.447283 
1328.000000	64.421153 
1327.000000	64.395880 
1326.000000	64.371371 
1325.000000	64.347624 
1324.000000	64.325237 
1323.000000	64.305377 
1322.000000	64.289760 
1321.000000	64.280319 
1320.000000	64.278602 
1319.000000	64.285135 
1318.000000	64.299345 
1317.000000	64.319229 
1316.000000	64.342141 
1315.000000	64.365029 
1314.000000	64.385366 
1313.000000	64.401340 
1312.000000	64.412283 
1311.000000	64.418339 
1310.000000	64.420032 
1309.000000	64.417815 
1308.000000	64.411950 
1307.000000	64.402604 
1306.000000	64.389777 
1305.000000	64.373540 
1304.000000	64.354658 
1303.000000	64.334392 
1302.000000	64.314675 
1301.000000	64.297723 
1300.000000	64.285492 
1299.000000	64.279365 
1298.000000	64.279603 
1297.000000	64.285588 
1296.000000	64.295649 
1295.000000	64.307737 
1294.000000	64.319968 
1293.000000	64.331054 
1292.000000	64.340734 
1291.000000	64.349627 
1290.000000	64.358949 
1289.000000	64.369750 
1288.000000	64.382576 
1287.000000	64.396739 
1286.000000	64.410424 
1285.000000	64.420747 
1284.000000	64.424467 
1283.000000	64.418601 
1282.000000	64.401555 
1281.000000	64.373207 
1280.000000	64.335346 
1279.000000	64.291214 
1278.000000	64.245176 
1277.000000	64.201641 
1276.000000	64.164495 
1275.000000	64.136457 
1274.000000	64.118599 
1273.000000	64.110708 
1272.000000	64.111351 
1271.000000	64.118337 
1270.000000	64.129447 
1269.000000	64.142465 
1268.000000	64.155745 
1267.000000	64.167809 
1266.000000	64.177989 
1265.000000	64.185714 
1264.000000	64.191126 
1263.000000	64.194369 
1262.000000	64.196181 
1261.000000	64.197635 
1260.000000	64.200139 
1259.000000	64.205098 
1258.000000	64.213824 
1257.000000	64.227175 
1256.000000	64.245247 
1255.000000	64.267063 
1254.000000	64.290809 
1253.000000	64.313936 
1252.000000	64.333677 
1251.000000	64.347624 
1250.000000	64.354252 
1249.000000	64.353251 
1248.000000	64.345717 
1247.000000	64.334011 
1246.000000	64.320850 
1245.000000	64.308857 
1244.000000	64.300203 
1243.000000	64.296078 
1242.000000	64.296340 
1241.000000	64.299988 
1240.000000	64.305400 
1239.000000	64.310741 
1238.000000	64.314699 
1237.000000	64.316391 
1236.000000	64.315581 
1235.000000	64.312505 
1234.000000	64.307546 
1233.000000	64.300966 
1232.000000	64.292764 
1231.000000	64.282655 
1230.000000	64.270162 
1229.000000	64.254879 
1228.000000	64.236927 
1227.000000	64.216876 
1226.000000	64.195871 
1225.000000	64.175510 
1224.000000	64.157629 
1223.000000	64.143991 
1222.000000	64.135885 
1221.000000	64.133906 
1220.000000	64.137840 
1219.000000	64.146733 
1218.000000	64.159059 
1217.000000	64.172840 
1216.000000	64.185857 
1215.000000	64.196133 
1214.000000	64.202070 
1213.000000	64.202618 
1212.000000	64.197587 
1211.000000	64.187312 
1210.000000	64.172863 
1209.000000	64.155912 
1208.000000	64.138197 
1207.000000	64.121508 
1206.000000	64.107108 
1205.000000	64.095807 
1204.000000	64.087867 
1203.000000	64.083361 
1202.000000	64.082074 
1201.000000	64.083814 
1200.000000	64.088439 
1199.000000	64.095759 
1198.000000	64.105629 
1197.000000	64.117860 
1196.000000	64.131879 
1195.000000	64.146685 
1194.000000	64.161205 
1193.000000	64.174008 
1192.000000	64.183568 
1191.000000	64.188623 
1190.000000	64.188337 
1189.000000	64.182949 
1188.000000	64.173650 
1187.000000	64.162421 
1186.000000	64.151954 
1185.000000	64.144825 
1184.000000	64.143013 
1183.000000	64.147233 
1182.000000	64.156818 
1181.000000	64.169692 
1180.000000	64.182806 
1179.000000	64.192843 
1178.000000	64.196944 
1177.000000	64.193511 
1176.000000	64.182305 
1175.000000	64.164638 
1174.000000	64.143013 
1173.000000	64.120483 
1172.000000	64.100003 
1171.000000	64.083933 
1170.000000	64.073657 
1169.000000	64.069795 
1168.000000	64.072012 
1167.000000	64.079546 
1166.000000	64.091157 
1165.000000	64.105510 
1164.000000	64.120912 
1163.000000	64.135622 
1162.000000	64.147877 
1161.000000	64.156317 
1160.000000	64.159965 
1159.000000	64.158654 
1158.000000	64.152956 
1157.000000	64.144325 
1156.000000	64.134407 
1155.000000	64.125084 
1154.000000	64.117693 
1153.000000	64.112877 
1152.000000	64.110207 
1151.000000	64.108610 
1150.000000	64.106535 
1149.000000	64.102482 
1148.000000	64.095425 
1147.000000	64.085435 
1146.000000	64.073419 
1145.000000	64.061117 
1144.000000	64.050531 
1143.000000	64.043712 
1142.000000	64.042329 
1141.000000	64.047265 
1140.000000	64.058494 
1139.000000	64.074850 
1138.000000	64.094114 
1137.000000	64.113163 
1136.000000	64.128494 
1135.000000	64.136934 
1134.000000	64.136338 
1133.000000	64.126086 
1132.000000	64.107298 
1131.000000	64.082431 
1130.000000	64.054751 
1129.000000	64.027833 
1128.000000	64.004540 
1127.000000	63.987135 
1126.000000	63.976883 
1125.000000	63.974404 
1124.000000	63.979816 
1123.000000	63.992667 
1122.000000	64.011788 
1121.000000	64.035439 
1120.000000	64.061307 
1119.000000	64.086794 
1118.000000	64.109086 
1117.000000	64.125561 
1116.000000	64.134097 
1115.000000	64.133119 
1114.000000	64.121913 
1113.000000	64.100790 
1112.000000	64.071369 
1111.000000	64.036631 
1110.000000	64.000511 
1109.000000	63.967704 
1108.000000	63.942456 
1107.000000	63.927793 
1106.000000	63.924789 
1105.000000	63.932228 
1104.000000	63.947486 
1103.000000	63.966917 
1102.000000	63.987088 
1101.000000	64.005589 
1100.000000	64.021301 
1099.000000	64.034366 
1098.000000	64.045953 
1097.000000	64.057302 
1096.000000	64.069652 
1095.000000	64.083456 
1094.000000	64.098548 
1093.000000	64.114093 
1092.000000	64.128923 
1091.000000	64.141702 
1090.000000	64.151334 
1089.000000	64.156937 
1088.000000	64.157938 
1087.000000	64.154291 
1086.000000	64.146327 
1085.000000	64.135074 
1084.000000	64.121961 
1083.000000	64.109110 
1082.000000	64.099001 
1081.000000	64.094138 
1080.000000	64.096426 
1079.000000	64.106607 
1078.000000	64.124298 
1077.000000	64.147686 
1076.000000	64.173936 
1075.000000	64.199542 
1074.000000	64.221286 
1073.000000	64.236688 
1072.000000	64.244389 
1071.000000	64.244246 
1070.000000	64.237093 
1069.000000	64.224195 
1068.000000	64.206981 
1067.000000	64.186644 
1066.000000	64.163994 
1065.000000	64.139580 
1064.000000	64.113903 
1063.000000	64.087939 
1062.000000	64.063262 
1061.000000	64.042019 
1060.000000	64.026665 
1059.000000	64.019370 
1058.000000	64.021492 
1057.000000	64.033222 
1056.000000	64.053344 
1055.000000	64.079165 
1054.000000	64.107036 
1053.000000	64.132881 
1052.000000	64.152789 
1051.000000	64.163923 
1050.000000	64.164781 
1049.000000	64.155554 
1048.000000	64.138007 
1047.000000	64.115118 
1046.000000	64.090514 
1045.000000	64.067745 
1044.000000	64.049839 
1043.000000	64.038729 
1042.000000	64.035391 
1041.000000	64.039945 
1040.000000	64.051747 
1039.000000	64.069652 
1038.000000	64.092111 
1037.000000	64.117550 
1036.000000	64.144206 
1035.000000	64.170265 
1034.000000	64.193987 
1033.000000	64.213776 
1032.000000	64.228606 
1031.000000	64.237785 
1030.000000	64.241170 
1029.000000	64.239001 
1028.000000	64.232230 
1027.000000	64.222097 
1026.000000	64.210176 
1025.000000	64.198112 
1024.000000	64.187574 
1023.000000	64.179849 
1022.000000	64.176154 
1021.000000	64.177107 
1020.000000	64.182519 
1019.000000	64.191651 
1018.000000	64.203286 
1017.000000	64.215755 
1016.000000	64.227271 
1015.000000	64.235997 
1014.000000	64.240503 
1013.000000	64.239978 
1012.000000	64.234471 
1011.000000	64.224934 
1010.000000	64.213037 
1009.000000	64.200973 
1008.000000	64.191174 
1007.000000	64.185929 
1006.000000	64.186859 
1005.000000	64.194703 
1004.000000	64.208889 
1003.000000	64.228034 
1002.000000	64.249897 
1001.000000	64.271759 
1000.000000	64.290809 
999.000000	 64.304757 
998.000000	 64.311981 
997.000000	 64.311575 
996.000000	 64.303421 
995.000000	 64.288067 
994.000000	 64.266681 
993.000000	 64.240860 
992.000000	 64.212656 
991.000000	 64.184188 
990.000000	 64.158177 
989.000000	 64.137291 
988.000000	 64.124202 
987.000000	 64.121270 
986.000000	 64.129877 
985.000000	 64.150142 
984.000000	 64.180612 
983.000000	 64.218163 
982.000000	 64.258503 
981.000000	 64.296746 
980.000000	 64.328289 
979.000000	 64.349627 
978.000000	 64.359211 
977.000000	 64.357042 
976.000000	 64.344811 
975.000000	 64.324879 
974.000000	 64.299869 
973.000000	 64.271616 
972.000000	 64.241147 
971.000000	 64.208626 
970.000000	 64.173674 
969.000000	 64.136147 
968.000000	 64.096975 
967.000000	 64.058208 
966.000000	 64.022922 
965.000000	 63.994789 
964.000000	 63.977074 
963.000000	 63.971805 
962.000000	 63.979029 
961.000000	 63.996911 
960.000000	 64.022111 
959.000000	 64.050579 
958.000000	 64.078426 
957.000000	 64.102864 
956.000000	 64.122581 
955.000000	 64.137697 
954.000000	 64.149522 
953.000000	 64.159870 
952.000000	 64.170241 
951.000000	 64.181327 
950.000000	 64.192676 
949.000000	 64.203047 
948.000000	 64.210557 
947.000000	 64.213585 
946.000000	 64.211249 
945.000000	 64.203810 
944.000000	 64.192628 
943.000000	 64.180088 
942.000000	 64.168739 
941.000000	 64.160823 
940.000000	 64.157557 
939.000000	 64.158868 
938.000000	 64.163398 
937.000000	 64.168667 
936.000000	 64.171981 
935.000000	 64.171218 
934.000000	 64.165377 
933.000000	 64.154767 
932.000000	 64.141249 
931.000000	 64.127683 
930.000000	 64.117074 
929.000000	 64.111733 
928.000000	 64.112949 
927.000000	 64.120531 
926.000000	 64.133358 
925.000000	 64.149713 
924.000000	 64.167928 
923.000000	 64.186525 
922.000000	 64.204835 
921.000000	 64.222621 
920.000000	 64.239454 
919.000000	 64.254689 
918.000000	 64.267182 
917.000000	 64.275455 
916.000000	 64.277577 
915.000000	 64.272165 
914.000000	 64.258623 
913.000000	 64.237809 
912.000000	 64.212226 
911.000000	 64.185547 
910.000000	 64.161920 
909.000000	 64.145231 
908.000000	 64.138531 
907.000000	 64.143157 
906.000000	 64.158487 
905.000000	 64.182162 
904.000000	 64.210629 
903.000000	 64.239859 
902.000000	 64.266037 
901.000000	 64.286327 
900.000000	 64.298701 
899.000000	 64.302444 
898.000000	 64.297389 
897.000000	 64.283990 
896.000000	 64.262604 
895.000000	 64.233684 
894.000000	 64.197492 
893.000000	 64.154458 
892.000000	 64.105725 
891.000000	 64.053297 
890.000000	 64.000654 
889.000000	 63.952088 
888.000000	 63.912916 
887.000000	 63.887953 
886.000000	 63.881516 
885.000000	 63.895940 
884.000000	 63.931417 
883.000000	 63.985633 
882.000000	 64.053940 
881.000000	 64.129877 
880.000000	 64.206194 
879.000000	 64.275741 
878.000000	 64.332723 
877.000000	 64.373087 
876.000000	 64.395284 
875.000000	 64.399933 
874.000000	 64.389705 
873.000000	 64.368176 
872.000000	 64.339137 
871.000000	 64.305520 
870.000000	 64.269232 
869.000000	 64.231157 
868.000000	 64.191508 
867.000000	 64.150738 
866.000000	 64.109945 
865.000000	 64.071750 
864.000000	 64.040040 
863.000000	 64.019656 
862.000000	 64.015078 
861.000000	 64.029383 
860.000000	 64.062929 
859.000000	 64.113044 
858.000000	 64.173936 
857.000000	 64.237594 
856.000000	 64.295244 
855.000000	 64.338850 
854.000000	 64.362907 
853.000000	 64.364838 
852.000000	 64.345550 
851.000000	 64.308786 
850.000000	 64.260053 
849.000000	 64.206123 
848.000000	 64.153671 
847.000000	 64.108419 
846.000000	 64.074325 
845.000000	 64.053583 
844.000000	 64.046359 
843.000000	 64.050817 
842.000000	 64.063596 
841.000000	 64.080166 
840.000000	 64.095902 
839.000000	 64.106202 
838.000000	 64.108109 
837.000000	 64.100098 
836.000000	 64.083075 
835.000000	 64.059782 
834.000000	 64.034891 
833.000000	 64.013409 
832.000000	 64.000248 
831.000000	 63.999009 
830.000000	 64.011287 
829.000000	 64.036369 
828.000000	 64.071583 
827.000000	 64.112877 
826.000000	 64.155769 
825.000000	 64.196228 
824.000000	 64.231204 
823.000000	 64.259076 
822.000000	 64.279603 
821.000000	 64.293265 
820.000000	 64.301061 
819.000000	 64.303779 
818.000000	 64.301872 
817.000000	 64.295005 
816.000000	 64.282989 
815.000000	 64.265584 
814.000000	 64.243030 
813.000000	 64.216232 
812.000000	 64.186811 
811.000000	 64.157080 
810.000000	 64.129853 
809.000000	 64.108037 
808.000000	 64.093780 
807.000000	 64.088296 
806.000000	 64.091801 
805.000000	 64.103722 
804.000000	 64.122223 
803.000000	 64.145684 
802.000000	 64.172649 
801.000000	 64.202356 
800.000000	 64.234638 
799.000000	 64.269566 
798.000000	 64.307141 
797.000000	 64.346623 
796.000000	 64.386415 
795.000000	 64.423823 
794.000000	 64.455533 
793.000000	 64.478397 
792.000000	 64.489889 
791.000000	 64.489006 
790.000000	 64.476060 
789.000000	 64.453077 
788.000000	 64.422702 
787.000000	 64.387536 
786.000000	 64.349055 
785.000000	 64.308071 
784.000000	 64.264082 
783.000000	 64.216494 
782.000000	 64.164781 
781.000000	 64.109635 
780.000000	 64.052677 
779.000000	 63.996267 
778.000000	 63.943409 
777.000000	 63.896775 
776.000000	 63.858509 
775.000000	 63.829493 
774.000000	 63.809943 
773.000000	 63.799309 
772.000000	 63.797092 
771.000000	 63.803029 
770.000000	 63.817071 
769.000000	 63.839054 
768.000000	 63.868761 
767.000000	 63.905549 
766.000000	 63.947701 
765.000000	 63.992834 
764.000000	 64.038681 
763.000000	 64.083170 
762.000000	 64.124941 
761.000000	 64.163017 
760.000000	 64.196276 
759.000000	 64.223384 
758.000000	 64.242577 
757.000000	 64.252424 
756.000000	 64.251756 
755.000000	 64.240956 
754.000000	 64.222621 
753.000000	 64.201140 
752.000000	 64.182162 
751.000000	 64.171195 
750.000000	 64.172887 
749.000000	 64.189243 
748.000000	 64.219093 
747.000000	 64.258170 
746.000000	 64.300060 
745.000000	 64.337873 
744.000000	 64.365696 
743.000000	 64.379644 
742.000000	 64.378428 
741.000000	 64.362764 
740.000000	 64.335250 
739.000000	 64.298772 
738.000000	 64.256453 
737.000000	 64.211893 
736.000000	 64.168953 
735.000000	 64.132022 
734.000000	 64.105319 
733.000000	 64.092731 
732.000000	 64.096522 
731.000000	 64.116334 
730.000000	 64.149188 
729.000000	 64.189767 
728.000000	 64.231586 
727.000000	 64.268302 
726.000000	 64.294815 
725.000000	 64.308452 
724.000000	 64.308428 
723.000000	 64.296293 
722.000000	 64.273738 
721.000000	 64.242148 
720.000000	 64.201450 
719.000000	 64.150285 
718.000000	 64.086937 
717.000000	 64.010691 
716.000000	 63.923120 
715.000000	 63.828945 
714.000000	 63.735413 
713.000000	 63.651347 
712.000000	 63.584780 
711.000000	 63.541173 
710.000000	 63.521766 
709.000000	 63.523793 
708.000000	 63.540315 
707.000000	 63.562917 
706.000000	 63.583254 
705.000000	 63.595986 
704.000000	 63.598966 
703.000000	 63.594722 
702.000000	 63.589000 
701.000000	 63.589239 
700.000000	 63.601994 
699.000000	 63.630437 
698.000000	 63.673162 
697.000000	 63.724088 
696.000000	 63.774371 
695.000000	 63.813948 
694.000000	 63.834142 
693.000000	 63.829827 
692.000000	 63.800907 
691.000000	 63.751769 
690.000000	 63.690042 
689.000000	 63.625335 
688.000000	 63.567256 
687.000000	 63.522648 
686.000000	 63.494300 
685.000000	 63.482117 
684.000000	 63.483190 
683.000000	 63.493609 
682.000000	 63.508629 
681.000000	 63.523697 
680.000000	 63.534235 
679.000000	 63.534522 
678.000000	 63.519835 
677.000000	 63.484621 
676.000000	 63.427710 
675.000000	 63.352680 
674.000000	 63.269948 
673.000000	 63.195657 
672.000000	 63.147974 
671.000000	 63.142681 
670.000000	 63.188672 
669.000000	 63.284659 
668.000000	 63.419842 
667.000000	 63.575410 
666.000000	 63.730931 
665.000000	 63.868832 
664.000000	 63.979983 
663.000000	 64.065122 
662.000000	 64.134049 
661.000000	 64.201140 
660.000000	 64.279246 
659.000000	 64.374041 
658.000000	 64.481520 
657.000000	 64.587306 
656.000000	 64.670848 
655.000000	 64.709997 
654.000000	 64.689040 
653.000000	 64.602255 
652.000000	 64.456439 
651.000000	 64.270162 
650.000000	 64.067816 
649.000000	 63.877153 
648.000000	 63.723635 
647.000000	 63.626432 
646.000000	 63.595390 
645.000000	 63.630223 
644.000000	 63.722300 
643.000000	 63.856124 
642.000000	 64.012455 
641.000000	 64.172029 
640.000000	 64.318084 
639.000000	 64.439129 
638.000000	 64.528632 
637.000000	 64.586567 
636.000000	 64.617443 
635.000000	 64.629340 
634.000000	 64.631080 
633.000000	 64.631295 
632.000000	 64.635944 
631.000000	 64.648008 
630.000000	 64.665865 
629.000000	 64.684700 
628.000000	 64.695763 
627.000000	 64.690136 
626.000000	 64.658546 
625.000000	 64.593386 
624.000000	 64.489746 
623.000000	 64.347004 
622.000000	 64.169430 
621.000000	 63.965964 
620.000000	 63.750004 
619.000000	 63.537836 
618.000000	 63.346481 
617.000000	 63.190293 
616.000000	 63.079833 
615.000000	 63.019251 
614.000000	 63.007426 
613.000000	 63.037729 
612.000000	 63.100385 
611.000000	 63.183212 
610.000000	 63.275074 
609.000000	 63.366866 
608.000000	 63.452720 
607.000000	 63.529467 
606.000000	 63.597536 
605.000000	 63.659739 
604.000000	 63.720560 
603.000000	 63.784503 
602.000000	 63.854980 
601.000000	 63.933205 
600.000000	 64.018607 
599.000000	 64.108347 
598.000000	 64.198756 
597.000000	 64.285063 
596.000000	 64.363360 
595.000000	 64.429521 
594.000000	 64.480328 
593.000000	 64.512586 
592.000000	 64.524555 
591.000000	 64.514732 
590.000000	 64.482188 
589.000000	 64.427709 
588.000000	 64.354920 
587.000000	 64.270138 
586.000000	 64.181566 
585.000000	 64.099383 
584.000000	 64.034628 
583.000000	 63.996911 
582.000000	 63.992667 
581.000000	 64.024019 
580.000000	 64.088225 
579.000000	 64.179563 
578.000000	 64.289689 
577.000000	 64.408898 
576.000000	 64.526510 
575.000000	 64.632368 
574.000000	 64.716887 
573.000000	 64.770817 
572.000000	 64.786839 
571.000000	 64.761304 
570.000000	 64.695239 
569.000000	 64.594960 
568.000000	 64.471626 
567.000000	 64.340877 
566.000000	 64.219737 
565.000000	 64.124321 
564.000000	 64.066672 
563.000000	 64.053153 
562.000000	 64.083218 
561.000000	 64.149713 
560.000000	 64.241147 
559.000000	 64.344072 
558.000000	 64.445734 
557.000000	 64.536070 
556.000000	 64.607858 
555.000000	 64.656519 
554.000000	 64.680027 
553.000000	 64.678025 
552.000000	 64.652204 
551.000000	 64.605450 
550.000000	 64.542436 
549.000000	 64.468026 
548.000000	 64.386105 
547.000000	 64.299035 
546.000000	 64.206814 
545.000000	 64.108920 
544.000000	 64.006805 
543.000000	 63.904571 
542.000000	 63.809990 
541.000000	 63.732552 
540.000000	 63.680553 
539.000000	 63.659787 
538.000000	 63.669753 
537.000000	 63.705563 
536.000000	 63.757443 
535.000000	 63.815140 
534.000000	 63.870000 
533.000000	 63.917326 
532.000000	 63.956356 
531.000000	 63.990211 
530.000000	 64.023542 
529.000000	 64.060616 
528.000000	 64.103126 
527.000000	 64.149165 
526.000000	 64.193129 
525.000000	 64.228129 
524.000000	 64.247417 
523.000000	 64.246797 
522.000000	 64.225482 
521.000000	 64.185881 
520.000000	 64.132976 
519.000000	 64.072895 
518.000000	 64.012169 
517.000000	 63.956403 
516.000000	 63.910603 
515.000000	 63.879013 
514.000000	 63.865113 
513.000000	 63.870906 
512.000000	 63.896799 
511.000000	 63.941597 
510.000000	 64.002394 
509.000000	 64.074134 
508.000000	 64.151000 
507.000000	 64.226126 
506.000000	 64.293551 
505.000000	 64.349389 
504.000000	 64.391183 
503.000000	 64.418387 
502.000000	 64.430809 
501.000000	 64.428591 
500.000000	 64.411878 
499.000000	 64.381074 
498.000000	 64.338731 
497.000000	 64.289402 
496.000000	 64.240026 
495.000000	 64.197874 
494.000000	 64.168834 
493.000000	 64.155650 
492.000000	 64.155793 
491.000000	 64.163517 
490.000000	 64.171814 
489.000000	 64.175271 
488.000000	 64.173007 
487.000000	 64.167785 
486.000000	 64.165806 
485.000000	 64.172315 
484.000000	 64.190196 
483.000000	 64.216160 
482.000000	 64.240026 
481.000000	 64.247751 
480.000000	 64.224362 
479.000000	 64.160585 
478.000000	 64.056897 
477.000000	 63.925123 
476.000000	 63.786649 
475.000000	 63.666820 
474.000000	 63.588881 
473.000000	 63.565587 
472.000000	 63.595318 
471.000000	 63.663196 
470.000000	 63.744950 
469.000000	 63.812851 
468.000000	 63.843345 
467.000000	 63.822126 
466.000000	 63.748478 
465.000000	 63.633346 
464.000000	 63.498020 
463.000000	 63.367390 
462.000000	 63.265752 
461.000000	 63.211226 
460.000000	 63.212585 
459.000000	 63.267993 
458.000000	 63.366436 
457.000000	 63.492226 
456.000000	 63.627362 
455.000000	 63.754582 
454.000000	 63.860893 
453.000000	 63.939237 
452.000000	 63.987207 
451.000000	 64.005494 
450.000000	 63.995480 
449.000000	 63.958501 
448.000000	 63.892769 
447.000000	 63.794541 
446.000000	 63.659834 
445.000000	 63.487792 
444.000000	 63.281369 
443.000000	 63.049530 
442.000000	 62.808609 
441.000000	 62.580490 
440.000000	 62.388992 
439.000000	 62.255692 
438.000000	 62.190580 
437.000000	 62.193512 
436.000000	 62.256336 
435.000000	 62.366533 
434.000000	 62.502527 
433.000000	 62.647557 
432.000000	 62.793517 
431.000000	 62.943315 
430.000000	 63.105630 
429.000000	 63.292741 
428.000000	 63.512420 
427.000000	 63.764119 
426.000000	 64.040303 
425.000000	 64.318919 
424.000000	 64.561581 
423.000000	 64.735102 
422.000000	 64.823889 
421.000000	 64.830207 
420.000000	 64.773559 
419.000000	 64.695739 
418.000000	 64.649057 
417.000000	 64.681482 
416.000000	 64.818835 
415.000000	 65.053248 
414.000000	 65.334510 
413.000000	 65.586471 
412.000000	 65.713500 
411.000000	 65.617156 
410.000000	 65.216612 
409.000000	 64.482283 
408.000000	 63.435959 
407.000000	 62.136697 
406.000000	 60.685324 
405.000000	 59.200620 
404.000000	 57.821059 
403.000000	 56.651878 
402.000000	 55.808377 
401.000000	 55.391192 
400.000000	 55.506134 
399.000000	 56.229662 
398.000000	 57.618594 
397.000000	 59.681940 
396.000000	 62.359833 
395.000000	 65.498518 
394.000000	 68.877243 
393.000000	 72.230291 
392.000000	 75.258374 
391.000000	 77.665519 
390.000000	 79.219532 
389.000000	 79.777407 
388.000000	 79.303550 
387.000000	 77.854108 
386.000000	 75.577187 
385.000000	 72.661328 
384.000000	 69.316101 
383.000000	 65.724253 
382.000000	 62.074780 
381.000000	 58.509612 
380.000000	 55.144715 
379.000000	 52.053260 
378.000000	 49.264597 
377.000000	 46.798229 
376.000000	 44.669413 
375.000000	 42.915439 
374.000000	 41.554927 
373.000000	 40.618157 
372.000000	 40.182733 
371.000000	 40.216398 
370.000000	 40.521240 

