PE IR       SPECTRUM    SPECTRUM    ASCII       PEDS        1.60        
  -1
BZ6AA0~1.ASC
17/04/07
15:51:25.00
17/04/07
15:51:25.00
tln
$BZ1503107-1_t0032$<tbV0>[-10.4,-7.8,8.0,0.0,27,1,0]
370.000000
64









2002,4.07    
MIRTGS : RIGHTBACK : INTERNAL 2
MIR : ON : INTERNAL 2
OPTKBR

0.200000
8
8.000000
FILLER
RATIO
SPECTRUM
UNLOCKED 256

DOUBLE
64
COMBINED
1
0
0


1.000000
RATIO


1
0
TRUE
51149
0
LEFT NOT FITTED RIGHT NOT FITTED 0
NONE
NONE
15600
12.000000
4.427000
51148
TRUE
1 0 8 72 0 0 0 0 

15798.010000






#HDR
-1
-1
#GR
CM-1
%T
0.00002384185791015625
0.0
5000.000000
-1.000000
4631
8
74.533057
43.657326
#DATA
5000.000000	64.154076 
4999.000000	64.051246 
4998.000000	63.914418 
4997.000000	63.756203 
4996.000000	63.590955 
4995.000000	63.434243 
4994.000000	63.300228 
4993.000000	63.200521 
4992.000000	63.142514 
4991.000000	63.129186 
4990.000000	63.157820 
4989.000000	63.220667 
4988.000000	63.305115 
4987.000000	63.395357 
4986.000000	63.475656 
4985.000000	63.532423 
4984.000000	63.558101 
4983.000000	63.552045 
4982.000000	63.521194 
4981.000000	63.477492 
4980.000000	63.435029 
4979.000000	63.405823 
4978.000000	63.396477 
4977.000000	63.406205 
4976.000000	63.428187 
4975.000000	63.450956 
4974.000000	63.462138 
4973.000000	63.452219 
4972.000000	63.416767 
4971.000000	63.358855 
4970.000000	63.286900 
4969.000000	63.214302 
4968.000000	63.155412 
4967.000000	63.123393 
4966.000000	63.126730 
4965.000000	63.167858 
4964.000000	63.242459 
4963.000000	63.340973 
4962.000000	63.451433 
4961.000000	63.561058 
4960.000000	63.658618 
4959.000000	63.736391 
4958.000000	63.790750 
4957.000000	63.821959 
4956.000000	63.832736 
4955.000000	63.826894 
4954.000000	63.807749 
4953.000000	63.777303 
4952.000000	63.736152 
4951.000000	63.684010 
4950.000000	63.620901 
4949.000000	63.549470 
4948.000000	63.474702 
4947.000000	63.404679 
4946.000000	63.347959 
4945.000000	63.311266 
4944.000000	63.297462 
4943.000000	63.303971 
4942.000000	63.323831 
4941.000000	63.346743 
4940.000000	63.362646 
4939.000000	63.364171 
4938.000000	63.349151 
4937.000000	63.320398 
4936.000000	63.285946 
4935.000000	63.256072 
4934.000000	63.241052 
4933.000000	63.247990 
4932.000000	63.279223 
4931.000000	63.331365 
4930.000000	63.396143 
4929.000000	63.462162 
4928.000000	63.516950 
4927.000000	63.549804 
4926.000000	63.552999 
4925.000000	63.523507 
4924.000000	63.462591 
4923.000000	63.376021 
4922.000000	63.273024 
4921.000000	63.164949 
4920.000000	63.063931 
4919.000000	62.980914 
4918.000000	62.924289 
4917.000000	62.898826 
4916.000000	62.905025 
4915.000000	62.939882 
4914.000000	62.997651 
4913.000000	63.071322 
4912.000000	63.153219 
4911.000000	63.236379 
4910.000000	63.314414 
4909.000000	63.382792 
4908.000000	63.437914 
4907.000000	63.478589 
4906.000000	63.505530 
4905.000000	63.521790 
4904.000000	63.532090 
4903.000000	63.541769 
4902.000000	63.555693 
4901.000000	63.577079 
4900.000000	63.606524 
4899.000000	63.641500 
4898.000000	63.676619 
4897.000000	63.705205 
4896.000000	63.720130 
4895.000000	63.715791 
4894.000000	63.688874 
4893.000000	63.640069 
4892.000000	63.573265 
4891.000000	63.494300 
4890.000000	63.410019 
4889.000000	63.327240 
4888.000000	63.251757 
4887.000000	63.187384 
4886.000000	63.136577 
4885.000000	63.100457 
4884.000000	63.079857 
4883.000000	63.075327 
4882.000000	63.087081 
4881.000000	63.114070 
4880.000000	63.154315 
4879.000000	63.204360 
4878.000000	63.258981 
4877.000000	63.311505 
4876.000000	63.355064 
4875.000000	63.383984 
4874.000000	63.395071 
4873.000000	63.388586 
4872.000000	63.368964 
4871.000000	63.344216 
4870.000000	63.324570 
4869.000000	63.320422 
4868.000000	63.340115 
4867.000000	63.387966 
4866.000000	63.463473 
4865.000000	63.560914 
4864.000000	63.671112 
4863.000000	63.782262 
4862.000000	63.883018 
4861.000000	63.963341 
4860.000000	64.015936 
4859.000000	64.037013 
4858.000000	64.026641 
4857.000000	63.988113 
4856.000000	63.927149 
4855.000000	63.851284 
4854.000000	63.769197 
4853.000000	63.689589 
4852.000000	63.620519 
4851.000000	63.568282 
4850.000000	63.536787 
4849.000000	63.527154 
4848.000000	63.537931 
4847.000000	63.564991 
4846.000000	63.602757 
4845.000000	63.645291 
4844.000000	63.687825 
4843.000000	63.726711 
4842.000000	63.760137 
4841.000000	63.787388 
4840.000000	63.808703 
4839.000000	63.823890 
4838.000000	63.832592 
4837.000000	63.834309 
4836.000000	63.828873 
4835.000000	63.816857 
4834.000000	63.799738 
4833.000000	63.780665 
4832.000000	63.762736 
4831.000000	63.748979 
4830.000000	63.740611 
4829.000000	63.737249 
4828.000000	63.735961 
4827.000000	63.732051 
4826.000000	63.720273 
4825.000000	63.696289 
4824.000000	63.658189 
4823.000000	63.607263 
4822.000000	63.547873 
4821.000000	63.486528 
4820.000000	63.430714 
4819.000000	63.387107 
4818.000000	63.360261 
4817.000000	63.351416 
4816.000000	63.358592 
4815.000000	63.377141 
4814.000000	63.400793 
4813.000000	63.423156 
4812.000000	63.438391 
4811.000000	63.442850 
4810.000000	63.434886 
4809.000000	63.415408 
4808.000000	63.387012 
4807.000000	63.353419 
4806.000000	63.318443 
4805.000000	63.285326 
4804.000000	63.256812 
4803.000000	63.234210 
4802.000000	63.217520 
4801.000000	63.205575 
4800.000000	63.196754 
4799.000000	63.189363 
4798.000000	63.182067 
4797.000000	63.174438 
4796.000000	63.166856 
4795.000000	63.160657 
4794.000000	63.157558 
4793.000000	63.159418 
4792.000000	63.167476 
4791.000000	63.182139 
4790.000000	63.202548 
4789.000000	63.226914 
4788.000000	63.252830 
4787.000000	63.276934 
4786.000000	63.296151 
4785.000000	63.308405 
4784.000000	63.313841 
4783.000000	63.314366 
4782.000000	63.314318 
4781.000000	63.319396 
4780.000000	63.335442 
4779.000000	63.367533 
4778.000000	63.417577 
4777.000000	63.484382 
4776.000000	63.562178 
4775.000000	63.642358 
4774.000000	63.714480 
4773.000000	63.768672 
4772.000000	63.797569 
4771.000000	63.798189 
4770.000000	63.772487 
4769.000000	63.726878 
4768.000000	63.670444 
4767.000000	63.612818 
4766.000000	63.562321 
4765.000000	63.524866 
4764.000000	63.503527 
4763.000000	63.499259 
4762.000000	63.511562 
4761.000000	63.539314 
4760.000000	63.581466 
4759.000000	63.636589 
4758.000000	63.702368 
4757.000000	63.775396 
4756.000000	63.850450 
4755.000000	63.921070 
4754.000000	63.979983 
4753.000000	64.020466 
4752.000000	64.038038 
4751.000000	64.030957 
4750.000000	64.001059 
4749.000000	63.952970 
4748.000000	63.893294 
4747.000000	63.829350 
4746.000000	63.768005 
4745.000000	63.715147 
4744.000000	63.675093 
4743.000000	63.650751 
4742.000000	63.643598 
4741.000000	63.653397 
4740.000000	63.678264 
4739.000000	63.714408 
4738.000000	63.756489 
4737.000000	63.798427 
4736.000000	63.834547 
4735.000000	63.860273 
4734.000000	63.873386 
4733.000000	63.874340 
4732.000000	63.865900 
4731.000000	63.852810 
4730.000000	63.839697 
4729.000000	63.830518 
4728.000000	63.826727 
4727.000000	63.827347 
4726.000000	63.829421 
4725.000000	63.829255 
4724.000000	63.823914 
4723.000000	63.811945 
4722.000000	63.794517 
4721.000000	63.774943 
4720.000000	63.758516 
4719.000000	63.750386 
4718.000000	63.755297 
4717.000000	63.776183 
4716.000000	63.813591 
4715.000000	63.865303 
4714.000000	63.926196 
4713.000000	63.988828 
4712.000000	64.044523 
4711.000000	64.084911 
4710.000000	64.103269 
4709.000000	64.096021 
4708.000000	64.063501 
4707.000000	64.009833 
4706.000000	63.942909 
4705.000000	63.872432 
4704.000000	63.808417 
4703.000000	63.758683 
4702.000000	63.728022 
4701.000000	63.716936 
4700.000000	63.722205 
4699.000000	63.737988 
4698.000000	63.757824 
4697.000000	63.776159 
4696.000000	63.789653 
4695.000000	63.797092 
4694.000000	63.799071 
4693.000000	63.796901 
4692.000000	63.791465 
4691.000000	63.782811 
4690.000000	63.769936 
4689.000000	63.751411 
4688.000000	63.726210 
4687.000000	63.694071 
4686.000000	63.655805 
4685.000000	63.613343 
4684.000000	63.569593 
4683.000000	63.527870 
4682.000000	63.491058 
4681.000000	63.461089 
4680.000000	63.438725 
4679.000000	63.423275 
4678.000000	63.412952 
4677.000000	63.405251 
4676.000000	63.397789 
4675.000000	63.387918 
4674.000000	63.374018 
4673.000000	63.354969 
4672.000000	63.331055 
4671.000000	63.303303 
4670.000000	63.273978 
4669.000000	63.245773 
4668.000000	63.221526 
4667.000000	63.203430 
4666.000000	63.193035 
4665.000000	63.190817 
4664.000000	63.196849 
4663.000000	63.210797 
4662.000000	63.232159 
4661.000000	63.260340 
4660.000000	63.294243 
4659.000000	63.332176 
4658.000000	63.371634 
4657.000000	63.409972 
4656.000000	63.444876 
4655.000000	63.475203 
4654.000000	63.501811 
4653.000000	63.526725 
4652.000000	63.552880 
4651.000000	63.582086 
4650.000000	63.615202 
4649.000000	63.650035 
4648.000000	63.681721 
4647.000000	63.703250 
4646.000000	63.707613 
4645.000000	63.689970 
4644.000000	63.649415 
4643.000000	63.590168 
4642.000000	63.521313 
4641.000000	63.454937 
4640.000000	63.403296 
4639.000000	63.375830 
4638.000000	63.377165 
4637.000000	63.405394 
4636.000000	63.453030 
4635.000000	63.508486 
4634.000000	63.559150 
4633.000000	63.593959 
4632.000000	63.606142 
4631.000000	63.593816 
4630.000000	63.560509 
4629.000000	63.514065 
4628.000000	63.464903 
4627.000000	63.423562 
4626.000000	63.398957 
4625.000000	63.396763 
4624.000000	63.418197 
4623.000000	63.460874 
4622.000000	63.518786 
4621.000000	63.583827 
4620.000000	63.646912 
4619.000000	63.699531 
4618.000000	63.735651 
4617.000000	63.752007 
4616.000000	63.749265 
4615.000000	63.731122 
4614.000000	63.703775 
4613.000000	63.674497 
4612.000000	63.649725 
4611.000000	63.634204 
4610.000000	63.629174 
4609.000000	63.632726 
4608.000000	63.640093 
4607.000000	63.645434 
4606.000000	63.643240 
4605.000000	63.630342 
4604.000000	63.606500 
4603.000000	63.575100 
4602.000000	63.542461 
4601.000000	63.516807 
4600.000000	63.505816 
4599.000000	63.515090 
4598.000000	63.547372 
4597.000000	63.601565 
4596.000000	63.673400 
4595.000000	63.755440 
4594.000000	63.838768 
4593.000000	63.914108 
4592.000000	63.973665 
4591.000000	64.011883 
4590.000000	64.026260 
4589.000000	64.017581 
4588.000000	63.989472 
4587.000000	63.947629 
4586.000000	63.899040 
4585.000000	63.850212 
4584.000000	63.806653 
4583.000000	63.771414 
4582.000000	63.745546 
4581.000000	63.727712 
4580.000000	63.715195 
4579.000000	63.704538 
4578.000000	63.692498 
4577.000000	63.676500 
4576.000000	63.655185 
4575.000000	63.627910 
4574.000000	63.594865 
4573.000000	63.556408 
4572.000000	63.513588 
4571.000000	63.467597 
4570.000000	63.420844 
4569.000000	63.376712 
4568.000000	63.339781 
4567.000000	63.315248 
4566.000000	63.307952 
4565.000000	63.321113 
4564.000000	63.355302 
4563.000000	63.407731 
4562.000000	63.472270 
4561.000000	63.540029 
4560.000000	63.601040 
4559.000000	63.646006 
4558.000000	63.668346 
4557.000000	63.665556 
4556.000000	63.639545 
4555.000000	63.595914 
4554.000000	63.542914 
4553.000000	63.489651 
4552.000000	63.444066 
4551.000000	63.411593 
4550.000000	63.394784 
4549.000000	63.393497 
4548.000000	63.405442 
4547.000000	63.427209 
4546.000000	63.455343 
4545.000000	63.487029 
4544.000000	63.520073 
4543.000000	63.552999 
4542.000000	63.584375 
4541.000000	63.613033 
4540.000000	63.637280 
4539.000000	63.655996 
4538.000000	63.668513 
4537.000000	63.675689 
4536.000000	63.680386 
4535.000000	63.686752 
4534.000000	63.699698 
4533.000000	63.722920 
4532.000000	63.758087 
4531.000000	63.803529 
4530.000000	63.853955 
4529.000000	63.902425 
4528.000000	63.942003 
4527.000000	63.967537 
4526.000000	63.977122 
4525.000000	63.972473 
4524.000000	63.958358 
4523.000000	63.941121 
4522.000000	63.926982 
4521.000000	63.920855 
4520.000000	63.925027 
4519.000000	63.939833 
4518.000000	63.963294 
4517.000000	63.991975 
4516.000000	64.021539 
4515.000000	64.048218 
4514.000000	64.068675 
4513.000000	64.080548 
4512.000000	64.081954 
4511.000000	64.071989 
4510.000000	64.050292 
4509.000000	64.017081 
4508.000000	63.973045 
4507.000000	63.919758 
4506.000000	63.859319 
4505.000000	63.794469 
4504.000000	63.728308 
4503.000000	63.663935 
4502.000000	63.604235 
4501.000000	63.551878 
4500.000000	63.508677 
4499.000000	63.475537 
4498.000000	63.452363 
4497.000000	63.438320 
4496.000000	63.431811 
4495.000000	63.431167 
4494.000000	63.435220 
4493.000000	63.443946 
4492.000000	63.458466 
4491.000000	63.481163 
4490.000000	63.515043 
4489.000000	63.562846 
4488.000000	63.626551 
4487.000000	63.706064 
4486.000000	63.798069 
4485.000000	63.896632 
4484.000000	63.993740 
4483.000000	64.080810 
4482.000000	64.151167 
4481.000000	64.200210 
4480.000000	64.227342 
4479.000000	64.233970 
4478.000000	64.223241 
4477.000000	64.198446 
4476.000000	64.162397 
4475.000000	64.118003 
4474.000000	64.068484 
4473.000000	64.018082 
4472.000000	63.972973 
4471.000000	63.938188 
4470.000000	63.917088 
4469.000000	63.911533 
4468.000000	63.922023 
4467.000000	63.946533 
4466.000000	63.981771 
4465.000000	64.025378 
4464.000000	64.076757 
4463.000000	64.135074 
4462.000000	64.199757 
4461.000000	64.273643 
4460.000000	64.358448 
4459.000000	64.447760 
4458.000000	64.531707 
4457.000000	64.600586 
4456.000000	64.645981 
4455.000000	64.666485 
4454.000000	64.663863 
4453.000000	64.641141 
4452.000000	64.602375 
4451.000000	64.555335 
4450.000000	64.504146 
4449.000000	64.443254 
4448.000000	64.372754 
4447.000000	64.303493 
4446.000000	64.251947 
4445.000000	64.234900 
4444.000000	64.278984 
4443.000000	64.414978 
4442.000000	64.654898 
4441.000000	64.989542 
4440.000000	65.386033 
4439.000000	65.802836 
4438.000000	66.197395 
4437.000000	66.551685 
4436.000000	66.881465 
4435.000000	67.238879 
4434.000000	67.715549 
4433.000000	68.396258 
4432.000000	69.332885 
4431.000000	70.499110 
4430.000000	71.798706 
4429.000000	73.051309 
4428.000000	74.037814 
4427.000000	74.533057 
4426.000000	74.383735 
4425.000000	73.518419 
4424.000000	71.988892 
4423.000000	69.927835 
4422.000000	67.542314 
4421.000000	65.022706 
4420.000000	62.512660 
4419.000000	60.069394 
4418.000000	57.676625 
4417.000000	55.278754 
4416.000000	52.835869 
4415.000000	50.370383 
4414.000000	47.999906 
4413.000000	45.924019 
4412.000000	44.400215 
4411.000000	43.657326 
4410.000000	43.857765 
4409.000000	45.038580 
4408.000000	47.109460 
4407.000000	49.844765 
4406.000000	52.940893 
4405.000000	56.062436 
4404.000000	58.913016 
4403.000000	61.264777 
4402.000000	63.003587 
4401.000000	64.119529 
4400.000000	64.696192 
4399.000000	64.872622 
4398.000000	64.799499 
4397.000000	64.611434 
4396.000000	64.393949 
4395.000000	64.199566 
4394.000000	64.030575 
4393.000000	63.873982 
4392.000000	63.708496 
4391.000000	63.535904 
4390.000000	63.363432 
4389.000000	63.207316 
4388.000000	63.091540 
4387.000000	63.041162 
4386.000000	63.064932 
4385.000000	63.153767 
4384.000000	63.290381 
4383.000000	63.451075 
4382.000000	63.607859 
4381.000000	63.736343 
4380.000000	63.821053 
4379.000000	63.858199 
4378.000000	63.854289 
4377.000000	63.824701 
4376.000000	63.783240 
4375.000000	63.743901 
4374.000000	63.725185 
4373.000000	63.738369 
4372.000000	63.779497 
4371.000000	63.838720 
4370.000000	63.909459 
4369.000000	63.983011 
4368.000000	64.049911 
4367.000000	64.103960 
4366.000000	64.142727 
4365.000000	64.167833 
4364.000000	64.183950 
4363.000000	64.196228 
4362.000000	64.208173 
4361.000000	64.221549 
4360.000000	64.235353 
4359.000000	64.245939 
4358.000000	64.247608 
4357.000000	64.234733 
4356.000000	64.202809 
4355.000000	64.149641 
4354.000000	64.076137 
4353.000000	63.986110 
4352.000000	63.886332 
4351.000000	63.785457 
4350.000000	63.693070 
4349.000000	63.616919 
4348.000000	63.563251 
4347.000000	63.535809 
4346.000000	63.536095 
4345.000000	63.562583 
4344.000000	63.612270 
4343.000000	63.680338 
4342.000000	63.761806 
4341.000000	63.851118 
4340.000000	63.943576 
4339.000000	64.034771 
4338.000000	64.120960 
4337.000000	64.198637 
4336.000000	64.264559 
4335.000000	64.315605 
4334.000000	64.349079 
4333.000000	64.362835 
4332.000000	64.355707 
4331.000000	64.327764 
4330.000000	64.281272 
4329.000000	64.220213 
4328.000000	64.150261 
4327.000000	64.077854 
4326.000000	64.009737 
4325.000000	63.951826 
4324.000000	63.908243 
4323.000000	63.881039 
4322.000000	63.869786 
4321.000000	63.872480 
4320.000000	63.885664 
4319.000000	63.905835 
4318.000000	63.929390 
4317.000000	63.953542 
4316.000000	63.975882 
4315.000000	63.995194 
4314.000000	64.010167 
4313.000000	64.020895 
4312.000000	64.028239 
4311.000000	64.033889 
4310.000000	64.039802 
4309.000000	64.048385 
4308.000000	64.061951 
4307.000000	64.081621 
4306.000000	64.106965 
4305.000000	64.136099 
4304.000000	64.166069 
4303.000000	64.193391 
4302.000000	64.214897 
4301.000000	64.228415 
4300.000000	64.233064 
4299.000000	64.229702 
4298.000000	64.219784 
4297.000000	64.204883 
4296.000000	64.185476 
4295.000000	64.161610 
4294.000000	64.132356 
4293.000000	64.096617 
4292.000000	64.053940 
4291.000000	64.005780 
4290.000000	63.955187 
4289.000000	63.906693 
4288.000000	63.864850 
4287.000000	63.833403 
4286.000000	63.813710 
4285.000000	63.804364 
4284.000000	63.801336 
4283.000000	63.798761 
4282.000000	63.791203 
4281.000000	63.774991 
4280.000000	63.749718 
4279.000000	63.718342 
4278.000000	63.686776 
4277.000000	63.662338 
4276.000000	63.651275 
4275.000000	63.657307 
4274.000000	63.680338 
4273.000000	63.716411 
4272.000000	63.758826 
4271.000000	63.799881 
4270.000000	63.832807 
4269.000000	63.853573 
4268.000000	63.861536 
4267.000000	63.859272 
4266.000000	63.851237 
4265.000000	63.842391 
4264.000000	63.836693 
4263.000000	63.835930 
4262.000000	63.839268 
4261.000000	63.844060 
4260.000000	63.847208 
4259.000000	63.845849 
4258.000000	63.838601 
4257.000000	63.825678 
4256.000000	63.809132 
4255.000000	63.791465 
4254.000000	63.774800 
4253.000000	63.760232 
4252.000000	63.747668 
4251.000000	63.736248 
4250.000000	63.724875 
4249.000000	63.713264 
4248.000000	63.702416 
4247.000000	63.694429 
4246.000000	63.692283 
4245.000000	63.698625 
4244.000000	63.714838 
4243.000000	63.740587 
4242.000000	63.773441 
4241.000000	63.809013 
4240.000000	63.842272 
4239.000000	63.868618 
4238.000000	63.884758 
4237.000000	63.889408 
4236.000000	63.883638 
4235.000000	63.870310 
4234.000000	63.853287 
4233.000000	63.836526 
4232.000000	63.823008 
4231.000000	63.814234 
4230.000000	63.810157 
4229.000000	63.809680 
4228.000000	63.811016 
4227.000000	63.812518 
4226.000000	63.813114 
4225.000000	63.812685 
4224.000000	63.811945 
4223.000000	63.811802 
4222.000000	63.813114 
4221.000000	63.816022 
4220.000000	63.819456 
4219.000000	63.821339 
4218.000000	63.818860 
4217.000000	63.809347 
4216.000000	63.791131 
4215.000000	63.764214 
4214.000000	63.730430 
4213.000000	63.693451 
4212.000000	63.657736 
4211.000000	63.627767 
4210.000000	63.606929 
4209.000000	63.596844 
4208.000000	63.597154 
4207.000000	63.605690 
4206.000000	63.619041 
4205.000000	63.633584 
4204.000000	63.646531 
4203.000000	63.656520 
4202.000000	63.663816 
4201.000000	63.669919 
4200.000000	63.676929 
4199.000000	63.687014 
4198.000000	63.701438 
4197.000000	63.720178 
4196.000000	63.741707 
4195.000000	63.763618 
4194.000000	63.782906 
4193.000000	63.796877 
4192.000000	63.803672 
4191.000000	63.802671 
4190.000000	63.794660 
4189.000000	63.781809 
4188.000000	63.766908 
4187.000000	63.753271 
4186.000000	63.743281 
4185.000000	63.738560 
4184.000000	63.738965 
4183.000000	63.743257 
4182.000000	63.748955 
4181.000000	63.753080 
4180.000000	63.752961 
4179.000000	63.746953 
4178.000000	63.735127 
4177.000000	63.718914 
4176.000000	63.701558 
4175.000000	63.687109 
4174.000000	63.679885 
4173.000000	63.683319 
4172.000000	63.699173 
4171.000000	63.727021 
4170.000000	63.764333 
4169.000000	63.806891 
4168.000000	63.849329 
4167.000000	63.886189 
4166.000000	63.913035 
4165.000000	63.927316 
4164.000000	63.928484 
4163.000000	63.918375 
4162.000000	63.900828 
4161.000000	63.880681 
4160.000000	63.863134 
4159.000000	63.852095 
4158.000000	63.849520 
4157.000000	63.855051 
4156.000000	63.866424 
4155.000000	63.880205 
4154.000000	63.892984 
4153.000000	63.902521 
4152.000000	63.908243 
4151.000000	63.911437 
4150.000000	63.914513 
4149.000000	63.920116 
4148.000000	63.930034 
4147.000000	63.944363 
4146.000000	63.961148 
4145.000000	63.977003 
4144.000000	63.987565 
4143.000000	63.988494 
4142.000000	63.976502 
4141.000000	63.950228 
4140.000000	63.910651 
4139.000000	63.860940 
4138.000000	63.806200 
4137.000000	63.752150 
4136.000000	63.704824 
4135.000000	63.669490 
4134.000000	63.650107 
4133.000000	63.648486 
4132.000000	63.664174 
4131.000000	63.694691 
4130.000000	63.735818 
4129.000000	63.781929 
4128.000000	63.826990 
4127.000000	63.865303 
4126.000000	63.892579 
4125.000000	63.906431 
4124.000000	63.906979 
4123.000000	63.896727 
4122.000000	63.880038 
4121.000000	63.862109 
4120.000000	63.848161 
4119.000000	63.842201 
4118.000000	63.846516 
4117.000000	63.861179 
4116.000000	63.884305 
4115.000000	63.912463 
4114.000000	63.941574 
4113.000000	63.967585 
4112.000000	63.987302 
4111.000000	63.998699 
4110.000000	64.000868 
4109.000000	63.994193 
4108.000000	63.979530 
4107.000000	63.958477 
4106.000000	63.933157 
4105.000000	63.906049 
4104.000000	63.879752 
4103.000000	63.856959 
4102.000000	63.840365 
4101.000000	63.831543 
4100.000000	63.830924 
4099.000000	63.837170 
4098.000000	63.847398 
4097.000000	63.857936 
4096.000000	63.865041 
4095.000000	63.866043 
4094.000000	63.859677 
4093.000000	63.846755 
4092.000000	63.829779 
4091.000000	63.812017 
4090.000000	63.796615 
4089.000000	63.785386 
4088.000000	63.778400 
4087.000000	63.773941 
4086.000000	63.769316 
4085.000000	63.761687 
4084.000000	63.749027 
4083.000000	63.730907 
4082.000000	63.708901 
4081.000000	63.685727 
4080.000000	63.665080 
4079.000000	63.649892 
4078.000000	63.642454 
4077.000000	63.643550 
4076.000000	63.652825 
4075.000000	63.668990 
4074.000000	63.690352 
4073.000000	63.715243 
4072.000000	63.741850 
4071.000000	63.768553 
4070.000000	63.793635 
4069.000000	63.815069 
4068.000000	63.830780 
4067.000000	63.838934 
4066.000000	63.838696 
4065.000000	63.830637 
4064.000000	63.817024 
4063.000000	63.801550 
4062.000000	63.788843 
4061.000000	63.783311 
4060.000000	63.788414 
4059.000000	63.805460 
4058.000000	63.833284 
4057.000000	63.868474 
4056.000000	63.906478 
4055.000000	63.942384 
4054.000000	63.972330 
4053.000000	63.993835 
4052.000000	64.006400 
4051.000000	64.010882 
4050.000000	64.008784 
4049.000000	64.001727 
4048.000000	63.990950 
4047.000000	63.977169 
4046.000000	63.961029 
4045.000000	63.943266 
4044.000000	63.925337 
4043.000000	63.908910 
4042.000000	63.895821 
4041.000000	63.887095 
4040.000000	63.882684 
4039.000000	63.881039 
4038.000000	63.879680 
4037.000000	63.875746 
4036.000000	63.867044 
4035.000000	63.853263 
4034.000000	63.836121 
4033.000000	63.819289 
4032.000000	63.807392 
4031.000000	63.804459 
4030.000000	63.812708 
4029.000000	63.831591 
4028.000000	63.857865 
4027.000000	63.886451 
4026.000000	63.911724 
4025.000000	63.929009 
4024.000000	63.935732 
4023.000000	63.931894 
4022.000000	63.919663 
4021.000000	63.902235 
4020.000000	63.883209 
4019.000000	63.865327 
4018.000000	63.850164 
4017.000000	63.838100 
4016.000000	63.828873 
4015.000000	63.822269 
4014.000000	63.818502 
4013.000000	63.818502 
4012.000000	63.823223 
4011.000000	63.833332 
4010.000000	63.848495 
4009.000000	63.867259 
4008.000000	63.887214 
4007.000000	63.905715 
4006.000000	63.920855 
4005.000000	63.931894 
4004.000000	63.939666 
4003.000000	63.946032 
4002.000000	63.953399 
4001.000000	63.963627 
4000.000000	63.977408 
3999.000000	63.993620 
3998.000000	64.009904 
3997.000000	64.022994 
3996.000000	64.030027 
3995.000000	64.029097 
3994.000000	64.020204 
3993.000000	64.004778 
3992.000000	63.985371 
3991.000000	63.964796 
3990.000000	63.945317 
3989.000000	63.928222 
3988.000000	63.913798 
3987.000000	63.901662 
3986.000000	63.891386 
3985.000000	63.882851 
3984.000000	63.876605 
3983.000000	63.873744 
3982.000000	63.875579 
3981.000000	63.883423 
3980.000000	63.897871 
3979.000000	63.918590 
3978.000000	63.943886 
3977.000000	63.971090 
3976.000000	63.996863 
3975.000000	64.017796 
3974.000000	64.031219 
3973.000000	64.035630 
3972.000000	64.031147 
3971.000000	64.019322 
3970.000000	64.002919 
3969.000000	63.985514 
3968.000000	63.970494 
3967.000000	63.960671 
3966.000000	63.957333 
3965.000000	63.960361 
3964.000000	63.967871 
3963.000000	63.977003 
3962.000000	63.984560 
3961.000000	63.987898 
3960.000000	63.985538 
3959.000000	63.977646 
3958.000000	63.965392 
3957.000000	63.950514 
3956.000000	63.935041 
3955.000000	63.920664 
3954.000000	63.908553 
3953.000000	63.899302 
3952.000000	63.893222 
3951.000000	63.890337 
3950.000000	63.890433 
3949.000000	63.893222 
3948.000000	63.898205 
3947.000000	63.904690 
3946.000000	63.911819 
3945.000000	63.918900 
3944.000000	63.925123 
3943.000000	63.930034 
3942.000000	63.933420 
3941.000000	63.935327 
3940.000000	63.936114 
3939.000000	63.936090 
3938.000000	63.935375 
3937.000000	63.934326 
3936.000000	63.933134 
3935.000000	63.932561 
3934.000000	63.933658 
3933.000000	63.938045 
3932.000000	63.947415 
3931.000000	63.962960 
3930.000000	63.984870 
3929.000000	64.011859 
3928.000000	64.041066 
3927.000000	64.068698 
3926.000000	64.090776 
3925.000000	64.104056 
3924.000000	64.106774 
3923.000000	64.099121 
3922.000000	64.083194 
3921.000000	64.062309 
3920.000000	64.040613 
3919.000000	64.022135 
3918.000000	64.010095 
3917.000000	64.006376 
3916.000000	64.011240 
3915.000000	64.023876 
3914.000000	64.042282 
3913.000000	64.063978 
3912.000000	64.086484 
3911.000000	64.107632 
3910.000000	64.125967 
3909.000000	64.140439 
3908.000000	64.150810 
3907.000000	64.157223 
3906.000000	64.160275 
3905.000000	64.160823 
3904.000000	64.159965 
3903.000000	64.158678 
3902.000000	64.157867 
3901.000000	64.158058 
3900.000000	64.159178 
3899.000000	64.160442 
3898.000000	64.160537 
3897.000000	64.157772 
3896.000000	64.150357 
3895.000000	64.136600 
3894.000000	64.115405 
3893.000000	64.086627 
3892.000000	64.051151 
3891.000000	64.010524 
3890.000000	63.967204 
3889.000000	63.923668 
3888.000000	63.882017 
3887.000000	63.844108 
3886.000000	63.811063 
3885.000000	63.783979 
3884.000000	63.763618 
3883.000000	63.750720 
3882.000000	63.745951 
3881.000000	63.749718 
3880.000000	63.761687 
3879.000000	63.780736 
3878.000000	63.804721 
3877.000000	63.831257 
3876.000000	63.857960 
3875.000000	63.883399 
3874.000000	63.906812 
3873.000000	63.928627 
3872.000000	63.949799 
3871.000000	63.971376 
3870.000000	63.993716 
3869.000000	64.016199 
3868.000000	64.037132 
3867.000000	64.054059 
3866.000000	64.064908 
3865.000000	64.068484 
3864.000000	64.065289 
3863.000000	64.057803 
3862.000000	64.049792 
3861.000000	64.045405 
3860.000000	64.048218 
3859.000000	64.060115 
3858.000000	64.080882 
3857.000000	64.108061 
3856.000000	64.137744 
3855.000000	64.165663 
3854.000000	64.187669 
3853.000000	64.200854 
3852.000000	64.203906 
3851.000000	64.197254 
3850.000000	64.182782 
3849.000000	64.163446 
3848.000000	64.142465 
3847.000000	64.122724 
3846.000000	64.106202 
3845.000000	64.093613 
3844.000000	64.084458 
3843.000000	64.077234 
3842.000000	64.070010 
3841.000000	64.060997 
3840.000000	64.048957 
3839.000000	64.033651 
3838.000000	64.015841 
3837.000000	63.997173 
3836.000000	63.979673 
3835.000000	63.965439 
3834.000000	63.955736 
3833.000000	63.951015 
3832.000000	63.950562 
3831.000000	63.953113 
3830.000000	63.957095 
3829.000000	63.961219 
3828.000000	63.964700 
3827.000000	63.967537 
3826.000000	63.970255 
3825.000000	63.973641 
3824.000000	63.978099 
3823.000000	63.983821 
3822.000000	63.990569 
3821.000000	63.997793 
3820.000000	64.004778 
3819.000000	64.010810 
3818.000000	64.015674 
3817.000000	64.019465 
3816.000000	64.022970 
3815.000000	64.027714 
3814.000000	64.035820 
3813.000000	64.049291 
3812.000000	64.069867 
3811.000000	64.098381 
3810.000000	64.134311 
3809.000000	64.175796 
3808.000000	64.219570 
3807.000000	64.261698 
3806.000000	64.297914 
3805.000000	64.324617 
3804.000000	64.339137 
3803.000000	64.340448 
3802.000000	64.328908 
3801.000000	64.306545 
3800.000000	64.276456 
3799.000000	64.242172 
3798.000000	64.207410 
3797.000000	64.175629 
3796.000000	64.149379 
3795.000000	64.130187 
3794.000000	64.118432 
3793.000000	64.113402 
3792.000000	64.112925 
3791.000000	64.113855 
3790.000000	64.112520 
3789.000000	64.105415 
3788.000000	64.090299 
3787.000000	64.066791 
3786.000000	64.036107 
3785.000000	64.001464 
3784.000000	63.967037 
3783.000000	63.937234 
3782.000000	63.915371 
3781.000000	63.903284 
3780.000000	63.901185 
3779.000000	63.907790 
3778.000000	63.920497 
3777.000000	63.936543 
3776.000000	63.953304 
3775.000000	63.969397 
3774.000000	63.983988 
3773.000000	63.997840 
3772.000000	64.012479 
3771.000000	64.030265 
3770.000000	64.053368 
3769.000000	64.083766 
3768.000000	64.122247 
3767.000000	64.168596 
3766.000000	64.220952 
3765.000000	64.275956 
3764.000000	64.328813 
3763.000000	64.374256 
3762.000000	64.407157 
3761.000000	64.423537 
3760.000000	64.420986 
3759.000000	64.399886 
3758.000000	64.362525 
3757.000000	64.313483 
3756.000000	64.258146 
3755.000000	64.202165 
3754.000000	64.150500 
3753.000000	64.106655 
3752.000000	64.072632 
3751.000000	64.049100 
3750.000000	64.035654 
3749.000000	64.031505 
3748.000000	64.035654 
3747.000000	64.046955 
3746.000000	64.064311 
3745.000000	64.086318 
3744.000000	64.111280 
3743.000000	64.136648 
3742.000000	64.160013 
3741.000000	64.179110 
3740.000000	64.192533 
3739.000000	64.199948 
3738.000000	64.202356 
3737.000000	64.201593 
3736.000000	64.199829 
3735.000000	64.198732 
3734.000000	64.199209 
3733.000000	64.200782 
3732.000000	64.201760 
3731.000000	64.199566 
3730.000000	64.191818 
3729.000000	64.176845 
3728.000000	64.154458 
3727.000000	64.126086 
3726.000000	64.094471 
3725.000000	64.063143 
3724.000000	64.035606 
3723.000000	64.014554 
3722.000000	64.001083 
3721.000000	63.995146 
3720.000000	63.995289 
3719.000000	63.999819 
3718.000000	64.007163 
3717.000000	64.016723 
3716.000000	64.028835 
3715.000000	64.044547 
3714.000000	64.065003 
3713.000000	64.090561 
3712.000000	64.120173 
3711.000000	64.150881 
3710.000000	64.178180 
3709.000000	64.196872 
3708.000000	64.202475 
3707.000000	64.192271 
3706.000000	64.166545 
3705.000000	64.128804 
3704.000000	64.084982 
3703.000000	64.042472 
3702.000000	64.008188 
3701.000000	63.987088 
3700.000000	63.980698 
3699.000000	63.986945 
3698.000000	64.000654 
3697.000000	64.015054 
3696.000000	64.023542 
3695.000000	64.021182 
3694.000000	64.006209 
3693.000000	63.980078 
3692.000000	63.947248 
3691.000000	63.913631 
3690.000000	63.885474 
3689.000000	63.867497 
3688.000000	63.862538 
3687.000000	63.870859 
3686.000000	63.890862 
3685.000000	63.919544 
3684.000000	63.953566 
3683.000000	63.989567 
3682.000000	64.024758 
3681.000000	64.056825 
3680.000000	64.083695 
3679.000000	64.103698 
3678.000000	64.115214 
3677.000000	64.117336 
3676.000000	64.110469 
3675.000000	64.096450 
3674.000000	64.078879 
3673.000000	64.062213 
3672.000000	64.051342 
3671.000000	64.049911 
3670.000000	64.059925 
3669.000000	64.080643 
3668.000000	64.108657 
3667.000000	64.138817 
3666.000000	64.165353 
3665.000000	64.183306 
3664.000000	64.189743 
3663.000000	64.184379 
3662.000000	64.169740 
3661.000000	64.150452 
3660.000000	64.131999 
3659.000000	64.119601 
3658.000000	64.116716 
3657.000000	64.124417 
3656.000000	64.141130 
3655.000000	64.163374 
3654.000000	64.186477 
3653.000000	64.205884 
3652.000000	64.217972 
3651.000000	64.220619 
3650.000000	64.213514 
3649.000000	64.197969 
3648.000000	64.176535 
3647.000000	64.151978 
3646.000000	64.127039 
3645.000000	64.103746 
3644.000000	64.083623 
3643.000000	64.067530 
3642.000000	64.055967 
3641.000000	64.049267 
3640.000000	64.047646 
3639.000000	64.051198 
3638.000000	64.059638 
3637.000000	64.071941 
3636.000000	64.086341 
3635.000000	64.100432 
3634.000000	64.111757 
3633.000000	64.118385 
3632.000000	64.119553 
3631.000000	64.115667 
3630.000000	64.108729 
3629.000000	64.101719 
3628.000000	64.098000 
3627.000000	64.100337 
3626.000000	64.110040 
3625.000000	64.126634 
3624.000000	64.147901 
3623.000000	64.170360 
3622.000000	64.190244 
3621.000000	64.204263 
3620.000000	64.210677 
3619.000000	64.209437 
3618.000000	64.202427 
3617.000000	64.192724 
3616.000000	64.183783 
3615.000000	64.178657 
3614.000000	64.179253 
3613.000000	64.186000 
3612.000000	64.197945 
3611.000000	64.212942 
3610.000000	64.228606 
3609.000000	64.242482 
3608.000000	64.252662 
3607.000000	64.257955 
3606.000000	64.257979 
3605.000000	64.252853 
3604.000000	64.243054 
3603.000000	64.229512 
3602.000000	64.213299 
3601.000000	64.195871 
3600.000000	64.178943 
3599.000000	64.164495 
3598.000000	64.154195 
3597.000000	64.149689 
3596.000000	64.151835 
3595.000000	64.160394 
3594.000000	64.174127 
3593.000000	64.190721 
3592.000000	64.207243 
3591.000000	64.220547 
3590.000000	64.227795 
3589.000000	64.227008 
3588.000000	64.217329 
3587.000000	64.199066 
3586.000000	64.173603 
3585.000000	64.143204 
3584.000000	64.110183 
3583.000000	64.076852 
3582.000000	64.045047 
3581.000000	64.016103 
3580.000000	63.990759 
3579.000000	63.969421 
3578.000000	63.952302 
3577.000000	63.939666 
3576.000000	63.931965 
3575.000000	63.929843 
3574.000000	63.933777 
3573.000000	63.944149 
3572.000000	63.960623 
3571.000000	63.982391 
3570.000000	64.007854 
3569.000000	64.034938 
3568.000000	64.061665 
3567.000000	64.086318 
3566.000000	64.107728 
3565.000000	64.125394 
3564.000000	64.139342 
3563.000000	64.149689 
3562.000000	64.156746 
3561.000000	64.160346 
3560.000000	64.160156 
3559.000000	64.155530 
3558.000000	64.146280 
3557.000000	64.132595 
3556.000000	64.115500 
3555.000000	64.096927 
3554.000000	64.079642 
3553.000000	64.066624 
3552.000000	64.060330 
3551.000000	64.062380 
3550.000000	64.072823 
3549.000000	64.090085 
3548.000000	64.110994 
3547.000000	64.131355 
3546.000000	64.146685 
3545.000000	64.153027 
3544.000000	64.147901 
3543.000000	64.130473 
3542.000000	64.102149 
3541.000000	64.066171 
3540.000000	64.027285 
3539.000000	63.990783 
3538.000000	63.961625 
3537.000000	63.943600 
3536.000000	63.938665 
3535.000000	63.946628 
3534.000000	63.965415 
3533.000000	63.991594 
3532.000000	64.021325 
3531.000000	64.050769 
3530.000000	64.077019 
3529.000000	64.098358 
3528.000000	64.114356 
3527.000000	64.125561 
3526.000000	64.132905 
3525.000000	64.137339 
3524.000000	64.139533 
3523.000000	64.139413 
3522.000000	64.136362 
3521.000000	64.129257 
3520.000000	64.117217 
3519.000000	64.099979 
3518.000000	64.078211 
3517.000000	64.053583 
3516.000000	64.028692 
3515.000000	64.006423 
3514.000000	63.989806 
3513.000000	63.981223 
3512.000000	63.981819 
3511.000000	63.991308 
3510.000000	64.008045 
3509.000000	64.029288 
3508.000000	64.052057 
3507.000000	64.073491 
3506.000000	64.091110 
3505.000000	64.103531 
3504.000000	64.110445 
3503.000000	64.112472 
3502.000000	64.110851 
3501.000000	64.107012 
3500.000000	64.102220 
3499.000000	64.097476 
3498.000000	64.093494 
3497.000000	64.090776 
3496.000000	64.089393 
3495.000000	64.089536 
3494.000000	64.091038 
3493.000000	64.093422 
3492.000000	64.095902 
3491.000000	64.097285 
3490.000000	64.096069 
3489.000000	64.090681 
3488.000000	64.080095 
3487.000000	64.063763 
3486.000000	64.042544 
3485.000000	64.018344 
3484.000000	63.994479 
3483.000000	63.974952 
3482.000000	63.963866 
3481.000000	63.964509 
3480.000000	63.978528 
3479.000000	64.005279 
3478.000000	64.041972 
3477.000000	64.083838 
3476.000000	64.125227 
3475.000000	64.160680 
3474.000000	64.185976 
3473.000000	64.198851 
3472.000000	64.199161 
3471.000000	64.188790 
3470.000000	64.170956 
3469.000000	64.149284 
3468.000000	64.127349 
3467.000000	64.107775 
3466.000000	64.092540 
3465.000000	64.082455 
3464.000000	64.077591 
3463.000000	64.077281 
3462.000000	64.080500 
3461.000000	64.085888 
3460.000000	64.091801 
3459.000000	64.096736 
3458.000000	64.098930 
3457.000000	64.097476 
3456.000000	64.091873 
3455.000000	64.082717 
3454.000000	64.071679 
3453.000000	64.061236 
3452.000000	64.053797 
3451.000000	64.051413 
3450.000000	64.055252 
3449.000000	64.064955 
3448.000000	64.078950 
3447.000000	64.094448 
3446.000000	64.108228 
3445.000000	64.117264 
3444.000000	64.119791 
3443.000000	64.115405 
3442.000000	64.105081 
3441.000000	64.091277 
3440.000000	64.077186 
3439.000000	64.066123 
3438.000000	64.060592 
3437.000000	64.061784 
3436.000000	64.069461 
3435.000000	64.081931 
3434.000000	64.096808 
3433.000000	64.111304 
3432.000000	64.123415 
3431.000000	64.132094 
3430.000000	64.137983 
3429.000000	64.142990 
3428.000000	64.150047 
3427.000000	64.162158 
3426.000000	64.181399 
3425.000000	64.208173 
3424.000000	64.240646 
3423.000000	64.275121 
3422.000000	64.306259 
3421.000000	64.328646 
3420.000000	64.337611 
3419.000000	64.330625 
3418.000000	64.307761 
3417.000000	64.271879 
3416.000000	64.228010 
3415.000000	64.182662 
3414.000000	64.142513 
3413.000000	64.113283 
3412.000000	64.098668 
3411.000000	64.099955 
3410.000000	64.116072 
3409.000000	64.143824 
3408.000000	64.178752 
3407.000000	64.215898 
3406.000000	64.250636 
3405.000000	64.279437 
3404.000000	64.299941 
3403.000000	64.311408 
3402.000000	64.314460 
3401.000000	64.310765 
3400.000000	64.302349 
3399.000000	64.291310 
3398.000000	64.279246 
3397.000000	64.267158 
3396.000000	64.255499 
3395.000000	64.244508 
3394.000000	64.234614 
3393.000000	64.226555 
3392.000000	64.221549 
3391.000000	64.220952 
3390.000000	64.225816 
3389.000000	64.236307 
3388.000000	64.251399 
3387.000000	64.268517 
3386.000000	64.284253 
3385.000000	64.294791 
3384.000000	64.297032 
3383.000000	64.289212 
3382.000000	64.271759 
3381.000000	64.247107 
3380.000000	64.219379 
3379.000000	64.193415 
3378.000000	64.173603 
3377.000000	64.162850 
3376.000000	64.161872 
3375.000000	64.169526 
3374.000000	64.183068 
3373.000000	64.198994 
3372.000000	64.213800 
3371.000000	64.224863 
3370.000000	64.230847 
3369.000000	64.231681 
3368.000000	64.228248 
3367.000000	64.222002 
3366.000000	64.214563 
3365.000000	64.207243 
3364.000000	64.200949 
3363.000000	64.196038 
3362.000000	64.192771 
3361.000000	64.191150 
3360.000000	64.190912 
3359.000000	64.191579 
3358.000000	64.192295 
3357.000000	64.191794 
3356.000000	64.188647 
3355.000000	64.181208 
3354.000000	64.168310 
3353.000000	64.149236 
3352.000000	64.124441 
3351.000000	64.095187 
3350.000000	64.063882 
3349.000000	64.033579 
3348.000000	64.007449 
3347.000000	63.988256 
3346.000000	63.977813 
3345.000000	63.976573 
3344.000000	63.983345 
3343.000000	63.995742 
3342.000000	64.010429 
3341.000000	64.024138 
3340.000000	64.034247 
3339.000000	64.039468 
3338.000000	64.039921 
3337.000000	64.037156 
3336.000000	64.033508 
3335.000000	64.031505 
3334.000000	64.033102 
3333.000000	64.039254 
3332.000000	64.049553 
3331.000000	64.062523 
3330.000000	64.075946 
3329.000000	64.087510 
3328.000000	64.095449 
3327.000000	64.098978 
3326.000000	64.098334 
3325.000000	64.094495 
3324.000000	64.088916 
3323.000000	64.083051 
3322.000000	64.077663 
3321.000000	64.072918 
3320.000000	64.068388 
3319.000000	64.063143 
3318.000000	64.056491 
3317.000000	64.048004 
3316.000000	64.038038 
3315.000000	64.027833 
3314.000000	64.019083 
3313.000000	64.013528 
3312.000000	64.012527 
3311.000000	64.016485 
3310.000000	64.024901 
3309.000000	64.036226 
3308.000000	64.048409 
3307.000000	64.059209 
3306.000000	64.066600 
3305.000000	64.069247 
3304.000000	64.066720 
3303.000000	64.059615 
3302.000000	64.049506 
3301.000000	64.038372 
3300.000000	64.028310 
3299.000000	64.020895 
3298.000000	64.016723 
3297.000000	64.015245 
3296.000000	64.014983 
3295.000000	64.014172 
3294.000000	64.011240 
3293.000000	64.005613 
3292.000000	63.997817 
3291.000000	63.989377 
3290.000000	63.982534 
3289.000000	63.979268 
3288.000000	63.980698 
3287.000000	63.986611 
3286.000000	63.995575 
3285.000000	64.005184 
3284.000000	64.012813 
3283.000000	64.016294 
3282.000000	64.014649 
3281.000000	64.008474 
3280.000000	63.999652 
3279.000000	63.990807 
3278.000000	63.984680 
3277.000000	63.983345 
3276.000000	63.987898 
3275.000000	63.998293 
3274.000000	64.013719 
3273.000000	64.033079 
3272.000000	64.055085 
3271.000000	64.078688 
3270.000000	64.102935 
3269.000000	64.126896 
3268.000000	64.149212 
3267.000000	64.168334 
3266.000000	64.182257 
3265.000000	64.189100 
3264.000000	64.187049 
3263.000000	64.175224 
3262.000000	64.153933 
3261.000000	64.124894 
3260.000000	64.091134 
3259.000000	64.056611 
3258.000000	64.025616 
3257.000000	64.002037 
3256.000000	63.988637 
3255.000000	63.986659 
3254.000000	63.995575 
3253.000000	64.013266 
3252.000000	64.036560 
3251.000000	64.061903 
3250.000000	64.085865 
3249.000000	64.105677 
3248.000000	64.119720 
3247.000000	64.127588 
3246.000000	64.129805 
3245.000000	64.127421 
3244.000000	64.121437 
3243.000000	64.112591 
3242.000000	64.101147 
3241.000000	64.087128 
3240.000000	64.070820 
3239.000000	64.052772 
3238.000000	64.034390 
3237.000000	64.017391 
3236.000000	64.003705 
3235.000000	63.994956 
3234.000000	63.991975 
3233.000000	63.994860 
3232.000000	64.002704 
3231.000000	64.013981 
3230.000000	64.026975 
3229.000000	64.039826 
3228.000000	64.051032 
3227.000000	64.059209 
3226.000000	64.063477 
3225.000000	64.063024 
3224.000000	64.057302 
3223.000000	64.045834 
3222.000000	64.028501 
3221.000000	64.005780 
3220.000000	63.979101 
3219.000000	63.950419 
3218.000000	63.922643 
3217.000000	63.898921 
3216.000000	63.882684 
3215.000000	63.876318 
3214.000000	63.881206 
3213.000000	63.897395 
3212.000000	63.923621 
3211.000000	63.957357 
3210.000000	63.995504 
3209.000000	64.034485 
3208.000000	64.071130 
3207.000000	64.102959 
3206.000000	64.128303 
3205.000000	64.146280 
3204.000000	64.156675 
3203.000000	64.159917 
3202.000000	64.156270 
3201.000000	64.145994 
3200.000000	64.129137 
3199.000000	64.105987 
3198.000000	64.077210 
3197.000000	64.044284 
3196.000000	64.009547 
3195.000000	63.975906 
3194.000000	63.946366 
3193.000000	63.923454 
3192.000000	63.908576 
3191.000000	63.901853 
3190.000000	63.901805 
3189.000000	63.906121 
3188.000000	63.912081 
3187.000000	63.917589 
3186.000000	63.921403 
3185.000000	63.923954 
3184.000000	63.926553 
3183.000000	63.931512 
3182.000000	63.941216 
3181.000000	63.957309 
3180.000000	63.980054 
3179.000000	64.008402 
3178.000000	64.040255 
3177.000000	64.072847 
3176.000000	64.103198 
3175.000000	64.128923 
3174.000000	64.148545 
3173.000000	64.161515 
3172.000000	64.167976 
3171.000000	64.168715 
3170.000000	64.164781 
3169.000000	64.157319 
3168.000000	64.147591 
3167.000000	64.137172 
3166.000000	64.127755 
3165.000000	64.121484 
3164.000000	64.120197 
3163.000000	64.125370 
3162.000000	64.137387 
3161.000000	64.155554 
3160.000000	64.177608 
3159.000000	64.200210 
3158.000000	64.219331 
3157.000000	64.231228 
3156.000000	64.232850 
3155.000000	64.222717 
3154.000000	64.201188 
3153.000000	64.170169 
3152.000000	64.132928 
3151.000000	64.093279 
3150.000000	64.054870 
3149.000000	64.020705 
3148.000000	63.992762 
3147.000000	63.971877 
3146.000000	63.957643 
3145.000000	63.948869 
3144.000000	63.943696 
3143.000000	63.940167 
3142.000000	63.936209 
3141.000000	63.930463 
3140.000000	63.922286 
3139.000000	63.912343 
3138.000000	63.902163 
3137.000000	63.893890 
3136.000000	63.889932 
3135.000000	63.892149 
3134.000000	63.901448 
3133.000000	63.917469 
3132.000000	63.938403 
3131.000000	63.961625 
3130.000000	63.984131 
3129.000000	64.003610 
3128.000000	64.018630 
3127.000000	64.029240 
3126.000000	64.036560 
3125.000000	64.042448 
3124.000000	64.048624 
3123.000000	64.056205 
3122.000000	64.065146 
3121.000000	64.074563 
3120.000000	64.083027 
3119.000000	64.089441 
3118.000000	64.093399 
3117.000000	64.095258 
3116.000000	64.096212 
3115.000000	64.097762 
3114.000000	64.101314 
3113.000000	64.107489 
3112.000000	64.115881 
3111.000000	64.125323 
3110.000000	64.134168 
3109.000000	64.140939 
3108.000000	64.144706 
3107.000000	64.145636 
3106.000000	64.144849 
3105.000000	64.144229 
3104.000000	64.145779 
3103.000000	64.151024 
3102.000000	64.160323 
3101.000000	64.172840 
3100.000000	64.186406 
3099.000000	64.198303 
3098.000000	64.205360 
3097.000000	64.204931 
3096.000000	64.195251 
3095.000000	64.176011 
3094.000000	64.148330 
3093.000000	64.114689 
3092.000000	64.078426 
3091.000000	64.043474 
3090.000000	64.013504 
3089.000000	63.991856 
3088.000000	63.980746 
3087.000000	63.981318 
3086.000000	63.993501 
3085.000000	64.016270 
3084.000000	64.047360 
3083.000000	64.083743 
3082.000000	64.121842 
3081.000000	64.157891 
3080.000000	64.188170 
3079.000000	64.209699 
3078.000000	64.220690 
3077.000000	64.220952 
3076.000000	64.211702 
3075.000000	64.195919 
3074.000000	64.177656 
3073.000000	64.161348 
3072.000000	64.151215 
3071.000000	64.150214 
3070.000000	64.159536 
3069.000000	64.178490 
3068.000000	64.204621 
3067.000000	64.234256 
3066.000000	64.263343 
3065.000000	64.288139 
3064.000000	64.305853 
3063.000000	64.315199 
3062.000000	64.316058 
3061.000000	64.309525 
3060.000000	64.297175 
3059.000000	64.280772 
3058.000000	64.261603 
3057.000000	64.240765 
3056.000000	64.218783 
3055.000000	64.196133 
3054.000000	64.173054 
3053.000000	64.149975 
3052.000000	64.127326 
3051.000000	64.105844 
3050.000000	64.086508 
3049.000000	64.069771 
3048.000000	64.056324 
3047.000000	64.046549 
3046.000000	64.040851 
3045.000000	64.039301 
3044.000000	64.041900 
3043.000000	64.048480 
3042.000000	64.058399 
3041.000000	64.070701 
3040.000000	64.083766 
3039.000000	64.095664 
3038.000000	64.104342 
3037.000000	64.108157 
3036.000000	64.106249 
3035.000000	64.098906 
3034.000000	64.087700 
3033.000000	64.074993 
3032.000000	64.063453 
3031.000000	64.055466 
3030.000000	64.052414 
3029.000000	64.054250 
3028.000000	64.059638 
3027.000000	64.066195 
3026.000000	64.071464 
3025.000000	64.073276 
3024.000000	64.070582 
3023.000000	64.063429 
3022.000000	64.053249 
3021.000000	64.042043 
3020.000000	64.031672 
3019.000000	64.023566 
3018.000000	64.018130 
3017.000000	64.014983 
3016.000000	64.013123 
3015.000000	64.011526 
3014.000000	64.009761 
3013.000000	64.007925 
3012.000000	64.006900 
3011.000000	64.007782 
3010.000000	64.011669 
3009.000000	64.019274 
3008.000000	64.030718 
3007.000000	64.045143 
3006.000000	64.060974 
3005.000000	64.076185 
3004.000000	64.088630 
3003.000000	64.096403 
3002.000000	64.098429 
3001.000000	64.094567 
3000.000000	64.085912 
2999.000000	64.074397 
2998.000000	64.062619 
2997.000000	64.053392 
2996.000000	64.049220 
2995.000000	64.051795 
2994.000000	64.061784 
2993.000000	64.078879 
2992.000000	64.101910 
2991.000000	64.129090 
2990.000000	64.158296 
2989.000000	64.187479 
2988.000000	64.214777 
2987.000000	64.238715 
2986.000000	64.257740 
2985.000000	64.270424 
2984.000000	64.275169 
2983.000000	64.270615 
2982.000000	64.255928 
2981.000000	64.231109 
2980.000000	64.197492 
2979.000000	64.157557 
2978.000000	64.114856 
2977.000000	64.073157 
2976.000000	64.036107 
2975.000000	64.006233 
2974.000000	63.984799 
2973.000000	63.971209 
2972.000000	63.963699 
2971.000000	63.959646 
2970.000000	63.955998 
2969.000000	63.950657 
2968.000000	63.942337 
2967.000000	63.931393 
2966.000000	63.919520 
2965.000000	63.909435 
2964.000000	63.903880 
2963.000000	63.905262 
2962.000000	63.914680 
2961.000000	63.931894 
2960.000000	63.954949 
2959.000000	63.980793 
2958.000000	64.005780 
2957.000000	64.026474 
2956.000000	64.040184 
2955.000000	64.045619 
2954.000000	64.042997 
2953.000000	64.033818 
2952.000000	64.020586 
2951.000000	64.006114 
2950.000000	63.992953 
2949.000000	63.983440 
2948.000000	63.979125 
2947.000000	63.980865 
2946.000000	63.988828 
2945.000000	64.002799 
2944.000000	64.021921 
2943.000000	64.044761 
2942.000000	64.069032 
2941.000000	64.091944 
2940.000000	64.110541 
2939.000000	64.121961 
2938.000000	64.124178 
2937.000000	64.116525 
2936.000000	64.100170 
2935.000000	64.077901 
2934.000000	64.053750 
2933.000000	64.032387 
2932.000000	64.017724 
2931.000000	64.012265 
2930.000000	64.016342 
2929.000000	64.028286 
2928.000000	64.044928 
2927.000000	64.062595 
2926.000000	64.077877 
2925.000000	64.088511 
2924.000000	64.093708 
2923.000000	64.094185 
2922.000000	64.091610 
2921.000000	64.088034 
2920.000000	64.085221 
2919.000000	64.084315 
2918.000000	64.085841 
2917.000000	64.089369 
2916.000000	64.093971 
2915.000000	64.098453 
2914.000000	64.101696 
2913.000000	64.103102 
2912.000000	64.102911 
2911.000000	64.101767 
2910.000000	64.100742 
2909.000000	64.101028 
2908.000000	64.103651 
2907.000000	64.109110 
2906.000000	64.117193 
2905.000000	64.126968 
2904.000000	64.137029 
2903.000000	64.145803 
2902.000000	64.151906 
2901.000000	64.154458 
2900.000000	64.153385 
2899.000000	64.149498 
2898.000000	64.144301 
2897.000000	64.139866 
2896.000000	64.138197 
2895.000000	64.140963 
2894.000000	64.148879 
2893.000000	64.161634 
2892.000000	64.177775 
2891.000000	64.195036 
2890.000000	64.210653 
2889.000000	64.221882 
2888.000000	64.226531 
2887.000000	64.223313 
2886.000000	64.211988 
2885.000000	64.193391 
2884.000000	64.169239 
2883.000000	64.141678 
2882.000000	64.113235 
2881.000000	64.086198 
2880.000000	64.062762 
2879.000000	64.044427 
2878.000000	64.032244 
2877.000000	64.026618 
2876.000000	64.027237 
2875.000000	64.033269 
2874.000000	64.043402 
2873.000000	64.056038 
2872.000000	64.069342 
2871.000000	64.081764 
2870.000000	64.092040 
2869.000000	64.099740 
2868.000000	64.104914 
2867.000000	64.108061 
2866.000000	64.110231 
2865.000000	64.112401 
2864.000000	64.115452 
2863.000000	64.119791 
2862.000000	64.125347 
2861.000000	64.131450 
2860.000000	64.137172 
2859.000000	64.141464 
2858.000000	64.143562 
2857.000000	64.142942 
2856.000000	64.139533 
2855.000000	64.133691 
2854.000000	64.126062 
2853.000000	64.117550 
2852.000000	64.109110 
2851.000000	64.101719 
2850.000000	64.096307 
2849.000000	64.093494 
2848.000000	64.093732 
2847.000000	64.096999 
2846.000000	64.102911 
2845.000000	64.110541 
2844.000000	64.118742 
2843.000000	64.126348 
2842.000000	64.132523 
2841.000000	64.136767 
2840.000000	64.139318 
2839.000000	64.141011 
2838.000000	64.143276 
2837.000000	64.147472 
2836.000000	64.154767 
2835.000000	64.165663 
2834.000000	64.179897 
2833.000000	64.196395 
2832.000000	64.213585 
2831.000000	64.229893 
2830.000000	64.243769 
2829.000000	64.254260 
2828.000000	64.260840 
2827.000000	64.263296 
2826.000000	64.261651 
2825.000000	64.256143 
2824.000000	64.247107 
2823.000000	64.234972 
2822.000000	64.220476 
2821.000000	64.204692 
2820.000000	64.188957 
2819.000000	64.174723 
2818.000000	64.163255 
2817.000000	64.155435 
2816.000000	64.151740 
2815.000000	64.152026 
2814.000000	64.155626 
2813.000000	64.161562 
2812.000000	64.168930 
2811.000000	64.177179 
2810.000000	64.185953 
2809.000000	64.195179 
2808.000000	64.205002 
2807.000000	64.215469 
2806.000000	64.226484 
2805.000000	64.237833 
2804.000000	64.249300 
2803.000000	64.260697 
2802.000000	64.272141 
2801.000000	64.283823 
2800.000000	64.295983 
2799.000000	64.308619 
2798.000000	64.321374 
2797.000000	64.333629 
2796.000000	64.344573 
2795.000000	64.353299 
2794.000000	64.358854 
2793.000000	64.360690 
2792.000000	64.358401 
2791.000000	64.352011 
2790.000000	64.341664 
2789.000000	64.327597 
2788.000000	64.310169 
2787.000000	64.289879 
2786.000000	64.267516 
2785.000000	64.244151 
2784.000000	64.221215 
2783.000000	64.200448 
2782.000000	64.183712 
2781.000000	64.172577 
2780.000000	64.168071 
2779.000000	64.170503 
2778.000000	64.179253 
2777.000000	64.192867 
2776.000000	64.209342 
2775.000000	64.226460 
2774.000000	64.242172 
2773.000000	64.254856 
2772.000000	64.263486 
2771.000000	64.267492 
2770.000000	64.266800 
2769.000000	64.261746 
2768.000000	64.252948 
2767.000000	64.241003 
2766.000000	64.226698 
2765.000000	64.210987 
2764.000000	64.194965 
2763.000000	64.179682 
2762.000000	64.166331 
2761.000000	64.155793 
2760.000000	64.148712 
2759.000000	64.145398 
2758.000000	64.145493 
2757.000000	64.148330 
2756.000000	64.153027 
2755.000000	64.158797 
2754.000000	64.164876 
2753.000000	64.170980 
2752.000000	64.177155 
2751.000000	64.183855 
2750.000000	64.191532 
2749.000000	64.200496 
2748.000000	64.210772 
2747.000000	64.221787 
2746.000000	64.232587 
2745.000000	64.241647 
2744.000000	64.247274 
2743.000000	64.247894 
2742.000000	64.242434 
2741.000000	64.230275 
2740.000000	64.211702 
2739.000000	64.187765 
2738.000000	64.160251 
2737.000000	64.131689 
2736.000000	64.104914 
2735.000000	64.082741 
2734.000000	64.067459 
2733.000000	64.060854 
2732.000000	64.063882 
2731.000000	64.076304 
2730.000000	64.096832 
2729.000000	64.123106 
2728.000000	64.152479 
2727.000000	64.181709 
2726.000000	64.208245 
2725.000000	64.229893 
2724.000000	64.245581 
2723.000000	64.255166 
2722.000000	64.259266 
2721.000000	64.259195 
2720.000000	64.256072 
2719.000000	64.250922 
2718.000000	64.243912 
2717.000000	64.234757 
2716.000000	64.222574 
2715.000000	64.206409 
2714.000000	64.185595 
2713.000000	64.160537 
2712.000000	64.132785 
2711.000000	64.105224 
2710.000000	64.081573 
2709.000000	64.065670 
2708.000000	64.060568 
2707.000000	64.067888 
2706.000000	64.087128 
2705.000000	64.115738 
2704.000000	64.149737 
2703.000000	64.184498 
2702.000000	64.215445 
2701.000000	64.239048 
2700.000000	64.253377 
2699.000000	64.258289 
2698.000000	64.254808 
2697.000000	64.245104 
2696.000000	64.231657 
2695.000000	64.216947 
2694.000000	64.202857 
2693.000000	64.190912 
2692.000000	64.182281 
2691.000000	64.177775 
2690.000000	64.178085 
2689.000000	64.183473 
2688.000000	64.193749 
2687.000000	64.208078 
2686.000000	64.224910 
2685.000000	64.242434 
2684.000000	64.258599 
2683.000000	64.271569 
2682.000000	64.280176 
2681.000000	64.283704 
2680.000000	64.281868 
2679.000000	64.275097 
2678.000000	64.263749 
2677.000000	64.248299 
2676.000000	64.228916 
2675.000000	64.205956 
2674.000000	64.179897 
2673.000000	64.151787 
2672.000000	64.123106 
2671.000000	64.095830 
2670.000000	64.072108 
2669.000000	64.053845 
2668.000000	64.042568 
2667.000000	64.038658 
2666.000000	64.041733 
2665.000000	64.050364 
2664.000000	64.062619 
2663.000000	64.076256 
2662.000000	64.089083 
2661.000000	64.099383 
2660.000000	64.105844 
2659.000000	64.107966 
2658.000000	64.106106 
2657.000000	64.101362 
2656.000000	64.095616 
2655.000000	64.091181 
2654.000000	64.090609 
2653.000000	64.096093 
2652.000000	64.109086 
2651.000000	64.129710 
2650.000000	64.156723 
2649.000000	64.187574 
2648.000000	64.218688 
2647.000000	64.246463 
2646.000000	64.267921 
2645.000000	64.281558 
2644.000000	64.287686 
2643.000000	64.288020 
2642.000000	64.285254 
2641.000000	64.282131 
2640.000000	64.280867 
2639.000000	64.282321 
2638.000000	64.285922 
2637.000000	64.290022 
2636.000000	64.292597 
2635.000000	64.291739 
2634.000000	64.286327 
2633.000000	64.276456 
2632.000000	64.263153 
2631.000000	64.248085 
2630.000000	64.233040 
2629.000000	64.219355 
2628.000000	64.207434 
2627.000000	64.197230 
2626.000000	64.188194 
2625.000000	64.179730 
2624.000000	64.171290 
2623.000000	64.163064 
2622.000000	64.155721 
2621.000000	64.149975 
2620.000000	64.146637 
2619.000000	64.146232 
2618.000000	64.148855 
2617.000000	64.153957 
2616.000000	64.160609 
2615.000000	64.167666 
2614.000000	64.174056 
2613.000000	64.178872 
2612.000000	64.181828 
2611.000000	64.182972 
2610.000000	64.182925 
2609.000000	64.182567 
2608.000000	64.182949 
2607.000000	64.184975 
2606.000000	64.189410 
2605.000000	64.196467 
2604.000000	64.205741 
2603.000000	64.216184 
2602.000000	64.226222 
2601.000000	64.234209 
2600.000000	64.238595 
2599.000000	64.238381 
2598.000000	64.233517 
2597.000000	64.224886 
2596.000000	64.213752 
2595.000000	64.201807 
2594.000000	64.190721 
2593.000000	64.181661 
2592.000000	64.175033 
2591.000000	64.170622 
2590.000000	64.167785 
2589.000000	64.165401 
2588.000000	64.162635 
2587.000000	64.158725 
2586.000000	64.153337 
2585.000000	64.146518 
2584.000000	64.138436 
2583.000000	64.129447 
2582.000000	64.119839 
2581.000000	64.109849 
2580.000000	64.099812 
2579.000000	64.090108 
2578.000000	64.081335 
2577.000000	64.074158 
2576.000000	64.069390 
2575.000000	64.067721 
2574.000000	64.069724 
2573.000000	64.075732 
2572.000000	64.085960 
2571.000000	64.100289 
2570.000000	64.118409 
2569.000000	64.139914 
2568.000000	64.164042 
2567.000000	64.189863 
2566.000000	64.216017 
2565.000000	64.240717 
2564.000000	64.261960 
2563.000000	64.277911 
2562.000000	64.286971 
2561.000000	64.288115 
2560.000000	64.281177 
2559.000000	64.267182 
2558.000000	64.247894 
2557.000000	64.225697 
2556.000000	64.202904 
2555.000000	64.181542 
2554.000000	64.162945 
2553.000000	64.147758 
2552.000000	64.135742 
2551.000000	64.126229 
2550.000000	64.118576 
2549.000000	64.112234 
2548.000000	64.107108 
2547.000000	64.103555 
2546.000000	64.102196 
2545.000000	64.103841 
2544.000000	64.109039 
2543.000000	64.117956 
2542.000000	64.130353 
2541.000000	64.145588 
2540.000000	64.162635 
2539.000000	64.180636 
2538.000000	64.198923 
2537.000000	64.216947 
2536.000000	64.234519 
2535.000000	64.251661 
2534.000000	64.268541 
2533.000000	64.285111 
2532.000000	64.301180 
2531.000000	64.315867 
2530.000000	64.327955 
2529.000000	64.335846 
2528.000000	64.338064 
2527.000000	64.333438 
2526.000000	64.321351 
2525.000000	64.302349 
2524.000000	64.277958 
2523.000000	64.250469 
2522.000000	64.222598 
2521.000000	64.197182 
2520.000000	64.176750 
2519.000000	64.163374 
2518.000000	64.158177 
2517.000000	64.161610 
2516.000000	64.173150 
2515.000000	64.191436 
2514.000000	64.214324 
2513.000000	64.239144 
2512.000000	64.262700 
2511.000000	64.281797 
2510.000000	64.293837 
2509.000000	64.296889 
2508.000000	64.290237 
2507.000000	64.274811 
2506.000000	64.252734 
2505.000000	64.227342 
2504.000000	64.202308 
2503.000000	64.181208 
2502.000000	64.166855 
2501.000000	64.160656 
2500.000000	64.162707 
2499.000000	64.172172 
2498.000000	64.187288 
2497.000000	64.206099 
2496.000000	64.226722 
2495.000000	64.247703 
2494.000000	64.268040 
2493.000000	64.286971 
2492.000000	64.303803 
2491.000000	64.317560 
2490.000000	64.327144 
2489.000000	64.331316 
2488.000000	64.329075 
2487.000000	64.319658 
2486.000000	64.303541 
2485.000000	64.281725 
2484.000000	64.256215 
2483.000000	64.229464 
2482.000000	64.204025 
2481.000000	64.182090 
2480.000000	64.165186 
2479.000000	64.153814 
2478.000000	64.147567 
2477.000000	64.145135 
2476.000000	64.144849 
2475.000000	64.144921 
2474.000000	64.143800 
2473.000000	64.140748 
2472.000000	64.135694 
2471.000000	64.129590 
2470.000000	64.123773 
2469.000000	64.119935 
2468.000000	64.119410 
2467.000000	64.123010 
2466.000000	64.130330 
2465.000000	64.140272 
2464.000000	64.150953 
2463.000000	64.160013 
2462.000000	64.165544 
2461.000000	64.166235 
2460.000000	64.162063 
2459.000000	64.154291 
2458.000000	64.145088 
2457.000000	64.137053 
2456.000000	64.132499 
2455.000000	64.133143 
2454.000000	64.139199 
2453.000000	64.149475 
2452.000000	64.161729 
2451.000000	64.173340 
2450.000000	64.181876 
2449.000000	64.185690 
2448.000000	64.184451 
2447.000000	64.179158 
2446.000000	64.171671 
2445.000000	64.164113 
2444.000000	64.158058 
2443.000000	64.154314 
2442.000000	64.152598 
2441.000000	64.151906 
2440.000000	64.150643 
2439.000000	64.147424 
2438.000000	64.141440 
2437.000000	64.132905 
2436.000000	64.122748 
2435.000000	64.112663 
2434.000000	64.104390 
2433.000000	64.099502 
2432.000000	64.098882 
2431.000000	64.102768 
2430.000000	64.110827 
2429.000000	64.122557 
2428.000000	64.137291 
2427.000000	64.154529 
2426.000000	64.173793 
2425.000000	64.194798 
2424.000000	64.217019 
2423.000000	64.239883 
2422.000000	64.262390 
2421.000000	64.283442 
2420.000000	64.301609 
2419.000000	64.315366 
2418.000000	64.323329 
2417.000000	64.324378 
2416.000000	64.317798 
2415.000000	64.303779 
2414.000000	64.283156 
2413.000000	64.257836 
2412.000000	64.230275 
2411.000000	64.203286 
2410.000000	64.179611 
2409.000000	64.161491 
2408.000000	64.150261 
2407.000000	64.145970 
2406.000000	64.147710 
2405.000000	64.153623 
2404.000000	64.161705 
2403.000000	64.170265 
2402.000000	64.178419 
2401.000000	64.186096 
2400.000000	64.193892 
2399.000000	64.202833 
2398.000000	64.213633 
2397.000000	64.226317 
2396.000000	64.240121 
2395.000000	64.253807 
2394.000000	64.265632 
2393.000000	64.274024 
2392.000000	64.277625 
2391.000000	64.275741 
2390.000000	64.268231 
2389.000000	64.255595 
2388.000000	64.238715 
2387.000000	64.218759 
2386.000000	64.197134 
2385.000000	64.175438 
2384.000000	64.155435 
2383.000000	64.138770 
2382.000000	64.127087 
2381.000000	64.121603 
2380.000000	64.122819 
2379.000000	64.130234 
2378.000000	64.142537 
2377.000000	64.157629 
2376.000000	64.172887 
2375.000000	64.185762 
2374.000000	64.194226 
2373.000000	64.197111 
2372.000000	64.194345 
2371.000000	64.186835 
2370.000000	64.176034 
2369.000000	64.164161 
2368.000000	64.153385 
2367.000000	64.145898 
2366.000000	64.143395 
2365.000000	64.147019 
2364.000000	64.157223 
2363.000000	64.173531 
2362.000000	64.194774 
2361.000000	64.218902 
2360.000000	64.243388 
2359.000000	64.265418 
2358.000000	64.282369 
2357.000000	64.292216 
2356.000000	64.294123 
2355.000000	64.288544 
2354.000000	64.277195 
2353.000000	64.262771 
2352.000000	64.248275 
2351.000000	64.236640 
2350.000000	64.229846 
2349.000000	64.228773 
2348.000000	64.232802 
2347.000000	64.240264 
2346.000000	64.248704 
2345.000000	64.255738 
2344.000000	64.259433 
2343.000000	64.258670 
2342.000000	64.253449 
2341.000000	64.244580 
2340.000000	64.233541 
2339.000000	64.222025 
2338.000000	64.211559 
2337.000000	64.203190 
2336.000000	64.197564 
2335.000000	64.194655 
2334.000000	64.193987 
2333.000000	64.194750 
2332.000000	64.195919 
2331.000000	64.196348 
2330.000000	64.195156 
2329.000000	64.191913 
2328.000000	64.186358 
2327.000000	64.178967 
2326.000000	64.170718 
2325.000000	64.162898 
2324.000000	64.157128 
2323.000000	64.154577 
2322.000000	64.155912 
2321.000000	64.161086 
2320.000000	64.169263 
2319.000000	64.179039 
2318.000000	64.188742 
2317.000000	64.197087 
2316.000000	64.203214 
2315.000000	64.207267 
2314.000000	64.210009 
2313.000000	64.212727 
2312.000000	64.216780 
2311.000000	64.223027 
2310.000000	64.231753 
2309.000000	64.242506 
2308.000000	64.254045 
2307.000000	64.264726 
2306.000000	64.272665 
2305.000000	64.276361 
2304.000000	64.274740 
2303.000000	64.267492 
2302.000000	64.254951 
2301.000000	64.238047 
2300.000000	64.218068 
2299.000000	64.196729 
2298.000000	64.175677 
2297.000000	64.156532 
2296.000000	64.140415 
2295.000000	64.128232 
2294.000000	64.120030 
2293.000000	64.115357 
2292.000000	64.113306 
2291.000000	64.112520 
2290.000000	64.111709 
2289.000000	64.109683 
2288.000000	64.106082 
2287.000000	64.101004 
2286.000000	64.095258 
2285.000000	64.090013 
2284.000000	64.086461 
2283.000000	64.085531 
2282.000000	64.087486 
2281.000000	64.091897 
2280.000000	64.097952 
2279.000000	64.104509 
2278.000000	64.110612 
2277.000000	64.115691 
2276.000000	64.119625 
2275.000000	64.122581 
2274.000000	64.124870 
2273.000000	64.126753 
2272.000000	64.128255 
2271.000000	64.129090 
2270.000000	64.128899 
2269.000000	64.127373 
2268.000000	64.124369 
2267.000000	64.120292 
2266.000000	64.115953 
2265.000000	64.112520 
2264.000000	64.111065 
2263.000000	64.112234 
2262.000000	64.116334 
2261.000000	64.123058 
2260.000000	64.131426 
2259.000000	64.140343 
2258.000000	64.148688 
2257.000000	64.155554 
2256.000000	64.160442 
2255.000000	64.163160 
2254.000000	64.163947 
2253.000000	64.163136 
2252.000000	64.161062 
2251.000000	64.158177 
2250.000000	64.154696 
2249.000000	64.150905 
2248.000000	64.146876 
2247.000000	64.142775 
2246.000000	64.138603 
2245.000000	64.134430 
2244.000000	64.130377 
2243.000000	64.126539 
2242.000000	64.123129 
2241.000000	64.120364 
2240.000000	64.118814 
2239.000000	64.118933 
2238.000000	64.121580 
2237.000000	64.127326 
2236.000000	64.136719 
2235.000000	64.149808 
2234.000000	64.165949 
2233.000000	64.183998 
2232.000000	64.202284 
2231.000000	64.218854 
2230.000000	64.232039 
2229.000000	64.240646 
2228.000000	64.244222 
2227.000000	64.243197 
2226.000000	64.238667 
2225.000000	64.232087 
2224.000000	64.224910 
2223.000000	64.218258 
2222.000000	64.212703 
2221.000000	64.208316 
2220.000000	64.204788 
2219.000000	64.201664 
2218.000000	64.198780 
2217.000000	64.196014 
2216.000000	64.193701 
2215.000000	64.192223 
2214.000000	64.191722 
2213.000000	64.192223 
2212.000000	64.193248 
2211.000000	64.194202 
2210.000000	64.194583 
2209.000000	64.194035 
2208.000000	64.192748 
2207.000000	64.191341 
2206.000000	64.190745 
2205.000000	64.191699 
2204.000000	64.194750 
2203.000000	64.199805 
2202.000000	64.206242 
2201.000000	64.212965 
2200.000000	64.218688 
2199.000000	64.222288 
2198.000000	64.223122 
2197.000000	64.221024 
2196.000000	64.216208 
2195.000000	64.209365 
2194.000000	64.201307 
2193.000000	64.192748 
2192.000000	64.184451 
2191.000000	64.176940 
2190.000000	64.170598 
2189.000000	64.165925 
2188.000000	64.163446 
2187.000000	64.163517 
2186.000000	64.166164 
2185.000000	64.171075 
2184.000000	64.177465 
2183.000000	64.184069 
2182.000000	64.189600 
2181.000000	64.192700 
2180.000000	64.192676 
2179.000000	64.189338 
2178.000000	64.183378 
2177.000000	64.176082 
2176.000000	64.168930 
2175.000000	64.163398 
2174.000000	64.160275 
2173.000000	64.159536 
2172.000000	64.160227 
2171.000000	64.160776 
2170.000000	64.159488 
2169.000000	64.155101 
2168.000000	64.147448 
2167.000000	64.137649 
2166.000000	64.127945 
2165.000000	64.121365 
2164.000000	64.120697 
2163.000000	64.127707 
2162.000000	64.142704 
2161.000000	64.164257 
2160.000000	64.189434 
2159.000000	64.214372 
2158.000000	64.235281 
2157.000000	64.249062 
2156.000000	64.254093 
2155.000000	64.250349 
2154.000000	64.239215 
2153.000000	64.222979 
2152.000000	64.204120 
2151.000000	64.184713 
2150.000000	64.166188 
2149.000000	64.149212 
2148.000000	64.133763 
2147.000000	64.119648 
2146.000000	64.106917 
2145.000000	64.095878 
2144.000000	64.087319 
2143.000000	64.082288 
2142.000000	64.081931 
2141.000000	64.087271 
2140.000000	64.098834 
2139.000000	64.116668 
2138.000000	64.139938 
2137.000000	64.167118 
2136.000000	64.195823 
2135.000000	64.223265 
2134.000000	64.246535 
2133.000000	64.263033 
2132.000000	64.271020 
2131.000000	64.269876 
2130.000000	64.260268 
2129.000000	64.244103 
2128.000000	64.224123 
2127.000000	64.203667 
2126.000000	64.185833 
2125.000000	64.173221 
2124.000000	64.167404 
2123.000000	64.168858 
2122.000000	64.177060 
2121.000000	64.190721 
2120.000000	64.208269 
2119.000000	64.227986 
2118.000000	64.248132 
2117.000000	64.267253 
2116.000000	64.283943 
2115.000000	64.297008 
2114.000000	64.305543 
2113.000000	64.308857 
2112.000000	64.306569 
2111.000000	64.298582 
2110.000000	64.285111 
2109.000000	64.266657 
2108.000000	64.244151 
2107.000000	64.219021 
2106.000000	64.193177 
2105.000000	64.168953 
2104.000000	64.148974 
2103.000000	64.135456 
2102.000000	64.130353 
2101.000000	64.134263 
2100.000000	64.146494 
2099.000000	64.164757 
2098.000000	64.185357 
2097.000000	64.204025 
2096.000000	64.216470 
2095.000000	64.219570 
2094.000000	64.212012 
2093.000000	64.194607 
2092.000000	64.169979 
2091.000000	64.141988 
2090.000000	64.114809 
2089.000000	64.091777 
2088.000000	64.075160 
2087.000000	64.065980 
2086.000000	64.064121 
2085.000000	64.068841 
2084.000000	64.079117 
2083.000000	64.093971 
2082.000000	64.112544 
2081.000000	64.133834 
2080.000000	64.156603 
2079.000000	64.179277 
2078.000000	64.200186 
2077.000000	64.217567 
2076.000000	64.229941 
2075.000000	64.236450 
2074.000000	64.237022 
2073.000000	64.232587 
2072.000000	64.224720 
2071.000000	64.215373 
2070.000000	64.206361 
2069.000000	64.199161 
2068.000000	64.194536 
2067.000000	64.192581 
2066.000000	64.192914 
2065.000000	64.194941 
2064.000000	64.198064 
2063.000000	64.201879 
2062.000000	64.206242 
2061.000000	64.211010 
2060.000000	64.215922 
2059.000000	64.220094 
2058.000000	64.222645 
2057.000000	64.222335 
2056.000000	64.217734 
2055.000000	64.207673 
2054.000000	64.191746 
2053.000000	64.170312 
2052.000000	64.144587 
2051.000000	64.116430 
2050.000000	64.087986 
2049.000000	64.061379 
2048.000000	64.038395 
2047.000000	64.020252 
2046.000000	64.007425 
2045.000000	63.999700 
2044.000000	63.996601 
2043.000000	63.997459 
2042.000000	64.001369 
2041.000000	64.007496 
2040.000000	64.015078 
2039.000000	64.023423 
2038.000000	64.031958 
2037.000000	64.040207 
2036.000000	64.048027 
2035.000000	64.055562 
2034.000000	64.063429 
2033.000000	64.072442 
2032.000000	64.083576 
2031.000000	64.097690 
2030.000000	64.115262 
2029.000000	64.136219 
2028.000000	64.159774 
2027.000000	64.184617 
2026.000000	64.208650 
2025.000000	64.229893 
2024.000000	64.246225 
2023.000000	64.256095 
2022.000000	64.258503 
2021.000000	64.253139 
2020.000000	64.240407 
2019.000000	64.221549 
2018.000000	64.198160 
2017.000000	64.172244 
2016.000000	64.145827 
2015.000000	64.121055 
2014.000000	64.099788 
2013.000000	64.083528 
2012.000000	64.073419 
2011.000000	64.069962 
2010.000000	64.073228 
2009.000000	64.082670 
2008.000000	64.097142 
2007.000000	64.114880 
2006.000000	64.133691 
2005.000000	64.151263 
2004.000000	64.165306 
2003.000000	64.174175 
2002.000000	64.176821 
2001.000000	64.173412 
2000.000000	64.165067 
1999.000000	64.153766 
1998.000000	64.142012 
1997.000000	64.131951 
1996.000000	64.125275 
1995.000000	64.122581 
1994.000000	64.123368 
1993.000000	64.126110 
1992.000000	64.128756 
1991.000000	64.129233 
1990.000000	64.126133 
1989.000000	64.119219 
1988.000000	64.109325 
1987.000000	64.098262 
1986.000000	64.088129 
1985.000000	64.080929 
1984.000000	64.077901 
1983.000000	64.079380 
1982.000000	64.084577 
1981.000000	64.091873 
1980.000000	64.099574 
1979.000000	64.106225 
1978.000000	64.111113 
1977.000000	64.114308 
1976.000000	64.116835 
1975.000000	64.119982 
1974.000000	64.125251 
1973.000000	64.133548 
1972.000000	64.144897 
1971.000000	64.158606 
1970.000000	64.173030 
1969.000000	64.186286 
1968.000000	64.196634 
1967.000000	64.202809 
1966.000000	64.204335 
1965.000000	64.201712 
1964.000000	64.196228 
1963.000000	64.189577 
1962.000000	64.183640 
1961.000000	64.179849 
1960.000000	64.179086 
1959.000000	64.181447 
1958.000000	64.186286 
1957.000000	64.192461 
1956.000000	64.198422 
1955.000000	64.202475 
1954.000000	64.203143 
1953.000000	64.199590 
1952.000000	64.191484 
1951.000000	64.179277 
1950.000000	64.164042 
1949.000000	64.147305 
1948.000000	64.130806 
1947.000000	64.116144 
1946.000000	64.104628 
1945.000000	64.096903 
1944.000000	64.093112 
1943.000000	64.092874 
1942.000000	64.095354 
1941.000000	64.099407 
1940.000000	64.103674 
1939.000000	64.106965 
1938.000000	64.108228 
1937.000000	64.106941 
1936.000000	64.103007 
1935.000000	64.097046 
1934.000000	64.089894 
1933.000000	64.082932 
1932.000000	64.077591 
1931.000000	64.075088 
1930.000000	64.076089 
1929.000000	64.080595 
1928.000000	64.087915 
1927.000000	64.096617 
1926.000000	64.104938 
1925.000000	64.111113 
1924.000000	64.113759 
1923.000000	64.112186 
1922.000000	64.106583 
1921.000000	64.097762 
1920.000000	64.087224 
1919.000000	64.076566 
1918.000000	64.067602 
1917.000000	64.061713 
1916.000000	64.059853 
1915.000000	64.062714 
1914.000000	64.070177 
1913.000000	64.081430 
1912.000000	64.094996 
1911.000000	64.109039 
1910.000000	64.121508 
1909.000000	64.130473 
1908.000000	64.134407 
1907.000000	64.132571 
1906.000000	64.124870 
1905.000000	64.111876 
1904.000000	64.094805 
1903.000000	64.075303 
1902.000000	64.054965 
1901.000000	64.035463 
1900.000000	64.018321 
1899.000000	64.004850 
1898.000000	63.996195 
1897.000000	63.993239 
1896.000000	63.996458 
1895.000000	64.006090 
1894.000000	64.021730 
1893.000000	64.042496 
1892.000000	64.066863 
1891.000000	64.092946 
1890.000000	64.118671 
1889.000000	64.142251 
1888.000000	64.162206 
1887.000000	64.177632 
1886.000000	64.188313 
1885.000000	64.194464 
1884.000000	64.196920 
1883.000000	64.196538 
1882.000000	64.194393 
1881.000000	64.191365 
1880.000000	64.188313 
1879.000000	64.186048 
1878.000000	64.185357 
1877.000000	64.187002 
1876.000000	64.191603 
1875.000000	64.199447 
1874.000000	64.210343 
1873.000000	64.223551 
1872.000000	64.237666 
1871.000000	64.250755 
1870.000000	64.260673 
1869.000000	64.265418 
1868.000000	64.263629 
1867.000000	64.254713 
1866.000000	64.239072 
1865.000000	64.218139 
1864.000000	64.194107 
1863.000000	64.169692 
1862.000000	64.147520 
1861.000000	64.129853 
1860.000000	64.118075 
1859.000000	64.112663 
1858.000000	64.113092 
1857.000000	64.117908 
1856.000000	64.125132 
1855.000000	64.132642 
1854.000000	64.138460 
1853.000000	64.141035 
1852.000000	64.139628 
1851.000000	64.134430 
1850.000000	64.126324 
1849.000000	64.116692 
1848.000000	64.107251 
1847.000000	64.099621 
1846.000000	64.095163 
1845.000000	64.094638 
1844.000000	64.098548 
1843.000000	64.106750 
1842.000000	64.118695 
1841.000000	64.133358 
1840.000000	64.149475 
1839.000000	64.165449 
1838.000000	64.179563 
1837.000000	64.190244 
1836.000000	64.196467 
1835.000000	64.197683 
1834.000000	64.194440 
1833.000000	64.187955 
1832.000000	64.179897 
1831.000000	64.172053 
1830.000000	64.166021 
1829.000000	64.162635 
1828.000000	64.161753 
1827.000000	64.162206 
1826.000000	64.162516 
1825.000000	64.160919 
1824.000000	64.156103 
1823.000000	64.147615 
1822.000000	64.135909 
1821.000000	64.122319 
1820.000000	64.108681 
1819.000000	64.096760 
1818.000000	64.087891 
1817.000000	64.082717 
1816.000000	64.081072 
1815.000000	64.082336 
1814.000000	64.085626 
1813.000000	64.090156 
1812.000000	64.095544 
1811.000000	64.101767 
1810.000000	64.109182 
1809.000000	64.118170 
1808.000000	64.129018 
1807.000000	64.141488 
1806.000000	64.154791 
1805.000000	64.167833 
1804.000000	64.179086 
1803.000000	64.187288 
1802.000000	64.191293 
1801.000000	64.190435 
1800.000000	64.184594 
1799.000000	64.174175 
1798.000000	64.160060 
1797.000000	64.143466 
1796.000000	64.125800 
1795.000000	64.108443 
1794.000000	64.092659 
1793.000000	64.079380 
1792.000000	64.069294 
1791.000000	64.062571 
1790.000000	64.059066 
1789.000000	64.058327 
1788.000000	64.059734 
1787.000000	64.062643 
1786.000000	64.066338 
1785.000000	64.070343 
1784.000000	64.074230 
1783.000000	64.077734 
1782.000000	64.080548 
1781.000000	64.082503 
1780.000000	64.083218 
1779.000000	64.082527 
1778.000000	64.080452 
1777.000000	64.077305 
1776.000000	64.073586 
1775.000000	64.069867 
1774.000000	64.066863 
1773.000000	64.065027 
1772.000000	64.064335 
1771.000000	64.064264 
1770.000000	64.064002 
1769.000000	64.062476 
1768.000000	64.058494 
1767.000000	64.051270 
1766.000000	64.040541 
1765.000000	64.026713 
1764.000000	64.010906 
1763.000000	63.994860 
1762.000000	63.980579 
1761.000000	63.970255 
1760.000000	63.965535 
1759.000000	63.967227 
1758.000000	63.975024 
1757.000000	63.987636 
1756.000000	64.002704 
1755.000000	64.017343 
1754.000000	64.028406 
1753.000000	64.033389 
1752.000000	64.030408 
1751.000000	64.018774 
1750.000000	63.998842 
1749.000000	63.972139 
1748.000000	63.940668 
1747.000000	63.906550 
1746.000000	63.871669 
1745.000000	63.837599 
1744.000000	63.805079 
1743.000000	63.774323 
1742.000000	63.745307 
1741.000000	63.717961 
1740.000000	63.692283 
1739.000000	63.668632 
1738.000000	63.647460 
1737.000000	63.629579 
1736.000000	63.615608 
1735.000000	63.606095 
1734.000000	63.601326 
1733.000000	63.601446 
1732.000000	63.606262 
1731.000000	63.615703 
1730.000000	63.629412 
1729.000000	63.647222 
1728.000000	63.668656 
1727.000000	63.693094 
1726.000000	63.719606 
1725.000000	63.747024 
1724.000000	63.773846 
1723.000000	63.798785 
1722.000000	63.820815 
1721.000000	63.839411 
1720.000000	63.854527 
1719.000000	63.866782 
1718.000000	63.877224 
1717.000000	63.887119 
1716.000000	63.897299 
1715.000000	63.908362 
1714.000000	63.920497 
1713.000000	63.933396 
1712.000000	63.946533 
1711.000000	63.959383 
1710.000000	63.971710 
1709.000000	63.983631 
1708.000000	63.995599 
1707.000000	64.008235 
1706.000000	64.021897 
1705.000000	64.036631 
1704.000000	64.051866 
1703.000000	64.066457 
1702.000000	64.078974 
1701.000000	64.087963 
1700.000000	64.092516 
1699.000000	64.092278 
1698.000000	64.088082 
1697.000000	64.081621 
1696.000000	64.075469 
1695.000000	64.072084 
1694.000000	64.073681 
1693.000000	64.081788 
1692.000000	64.096546 
1691.000000	64.116787 
1690.000000	64.140224 
1689.000000	64.163970 
1688.000000	64.184856 
1687.000000	64.199995 
1686.000000	64.207339 
1685.000000	64.206051 
1684.000000	64.196348 
1683.000000	64.179491 
1682.000000	64.157629 
1681.000000	64.133334 
1680.000000	64.109110 
1679.000000	64.087200 
1678.000000	64.069509 
1677.000000	64.057278 
1676.000000	64.051032 
1675.000000	64.050459 
1674.000000	64.054656 
1673.000000	64.062261 
1672.000000	64.071440 
1671.000000	64.080476 
1670.000000	64.087843 
1669.000000	64.092445 
1668.000000	64.093732 
1667.000000	64.091515 
1666.000000	64.086008 
1665.000000	64.077281 
1664.000000	64.065504 
1663.000000	64.050722 
1662.000000	64.033150 
1661.000000	64.013147 
1660.000000	63.991522 
1659.000000	63.969540 
1658.000000	63.948893 
1657.000000	63.931298 
1656.000000	63.918066 
1655.000000	63.909721 
1654.000000	63.905858 
1653.000000	63.904905 
1652.000000	63.904953 
1651.000000	63.903689 
1650.000000	63.899827 
1649.000000	63.892936 
1648.000000	63.884067 
1647.000000	63.875150 
1646.000000	63.868761 
1645.000000	63.867235 
1644.000000	63.872337 
1643.000000	63.884329 
1642.000000	63.902354 
1641.000000	63.924336 
1640.000000	63.947439 
1639.000000	63.968801 
1638.000000	63.985824 
1637.000000	63.996863 
1636.000000	64.001131 
1635.000000	63.998651 
1634.000000	63.990283 
1633.000000	63.977241 
1632.000000	63.961219 
1631.000000	63.943982 
1630.000000	63.927483 
1629.000000	63.913512 
1628.000000	63.903570 
1627.000000	63.898634 
1626.000000	63.899016 
1625.000000	63.904237 
1624.000000	63.913226 
1623.000000	63.924360 
1622.000000	63.935899 
1621.000000	63.946247 
1620.000000	63.954281 
1619.000000	63.959503 
1618.000000	63.961815 
1617.000000	63.961935 
1616.000000	63.960599 
1615.000000	63.959121 
1614.000000	63.958501 
1613.000000	63.959693 
1612.000000	63.963627 
1611.000000	63.970828 
1610.000000	63.981509 
1609.000000	63.995218 
1608.000000	64.010906 
1607.000000	64.026927 
1606.000000	64.040946 
1605.000000	64.050817 
1604.000000	64.054822 
1603.000000	64.052176 
1602.000000	64.043211 
1601.000000	64.029216 
1600.000000	64.012050 
1599.000000	63.993906 
1598.000000	63.976860 
1597.000000	63.962340 
1596.000000	63.951015 
1595.000000	63.942933 
1594.000000	63.937497 
1593.000000	63.933706 
1592.000000	63.930535 
1591.000000	63.926792 
1590.000000	63.921904 
1589.000000	63.915848 
1588.000000	63.909268 
1587.000000	63.902997 
1586.000000	63.897967 
1585.000000	63.894963 
1584.000000	63.894367 
1583.000000	63.895750 
1582.000000	63.898134 
1581.000000	63.900184 
1580.000000	63.900446 
1579.000000	63.897895 
1578.000000	63.892292 
1577.000000	63.884377 
1576.000000	63.875961 
1575.000000	63.869500 
1574.000000	63.867735 
1573.000000	63.873314 
1572.000000	63.887882 
1571.000000	63.911843 
1570.000000	63.944077 
1569.000000	63.981938 
1568.000000	64.021801 
1567.000000	64.059591 
1566.000000	64.091277 
1565.000000	64.113616 
1564.000000	64.124751 
1563.000000	64.124202 
1562.000000	64.112854 
1561.000000	64.092540 
1560.000000	64.065933 
1559.000000	64.035916 
1558.000000	64.005494 
1557.000000	63.977217 
1556.000000	63.953256 
1555.000000	63.934898 
1554.000000	63.922739 
1553.000000	63.916468 
1552.000000	63.915157 
1551.000000	63.917350 
1550.000000	63.921499 
1549.000000	63.925981 
1548.000000	63.929581 
1547.000000	63.931322 
1546.000000	63.930773 
1545.000000	63.927793 
1544.000000	63.922762 
1543.000000	63.916349 
1542.000000	63.909792 
1541.000000	63.904404 
1540.000000	63.901519 
1539.000000	63.902330 
1538.000000	63.907384 
1537.000000	63.916659 
1536.000000	63.929247 
1535.000000	63.943839 
1534.000000	63.958406 
1533.000000	63.970923 
1532.000000	63.979434 
1531.000000	63.982415 
1530.000000	63.979101 
1529.000000	63.969588 
1528.000000	63.955068 
1527.000000	63.937401 
1526.000000	63.919234 
1525.000000	63.903260 
1524.000000	63.891959 
1523.000000	63.886880 
1522.000000	63.888740 
1521.000000	63.897132 
1520.000000	63.910651 
1519.000000	63.927340 
1518.000000	63.945055 
1517.000000	63.961911 
1516.000000	63.976573 
1515.000000	63.988685 
1514.000000	63.998246 
1513.000000	64.005827 
1512.000000	64.012145 
1511.000000	64.017844 
1510.000000	64.023351 
1509.000000	64.028668 
1508.000000	64.033913 
1507.000000	64.038896 
1506.000000	64.043545 
1505.000000	64.047598 
1504.000000	64.050722 
1503.000000	64.052343 
1502.000000	64.051604 
1501.000000	64.047741 
1500.000000	64.040184 
1499.000000	64.029026 
1498.000000	64.015078 
1497.000000	64.000058 
1496.000000	63.986182 
1495.000000	63.975930 
1494.000000	63.971257 
1493.000000	63.973069 
1492.000000	63.981008 
1491.000000	63.993120 
1490.000000	64.006614 
1489.000000	64.018511 
1488.000000	64.026427 
1487.000000	64.029002 
1486.000000	64.026165 
1485.000000	64.019155 
1484.000000	64.009785 
1483.000000	63.999867 
1482.000000	63.990616 
1481.000000	63.982367 
1480.000000	63.974642 
1479.000000	63.966393 
1478.000000	63.956570 
1477.000000	63.944721 
1476.000000	63.931441 
1475.000000	63.918185 
1474.000000	63.907217 
1473.000000	63.900899 
1472.000000	63.901019 
1471.000000	63.908123 
1470.000000	63.921141 
1469.000000	63.937187 
1468.000000	63.952231 
1467.000000	63.961911 
1466.000000	63.962435 
1465.000000	63.951444 
1464.000000	63.928699 
1463.000000	63.896155 
1462.000000	63.857483 
1461.000000	63.817691 
1460.000000	63.781738 
1459.000000	63.754081 
1458.000000	63.737773 
1457.000000	63.734030 
1456.000000	63.742280 
1455.000000	63.760328 
1454.000000	63.785052 
1453.000000	63.812923 
1452.000000	63.840389 
1451.000000	63.864994 
1450.000000	63.885188 
1449.000000	63.900709 
1448.000000	63.912224 
1447.000000	63.921260 
1446.000000	63.929438 
1445.000000	63.938331 
1444.000000	63.948941 
1443.000000	63.961625 
1442.000000	63.975811 
1441.000000	63.990497 
1440.000000	64.004182 
1439.000000	64.015316 
1438.000000	64.022445 
1437.000000	64.024543 
1436.000000	64.021158 
1435.000000	64.012646 
1434.000000	63.999843 
1433.000000	63.984060 
1432.000000	63.966798 
1431.000000	63.949465 
1430.000000	63.933229 
1429.000000	63.918948 
1428.000000	63.907027 
1427.000000	63.897323 
1426.000000	63.889646 
1425.000000	63.883614 
1424.000000	63.879156 
1423.000000	63.876271 
1422.000000	63.875222 
1421.000000	63.876295 
1420.000000	63.879656 
1419.000000	63.885235 
1418.000000	63.892650 
1417.000000	63.901019 
1416.000000	63.909411 
1415.000000	63.916826 
1414.000000	63.922452 
1413.000000	63.925623 
1412.000000	63.926124 
1411.000000	63.923931 
1410.000000	63.919138 
1409.000000	63.911724 
1408.000000	63.901686 
1407.000000	63.888812 
1406.000000	63.873267 
1405.000000	63.855552 
1404.000000	63.836836 
1403.000000	63.818740 
1402.000000	63.803505 
1401.000000	63.793277 
1400.000000	63.789558 
1399.000000	63.792991 
1398.000000	63.802933 
1397.000000	63.817858 
1396.000000	63.835477 
1395.000000	63.853430 
1394.000000	63.869786 
1393.000000	63.883376 
1392.000000	63.893961 
1391.000000	63.901901 
1390.000000	63.907909 
1389.000000	63.912558 
1388.000000	63.915777 
1387.000000	63.917088 
1386.000000	63.915586 
1385.000000	63.910675 
1384.000000	63.902091 
1383.000000	63.890647 
1382.000000	63.877844 
1381.000000	63.865900 
1380.000000	63.857173 
1379.000000	63.853502 
1378.000000	63.855814 
1377.000000	63.863968 
1376.000000	63.876748 
1375.000000	63.892316 
1374.000000	63.908290 
1373.000000	63.922381 
1372.000000	63.932466 
1371.000000	63.937234 
1370.000000	63.936018 
1369.000000	63.928651 
1368.000000	63.915872 
1367.000000	63.899064 
1366.000000	63.880348 
1365.000000	63.862395 
1364.000000	63.847994 
1363.000000	63.839769 
1362.000000	63.839578 
1361.000000	63.847970 
1360.000000	63.863849 
1359.000000	63.884496 
1358.000000	63.906168 
1357.000000	63.924765 
1356.000000	63.936567 
1355.000000	63.939237 
1354.000000	63.932013 
1353.000000	63.916158 
1352.000000	63.894248 
1351.000000	63.869881 
1350.000000	63.846611 
1349.000000	63.827824 
1348.000000	63.815784 
1347.000000	63.811945 
1346.000000	63.816690 
1345.000000	63.829803 
1344.000000	63.850569 
1343.000000	63.878130 
1342.000000	63.911294 
1341.000000	63.948416 
1340.000000	63.987255 
1339.000000	64.024972 
1338.000000	64.058518 
1337.000000	64.084863 
1336.000000	64.101576 
1335.000000	64.107251 
1334.000000	64.101696 
1333.000000	64.086270 
1332.000000	64.063405 
1331.000000	64.036393 
1330.000000	64.008378 
1329.000000	63.982129 
1328.000000	63.959097 
1327.000000	63.939666 
1326.000000	63.923072 
1325.000000	63.907933 
1324.000000	63.892984 
1323.000000	63.877654 
1322.000000	63.862586 
1321.000000	63.849186 
1320.000000	63.839459 
1319.000000	63.835048 
1318.000000	63.836789 
1317.000000	63.844108 
1316.000000	63.855099 
1315.000000	63.866853 
1314.000000	63.876295 
1313.000000	63.880944 
1312.000000	63.879632 
1311.000000	63.872790 
1310.000000	63.862085 
1309.000000	63.849997 
1308.000000	63.838863 
1307.000000	63.830518 
1306.000000	63.825488 
1305.000000	63.823199 
1304.000000	63.822340 
1303.000000	63.821411 
1302.000000	63.819503 
1301.000000	63.816475 
1300.000000	63.812923 
1299.000000	63.809990 
1298.000000	63.808703 
1297.000000	63.809657 
1296.000000	63.812708 
1295.000000	63.816857 
1294.000000	63.820552 
1293.000000	63.822388 
1292.000000	63.821363 
1291.000000	63.817167 
1290.000000	63.810563 
1289.000000	63.802838 
1288.000000	63.795423 
1287.000000	63.789629 
1286.000000	63.786029 
1285.000000	63.784432 
1284.000000	63.783931 
1283.000000	63.783359 
1282.000000	63.781619 
1281.000000	63.777995 
1280.000000	63.772487 
1279.000000	63.765645 
1278.000000	63.758540 
1277.000000	63.752460 
1276.000000	63.748621 
1275.000000	63.747787 
1274.000000	63.750338 
1273.000000	63.755917 
1272.000000	63.763785 
1271.000000	63.772726 
1270.000000	63.781571 
1269.000000	63.789439 
1268.000000	63.795661 
1267.000000	63.799977 
1266.000000	63.802242 
1265.000000	63.802456 
1264.000000	63.800334 
1263.000000	63.795661 
1262.000000	63.788151 
1261.000000	63.777804 
1260.000000	63.765215 
1259.000000	63.751459 
1258.000000	63.738346 
1257.000000	63.727807 
1256.000000	63.721799 
1255.000000	63.721776 
1254.000000	63.728094 
1253.000000	63.740086 
1252.000000	63.755822 
1251.000000	63.772845 
1250.000000	63.788366 
1249.000000	63.800072 
1248.000000	63.806462 
1247.000000	63.807201 
1246.000000	63.802957 
1245.000000	63.795399 
1244.000000	63.786506 
1243.000000	63.778209 
1242.000000	63.771963 
1241.000000	63.768315 
1240.000000	63.767218 
1239.000000	63.767814 
1238.000000	63.769006 
1237.000000	63.769674 
1236.000000	63.769078 
1235.000000	63.766956 
1234.000000	63.763618 
1233.000000	63.759994 
1232.000000	63.757157 
1231.000000	63.756299 
1230.000000	63.758134 
1229.000000	63.762950 
1228.000000	63.770413 
1227.000000	63.779592 
1226.000000	63.788962 
1225.000000	63.796949 
1224.000000	63.802075 
1223.000000	63.803410 
1222.000000	63.800787 
1221.000000	63.794708 
1220.000000	63.786268 
1219.000000	63.777089 
1218.000000	63.768649 
1217.000000	63.762068 
1216.000000	63.757824 
1215.000000	63.755798 
1214.000000	63.755202 
1213.000000	63.754963 
1212.000000	63.754224 
1211.000000	63.752412 
1210.000000	63.749575 
1209.000000	63.746309 
1208.000000	63.743638 
1207.000000	63.742589 
1206.000000	63.743925 
1205.000000	63.747763 
1204.000000	63.753938 
1203.000000	63.761758 
1202.000000	63.770508 
1201.000000	63.779258 
1200.000000	63.787198 
1199.000000	63.793683 
1198.000000	63.798141 
1197.000000	63.800144 
1196.000000	63.799524 
1195.000000	63.796281 
1194.000000	63.791036 
1193.000000	63.784360 
1192.000000	63.777232 
1191.000000	63.770484 
1190.000000	63.764953 
1189.000000	63.761138 
1188.000000	63.759326 
1187.000000	63.759422 
1186.000000	63.761067 
1185.000000	63.763689 
1184.000000	63.766527 
1183.000000	63.768720 
1182.000000	63.769483 
1181.000000	63.768005 
1180.000000	63.763713 
1179.000000	63.756275 
1178.000000	63.745880 
1177.000000	63.733005 
1176.000000	63.718652 
1175.000000	63.704085 
1174.000000	63.690805 
1173.000000	63.680148 
1172.000000	63.672900 
1171.000000	63.669395 
1170.000000	63.669466 
1169.000000	63.672518 
1168.000000	63.677859 
1167.000000	63.684868 
1166.000000	63.692951 
1165.000000	63.701558 
1164.000000	63.710093 
1163.000000	63.717842 
1162.000000	63.724017 
1161.000000	63.727784 
1160.000000	63.728594 
1159.000000	63.726258 
1158.000000	63.721108 
1157.000000	63.713932 
1156.000000	63.705945 
1155.000000	63.698315 
1154.000000	63.692164 
1153.000000	63.688135 
1152.000000	63.686370 
1151.000000	63.686680 
1150.000000	63.688635 
1149.000000	63.691878 
1148.000000	63.696432 
1147.000000	63.702583 
1146.000000	63.710522 
1145.000000	63.720154 
1144.000000	63.730835 
1143.000000	63.741660 
1142.000000	63.751649 
1141.000000	63.759922 
1140.000000	63.766360 
1139.000000	63.771200 
1138.000000	63.775014 
1137.000000	63.778328 
1136.000000	63.781332 
1135.000000	63.783812 
1134.000000	63.785433 
1133.000000	63.785409 
1132.000000	63.783335 
1131.000000	63.778710 
1130.000000	63.771343 
1129.000000	63.761186 
1128.000000	63.748288 
1127.000000	63.733196 
1126.000000	63.716983 
1125.000000	63.701486 
1124.000000	63.688921 
1123.000000	63.681650 
1122.000000	63.681626 
1121.000000	63.689732 
1120.000000	63.705587 
1119.000000	63.727307 
1118.000000	63.751816 
1117.000000	63.775348 
1116.000000	63.794255 
1115.000000	63.805723 
1114.000000	63.808488 
1113.000000	63.803029 
1112.000000	63.791465 
1111.000000	63.777184 
1110.000000	63.763642 
1109.000000	63.754129 
1108.000000	63.750219 
1107.000000	63.751769 
1106.000000	63.756775 
1105.000000	63.762235 
1104.000000	63.764882 
1103.000000	63.762331 
1102.000000	63.753700 
1101.000000	63.740038 
1100.000000	63.723921 
1099.000000	63.708472 
1098.000000	63.696742 
1097.000000	63.690686 
1096.000000	63.691091 
1095.000000	63.697648 
1094.000000	63.709020 
1093.000000	63.723325 
1092.000000	63.738417 
1091.000000	63.752293 
1090.000000	63.762927 
1089.000000	63.768768 
1088.000000	63.768529 
1087.000000	63.761758 
1086.000000	63.748931 
1085.000000	63.731598 
1084.000000	63.712430 
1083.000000	63.694906 
1082.000000	63.682794 
1081.000000	63.679289 
1080.000000	63.686466 
1079.000000	63.704562 
1078.000000	63.732051 
1077.000000	63.765954 
1076.000000	63.802599 
1075.000000	63.838148 
1074.000000	63.869547 
1073.000000	63.894414 
1072.000000	63.911104 
1071.000000	63.918495 
1070.000000	63.915872 
1069.000000	63.902807 
1068.000000	63.879275 
1067.000000	63.846230 
1066.000000	63.805747 
1065.000000	63.761138 
1064.000000	63.716650 
1063.000000	63.677120 
1062.000000	63.647317 
1061.000000	63.631010 
1060.000000	63.630390 
1059.000000	63.645577 
1058.000000	63.674712 
1057.000000	63.714146 
1056.000000	63.759136 
1055.000000	63.804507 
1054.000000	63.845276 
1053.000000	63.877105 
1052.000000	63.897013 
1051.000000	63.903117 
1050.000000	63.895297 
1049.000000	63.875174 
1048.000000	63.845968 
1047.000000	63.811945 
1046.000000	63.777923 
1045.000000	63.748764 
1044.000000	63.728189 
1043.000000	63.718390 
1042.000000	63.719797 
1041.000000	63.731312 
1040.000000	63.750433 
1039.000000	63.774394 
1038.000000	63.800239 
1037.000000	63.825702 
1036.000000	63.849544 
1035.000000	63.871645 
1034.000000	63.892507 
1033.000000	63.912773 
1032.000000	63.933134 
1031.000000	63.953518 
1030.000000	63.972997 
1029.000000	63.989448 
1028.000000	64.000821 
1027.000000	64.004373 
1026.000000	63.998484 
1025.000000	63.982057 
1024.000000	63.955426 
1023.000000	63.919925 
1022.000000	63.878178 
1021.000000	63.833236 
1020.000000	63.788270 
1019.000000	63.746380 
1018.000000	63.710093 
1017.000000	63.681435 
1016.000000	63.661789 
1015.000000	63.651919 
1014.000000	63.652086 
1013.000000	63.662242 
1012.000000	63.681888 
1011.000000	63.710069 
1010.000000	63.745403 
1009.000000	63.785862 
1008.000000	63.829064 
1007.000000	63.872408 
1006.000000	63.913297 
1005.000000	63.949108 
1004.000000	63.977646 
1003.000000	63.997292 
1002.000000	64.007234 
1001.000000	64.007472 
1000.000000	63.999056 
999.000000	 63.984036 
998.000000	 63.965034 
997.000000	 63.945269 
996.000000	 63.927197 
995.000000	 63.912820 
994.000000	 63.902735 
993.000000	 63.896346 
992.000000	 63.891959 
991.000000	 63.887238 
990.000000	 63.880181 
989.000000	 63.869786 
988.000000	 63.856363 
987.000000	 63.841509 
986.000000	 63.827967 
985.000000	 63.818717 
984.000000	 63.816022 
983.000000	 63.820672 
982.000000	 63.831639 
981.000000	 63.846206 
980.000000	 63.860774 
979.000000	 63.871645 
978.000000	 63.875889 
977.000000	 63.871932 
976.000000	 63.859724 
975.000000	 63.840436 
974.000000	 63.815760 
973.000000	 63.787722 
972.000000	 63.758206 
971.000000	 63.729071 
970.000000	 63.701653 
969.000000	 63.677334 
968.000000	 63.657450 
967.000000	 63.643121 
966.000000	 63.635444 
965.000000	 63.634943 
964.000000	 63.641405 
963.000000	 63.653898 
962.000000	 63.670516 
961.000000	 63.689017 
960.000000	 63.707160 
959.000000	 63.723111 
958.000000	 63.735771 
957.000000	 63.744735 
956.000000	 63.750338 
955.000000	 63.753557 
954.000000	 63.755488 
953.000000	 63.757038 
952.000000	 63.758635 
951.000000	 63.760495 
950.000000	 63.762307 
949.000000	 63.763427 
948.000000	 63.762927 
947.000000	 63.759851 
946.000000	 63.753771 
945.000000	 63.745045 
944.000000	 63.734793 
943.000000	 63.725018 
942.000000	 63.717842 
941.000000	 63.715124 
940.000000	 63.717842 
939.000000	 63.725900 
938.000000	 63.737845 
937.000000	 63.751053 
936.000000	 63.762307 
935.000000	 63.768672 
934.000000	 63.768243 
933.000000	 63.760876 
932.000000	 63.748240 
931.000000	 63.733625 
930.000000	 63.721394 
929.000000	 63.716077 
928.000000	 63.721537 
927.000000	 63.739848 
926.000000	 63.771128 
925.000000	 63.813066 
924.000000	 63.861608 
923.000000	 63.911128 
922.000000	 63.955235 
921.000000	 63.988065 
920.000000	 64.004755 
919.000000	 64.003038 
918.000000	 63.983345 
917.000000	 63.949370 
916.000000	 63.907194 
915.000000	 63.864326 
914.000000	 63.828492 
913.000000	 63.805532 
912.000000	 63.798928 
911.000000	 63.808321 
910.000000	 63.829994 
909.000000	 63.857579 
908.000000	 63.883709 
907.000000	 63.901782 
906.000000	 63.907361 
905.000000	 63.899254 
904.000000	 63.879489 
903.000000	 63.853096 
902.000000	 63.826704 
901.000000	 63.806748 
900.000000	 63.798069 
899.000000	 63.803076 
898.000000	 63.821244 
897.000000	 63.849663 
896.000000	 63.883614 
895.000000	 63.917732 
894.000000	 63.947081 
893.000000	 63.967728 
892.000000	 63.977813 
891.000000	 63.977217 
890.000000	 63.968086 
889.000000	 63.953661 
888.000000	 63.938283 
887.000000	 63.926577 
886.000000	 63.922786 
885.000000	 63.930249 
884.000000	 63.950467 
883.000000	 63.983321 
882.000000	 64.026141 
881.000000	 64.074420 
880.000000	 64.121794 
879.000000	 64.161157 
878.000000	 64.185738 
877.000000	 64.190363 
876.000000	 64.172816 
875.000000	 64.134335 
874.000000	 64.079856 
873.000000	 64.017105 
872.000000	 63.955163 
871.000000	 63.902783 
870.000000	 63.866972 
869.000000	 63.851594 
868.000000	 63.857030 
867.000000	 63.880252 
866.000000	 63.916134 
865.000000	 63.958334 
864.000000	 64.000701 
863.000000	 64.038205 
862.000000	 64.067220 
861.000000	 64.085865 
860.000000	 64.093446 
859.000000	 64.090204 
858.000000	 64.076781 
857.000000	 64.053940 
856.000000	 64.022755 
855.000000	 63.984584 
854.000000	 63.941502 
853.000000	 63.896322 
852.000000	 63.852643 
851.000000	 63.814234 
850.000000	 63.784384 
849.000000	 63.765740 
848.000000	 63.759875 
847.000000	 63.766574 
846.000000	 63.784170 
845.000000	 63.809895 
844.000000	 63.840484 
843.000000	 63.872432 
842.000000	 63.902854 
841.000000	 63.929343 
840.000000	 63.950443 
839.000000	 63.965725 
838.000000	 63.975501 
837.000000	 63.980340 
836.000000	 63.981032 
835.000000	 63.978838 
834.000000	 63.974928 
833.000000	 63.970923 
832.000000	 63.968038 
831.000000	 63.967394 
830.000000	 63.969254 
829.000000	 63.973164 
828.000000	 63.977599 
827.000000	 63.980340 
826.000000	 63.978457 
825.000000	 63.968992 
824.000000	 63.949775 
823.000000	 63.920187 
822.000000	 63.881182 
821.000000	 63.835382 
820.000000	 63.786625 
819.000000	 63.739490 
818.000000	 63.698339 
817.000000	 63.667011 
816.000000	 63.647842 
815.000000	 63.642048 
814.000000	 63.649678 
813.000000	 63.670206 
812.000000	 63.702058 
811.000000	 63.743257 
810.000000	 63.791394 
809.000000	 63.843488 
808.000000	 63.895630 
807.000000	 63.943648 
806.000000	 63.983130 
805.000000	 64.010810 
804.000000	 64.024996 
803.000000	 64.026474 
802.000000	 64.018344 
801.000000	 64.005827 
800.000000	 63.995385 
799.000000	 63.992547 
798.000000	 64.000678 
797.000000	 64.019632 
796.000000	 64.045834 
795.000000	 64.072728 
794.000000	 64.092564 
793.000000	 64.098262 
792.000000	 64.085435 
791.000000	 64.053654 
790.000000	 64.006662 
789.000000	 63.951396 
788.000000	 63.896369 
787.000000	 63.849306 
786.000000	 63.815641 
785.000000	 63.796925 
784.000000	 63.791370 
783.000000	 63.794660 
782.000000	 63.801717 
781.000000	 63.807868 
780.000000	 63.810873 
779.000000	 63.811063 
778.000000	 63.811349 
777.000000	 63.815426 
776.000000	 63.827109 
775.000000	 63.848686 
774.000000	 63.880133 
773.000000	 63.918352 
772.000000	 63.958001 
771.000000	 63.992905 
770.000000	 64.016866 
769.000000	 64.025211 
768.000000	 64.015436 
767.000000	 63.987708 
766.000000	 63.945150 
765.000000	 63.893198 
764.000000	 63.838005 
763.000000	 63.785266 
762.000000	 63.740110 
761.000000	 63.705468 
760.000000	 63.681626 
759.000000	 63.666105 
758.000000	 63.654828 
757.000000	 63.643574 
756.000000	 63.628411 
755.000000	 63.607740 
754.000000	 63.582253 
753.000000	 63.555073 
752.000000	 63.530707 
751.000000	 63.513469 
750.000000	 63.506007 
749.000000	 63.508033 
748.000000	 63.516044 
747.000000	 63.523745 
746.000000	 63.523507 
745.000000	 63.509058 
744.000000	 63.477778 
743.000000	 63.431811 
742.000000	 63.378429 
741.000000	 63.329672 
740.000000	 63.300180 
739.000000	 63.303565 
738.000000	 63.349556 
737.000000	 63.442015 
736.000000	 63.577508 
735.000000	 63.745641 
734.000000	 63.930296 
733.000000	 64.112448 
732.000000	 64.273095 
731.000000	 64.396786 
730.000000	 64.473724 
729.000000	 64.500784 
728.000000	 64.481663 
727.000000	 64.426231 
726.000000	 64.347457 
725.000000	 64.259743 
724.000000	 64.175128 
723.000000	 64.103698 
722.000000	 64.049601 
721.000000	 64.012432 
720.000000	 63.987016 
719.000000	 63.966560 
718.000000	 63.943409 
717.000000	 63.911581 
716.000000	 63.867521 
715.000000	 63.810896 
714.000000	 63.744401 
713.000000	 63.673186 
712.000000	 63.602709 
711.000000	 63.537907 
710.000000	 63.483119 
709.000000	 63.441443 
708.000000	 63.414382 
707.000000	 63.402009 
706.000000	 63.403296 
705.000000	 63.416361 
704.000000	 63.437724 
703.000000	 63.464021 
702.000000	 63.491654 
701.000000	 63.518834 
700.000000	 63.543725 
699.000000	 63.567519 
698.000000	 63.593387 
697.000000	 63.626313 
696.000000	 63.672089 
695.000000	 63.734388 
694.000000	 63.813257 
693.000000	 63.903951 
692.000000	 63.997960 
691.000000	 64.082598 
690.000000	 64.143848 
689.000000	 64.169025 
688.000000	 64.149856 
687.000000	 64.082956 
686.000000	 63.970899 
685.000000	 63.821887 
684.000000	 63.648939 
683.000000	 63.467836 
682.000000	 63.294768 
681.000000	 63.144826 
680.000000	 63.029265 
679.000000	 62.954592 
678.000000	 62.921738 
677.000000	 62.925601 
676.000000	 62.957644 
675.000000	 63.006401 
674.000000	 63.062047 
673.000000	 63.115572 
672.000000	 63.163566 
671.000000	 63.206791 
670.000000	 63.250732 
669.000000	 63.301801 
668.000000	 63.365983 
667.000000	 63.445782 
666.000000	 63.539147 
665.000000	 63.639092 
664.000000	 63.736605 
663.000000	 63.823175 
662.000000	 63.893342 
661.000000	 63.946104 
660.000000	 63.984274 
659.000000	 64.012718 
658.000000	 64.035987 
657.000000	 64.055800 
656.000000	 64.070105 
655.000000	 64.072823 
654.000000	 64.057183 
653.000000	 64.017438 
652.000000	 63.951396 
651.000000	 63.861823 
650.000000	 63.757872 
649.000000	 63.652777 
648.000000	 63.560867 
647.000000	 63.494157 
646.000000	 63.459730 
645.000000	 63.457822 
644.000000	 63.482165 
643.000000	 63.521337 
642.000000	 63.561630 
641.000000	 63.590502 
640.000000	 63.599181 
639.000000	 63.584446 
638.000000	 63.548135 
637.000000	 63.497209 
636.000000	 63.441348 
635.000000	 63.390946 
634.000000	 63.354516 
633.000000	 63.337349 
632.000000	 63.340854 
631.000000	 63.363265 
630.000000	 63.400530 
629.000000	 63.448190 
628.000000	 63.502144 
627.000000	 63.559699 
626.000000	 63.618707 
625.000000	 63.676977 
624.000000	 63.731288 
623.000000	 63.777136 
622.000000	 63.809323 
621.000000	 63.823223 
620.000000	 63.815879 
619.000000	 63.787937 
618.000000	 63.743233 
617.000000	 63.688707 
616.000000	 63.632631 
615.000000	 63.583588 
614.000000	 63.548088 
613.000000	 63.529229 
612.000000	 63.526964 
611.000000	 63.538479 
610.000000	 63.560104 
609.000000	 63.588833 
608.000000	 63.623666 
607.000000	 63.665652 
606.000000	 63.717651 
605.000000	 63.782668 
604.000000	 63.862442 
603.000000	 63.955879 
602.000000	 64.058732 
601.000000	 64.163374 
600.000000	 64.260768 
599.000000	 64.340949 
598.000000	 64.395880 
597.000000	 64.420080 
596.000000	 64.411735 
595.000000	 64.373087 
594.000000	 64.310145 
593.000000	 64.231586 
592.000000	 64.147710 
591.000000	 64.068698 
590.000000	 64.003348 
589.000000	 63.957810 
588.000000	 63.935399 
587.000000	 63.936138 
586.000000	 63.957023 
585.000000	 63.993191 
584.000000	 64.038968 
583.000000	 64.088845 
582.000000	 64.137935 
581.000000	 64.182662 
580.000000	 64.220428 
579.000000	 64.250063 
578.000000	 64.271259 
577.000000	 64.283204 
576.000000	 64.284324 
575.000000	 64.273071 
574.000000	 64.248013 
573.000000	 64.208340 
572.000000	 64.154887 
571.000000	 64.091610 
570.000000	 64.024949 
569.000000	 63.962912 
568.000000	 63.913989 
567.000000	 63.885664 
566.000000	 63.883018 
565.000000	 63.906478 
564.000000	 63.953351 
563.000000	 64.017629 
562.000000	 64.092564 
561.000000	 64.171791 
560.000000	 64.250850 
559.000000	 64.327430 
558.000000	 64.400625 
557.000000	 64.470267 
556.000000	 64.533495 
555.000000	 64.584136 
554.000000	 64.612531 
553.000000	 64.607548 
552.000000	 64.559745 
551.000000	 64.464592 
550.000000	 64.325284 
549.000000	 64.152789 
548.000000	 63.964295 
547.000000	 63.779616 
546.000000	 63.617062 
545.000000	 63.489770 
544.000000	 63.403749 
543.000000	 63.357305 
542.000000	 63.342642 
541.000000	 63.348412 
540.000000	 63.362050 
539.000000	 63.374137 
538.000000	 63.377857 
537.000000	 63.372826 
536.000000	 63.362169 
535.000000	 63.353300 
534.000000	 63.353753 
533.000000	 63.370132 
532.000000	 63.405728 
531.000000	 63.459372 
530.000000	 63.525795 
529.000000	 63.596057 
528.000000	 63.659811 
527.000000	 63.707065 
526.000000	 63.730454 
525.000000	 63.726973 
524.000000	 63.698768 
523.000000	 63.652801 
522.000000	 63.599038 
521.000000	 63.547611 
520.000000	 63.506650 
519.000000	 63.481187 
518.000000	 63.472104 
517.000000	 63.476920 
516.000000	 63.490796 
515.000000	 63.509559 
514.000000	 63.529372 
513.000000	 63.546204 
512.000000	 63.557600 
511.000000	 63.561916 
510.000000	 63.559627 
509.000000	 63.551878 
508.000000	 63.541579 
507.000000	 63.532519 
506.000000	 63.528680 
505.000000	 63.533687 
504.000000	 63.548779 
503.000000	 63.572430 
502.000000	 63.600516 
501.000000	 63.627505 
500.000000	 63.647437 
499.000000	 63.655638 
498.000000	 63.651371 
497.000000	 63.638114 
496.000000	 63.622307 
495.000000	 63.611388 
494.000000	 63.611006 
493.000000	 63.623881 
492.000000	 63.647723 
491.000000	 63.678073 
490.000000	 63.709998 
489.000000	 63.741612 
488.000000	 63.775730 
487.000000	 63.819360 
486.000000	 63.881850 
485.000000	 63.970470 
484.000000	 64.087820 
483.000000	 64.228034 
482.000000	 64.377117 
481.000000	 64.514255 
480.000000	 64.617514 
479.000000	 64.667105 
478.000000	 64.651656 
477.000000	 64.568924 
476.000000	 64.427614 
475.000000	 64.243197 
474.000000	 64.035153 
473.000000	 63.821363 
472.000000	 63.615274 
471.000000	 63.426733 
470.000000	 63.262295 
469.000000	 63.126397 
468.000000	 63.022327 
467.000000	 62.952089 
466.000000	 62.916898 
465.000000	 62.914800 
464.000000	 62.942147 
463.000000	 62.990784 
462.000000	 63.051915 
461.000000	 63.116741 
460.000000	 63.179063 
459.000000	 63.234210 
458.000000	 63.281416 
457.000000	 63.321876 
456.000000	 63.358902 
455.000000	 63.397264 
454.000000	 63.440012 
453.000000	 63.487744 
452.000000	 63.536572 
451.000000	 63.580465 
450.000000	 63.608503 
449.000000	 63.608503 
448.000000	 63.566088 
447.000000	 63.468909 
446.000000	 63.308310 
445.000000	 63.083505 
444.000000	 62.802767 
443.000000	 62.485623 
442.000000	 62.160158 
441.000000	 61.861443 
440.000000	 61.627435 
439.000000	 61.494040 
438.000000	 61.486339 
437.000000	 61.615633 
436.000000	 61.877346 
435.000000	 62.250351 
434.000000	 62.699627 
433.000000	 63.179683 
432.000000	 63.642096 
431.000000	 64.039373 
430.000000	 64.331293 
429.000000	 64.488363 
428.000000	 64.496231 
427.000000	 64.356088 
426.000000	 64.080023 
425.000000	 63.698196 
424.000000	 63.258647 
423.000000	 62.817478 
422.000000	 62.432885 
421.000000	 62.151479 
420.000000	 62.000775 
419.000000	 61.984324 
418.000000	 62.082266 
417.000000	 62.247395 
416.000000	 62.415552 
415.000000	 62.516546 
414.000000	 62.490534 
413.000000	 62.303233 
412.000000	 61.954665 
411.000000	 61.471080 
410.000000	 60.905361 
409.000000	 60.325717 
408.000000	 59.803605 
407.000000	 59.401059 
406.000000	 59.154582 
405.000000	 59.082889 
404.000000	 59.161043 
403.000000	 59.343600 
402.000000	 59.542775 
401.000000	 59.638285 
400.000000	 59.508299 
399.000000	 59.056830 
398.000000	 58.245539 
397.000000	 57.090353 
396.000000	 55.708980 
395.000000	 54.295659 
394.000000	 53.106856 
393.000000	 52.406144 
392.000000	 52.383732 
391.000000	 53.097319 
390.000000	 54.452562 
389.000000	 56.211876 
388.000000	 58.008837 
387.000000	 59.437918 
386.000000	 60.160923 
385.000000	 59.985828 
384.000000	 58.924865 
383.000000	 57.174992 
382.000000	 55.043077 
381.000000	 52.881693 
380.000000	 50.957655 
379.000000	 49.463415 
378.000000	 48.480486 
377.000000	 48.048090 
376.000000	 48.175024 
375.000000	 48.912692 
374.000000	 50.360703 
373.000000	 52.642774 
372.000000	 55.833768 
371.000000	 59.910559 
370.000000	 64.721012 

