PE IR       SPECTRUM    SPECTRUM    ASCII       PEDS        1.60        
  -1
BZ6D24~1.ASC
17/04/07
16:59:02.00
17/04/07
16:59:02.00
tln
$BZ1503107-1_t0045$<tbV0>[13.0,-2.6,8.0,0.0,27,1,0]
370.000000
64









2002,4.07    
MIRTGS : RIGHTBACK : INTERNAL 2
MIR : ON : INTERNAL 2
OPTKBR

0.200000
8
8.000000
FILLER
RATIO
SPECTRUM
UNLOCKED 256

DOUBLE
64
COMBINED
1
0
0


1.000000
RATIO


1
0
TRUE
51149
0
LEFT NOT FITTED RIGHT NOT FITTED 0
NONE
NONE
15600
12.000000
4.427000
51148
TRUE
1 0 8 72 0 0 0 0 

15798.010000






#HDR
-1
-1
#GR
CM-1
%T
0.00002384185791015625
0.0
5000.000000
-1.000000
4631
8
75.853323
53.018093
#DATA
5000.000000	65.238738 
4999.000000	65.252256 
4998.000000	65.296196 
4997.000000	65.362405 
4996.000000	65.436530 
4995.000000	65.501856 
4994.000000	65.542602 
4993.000000	65.548014 
4992.000000	65.514254 
4991.000000	65.445470 
4990.000000	65.351557 
4989.000000	65.244674 
4988.000000	65.137386 
4987.000000	65.040087 
4986.000000	64.959454 
4985.000000	64.897894 
4984.000000	64.854407 
4983.000000	64.826083 
4982.000000	64.809060 
4981.000000	64.800405 
4980.000000	64.799141 
4979.000000	64.807295 
4978.000000	64.827752 
4977.000000	64.864468 
4976.000000	64.921379 
4975.000000	65.000534 
4974.000000	65.101504 
4973.000000	65.218734 
4972.000000	65.342593 
4971.000000	65.458655 
4970.000000	65.550923 
4969.000000	65.603756 
4968.000000	65.605735 
4967.000000	65.551996 
4966.000000	65.446615 
4965.000000	65.301346 
4964.000000	65.134024 
4963.000000	64.964699 
4962.000000	64.812469 
4961.000000	64.691615 
4960.000000	64.609766 
4959.000000	64.567470 
4958.000000	64.559793 
4957.000000	64.577484 
4956.000000	64.609885 
4955.000000	64.647364 
4954.000000	64.683270 
4953.000000	64.713859 
4952.000000	64.738631 
4951.000000	64.758276 
4950.000000	64.773964 
4949.000000	64.786648 
4948.000000	64.796233 
4947.000000	64.801859 
4946.000000	64.801788 
4945.000000	64.794087 
4944.000000	64.777398 
4943.000000	64.751434 
4942.000000	64.717745 
4941.000000	64.679574 
4940.000000	64.641809 
4939.000000	64.609646 
4938.000000	64.588403 
4937.000000	64.581942 
4936.000000	64.592695 
4935.000000	64.620780 
4934.000000	64.664769 
4933.000000	64.721608 
4932.000000	64.788055 
4931.000000	64.860916 
4930.000000	64.936280 
4929.000000	65.009188 
4928.000000	65.073657 
4927.000000	65.123081 
4926.000000	65.150165 
4925.000000	65.148663 
4924.000000	65.114736 
4923.000000	65.048980 
4922.000000	64.957666 
4921.000000	64.852547 
4920.000000	64.749407 
4919.000000	64.664864 
4918.000000	64.613389 
4917.000000	64.603567 
4916.000000	64.636230 
4915.000000	64.704179 
4914.000000	64.793753 
4913.000000	64.888501 
4912.000000	64.972257 
4911.000000	65.033888 
4910.000000	65.068769 
4909.000000	65.079808 
4908.000000	65.075159 
4907.000000	65.066027 
4906.000000	65.062904 
4905.000000	65.072965 
4904.000000	65.098214 
4903.000000	65.135407 
4902.000000	65.177440 
4901.000000	65.215921 
4900.000000	65.243673 
4899.000000	65.256476 
4898.000000	65.254044 
4897.000000	65.239095 
4896.000000	65.216445 
4895.000000	65.191340 
4894.000000	65.167999 
4893.000000	65.148830 
4892.000000	65.134215 
4891.000000	65.123772 
4890.000000	65.116500 
4889.000000	65.112471 
4888.000000	65.111660 
4887.000000	65.114521 
4886.000000	65.120482 
4885.000000	65.127754 
4884.000000	65.133118 
4883.000000	65.132379 
4882.000000	65.121626 
4881.000000	65.097880 
4880.000000	65.061378 
4879.000000	65.016078 
4878.000000	64.969110 
4877.000000	64.929080 
4876.000000	64.904332 
4875.000000	64.900517 
4874.000000	64.919281 
4873.000000	64.957594 
4872.000000	65.008258 
4871.000000	65.061593 
4870.000000	65.107941 
4869.000000	65.139579 
4868.000000	65.152287 
4867.000000	65.145635 
4866.000000	65.122294 
4865.000000	65.087056 
4864.000000	65.045428 
4863.000000	65.002036 
4862.000000	64.960241 
4861.000000	64.920997 
4860.000000	64.883947 
4859.000000	64.847254 
4858.000000	64.809393 
4857.000000	64.769029 
4856.000000	64.726018 
4855.000000	64.681410 
4854.000000	64.636945 
4853.000000	64.595222 
4852.000000	64.558649 
4851.000000	64.529991 
4850.000000	64.511609 
4849.000000	64.505743 
4848.000000	64.514088 
4847.000000	64.538002 
4846.000000	64.577889 
4845.000000	64.632749 
4844.000000	64.699482 
4843.000000	64.773178 
4842.000000	64.846968 
4841.000000	64.912223 
4840.000000	64.960026 
4839.000000	64.982533 
4838.000000	64.974784 
4837.000000	64.936423 
4836.000000	64.871644 
4835.000000	64.789199 
4834.000000	64.700365 
4833.000000	64.616727 
4832.000000	64.548158 
4831.000000	64.501047 
4830.000000	64.477658 
4829.000000	64.475870 
4828.000000	64.491105 
4827.000000	64.517879 
4826.000000	64.551568 
4825.000000	64.589047 
4824.000000	64.629483 
4823.000000	64.673399 
4822.000000	64.721775 
4821.000000	64.774775 
4820.000000	64.831042 
4819.000000	64.887619 
4818.000000	64.940977 
4817.000000	64.987564 
4816.000000	65.025019 
4815.000000	65.051937 
4814.000000	65.068554 
4813.000000	65.075397 
4812.000000	65.073204 
4811.000000	65.062189 
4810.000000	65.042543 
4809.000000	65.014886 
4808.000000	64.980983 
4807.000000	64.943933 
4806.000000	64.908194 
4805.000000	64.879226 
4804.000000	64.862489 
4803.000000	64.862322 
4802.000000	64.880371 
4801.000000	64.915704 
4800.000000	64.964628 
4799.000000	65.021586 
4798.000000	65.080142 
4797.000000	65.134167 
4796.000000	65.178704 
4795.000000	65.210151 
4794.000000	65.226483 
4793.000000	65.226578 
4792.000000	65.209889 
4791.000000	65.176773 
4790.000000	65.128684 
4789.000000	65.068292 
4788.000000	64.999914 
4787.000000	64.929223 
4786.000000	64.863181 
4785.000000	64.808511 
4784.000000	64.771318 
4783.000000	64.756107 
4782.000000	64.765381 
4781.000000	64.798474 
4780.000000	64.852595 
4779.000000	64.922952 
4778.000000	65.003633 
4777.000000	65.088152 
4776.000000	65.170049 
4775.000000	65.242910 
4774.000000	65.301132 
4773.000000	65.340304 
4772.000000	65.357518 
4771.000000	65.351581 
4770.000000	65.323543 
4769.000000	65.276789 
4768.000000	65.216398 
4767.000000	65.148949 
4766.000000	65.081167 
4765.000000	65.019345 
4764.000000	64.968848 
4763.000000	64.933514 
4762.000000	64.915394 
4761.000000	64.914321 
4760.000000	64.927983 
4759.000000	64.952206 
4758.000000	64.981341 
4757.000000	65.009379 
4756.000000	65.030193 
4755.000000	65.039515 
4754.000000	65.034866 
4753.000000	65.017414 
4752.000000	64.990949 
4751.000000	64.962244 
4750.000000	64.939212 
4749.000000	64.929676 
4748.000000	64.939665 
4747.000000	64.971399 
4746.000000	65.022659 
4745.000000	65.087056 
4744.000000	65.155482 
4743.000000	65.217232 
4742.000000	65.262436 
4741.000000	65.283918 
4740.000000	65.278744 
4739.000000	65.248632 
4738.000000	65.199542 
4737.000000	65.140271 
4736.000000	65.080451 
4735.000000	65.029358 
4734.000000	64.993762 
4733.000000	64.977192 
4732.000000	64.979314 
4731.000000	64.996767 
4730.000000	65.024256 
4729.000000	65.055513 
4728.000000	65.085005 
4727.000000	65.108633 
4726.000000	65.124487 
4725.000000	65.132164 
4724.000000	65.132808 
4723.000000	65.128302 
4722.000000	65.120077 
4721.000000	65.108704 
4720.000000	65.093493 
4719.000000	65.073084 
4718.000000	65.045881 
4717.000000	65.010952 
4716.000000	64.968967 
4715.000000	64.922547 
4714.000000	64.876365 
4713.000000	64.836335 
4712.000000	64.808416 
4711.000000	64.796900 
4710.000000	64.803409 
4709.000000	64.825892 
4708.000000	64.858579 
4707.000000	64.893412 
4706.000000	64.921140 
4705.000000	64.934659 
4704.000000	64.929866 
4703.000000	64.908432 
4702.000000	64.876651 
4701.000000	64.845442 
4700.000000	64.827227 
4699.000000	64.833331 
4698.000000	64.871335 
4697.000000	64.942765 
4696.000000	65.042233 
4695.000000	65.158462 
4694.000000	65.277361 
4693.000000	65.384292 
4692.000000	65.467357 
4691.000000	65.519690 
4690.000000	65.540385 
4689.000000	65.534138 
4688.000000	65.509676 
4687.000000	65.477180 
4686.000000	65.445995 
4685.000000	65.422868 
4684.000000	65.410804 
4683.000000	65.409207 
4682.000000	65.414428 
4681.000000	65.421915 
4680.000000	65.427446 
4679.000000	65.428376 
4678.000000	65.424346 
4677.000000	65.417003 
4676.000000	65.409159 
4675.000000	65.403985 
4674.000000	65.403199 
4673.000000	65.406608 
4672.000000	65.411138 
4671.000000	65.411925 
4670.000000	65.402650 
4669.000000	65.377664 
4668.000000	65.333509 
4667.000000	65.270280 
4666.000000	65.192270 
4665.000000	65.107131 
4664.000000	65.024828 
4663.000000	64.955759 
4662.000000	64.908170 
4661.000000	64.886355 
4660.000000	64.889979 
4659.000000	64.914536 
4658.000000	64.952349 
4657.000000	64.994668 
4656.000000	65.033578 
4655.000000	65.063858 
4654.000000	65.083694 
4653.000000	65.094590 
4652.000000	65.099787 
4651.000000	65.103363 
4650.000000	65.108251 
4649.000000	65.115761 
4648.000000	65.125775 
4647.000000	65.136480 
4646.000000	65.145826 
4645.000000	65.151453 
4644.000000	65.151977 
4643.000000	65.146493 
4642.000000	65.134859 
4641.000000	65.117526 
4640.000000	65.095186 
4639.000000	65.069437 
4638.000000	65.042090 
4637.000000	65.016126 
4636.000000	64.995408 
4635.000000	64.984154 
4634.000000	64.986371 
4633.000000	65.004324 
4632.000000	65.037894 
4631.000000	65.084195 
4630.000000	65.138077 
4629.000000	65.193152 
4628.000000	65.243124 
4627.000000	65.283226 
4626.000000	65.310454 
4625.000000	65.324282 
4624.000000	65.325284 
4623.000000	65.314841 
4622.000000	65.293717 
4621.000000	65.262389 
4620.000000	65.220499 
4619.000000	65.168499 
4618.000000	65.107345 
4617.000000	65.039849 
4616.000000	64.969778 
4615.000000	64.902257 
4614.000000	64.842009 
4613.000000	64.792513 
4612.000000	64.754939 
4611.000000	64.728021 
4610.000000	64.708590 
4609.000000	64.692640 
4608.000000	64.676976 
4607.000000	64.660072 
4606.000000	64.642095 
4605.000000	64.624714 
4604.000000	64.609932 
4603.000000	64.599418 
4602.000000	64.593720 
4601.000000	64.592242 
4600.000000	64.593052 
4599.000000	64.593839 
4598.000000	64.593052 
4597.000000	64.590573 
4596.000000	64.587736 
4595.000000	64.587235 
4594.000000	64.592480 
4593.000000	64.606428 
4592.000000	64.630603 
4591.000000	64.664196 
4590.000000	64.703631 
4589.000000	64.743256 
4588.000000	64.776897 
4587.000000	64.799118 
4586.000000	64.806342 
4585.000000	64.798665 
4584.000000	64.779853 
4583.000000	64.756846 
4582.000000	64.737892 
4581.000000	64.731001 
4580.000000	64.741897 
4579.000000	64.771604 
4578.000000	64.815902 
4577.000000	64.866089 
4576.000000	64.910721 
4575.000000	64.938259 
4574.000000	64.939880 
4573.000000	64.911675 
4572.000000	64.855647 
4571.000000	64.779257 
4570.000000	64.694046 
4569.000000	64.612269 
4568.000000	64.545369 
4567.000000	64.501738 
4566.000000	64.485621 
4565.000000	64.496779 
4564.000000	64.531230 
4563.000000	64.582896 
4562.000000	64.644813 
4561.000000	64.710021 
4560.000000	64.773106 
4559.000000	64.829993 
4558.000000	64.878559 
4557.000000	64.917564 
4556.000000	64.947295 
4555.000000	64.968800 
4554.000000	64.983868 
4553.000000	64.994406 
4552.000000	65.002346 
4551.000000	65.009260 
4550.000000	65.016245 
4549.000000	65.023350 
4548.000000	65.029668 
4547.000000	65.032911 
4546.000000	65.030455 
4545.000000	65.019249 
4544.000000	64.996910 
4543.000000	64.961838 
4542.000000	64.913797 
4541.000000	64.853835 
4540.000000	64.784264 
4539.000000	64.708781 
4538.000000	64.631915 
4537.000000	64.559030 
4536.000000	64.495205 
4535.000000	64.445090 
4534.000000	64.412260 
4533.000000	64.398479 
4532.000000	64.403152 
4531.000000	64.423012 
4530.000000	64.452195 
4529.000000	64.483523 
4528.000000	64.509773 
4527.000000	64.525151 
4526.000000	64.526057 
4525.000000	64.512705 
4524.000000	64.488530 
4523.000000	64.459586 
4522.000000	64.432549 
4521.000000	64.412760 
4520.000000	64.402604 
4519.000000	64.401054 
4518.000000	64.403986 
4517.000000	64.405918 
4516.000000	64.401984 
4515.000000	64.389610 
4514.000000	64.369845 
4513.000000	64.346885 
4512.000000	64.327430 
4511.000000	64.318323 
4510.000000	64.324903 
4509.000000	64.349198 
4508.000000	64.389204 
4507.000000	64.439558 
4506.000000	64.492321 
4505.000000	64.539337 
4504.000000	64.573645 
4503.000000	64.591073 
4502.000000	64.590477 
4501.000000	64.573645 
4500.000000	64.544916 
4499.000000	64.509844 
4498.000000	64.474749 
4497.000000	64.445447 
4496.000000	64.426755 
4495.000000	64.421582 
4494.000000	64.430022 
4493.000000	64.449191 
4492.000000	64.473485 
4491.000000	64.495897 
4490.000000	64.509344 
4489.000000	64.508366 
4488.000000	64.490866 
4487.000000	64.458203 
4486.000000	64.415383 
4485.000000	64.369058 
4484.000000	64.325737 
4483.000000	64.289355 
4482.000000	64.260792 
4481.000000	64.236950 
4480.000000	64.212203 
4479.000000	64.180231 
4478.000000	64.136123 
4477.000000	64.078927 
4476.000000	64.011883 
4475.000000	63.942742 
4474.000000	63.881826 
4473.000000	63.839101 
4472.000000	63.820743 
4471.000000	63.829088 
4470.000000	63.861989 
4469.000000	63.913607 
4468.000000	63.975715 
4467.000000	64.039874 
4466.000000	64.099025 
4465.000000	64.148712 
4464.000000	64.186859 
4463.000000	64.212846 
4462.000000	64.226031 
4461.000000	64.226460 
4460.000000	64.213204 
4459.000000	64.181089 
4458.000000	64.125108 
4457.000000	64.046502 
4456.000000	63.950943 
4455.000000	63.846325 
4454.000000	63.744044 
4453.000000	63.660645 
4452.000000	63.608860 
4451.000000	63.594698 
4450.000000	63.613462 
4449.000000	63.650751 
4448.000000	63.683772 
4447.000000	63.687181 
4446.000000	63.639497 
4445.000000	63.528656 
4444.000000	63.359022 
4443.000000	63.150930 
4442.000000	62.935900 
4441.000000	62.749052 
4440.000000	62.617492 
4439.000000	62.556815 
4438.000000	62.561869 
4437.000000	62.619090 
4436.000000	62.712216 
4435.000000	62.840223 
4434.000000	63.016200 
4433.000000	63.276147 
4432.000000	63.667154 
4431.000000	64.238047 
4430.000000	65.016460 
4429.000000	65.998983 
4428.000000	67.145466 
4427.000000	68.375849 
4426.000000	69.588017 
4425.000000	70.664954 
4424.000000	71.500658 
4423.000000	72.014760 
4422.000000	72.171497 
4421.000000	71.983432 
4420.000000	71.511030 
4419.000000	70.848059 
4418.000000	70.106220 
4417.000000	69.386911 
4416.000000	68.765211 
4415.000000	68.278360 
4414.000000	67.926645 
4413.000000	67.685174 
4412.000000	67.516279 
4411.000000	67.384839 
4410.000000	67.266321 
4409.000000	67.145395 
4408.000000	67.018628 
4407.000000	66.879558 
4406.000000	66.726446 
4405.000000	66.556572 
4404.000000	66.372418 
4403.000000	66.180276 
4402.000000	65.991854 
4401.000000	65.824508 
4400.000000	65.695095 
4399.000000	65.612363 
4398.000000	65.578269 
4397.000000	65.587496 
4396.000000	65.627455 
4395.000000	65.678930 
4394.000000	65.724086 
4393.000000	65.751504 
4392.000000	65.754437 
4391.000000	65.730857 
4390.000000	65.682315 
4389.000000	65.611767 
4388.000000	65.521860 
4387.000000	65.414428 
4386.000000	65.289330 
4385.000000	65.146589 
4384.000000	64.992547 
4383.000000	64.839100 
4382.000000	64.700555 
4381.000000	64.591741 
4380.000000	64.524269 
4379.000000	64.504003 
4378.000000	64.528346 
4377.000000	64.587330 
4376.000000	64.665746 
4375.000000	64.746379 
4374.000000	64.812779 
4373.000000	64.853549 
4372.000000	64.863300 
4371.000000	64.843940 
4370.000000	64.802241 
4369.000000	64.749073 
4368.000000	64.696264 
4367.000000	64.653944 
4366.000000	64.628076 
4365.000000	64.620804 
4364.000000	64.630818 
4363.000000	64.654159 
4362.000000	64.685487 
4361.000000	64.719367 
4360.000000	64.751029 
4359.000000	64.776158 
4358.000000	64.791035 
4357.000000	64.793038 
4356.000000	64.780545 
4355.000000	64.752960 
4354.000000	64.710712 
4353.000000	64.656496 
4352.000000	64.593911 
4351.000000	64.527034 
4350.000000	64.459300 
4349.000000	64.393544 
4348.000000	64.331603 
4347.000000	64.274144 
4346.000000	64.221930 
4345.000000	64.175844 
4344.000000	64.138436 
4343.000000	64.113545 
4342.000000	64.106082 
4341.000000	64.120101 
4340.000000	64.157915 
4339.000000	64.218521 
4338.000000	64.297413 
4337.000000	64.386653 
4336.000000	64.476799 
4335.000000	64.558434 
4334.000000	64.624643 
4333.000000	64.672303 
4332.000000	64.702153 
4331.000000	64.718270 
4330.000000	64.726424 
4329.000000	64.731955 
4328.000000	64.738845 
4327.000000	64.747929 
4326.000000	64.757871 
4325.000000	64.764952 
4324.000000	64.765334 
4323.000000	64.755463 
4322.000000	64.734125 
4321.000000	64.702153 
4320.000000	64.662623 
4319.000000	64.620113 
4318.000000	64.579725 
4317.000000	64.546442 
4316.000000	64.523911 
4315.000000	64.514374 
4314.000000	64.518547 
4313.000000	64.535593 
4312.000000	64.563226 
4311.000000	64.598202 
4310.000000	64.636611 
4309.000000	64.674782 
4308.000000	64.709496 
4307.000000	64.738464 
4306.000000	64.760112 
4305.000000	64.774203 
4304.000000	64.781165 
4303.000000	64.781808 
4302.000000	64.776587 
4301.000000	64.765548 
4300.000000	64.748144 
4299.000000	64.723706 
4298.000000	64.691948 
4297.000000	64.653348 
4296.000000	64.609718 
4295.000000	64.564156 
4294.000000	64.520692 
4293.000000	64.483261 
4292.000000	64.455199 
4291.000000	64.438056 
4290.000000	64.432048 
4289.000000	64.435696 
4288.000000	64.446640 
4287.000000	64.462399 
4286.000000	64.480638 
4285.000000	64.499378 
4284.000000	64.517045 
4283.000000	64.532399 
4282.000000	64.544129 
4281.000000	64.550757 
4280.000000	64.551019 
4279.000000	64.544391 
4278.000000	64.531946 
4277.000000	64.516568 
4276.000000	64.503002 
4275.000000	64.496636 
4274.000000	64.502263 
4273.000000	64.522552 
4272.000000	64.557147 
4271.000000	64.602446 
4270.000000	64.652252 
4269.000000	64.699220 
4268.000000	64.736914 
4267.000000	64.760994 
4266.000000	64.769911 
4265.000000	64.765501 
4264.000000	64.751982 
4263.000000	64.735388 
4262.000000	64.721584 
4261.000000	64.715504 
4260.000000	64.720082 
4259.000000	64.735865 
4258.000000	64.761281 
4257.000000	64.792847 
4256.000000	64.826440 
4255.000000	64.857649 
4254.000000	64.882993 
4253.000000	64.900112 
4252.000000	64.908146 
4251.000000	64.908027 
4250.000000	64.902138 
4249.000000	64.893770 
4248.000000	64.886331 
4247.000000	64.882636 
4246.000000	64.884209 
4245.000000	64.891338 
4244.000000	64.902997 
4243.000000	64.917802 
4242.000000	64.934325 
4241.000000	64.951848 
4240.000000	64.970135 
4239.000000	64.989638 
4238.000000	65.010356 
4237.000000	65.031480 
4236.000000	65.051150 
4235.000000	65.066599 
4234.000000	65.074849 
4233.000000	65.073418 
4232.000000	65.061092 
4231.000000	65.038633 
4230.000000	65.008831 
4229.000000	64.976310 
4228.000000	64.945983 
4227.000000	64.922046 
4226.000000	64.906740 
4225.000000	64.900159 
4224.000000	64.900088 
4223.000000	64.903092 
4222.000000	64.905524 
4221.000000	64.904904 
4220.000000	64.900612 
4219.000000	64.894247 
4218.000000	64.888906 
4217.000000	64.888238 
4216.000000	64.894962 
4215.000000	64.909815 
4214.000000	64.931082 
4213.000000	64.954733 
4212.000000	64.975643 
4211.000000	64.988708 
4210.000000	64.990139 
4209.000000	64.979124 
4208.000000	64.957880 
4207.000000	64.931583 
4206.000000	64.906787 
4205.000000	64.890193 
4204.000000	64.886951 
4203.000000	64.899587 
4202.000000	64.927339 
4201.000000	64.966607 
4200.000000	65.012025 
4199.000000	65.057468 
4198.000000	65.097641 
4197.000000	65.128755 
4196.000000	65.149235 
4195.000000	65.159630 
4194.000000	65.162181 
4193.000000	65.159797 
4192.000000	65.155220 
4191.000000	65.150976 
4190.000000	65.148091 
4189.000000	65.146541 
4188.000000	65.144753 
4187.000000	65.140771 
4186.000000	65.132212 
4185.000000	65.116715 
4184.000000	65.092945 
4183.000000	65.060424 
4182.000000	65.020561 
4181.000000	64.976191 
4180.000000	64.931440 
4179.000000	64.890933 
4178.000000	64.858818 
4177.000000	64.837741 
4176.000000	64.828372 
4175.000000	64.829301 
4174.000000	64.837193 
4173.000000	64.847898 
4172.000000	64.857411 
4171.000000	64.863204 
4170.000000	64.864635 
4169.000000	64.863181 
4168.000000	64.861655 
4167.000000	64.863753 
4166.000000	64.873433 
4165.000000	64.893770 
4164.000000	64.926028 
4163.000000	64.969062 
4162.000000	65.020084 
4161.000000	65.074276 
4160.000000	65.126061 
4159.000000	65.169477 
4158.000000	65.199756 
4157.000000	65.213823 
4156.000000	65.211009 
4155.000000	65.193319 
4154.000000	65.164852 
4153.000000	65.131711 
4152.000000	65.101003 
4151.000000	65.079784 
4150.000000	65.073919 
4149.000000	65.087342 
4148.000000	65.121340 
4147.000000	65.174341 
4146.000000	65.241980 
4145.000000	65.317726 
4144.000000	65.393829 
4143.000000	65.462136 
4142.000000	65.515112 
4141.000000	65.546870 
4140.000000	65.553474 
4139.000000	65.533757 
4138.000000	65.488934 
4137.000000	65.422630 
4136.000000	65.340185 
4135.000000	65.248203 
4134.000000	65.154004 
4133.000000	65.064883 
4132.000000	64.987683 
4131.000000	64.928460 
4130.000000	64.891648 
4129.000000	64.879465 
4128.000000	64.891576 
4127.000000	64.924812 
4126.000000	64.973402 
4125.000000	65.029215 
4124.000000	65.083503 
4123.000000	65.127801 
4122.000000	65.155839 
4121.000000	65.164208 
4120.000000	65.153193 
4119.000000	65.126371 
4118.000000	65.089964 
4117.000000	65.050911 
4116.000000	65.015602 
4115.000000	64.988255 
4114.000000	64.970445 
4113.000000	64.960932 
4112.000000	64.956951 
4111.000000	64.955139 
4110.000000	64.952874 
4109.000000	64.948844 
4108.000000	64.943265 
4107.000000	64.937758 
4106.000000	64.934420 
4105.000000	64.935517 
4104.000000	64.942193 
4103.000000	64.954781 
4102.000000	64.972758 
4101.000000	64.994740 
4100.000000	65.018701 
4099.000000	65.042257 
4098.000000	65.063428 
4097.000000	65.080428 
4096.000000	65.091848 
4095.000000	65.096950 
4094.000000	65.095496 
4093.000000	65.088248 
4092.000000	65.076661 
4091.000000	65.062761 
4090.000000	65.048837 
4089.000000	65.036892 
4088.000000	65.028429 
4087.000000	65.024113 
4086.000000	65.023803 
4085.000000	65.027189 
4084.000000	65.034198 
4083.000000	65.045213 
4082.000000	65.061116 
4081.000000	65.082693 
4080.000000	65.110397 
4079.000000	65.143513 
4078.000000	65.180301 
4077.000000	65.217804 
4076.000000	65.252327 
4075.000000	65.280151 
4074.000000	65.298581 
4073.000000	65.306425 
4072.000000	65.304493 
4071.000000	65.295338 
4070.000000	65.282821 
4069.000000	65.271353 
4068.000000	65.264868 
4067.000000	65.266036 
4066.000000	65.275716 
4065.000000	65.292763 
4064.000000	65.314221 
4063.000000	65.335941 
4062.000000	65.352702 
4061.000000	65.359497 
4060.000000	65.352058 
4059.000000	65.328335 
4058.000000	65.288853 
4057.000000	65.237236 
4056.000000	65.179777 
4055.000000	65.124082 
4054.000000	65.078067 
4053.000000	65.047764 
4052.000000	65.036177 
4051.000000	65.042471 
4050.000000	65.062284 
4049.000000	65.088605 
4048.000000	65.113401 
4047.000000	65.129685 
4046.000000	65.133070 
4045.000000	65.122866 
4044.000000	65.101528 
4043.000000	65.074300 
4042.000000	65.047740 
4041.000000	65.027952 
4040.000000	65.019226 
4039.000000	65.023636 
4038.000000	65.040659 
4037.000000	65.067887 
4036.000000	65.101790 
4035.000000	65.138149 
4034.000000	65.172863 
4033.000000	65.202045 
4032.000000	65.222620 
4031.000000	65.231919 
4030.000000	65.228223 
4029.000000	65.210890 
4028.000000	65.180516 
4027.000000	65.139055 
4026.000000	65.089535 
4025.000000	65.036463 
4024.000000	64.984536 
4023.000000	64.937853 
4022.000000	64.899206 
4021.000000	64.870214 
4020.000000	64.850854 
4019.000000	64.839696 
4018.000000	64.834523 
4017.000000	64.833045 
4016.000000	64.833402 
4015.000000	64.834070 
4014.000000	64.834427 
4013.000000	64.833903 
4012.000000	64.832258 
4011.000000	64.829277 
4010.000000	64.824771 
4009.000000	64.818882 
4008.000000	64.812278 
4007.000000	64.806222 
4006.000000	64.802384 
4005.000000	64.802789 
4004.000000	64.809322 
4003.000000	64.823389 
4002.000000	64.845204 
4001.000000	64.874124 
4000.000000	64.908719 
3999.000000	64.947390 
3998.000000	64.988589 
3997.000000	65.031194 
3996.000000	65.074419 
3995.000000	65.117812 
3994.000000	65.160894 
3993.000000	65.203094 
3992.000000	65.243196 
3991.000000	65.279841 
3990.000000	65.311813 
3989.000000	65.338087 
3988.000000	65.358281 
3987.000000	65.372633 
3986.000000	65.382289 
3985.000000	65.388607 
3984.000000	65.392851 
3983.000000	65.395569 
3982.000000	65.396428 
3981.000000	65.394210 
3980.000000	65.387129 
3979.000000	65.373373 
3978.000000	65.351653 
3977.000000	65.322041 
3976.000000	65.285921 
3975.000000	65.245985 
3974.000000	65.205907 
3973.000000	65.169668 
3972.000000	65.140867 
3971.000000	65.121674 
3970.000000	65.112590 
3969.000000	65.112447 
3968.000000	65.118765 
3967.000000	65.128135 
3966.000000	65.137314 
3965.000000	65.144181 
3964.000000	65.148043 
3963.000000	65.149307 
3962.000000	65.149617 
3961.000000	65.150880 
3960.000000	65.154528 
3959.000000	65.160703 
3958.000000	65.168118 
3957.000000	65.174341 
3956.000000	65.176296 
3955.000000	65.171313 
3954.000000	65.158033 
3953.000000	65.136814 
3952.000000	65.109944 
3951.000000	65.080976 
3950.000000	65.053629 
3949.000000	65.030884 
3948.000000	65.014147 
3947.000000	65.003323 
3946.000000	64.996695 
3945.000000	64.992046 
3944.000000	64.987468 
3943.000000	64.981889 
3942.000000	64.975142 
3941.000000	64.968299 
3940.000000	64.962553 
3939.000000	64.959311 
3938.000000	64.958810 
3937.000000	64.960741 
3936.000000	64.963889 
3935.000000	64.967083 
3934.000000	64.969587 
3933.000000	64.971613 
3932.000000	64.974284 
3931.000000	64.979338 
3930.000000	64.988565 
3929.000000	65.002965 
3928.000000	65.022468 
3927.000000	65.045690 
3926.000000	65.070104 
3925.000000	65.092873 
3924.000000	65.111231 
3923.000000	65.123343 
3922.000000	65.128397 
3921.000000	65.126800 
3920.000000	65.119886 
3919.000000	65.109372 
3918.000000	65.097069 
3917.000000	65.084671 
3916.000000	65.073394 
3915.000000	65.064263 
3914.000000	65.057873 
3913.000000	65.054726 
3912.000000	65.054750 
3911.000000	65.057706 
3910.000000	65.062856 
3909.000000	65.068984 
3908.000000	65.074753 
3907.000000	65.079045 
3906.000000	65.081071 
3905.000000	65.080809 
3904.000000	65.079021 
3903.000000	65.077066 
3902.000000	65.076446 
3901.000000	65.078210 
3900.000000	65.082669 
3899.000000	65.089511 
3898.000000	65.097689 
3897.000000	65.105986 
3896.000000	65.113568 
3895.000000	65.120315 
3894.000000	65.127038 
3893.000000	65.134763 
3892.000000	65.144705 
3891.000000	65.156960 
3890.000000	65.170550 
3889.000000	65.183234 
3888.000000	65.192198 
3887.000000	65.194606 
3886.000000	65.188765 
3885.000000	65.174341 
3884.000000	65.152716 
3883.000000	65.126347 
3882.000000	65.098690 
3881.000000	65.072488 
3880.000000	65.049386 
3879.000000	65.029406 
3878.000000	65.011048 
3877.000000	64.991903 
3876.000000	64.969730 
3875.000000	64.943099 
3874.000000	64.912199 
3873.000000	64.878892 
3872.000000	64.846563 
3871.000000	64.819192 
3870.000000	64.800834 
3869.000000	64.794278 
3868.000000	64.800572 
3867.000000	64.818930 
3866.000000	64.846634 
3865.000000	64.879560 
3864.000000	64.912939 
3863.000000	64.941835 
3862.000000	64.962601 
3861.000000	64.972901 
3860.000000	64.972829 
3859.000000	64.964222 
3858.000000	64.950823 
3857.000000	64.937567 
3856.000000	64.929175 
3855.000000	64.929437 
3854.000000	64.939785 
3853.000000	64.959073 
3852.000000	64.983439 
3851.000000	65.007615 
3850.000000	65.025925 
3849.000000	65.033888 
3848.000000	65.029835 
3847.000000	65.015554 
3846.000000	64.995741 
3845.000000	64.977002 
3844.000000	64.966392 
3843.000000	64.969515 
3842.000000	64.989042 
3841.000000	65.023922 
3840.000000	65.070104 
3839.000000	65.120959 
3838.000000	65.169239 
3837.000000	65.208029 
3836.000000	65.232944 
3835.000000	65.241909 
3834.000000	65.235447 
3833.000000	65.215873 
3832.000000	65.186524 
3831.000000	65.150928 
3830.000000	65.112137 
3829.000000	65.072464 
3828.000000	65.033841 
3827.000000	64.997673 
3826.000000	64.965748 
3825.000000	64.939761 
3824.000000	64.921402 
3823.000000	64.911985 
3822.000000	64.912295 
3821.000000	64.922046 
3820.000000	64.939713 
3819.000000	64.962697 
3818.000000	64.987611 
3817.000000	65.011096 
3816.000000	65.030527 
3815.000000	65.044093 
3814.000000	65.051627 
3813.000000	65.054345 
3812.000000	65.054702 
3811.000000	65.055704 
3810.000000	65.060353 
3809.000000	65.070939 
3808.000000	65.088725 
3807.000000	65.114140 
3806.000000	65.145969 
3805.000000	65.182018 
3804.000000	65.218520 
3803.000000	65.251231 
3802.000000	65.275192 
3801.000000	65.285849 
3800.000000	65.279483 
3799.000000	65.253901 
3798.000000	65.209603 
3797.000000	65.149974 
3796.000000	65.081191 
3795.000000	65.011596 
3794.000000	64.950776 
3793.000000	64.908003 
3792.000000	64.890909 
3791.000000	64.903783 
3790.000000	64.946866 
3789.000000	65.016078 
3788.000000	65.103650 
3787.000000	65.199089 
3786.000000	65.290832 
3785.000000	65.368056 
3784.000000	65.422511 
3783.000000	65.449237 
3782.000000	65.447211 
3781.000000	65.418767 
3780.000000	65.369153 
3779.000000	65.304875 
3778.000000	65.233254 
3777.000000	65.160799 
3776.000000	65.092968 
3775.000000	65.033888 
3774.000000	64.986729 
3773.000000	64.953494 
3772.000000	64.935564 
3771.000000	64.933443 
3770.000000	64.946675 
3769.000000	64.973807 
3768.000000	65.012073 
3767.000000	65.057516 
3766.000000	65.105175 
3765.000000	65.149855 
3764.000000	65.186762 
3763.000000	65.212392 
3762.000000	65.224933 
3761.000000	65.224266 
3760.000000	65.211749 
3759.000000	65.189814 
3758.000000	65.161252 
3757.000000	65.128970 
3756.000000	65.095424 
3755.000000	65.062570 
3754.000000	65.031814 
3753.000000	65.004849 
3752.000000	64.983510 
3751.000000	64.969730 
3750.000000	64.965462 
3749.000000	64.972209 
3748.000000	64.990401 
3747.000000	65.019226 
3746.000000	65.056061 
3745.000000	65.096426 
3744.000000	65.134835 
3743.000000	65.165877 
3742.000000	65.185070 
3741.000000	65.189909 
3740.000000	65.180444 
3739.000000	65.159296 
3738.000000	65.131258 
3737.000000	65.102100 
3736.000000	65.077257 
3735.000000	65.060567 
3734.000000	65.053772 
3733.000000	65.056133 
3732.000000	65.064668 
3731.000000	65.075421 
3730.000000	65.084671 
3729.000000	65.090084 
3728.000000	65.090990 
3727.000000	65.088963 
3726.000000	65.086865 
3725.000000	65.088367 
3724.000000	65.096569 
3723.000000	65.113472 
3722.000000	65.139222 
3721.000000	65.172338 
3720.000000	65.210008 
3719.000000	65.248537 
3718.000000	65.284180 
3717.000000	65.313768 
3716.000000	65.335106 
3715.000000	65.347337 
3714.000000	65.350890 
3713.000000	65.347123 
3712.000000	65.337967 
3711.000000	65.325403 
3710.000000	65.311193 
3709.000000	65.296578 
3708.000000	65.282225 
3707.000000	65.268254 
3706.000000	65.254473 
3705.000000	65.240716 
3704.000000	65.227079 
3703.000000	65.213894 
3702.000000	65.201520 
3701.000000	65.190410 
3700.000000	65.180706 
3699.000000	65.172338 
3698.000000	65.164828 
3697.000000	65.157032 
3696.000000	65.147852 
3695.000000	65.136432 
3694.000000	65.122485 
3693.000000	65.106415 
3692.000000	65.089464 
3691.000000	65.073204 
3690.000000	65.059375 
3689.000000	65.049409 
3688.000000	65.044355 
3687.000000	65.044856 
3686.000000	65.050816 
3685.000000	65.061616 
3684.000000	65.076398 
3683.000000	65.094280 
3682.000000	65.114235 
3681.000000	65.135216 
3680.000000	65.156149 
3679.000000	65.175700 
3678.000000	65.192604 
3677.000000	65.205311 
3676.000000	65.212225 
3675.000000	65.211868 
3674.000000	65.203309 
3673.000000	65.186381 
3672.000000	65.161609 
3671.000000	65.130591 
3670.000000	65.096139 
3669.000000	65.061783 
3668.000000	65.031409 
3667.000000	65.008592 
3666.000000	64.996075 
3665.000000	64.994859 
3664.000000	65.004181 
3663.000000	65.021252 
3662.000000	65.041851 
3661.000000	65.061283 
3660.000000	65.075373 
3659.000000	65.081524 
3658.000000	65.079188 
3657.000000	65.070009 
3656.000000	65.057253 
3655.000000	65.044975 
3654.000000	65.036916 
3653.000000	65.035629 
3652.000000	65.041947 
3651.000000	65.055012 
3650.000000	65.072774 
3649.000000	65.092730 
3648.000000	65.113043 
3647.000000	65.132904 
3646.000000	65.152645 
3645.000000	65.173482 
3644.000000	65.196490 
3643.000000	65.222120 
3642.000000	65.249276 
3641.000000	65.275287 
3640.000000	65.296387 
3639.000000	65.308690 
3638.000000	65.309190 
3637.000000	65.296673 
3636.000000	65.272426 
3635.000000	65.240287 
3634.000000	65.205669 
3633.000000	65.174555 
3632.000000	65.151882 
3631.000000	65.140557 
3630.000000	65.140795 
3629.000000	65.150332 
3628.000000	65.164828 
3627.000000	65.179467 
3626.000000	65.190196 
3625.000000	65.194892 
3624.000000	65.193581 
3623.000000	65.188384 
3622.000000	65.182471 
3621.000000	65.178942 
3620.000000	65.179753 
3619.000000	65.185141 
3618.000000	65.193724 
3617.000000	65.202832 
3616.000000	65.209579 
3615.000000	65.211677 
3614.000000	65.208721 
3613.000000	65.201854 
3612.000000	65.193653 
3611.000000	65.187239 
3610.000000	65.185284 
3609.000000	65.188884 
3608.000000	65.197277 
3607.000000	65.207695 
3606.000000	65.216207 
3605.000000	65.218782 
3604.000000	65.212440 
3603.000000	65.195870 
3602.000000	65.170025 
3601.000000	65.137934 
3600.000000	65.104126 
3599.000000	65.073275 
3598.000000	65.049409 
3597.000000	65.035057 
3596.000000	65.030765 
3595.000000	65.035200 
3594.000000	65.045404 
3593.000000	65.057754 
3592.000000	65.068793 
3591.000000	65.075707 
3590.000000	65.077233 
3589.000000	65.073275 
3588.000000	65.064954 
3587.000000	65.053868 
3586.000000	65.042018 
3585.000000	65.030980 
3584.000000	65.022063 
3583.000000	65.016007 
3582.000000	65.013170 
3581.000000	65.013623 
3580.000000	65.017557 
3579.000000	65.025186 
3578.000000	65.036725 
3577.000000	65.052366 
3576.000000	65.071845 
3575.000000	65.094494 
3574.000000	65.119242 
3573.000000	65.144729 
3572.000000	65.169668 
3571.000000	65.193033 
3570.000000	65.214109 
3569.000000	65.232491 
3568.000000	65.247774 
3567.000000	65.259480 
3566.000000	65.266966 
3565.000000	65.269541 
3564.000000	65.266680 
3563.000000	65.258359 
3562.000000	65.245532 
3561.000000	65.229940 
3560.000000	65.214061 
3559.000000	65.200519 
3558.000000	65.191721 
3557.000000	65.189075 
3556.000000	65.192532 
3555.000000	65.200877 
3554.000000	65.211915 
3553.000000	65.223050 
3552.000000	65.231990 
3551.000000	65.237355 
3550.000000	65.238833 
3549.000000	65.237116 
3548.000000	65.233469 
3547.000000	65.229034 
3546.000000	65.224385 
3545.000000	65.219354 
3544.000000	65.213060 
3543.000000	65.204167 
3542.000000	65.191364 
3541.000000	65.173864 
3540.000000	65.152025 
3539.000000	65.127038 
3538.000000	65.101075 
3537.000000	65.076804 
3536.000000	65.057229 
3535.000000	65.044546 
3534.000000	65.040206 
3533.000000	65.044641 
3532.000000	65.057086 
3531.000000	65.075898 
3530.000000	65.098786 
3529.000000	65.122914 
3528.000000	65.145611 
3527.000000	65.164518 
3526.000000	65.178155 
3525.000000	65.186023 
3524.000000	65.188503 
3523.000000	65.186810 
3522.000000	65.182495 
3521.000000	65.177249 
3520.000000	65.172290 
3519.000000	65.168356 
3518.000000	65.165853 
3517.000000	65.164875 
3516.000000	65.165472 
3515.000000	65.167427 
3514.000000	65.170574 
3513.000000	65.174293 
3512.000000	65.177893 
3511.000000	65.180397 
3510.000000	65.180778 
3509.000000	65.178370 
3508.000000	65.173101 
3507.000000	65.165615 
3506.000000	65.157365 
3505.000000	65.150284 
3504.000000	65.146470 
3503.000000	65.147304 
3502.000000	65.153169 
3501.000000	65.163111 
3500.000000	65.174937 
3499.000000	65.185689 
3498.000000	65.192246 
3497.000000	65.192151 
3496.000000	65.184092 
3495.000000	65.168094 
3494.000000	65.145611 
3493.000000	65.118956 
3492.000000	65.090751 
3491.000000	65.063524 
3490.000000	65.039539 
3489.000000	65.020227 
3488.000000	65.006494 
3487.000000	64.998745 
3486.000000	64.996933 
3485.000000	65.000844 
3484.000000	65.009760 
3483.000000	65.022706 
3482.000000	65.038299 
3481.000000	65.054607 
3480.000000	65.069603 
3479.000000	65.081357 
3478.000000	65.088582 
3477.000000	65.090727 
3476.000000	65.088462 
3475.000000	65.083456 
3474.000000	65.078091 
3473.000000	65.074992 
3472.000000	65.076279 
3471.000000	65.083193 
3470.000000	65.095615 
3469.000000	65.112090 
3468.000000	65.130043 
3467.000000	65.146327 
3466.000000	65.157890 
3465.000000	65.162420 
3464.000000	65.158963 
3463.000000	65.148043 
3462.000000	65.131664 
3461.000000	65.112972 
3460.000000	65.095472 
3459.000000	65.082406 
3458.000000	65.076351 
3457.000000	65.078473 
3456.000000	65.088605 
3455.000000	65.104961 
3454.000000	65.124893 
3453.000000	65.145111 
3452.000000	65.162348 
3451.000000	65.174031 
3450.000000	65.178442 
3449.000000	65.175437 
3448.000000	65.166091 
3447.000000	65.152835 
3446.000000	65.138459 
3445.000000	65.125942 
3444.000000	65.117645 
3443.000000	65.114808 
3442.000000	65.117383 
3441.000000	65.123844 
3440.000000	65.131759 
3439.000000	65.138149 
3438.000000	65.140318 
3437.000000	65.136337 
3436.000000	65.125727 
3435.000000	65.109181 
3434.000000	65.089035 
3433.000000	65.068364 
3432.000000	65.050792 
3431.000000	65.039777 
3430.000000	65.037703 
3429.000000	65.045762 
3428.000000	65.063333 
3427.000000	65.088510 
3426.000000	65.117931 
3425.000000	65.147542 
3424.000000	65.173006 
3423.000000	65.190649 
3422.000000	65.197706 
3421.000000	65.193009 
3420.000000	65.176939 
3419.000000	65.151572 
3418.000000	65.120148 
3417.000000	65.086483 
3416.000000	65.054368 
3415.000000	65.027093 
3414.000000	65.006732 
3413.000000	64.993953 
3412.000000	64.988183 
3411.000000	64.987874 
3410.000000	64.990782 
3409.000000	64.994668 
3408.000000	64.997625 
3407.000000	64.998555 
3406.000000	64.997172 
3405.000000	64.994144 
3404.000000	64.990520 
3403.000000	64.987635 
3402.000000	64.986324 
3401.000000	64.987015 
3400.000000	64.989542 
3399.000000	64.993572 
3398.000000	64.998626 
3397.000000	65.004515 
3396.000000	65.011501 
3395.000000	65.020060 
3394.000000	65.030908 
3393.000000	65.044546 
3392.000000	65.060615 
3391.000000	65.078377 
3390.000000	65.096545 
3389.000000	65.113639 
3388.000000	65.128111 
3387.000000	65.139055 
3386.000000	65.146207 
3385.000000	65.150070 
3384.000000	65.151739 
3383.000000	65.152335 
3382.000000	65.152907 
3381.000000	65.154075 
3380.000000	65.156388 
3379.000000	65.160322 
3378.000000	65.166258 
3377.000000	65.174961 
3376.000000	65.186977 
3375.000000	65.202593 
3374.000000	65.221357 
3373.000000	65.242004 
3372.000000	65.262269 
3371.000000	65.279269 
3370.000000	65.289878 
3369.000000	65.291881 
3368.000000	65.283727 
3367.000000	65.265464 
3366.000000	65.238118 
3365.000000	65.203785 
3364.000000	65.164875 
3363.000000	65.123701 
3362.000000	65.082049 
3361.000000	65.041279 
3360.000000	65.002584 
3359.000000	64.967274 
3358.000000	64.936900 
3357.000000	64.913439 
3356.000000	64.898943 
3355.000000	64.895248 
3354.000000	64.902758 
3353.000000	64.920783 
3352.000000	64.946818 
3351.000000	64.977478 
3350.000000	65.008425 
3349.000000	65.035963 
3348.000000	65.057253 
3347.000000	65.071225 
3346.000000	65.078282 
3345.000000	65.080475 
3344.000000	65.080308 
3343.000000	65.080332 
3342.000000	65.082383 
3341.000000	65.087366 
3340.000000	65.095043 
3339.000000	65.104460 
3338.000000	65.114617 
3337.000000	65.124344 
3336.000000	65.132904 
3335.000000	65.139913 
3334.000000	65.145349 
3333.000000	65.148997 
3332.000000	65.150499 
3331.000000	65.149331 
3330.000000	65.144896 
3329.000000	65.136599 
3328.000000	65.124011 
3327.000000	65.107321 
3326.000000	65.087246 
3325.000000	65.064930 
3324.000000	65.042018 
3323.000000	65.020012 
3322.000000	65.000414 
3321.000000	64.984464 
3320.000000	64.973425 
3319.000000	64.967942 
3318.000000	64.968729 
3317.000000	64.976239 
3316.000000	64.990687 
3315.000000	65.011668 
3314.000000	65.038251 
3313.000000	65.068864 
3312.000000	65.101432 
3311.000000	65.133452 
3310.000000	65.162444 
3309.000000	65.186262 
3308.000000	65.203523 
3307.000000	65.213584 
3306.000000	65.216755 
3305.000000	65.213990 
3304.000000	65.206575 
3303.000000	65.195703 
3302.000000	65.182280 
3301.000000	65.166568 
3300.000000	65.148568 
3299.000000	65.128040 
3298.000000	65.104746 
3297.000000	65.079069 
3296.000000	65.051865 
3295.000000	65.024733 
3294.000000	64.999365 
3293.000000	64.977550 
3292.000000	64.960837 
3291.000000	64.950132 
3290.000000	64.945483 
3289.000000	64.946246 
3288.000000	64.951086 
3287.000000	64.958405 
3286.000000	64.966511 
3285.000000	64.973783 
3284.000000	64.979004 
3283.000000	64.981222 
3282.000000	64.979934 
3281.000000	64.975070 
3280.000000	64.966821 
3279.000000	64.955902 
3278.000000	64.943361 
3277.000000	64.930605 
3276.000000	64.919185 
3275.000000	64.910292 
3274.000000	64.904737 
3273.000000	64.902806 
3272.000000	64.904332 
3271.000000	64.908957 
3270.000000	64.916205 
3269.000000	64.925909 
3268.000000	64.938044 
3267.000000	64.952731 
3266.000000	64.970088 
3265.000000	64.989805 
3264.000000	65.011072 
3263.000000	65.032458 
3262.000000	65.052199 
3261.000000	65.068626 
3260.000000	65.080237 
3259.000000	65.086174 
3258.000000	65.086436 
3257.000000	65.081930 
3256.000000	65.074038 
3255.000000	65.064454 
3254.000000	65.054678 
3253.000000	65.045976 
3252.000000	65.039563 
3251.000000	65.036344 
3250.000000	65.037441 
3249.000000	65.043735 
3248.000000	65.055966 
3247.000000	65.074372 
3246.000000	65.098452 
3245.000000	65.126776 
3244.000000	65.157151 
3243.000000	65.186572 
3242.000000	65.212059 
3241.000000	65.230655 
3240.000000	65.240120 
3239.000000	65.239381 
3238.000000	65.228557 
3237.000000	65.209293 
3236.000000	65.184378 
3235.000000	65.157508 
3234.000000	65.132546 
3233.000000	65.112924 
3232.000000	65.101146 
3231.000000	65.098190 
3230.000000	65.103530 
3229.000000	65.115070 
3228.000000	65.130090 
3227.000000	65.145397 
3226.000000	65.158152 
3225.000000	65.166544 
3224.000000	65.169954 
3223.000000	65.168976 
3222.000000	65.164899 
3221.000000	65.159034 
3220.000000	65.152716 
3219.000000	65.146422 
3218.000000	65.140485 
3217.000000	65.135288 
3216.000000	65.131235 
3215.000000	65.129494 
3214.000000	65.131330 
3213.000000	65.138101 
3212.000000	65.150451 
3211.000000	65.167832 
3210.000000	65.188407 
3209.000000	65.209364 
3208.000000	65.227460 
3207.000000	65.239739 
3206.000000	65.244221 
3205.000000	65.240406 
3204.000000	65.229320 
3203.000000	65.213274 
3202.000000	65.194869 
3201.000000	65.176463 
3200.000000	65.159535 
3199.000000	65.144491 
3198.000000	65.131044 
3197.000000	65.118408 
3196.000000	65.106129 
3195.000000	65.094232 
3194.000000	65.083694 
3193.000000	65.075755 
3192.000000	65.071606 
3191.000000	65.071892 
3190.000000	65.076422 
3189.000000	65.084099 
3188.000000	65.093040 
3187.000000	65.101313 
3186.000000	65.107297 
3185.000000	65.110278 
3184.000000	65.110421 
3183.000000	65.108895 
3182.000000	65.107226 
3181.000000	65.107035 
3180.000000	65.109157 
3179.000000	65.113520 
3178.000000	65.119099 
3177.000000	65.124034 
3176.000000	65.126299 
3175.000000	65.124177 
3174.000000	65.116763 
3173.000000	65.104317 
3172.000000	65.088367 
3171.000000	65.071177 
3170.000000	65.055394 
3169.000000	65.043616 
3168.000000	65.037775 
3167.000000	65.038585 
3166.000000	65.045213 
3165.000000	65.055918 
3164.000000	65.068101 
3163.000000	65.078854 
3162.000000	65.085721 
3161.000000	65.087056 
3160.000000	65.082359 
3159.000000	65.072226 
3158.000000	65.058207 
3157.000000	65.042424 
3156.000000	65.027022 
3155.000000	65.013980 
3154.000000	65.004348 
3153.000000	64.998316 
3152.000000	64.995074 
3151.000000	64.993333 
3150.000000	64.991569 
3149.000000	64.988255 
3148.000000	64.982748 
3147.000000	64.975643 
3146.000000	64.968681 
3145.000000	64.964318 
3144.000000	64.965534 
3143.000000	64.974927 
3142.000000	64.994096 
3141.000000	65.023136 
3140.000000	65.060281 
3139.000000	65.102267 
3138.000000	65.145087 
3137.000000	65.184569 
3136.000000	65.217328 
3135.000000	65.241146 
3134.000000	65.255761 
3133.000000	65.262126 
3132.000000	65.262365 
3131.000000	65.258598 
3130.000000	65.252733 
3129.000000	65.245223 
3128.000000	65.235471 
3127.000000	65.221405 
3126.000000	65.200829 
3125.000000	65.171647 
3124.000000	65.133070 
3123.000000	65.085744 
3122.000000	65.032196 
3121.000000	64.976358 
3120.000000	64.923214 
3119.000000	64.877533 
3118.000000	64.843297 
3117.000000	64.823079 
3116.000000	64.817905 
3115.000000	64.826989 
3114.000000	64.848399 
3113.000000	64.879250 
3112.000000	64.916467 
3111.000000	64.956855 
3110.000000	64.997792 
3109.000000	65.036940 
3108.000000	65.072751 
3107.000000	65.104007 
3106.000000	65.130066 
3105.000000	65.150856 
3104.000000	65.166640 
3103.000000	65.178275 
3102.000000	65.186285 
3101.000000	65.191316 
3100.000000	65.193152 
3099.000000	65.191435 
3098.000000	65.184974 
3097.000000	65.172386 
3096.000000	65.152406 
3095.000000	65.124607 
3094.000000	65.089702 
3093.000000	65.049767 
3092.000000	65.008163 
3091.000000	64.969110 
3090.000000	64.936852 
3089.000000	64.914917 
3088.000000	64.905428 
3087.000000	64.908719 
3086.000000	64.923119 
3085.000000	64.945483 
3084.000000	64.971733 
3083.000000	64.997839 
3082.000000	65.020513 
3081.000000	65.037798 
3080.000000	65.048933 
3079.000000	65.054583 
3078.000000	65.056061 
3077.000000	65.055012 
3076.000000	65.052604 
3075.000000	65.049457 
3074.000000	65.045547 
3073.000000	65.040087 
3072.000000	65.032434 
3071.000000	65.021920 
3070.000000	65.008473 
3069.000000	64.992594 
3068.000000	64.975380 
3067.000000	64.958071 
3066.000000	64.942026 
3065.000000	64.928245 
3064.000000	64.917492 
3063.000000	64.909958 
3062.000000	64.905524 
3061.000000	64.903736 
3060.000000	64.904212 
3059.000000	64.906668 
3058.000000	64.910936 
3057.000000	64.916682 
3056.000000	64.923882 
3055.000000	64.932155 
3054.000000	64.941358 
3053.000000	64.950990 
3052.000000	64.960789 
3051.000000	64.970588 
3050.000000	64.980530 
3049.000000	64.990782 
3048.000000	65.001511 
3047.000000	65.012860 
3046.000000	65.024733 
3045.000000	65.036773 
3044.000000	65.048551 
3043.000000	65.059494 
3042.000000	65.069127 
3041.000000	65.077567 
3040.000000	65.085053 
3039.000000	65.092062 
3038.000000	65.098977 
3037.000000	65.105891 
3036.000000	65.112209 
3035.000000	65.116643 
3034.000000	65.117549 
3033.000000	65.113329 
3032.000000	65.103125 
3031.000000	65.087199 
3030.000000	65.067124 
3029.000000	65.045571 
3028.000000	65.025877 
3027.000000	65.011358 
3026.000000	65.004301 
3025.000000	65.005517 
3024.000000	65.014171 
3023.000000	65.028285 
3022.000000	65.044927 
3021.000000	65.061330 
3020.000000	65.075421 
3019.000000	65.086245 
3018.000000	65.093946 
3017.000000	65.099620 
3016.000000	65.104413 
3015.000000	65.109348 
3014.000000	65.114569 
3013.000000	65.119576 
3012.000000	65.123414 
3011.000000	65.125012 
3010.000000	65.123510 
3009.000000	65.118455 
3008.000000	65.109848 
3007.000000	65.097808 
3006.000000	65.082740 
3005.000000	65.064835 
3004.000000	65.044307 
3003.000000	65.021371 
3002.000000	64.996528 
3001.000000	64.970517 
3000.000000	64.944577 
2999.000000	64.920330 
2998.000000	64.899516 
2997.000000	64.883399 
2996.000000	64.872908 
2995.000000	64.868140 
2994.000000	64.868807 
2993.000000	64.874100 
2992.000000	64.882946 
2991.000000	64.894318 
2990.000000	64.907073 
2989.000000	64.920186 
2988.000000	64.932394 
2987.000000	64.942240 
2986.000000	64.948415 
2985.000000	64.949822 
2984.000000	64.946079 
2983.000000	64.937639 
2982.000000	64.925789 
2981.000000	64.912319 
2980.000000	64.899325 
2979.000000	64.888405 
2978.000000	64.880228 
2977.000000	64.874362 
2976.000000	64.869260 
2975.000000	64.863228 
2974.000000	64.854884 
2973.000000	64.843821 
2972.000000	64.831137 
2971.000000	64.818930 
2970.000000	64.809942 
2969.000000	64.806389 
2968.000000	64.809513 
2967.000000	64.818572 
2966.000000	64.831280 
2965.000000	64.844059 
2964.000000	64.853215 
2963.000000	64.855813 
2962.000000	64.850616 
2961.000000	64.838457 
2960.000000	64.822006 
2959.000000	64.805221 
2958.000000	64.792251 
2957.000000	64.786481 
2956.000000	64.789628 
2955.000000	64.801788 
2954.000000	64.821219 
2953.000000	64.845156 
2952.000000	64.870190 
2951.000000	64.892959 
2950.000000	64.910316 
2949.000000	64.920163 
2948.000000	64.921212 
2947.000000	64.912986 
2946.000000	64.896035 
2945.000000	64.871788 
2944.000000	64.842557 
2943.000000	64.811110 
2942.000000	64.780473 
2941.000000	64.753794 
2940.000000	64.733624 
2939.000000	64.721870 
2938.000000	64.719343 
2937.000000	64.725637 
2936.000000	64.739179 
2935.000000	64.757490 
2934.000000	64.777350 
2933.000000	64.795517 
2932.000000	64.808917 
2931.000000	64.815163 
2930.000000	64.812827 
2929.000000	64.801788 
2928.000000	64.783191 
2927.000000	64.759516 
2926.000000	64.734244 
2925.000000	64.711236 
2924.000000	64.694285 
2923.000000	64.686346 
2922.000000	64.689016 
2921.000000	64.702391 
2920.000000	64.724969 
2919.000000	64.753961 
2918.000000	64.785957 
2917.000000	64.817190 
2916.000000	64.844226 
2915.000000	64.864397 
2914.000000	64.876079 
2913.000000	64.878869 
2912.000000	64.873409 
2911.000000	64.861297 
2910.000000	64.844775 
2909.000000	64.826369 
2908.000000	64.808535 
2907.000000	64.793395 
2906.000000	64.782595 
2905.000000	64.776968 
2904.000000	64.776921 
2903.000000	64.782166 
2902.000000	64.791893 
2901.000000	64.805078 
2900.000000	64.820480 
2899.000000	64.836978 
2898.000000	64.853596 
2897.000000	64.869332 
2896.000000	64.883375 
2895.000000	64.895224 
2894.000000	64.904618 
2893.000000	64.911508 
2892.000000	64.916014 
2891.000000	64.918637 
2890.000000	64.919877 
2889.000000	64.920306 
2888.000000	64.920234 
2887.000000	64.919805 
2886.000000	64.918828 
2885.000000	64.917349 
2884.000000	64.915251 
2883.000000	64.912581 
2882.000000	64.909577 
2881.000000	64.906597 
2880.000000	64.903998 
2879.000000	64.902257 
2878.000000	64.901685 
2877.000000	64.902615 
2876.000000	64.905285 
2875.000000	64.909982 
2874.000000	64.916968 
2873.000000	64.926671 
2872.000000	64.939379 
2871.000000	64.955019 
2870.000000	64.973163 
2869.000000	64.992594 
2868.000000	65.011715 
2867.000000	65.028309 
2866.000000	65.040063 
2865.000000	65.044927 
2864.000000	65.041518 
2863.000000	65.029573 
2862.000000	65.009832 
2861.000000	64.984297 
2860.000000	64.955759 
2859.000000	64.927506 
2858.000000	64.902782 
2857.000000	64.884376 
2856.000000	64.874076 
2855.000000	64.872431 
2854.000000	64.878845 
2853.000000	64.891505 
2852.000000	64.907741 
2851.000000	64.924407 
2850.000000	64.938569 
2849.000000	64.947748 
2848.000000	64.950561 
2847.000000	64.946818 
2846.000000	64.937639 
2845.000000	64.925265 
2844.000000	64.912652 
2843.000000	64.902997 
2842.000000	64.899086 
2841.000000	64.902806 
2840.000000	64.914655 
2839.000000	64.933848 
2838.000000	64.958214 
2837.000000	64.984774 
2836.000000	65.010046 
2835.000000	65.031027 
2834.000000	65.045332 
2833.000000	65.051651 
2832.000000	65.049791 
2831.000000	65.040516 
2830.000000	65.025305 
2829.000000	65.006160 
2828.000000	64.984965 
2827.000000	64.963483 
2826.000000	64.943075 
2825.000000	64.925003 
2824.000000	64.910125 
2823.000000	64.899086 
2822.000000	64.892268 
2821.000000	64.889812 
2820.000000	64.891409 
2819.000000	64.896559 
2818.000000	64.904284 
2817.000000	64.913392 
2816.000000	64.922785 
2815.000000	64.931559 
2814.000000	64.939260 
2813.000000	64.945673 
2812.000000	64.950728 
2811.000000	64.954376 
2810.000000	64.956498 
2809.000000	64.956784 
2808.000000	64.954829 
2807.000000	64.950275 
2806.000000	64.943003 
2805.000000	64.933347 
2804.000000	64.922285 
2803.000000	64.911150 
2802.000000	64.901566 
2801.000000	64.895129 
2800.000000	64.893102 
2799.000000	64.896225 
2798.000000	64.904451 
2797.000000	64.916872 
2796.000000	64.931869 
2795.000000	64.947557 
2794.000000	64.961886 
2793.000000	64.972949 
2792.000000	64.979290 
2791.000000	64.980173 
2790.000000	64.975929 
2789.000000	64.967823 
2788.000000	64.958047 
2787.000000	64.949440 
2786.000000	64.944672 
2785.000000	64.946007 
2784.000000	64.954423 
2783.000000	64.969491 
2782.000000	64.989495 
2781.000000	65.011501 
2780.000000	65.032315 
2779.000000	65.048956 
2778.000000	65.059256 
2777.000000	65.062260 
2776.000000	65.058112 
2775.000000	65.048217 
2774.000000	65.034389 
2773.000000	65.018534 
2772.000000	65.002250 
2771.000000	64.986681 
2770.000000	64.972519 
2769.000000	64.960002 
2768.000000	64.949297 
2767.000000	64.940595 
2766.000000	64.933872 
2765.000000	64.928984 
2764.000000	64.925384 
2763.000000	64.922356 
2762.000000	64.918923 
2761.000000	64.914441 
2760.000000	64.908504 
2759.000000	64.901375 
2758.000000	64.893579 
2757.000000	64.886355 
2756.000000	64.880800 
2755.000000	64.877963 
2754.000000	64.878320 
2753.000000	64.881992 
2752.000000	64.888334 
2751.000000	64.896535 
2750.000000	64.905619 
2749.000000	64.914870 
2748.000000	64.923739 
2747.000000	64.931988 
2746.000000	64.939546 
2745.000000	64.946556 
2744.000000	64.953041 
2743.000000	64.959096 
2742.000000	64.964795 
2741.000000	64.970350 
2740.000000	64.976119 
2739.000000	64.982366 
2738.000000	64.989280 
2737.000000	64.996814 
2736.000000	65.004658 
2735.000000	65.012288 
2734.000000	65.018892 
2733.000000	65.023851 
2732.000000	65.026569 
2731.000000	65.026712 
2730.000000	65.024304 
2729.000000	65.019607 
2728.000000	65.013241 
2727.000000	65.005946 
2726.000000	64.998722 
2725.000000	64.992570 
2724.000000	64.988684 
2723.000000	64.988207 
2722.000000	64.992260 
2721.000000	65.001630 
2720.000000	65.016341 
2719.000000	65.035748 
2718.000000	65.058135 
2717.000000	65.080976 
2716.000000	65.101408 
2715.000000	65.116882 
2714.000000	65.125489 
2713.000000	65.126395 
2712.000000	65.119934 
2711.000000	65.107536 
2710.000000	65.091180 
2709.000000	65.072965 
2708.000000	65.054917 
2707.000000	65.038466 
2706.000000	65.024399 
2705.000000	65.012907 
2704.000000	65.003871 
2703.000000	64.997029 
2702.000000	64.992094 
2701.000000	64.989066 
2700.000000	64.988112 
2699.000000	64.989542 
2698.000000	64.993500 
2697.000000	65.000033 
2696.000000	65.008783 
2695.000000	65.018916 
2694.000000	65.029311 
2693.000000	65.038323 
2692.000000	65.044236 
2691.000000	65.045499 
2690.000000	65.040922 
2689.000000	65.030360 
2688.000000	65.014624 
2687.000000	64.995574 
2686.000000	64.975690 
2685.000000	64.957714 
2684.000000	64.943861 
2683.000000	64.935350 
2682.000000	64.932107 
2681.000000	64.932847 
2680.000000	64.935541 
2679.000000	64.937829 
2678.000000	64.937925 
2677.000000	64.934706 
2676.000000	64.928460 
2675.000000	64.920401 
2674.000000	64.912605 
2673.000000	64.907169 
2672.000000	64.905762 
2671.000000	64.909243 
2670.000000	64.917349 
2669.000000	64.928674 
2668.000000	64.941120 
2667.000000	64.952421 
2666.000000	64.960455 
2665.000000	64.963698 
2664.000000	64.961409 
2663.000000	64.953660 
2662.000000	64.941382 
2661.000000	64.925956 
2660.000000	64.909029 
2659.000000	64.892172 
2658.000000	64.876866 
2657.000000	64.864230 
2656.000000	64.854884 
2655.000000	64.849114 
2654.000000	64.846634 
2653.000000	64.847016 
2652.000000	64.849519 
2651.000000	64.853453 
2650.000000	64.857864 
2649.000000	64.862298 
2648.000000	64.866495 
2647.000000	64.870667 
2646.000000	64.875292 
2645.000000	64.881229 
2644.000000	64.889144 
2643.000000	64.899802 
2642.000000	64.913415 
2641.000000	64.929676 
2640.000000	64.947795 
2639.000000	64.966583 
2638.000000	64.984679 
2637.000000	65.000844 
2636.000000	65.013980 
2635.000000	65.023255 
2634.000000	65.028095 
2633.000000	65.028214 
2632.000000	65.023350 
2631.000000	65.013408 
2630.000000	64.998531 
2629.000000	64.979052 
2628.000000	64.956021 
2627.000000	64.930820 
2626.000000	64.905571 
2625.000000	64.882659 
2624.000000	64.864659 
2623.000000	64.853858 
2622.000000	64.851880 
2621.000000	64.859127 
2620.000000	64.874911 
2619.000000	64.897131 
2618.000000	64.922881 
2617.000000	64.948630 
2616.000000	64.970827 
2615.000000	64.986634 
2614.000000	64.994454 
2613.000000	64.993977 
2612.000000	64.986562 
2611.000000	64.974665 
2610.000000	64.961576 
2609.000000	64.950609 
2608.000000	64.944338 
2607.000000	64.944124 
2606.000000	64.949798 
2605.000000	64.959812 
2604.000000	64.971756 
2603.000000	64.982795 
2602.000000	64.990496 
2601.000000	64.993262 
2600.000000	64.990472 
2599.000000	64.982557 
2598.000000	64.970779 
2597.000000	64.956641 
2596.000000	64.941573 
2595.000000	64.926743 
2594.000000	64.912796 
2593.000000	64.900088 
2592.000000	64.888739 
2591.000000	64.878845 
2590.000000	64.870691 
2589.000000	64.864611 
2588.000000	64.861035 
2587.000000	64.860200 
2586.000000	64.862012 
2585.000000	64.866065 
2584.000000	64.871573 
2583.000000	64.877724 
2582.000000	64.883661 
2581.000000	64.888596 
2580.000000	64.892148 
2579.000000	64.894199 
2578.000000	64.894890 
2577.000000	64.894533 
2576.000000	64.893436 
2575.000000	64.891886 
2574.000000	64.889860 
2573.000000	64.887523 
2572.000000	64.884757 
2571.000000	64.881443 
2570.000000	64.877367 
2569.000000	64.872336 
2568.000000	64.866185 
2567.000000	64.858698 
2566.000000	64.849972 
2565.000000	64.839768 
2564.000000	64.828372 
2563.000000	64.816188 
2562.000000	64.804100 
2561.000000	64.793014 
2560.000000	64.784026 
2559.000000	64.778161 
2558.000000	64.776229 
2557.000000	64.778375 
2556.000000	64.784502 
2555.000000	64.794015 
2554.000000	64.806151 
2553.000000	64.820051 
2552.000000	64.835000 
2551.000000	64.850449 
2550.000000	64.865922 
2549.000000	64.880919 
2548.000000	64.894628 
2547.000000	64.906096 
2546.000000	64.914083 
2545.000000	64.917492 
2544.000000	64.915800 
2543.000000	64.909172 
2542.000000	64.898753 
2541.000000	64.886641 
2540.000000	64.875674 
2539.000000	64.868664 
2538.000000	64.868068 
2537.000000	64.875245 
2536.000000	64.890074 
2535.000000	64.911150 
2534.000000	64.936161 
2533.000000	64.962434 
2532.000000	64.987492 
2531.000000	65.009617 
2530.000000	65.027999 
2529.000000	65.042638 
2528.000000	65.054059 
2527.000000	65.062761 
2526.000000	65.068817 
2525.000000	65.071749 
2524.000000	65.070557 
2523.000000	65.064048 
2522.000000	65.051412 
2521.000000	65.032601 
2520.000000	65.008783 
2519.000000	64.982318 
2518.000000	64.956593 
2517.000000	64.935135 
2516.000000	64.921116 
2515.000000	64.916515 
2514.000000	64.921784 
2513.000000	64.935660 
2512.000000	64.955425 
2511.000000	64.977407 
2510.000000	64.997720 
2509.000000	65.013051 
2508.000000	65.021109 
2507.000000	65.021157 
2506.000000	65.013694 
2505.000000	65.000391 
2504.000000	64.983487 
2503.000000	64.965319 
2502.000000	64.947843 
2501.000000	64.932274 
2500.000000	64.919161 
2499.000000	64.908647 
2498.000000	64.900517 
2497.000000	64.894461 
2496.000000	64.890217 
2495.000000	64.887690 
2494.000000	64.886856 
2493.000000	64.887547 
2492.000000	64.889526 
2491.000000	64.892482 
2490.000000	64.895939 
2489.000000	64.899539 
2488.000000	64.902925 
2487.000000	64.905810 
2486.000000	64.908123 
2485.000000	64.909696 
2484.000000	64.910435 
2483.000000	64.909815 
2482.000000	64.907336 
2481.000000	64.902305 
2480.000000	64.894056 
2479.000000	64.882302 
2478.000000	64.867210 
2477.000000	64.849472 
2476.000000	64.830541 
2475.000000	64.812135 
2474.000000	64.796161 
2473.000000	64.784049 
2472.000000	64.776444 
2471.000000	64.773273 
2470.000000	64.773678 
2469.000000	64.776325 
2468.000000	64.779853 
2467.000000	64.783191 
2466.000000	64.785838 
2465.000000	64.787769 
2464.000000	64.789247 
2463.000000	64.790654 
2462.000000	64.791989 
2461.000000	64.792728 
2460.000000	64.792108 
2459.000000	64.789104 
2458.000000	64.783143 
2457.000000	64.774441 
2456.000000	64.764165 
2455.000000	64.754366 
2454.000000	64.747548 
2453.000000	64.745998 
2452.000000	64.751195 
2451.000000	64.763188 
2450.000000	64.780855 
2449.000000	64.801979 
2448.000000	64.823842 
2447.000000	64.843797 
2446.000000	64.860057 
2445.000000	64.871811 
2444.000000	64.879393 
2443.000000	64.883875 
2442.000000	64.886808 
2441.000000	64.889717 
2440.000000	64.893794 
2439.000000	64.899730 
2438.000000	64.907670 
2437.000000	64.917278 
2436.000000	64.928078 
2435.000000	64.939379 
2434.000000	64.950561 
2433.000000	64.960837 
2432.000000	64.969515 
2431.000000	64.975786 
2430.000000	64.979124 
2429.000000	64.979195 
2428.000000	64.976072 
2427.000000	64.970040 
2426.000000	64.961910 
2425.000000	64.952564 
2424.000000	64.942908 
2423.000000	64.933514 
2422.000000	64.924716 
2421.000000	64.916372 
2420.000000	64.908123 
2419.000000	64.899444 
2418.000000	64.890003 
2417.000000	64.879751 
2416.000000	64.868903 
2415.000000	64.858055 
2414.000000	64.848184 
2413.000000	64.840126 
2412.000000	64.834356 
2411.000000	64.831233 
2410.000000	64.830517 
2409.000000	64.831805 
2408.000000	64.834475 
2407.000000	64.837861 
2406.000000	64.841604 
2405.000000	64.845442 
2404.000000	64.849400 
2403.000000	64.853453 
2402.000000	64.857578 
2401.000000	64.861464 
2400.000000	64.864683 
2399.000000	64.866876 
2398.000000	64.867615 
2397.000000	64.866662 
2396.000000	64.864039 
2395.000000	64.860010 
2394.000000	64.854907 
2393.000000	64.849162 
2392.000000	64.843034 
2391.000000	64.836573 
2390.000000	64.829659 
2389.000000	64.821958 
2388.000000	64.813041 
2387.000000	64.802455 
2386.000000	64.789986 
2385.000000	64.775633 
2384.000000	64.759778 
2383.000000	64.743232 
2382.000000	64.727163 
2381.000000	64.713168 
2380.000000	64.702916 
2379.000000	64.697933 
2378.000000	64.699435 
2377.000000	64.707684 
2376.000000	64.722180 
2375.000000	64.741325 
2374.000000	64.762544 
2373.000000	64.782977 
2372.000000	64.799785 
2371.000000	64.810967 
2370.000000	64.815568 
2369.000000	64.813899 
2368.000000	64.807367 
2367.000000	64.798045 
2366.000000	64.788269 
2365.000000	64.779806 
2364.000000	64.773440 
2363.000000	64.769053 
2362.000000	64.765667 
2361.000000	64.761781 
2360.000000	64.755892 
2359.000000	64.746928 
2358.000000	64.735007 
2357.000000	64.721035 
2356.000000	64.706826 
2355.000000	64.694690 
2354.000000	64.686846 
2353.000000	64.684915 
2352.000000	64.689660 
2351.000000	64.700651 
2350.000000	64.716362 
2349.000000	64.734649 
2348.000000	64.753150 
2347.000000	64.769530 
2346.000000	64.782333 
2345.000000	64.790892 
2344.000000	64.795827 
2343.000000	64.798355 
2342.000000	64.800214 
2341.000000	64.803075 
2340.000000	64.808225 
2339.000000	64.815998 
2338.000000	64.825987 
2337.000000	64.837169 
2336.000000	64.848136 
2335.000000	64.857745 
2334.000000	64.865279 
2333.000000	64.870834 
2332.000000	64.875221 
2331.000000	64.879512 
2330.000000	64.884686 
2329.000000	64.891147 
2328.000000	64.898395 
2327.000000	64.905071 
2326.000000	64.909315 
2325.000000	64.909243 
2324.000000	64.903640 
2323.000000	64.892315 
2322.000000	64.876174 
2321.000000	64.857244 
2320.000000	64.838171 
2319.000000	64.821743 
2318.000000	64.810085 
2317.000000	64.804244 
2316.000000	64.804172 
2315.000000	64.808464 
2314.000000	64.815068 
2313.000000	64.821386 
2312.000000	64.825153 
2311.000000	64.824676 
2310.000000	64.819192 
2309.000000	64.808845 
2308.000000	64.794683 
2307.000000	64.778399 
2306.000000	64.761900 
2305.000000	64.747023 
2304.000000	64.735126 
2303.000000	64.726758 
2302.000000	64.721798 
2301.000000	64.719510 
2300.000000	64.718866 
2299.000000	64.718818 
2298.000000	64.719009 
2297.000000	64.719629 
2296.000000	64.721655 
2295.000000	64.726328 
2294.000000	64.735198 
2293.000000	64.749169 
2292.000000	64.768648 
2291.000000	64.793014 
2290.000000	64.820837 
2289.000000	64.850163 
2288.000000	64.878606 
2287.000000	64.904046 
2286.000000	64.924836 
2285.000000	64.940071 
2284.000000	64.949417 
2283.000000	64.952898 
2282.000000	64.950919 
2281.000000	64.943909 
2280.000000	64.932417 
2279.000000	64.916920 
2278.000000	64.898252 
2277.000000	64.877510 
2276.000000	64.856028 
2275.000000	64.835548 
2274.000000	64.817857 
2273.000000	64.804649 
2272.000000	64.797329 
2271.000000	64.796710 
2270.000000	64.802837 
2269.000000	64.814925 
2268.000000	64.831280 
2267.000000	64.849638 
2266.000000	64.867329 
2265.000000	64.881706 
2264.000000	64.890575 
2263.000000	64.892554 
2262.000000	64.887332 
2261.000000	64.875841 
2260.000000	64.860105 
2259.000000	64.842915 
2258.000000	64.827179 
2257.000000	64.815545 
2256.000000	64.809894 
2255.000000	64.810895 
2254.000000	64.818024 
2253.000000	64.829754 
2252.000000	64.844036 
2251.000000	64.858818 
2250.000000	64.872169 
2249.000000	64.882659 
2248.000000	64.889550 
2247.000000	64.892411 
2246.000000	64.891338 
2245.000000	64.886522 
2244.000000	64.878582 
2243.000000	64.868354 
2242.000000	64.856886 
2241.000000	64.845442 
2240.000000	64.835405 
2239.000000	64.828252 
2238.000000	64.824914 
2237.000000	64.825820 
2236.000000	64.830541 
2235.000000	64.837861 
2234.000000	64.845943 
2233.000000	64.852738 
2232.000000	64.856433 
2231.000000	64.855813 
2230.000000	64.850640 
2229.000000	64.841580 
2228.000000	64.830040 
2227.000000	64.817833 
2226.000000	64.806938 
2225.000000	64.798760 
2224.000000	64.794111 
2223.000000	64.792895 
2222.000000	64.794158 
2221.000000	64.796352 
2220.000000	64.797592 
2219.000000	64.796209 
2218.000000	64.791059 
2217.000000	64.782094 
2216.000000	64.769911 
2215.000000	64.756250 
2214.000000	64.743280 
2213.000000	64.733529 
2212.000000	64.729070 
2211.000000	64.731168 
2210.000000	64.740085 
2209.000000	64.754986 
2208.000000	64.774179 
2207.000000	64.795374 
2206.000000	64.816260 
2205.000000	64.834690 
2204.000000	64.849257 
2203.000000	64.859151 
2202.000000	64.864277 
2201.000000	64.864921 
2200.000000	64.861536 
2199.000000	64.854812 
2198.000000	64.845395 
2197.000000	64.834189 
2196.000000	64.821982 
2195.000000	64.809751 
2194.000000	64.798307 
2193.000000	64.788508 
2192.000000	64.780712 
2191.000000	64.774894 
2190.000000	64.770531 
2189.000000	64.766669 
2188.000000	64.761996 
2187.000000	64.755415 
2186.000000	64.746165 
2185.000000	64.734101 
2184.000000	64.719891 
2183.000000	64.704847 
2182.000000	64.690899 
2181.000000	64.679861 
2180.000000	64.673209 
2179.000000	64.671254 
2178.000000	64.673304 
2177.000000	64.677810 
2176.000000	64.682865 
2175.000000	64.686846 
2174.000000	64.688968 
2173.000000	64.689278 
2172.000000	64.688849 
2171.000000	64.689254 
2170.000000	64.691877 
2169.000000	64.697623 
2168.000000	64.706563 
2167.000000	64.717888 
2166.000000	64.730143 
2165.000000	64.741444 
2164.000000	64.749693 
2163.000000	64.753127 
2162.000000	64.750409 
2161.000000	64.741373 
2160.000000	64.726710 
2159.000000	64.708304 
2158.000000	64.688873 
2157.000000	64.671564 
2156.000000	64.659309 
2155.000000	64.654421 
2154.000000	64.657926 
2153.000000	64.669537 
2152.000000	64.687609 
2151.000000	64.709615 
2150.000000	64.732503 
2149.000000	64.753460 
2148.000000	64.770221 
2147.000000	64.781713 
2146.000000	64.787960 
2145.000000	64.789962 
2144.000000	64.789295 
2143.000000	64.787673 
2142.000000	64.786410 
2141.000000	64.786171 
2140.000000	64.786791 
2139.000000	64.787554 
2138.000000	64.787435 
2137.000000	64.785647 
2136.000000	64.781761 
2135.000000	64.776182 
2134.000000	64.769649 
2133.000000	64.763474 
2132.000000	64.758634 
2131.000000	64.755797 
2130.000000	64.754796 
2129.000000	64.754891 
2128.000000	64.754652 
2127.000000	64.752769 
2126.000000	64.748239 
2125.000000	64.740753 
2124.000000	64.731073 
2123.000000	64.720678 
2122.000000	64.711618 
2121.000000	64.705991 
2120.000000	64.705348 
2119.000000	64.710211 
2118.000000	64.719939 
2117.000000	64.732933 
2116.000000	64.746737 
2115.000000	64.758658 
2114.000000	64.766502 
2113.000000	64.769077 
2112.000000	64.766168 
2111.000000	64.758825 
2110.000000	64.748787 
2109.000000	64.738297 
2108.000000	64.729309 
2107.000000	64.723157 
2106.000000	64.720678 
2105.000000	64.721727 
2104.000000	64.725732 
2103.000000	64.731502 
2102.000000	64.737868 
2101.000000	64.743518 
2100.000000	64.747405 
2099.000000	64.748835 
2098.000000	64.747285 
2097.000000	64.742708 
2096.000000	64.735269 
2095.000000	64.725470 
2094.000000	64.714169 
2093.000000	64.702439 
2092.000000	64.691472 
2091.000000	64.682245 
2090.000000	64.675593 
2089.000000	64.671874 
2088.000000	64.671039 
2087.000000	64.672851 
2086.000000	64.676785 
2085.000000	64.682340 
2084.000000	64.688777 
2083.000000	64.695310 
2082.000000	64.701223 
2081.000000	64.705562 
2080.000000	64.707589 
2079.000000	64.706802 
2078.000000	64.703154 
2077.000000	64.697074 
2076.000000	64.689397 
2075.000000	64.681172 
2074.000000	64.673233 
2073.000000	64.666199 
2072.000000	64.660191 
2071.000000	64.654850 
2070.000000	64.649653 
2069.000000	64.643955 
2068.000000	64.637517 
2067.000000	64.630699 
2066.000000	64.624309 
2065.000000	64.619493 
2064.000000	64.617276 
2063.000000	64.618277 
2062.000000	64.622354 
2061.000000	64.628815 
2060.000000	64.636540 
2059.000000	64.644360 
2058.000000	64.651560 
2057.000000	64.657950 
2056.000000	64.663958 
2055.000000	64.670443 
2054.000000	64.678215 
2053.000000	64.687633 
2052.000000	64.698553 
2051.000000	64.710140 
2050.000000	64.721155 
2049.000000	64.730095 
2048.000000	64.735865 
2047.000000	64.737820 
2046.000000	64.736104 
2045.000000	64.731574 
2044.000000	64.725542 
2043.000000	64.719581 
2042.000000	64.714932 
2041.000000	64.712333 
2040.000000	64.711856 
2039.000000	64.712953 
2038.000000	64.714765 
2037.000000	64.716339 
2036.000000	64.716935 
2035.000000	64.716219 
2034.000000	64.714336 
2033.000000	64.711713 
2032.000000	64.708971 
2031.000000	64.706659 
2030.000000	64.705014 
2029.000000	64.704203 
2028.000000	64.703989 
2027.000000	64.704298 
2026.000000	64.704799 
2025.000000	64.705562 
2024.000000	64.706754 
2023.000000	64.708614 
2022.000000	64.711308 
2021.000000	64.714789 
2020.000000	64.718794 
2019.000000	64.722847 
2018.000000	64.726471 
2017.000000	64.729356 
2016.000000	64.731478 
2015.000000	64.733171 
2014.000000	64.735078 
2013.000000	64.737987 
2012.000000	64.742541 
2011.000000	64.748978 
2010.000000	64.757108 
2009.000000	64.766359 
2008.000000	64.775776 
2007.000000	64.784240 
2006.000000	64.790534 
2005.000000	64.793562 
2004.000000	64.792585 
2003.000000	64.787220 
2002.000000	64.777684 
2001.000000	64.764642 
2000.000000	64.749455 
1999.000000	64.733767 
1998.000000	64.719676 
1997.000000	64.709329 
1996.000000	64.704585 
1995.000000	64.706754 
1994.000000	64.716291 
1993.000000	64.732646 
1992.000000	64.754056 
1991.000000	64.777851 
1990.000000	64.800858 
1989.000000	64.819836 
1988.000000	64.831829 
1987.000000	64.834737 
1986.000000	64.827799 
1985.000000	64.811468 
1984.000000	64.787435 
1983.000000	64.758515 
1982.000000	64.728021 
1981.000000	64.699387 
1980.000000	64.675688 
1979.000000	64.659261 
1978.000000	64.651107 
1977.000000	64.651107 
1976.000000	64.657974 
1975.000000	64.669609 
1974.000000	64.683485 
1973.000000	64.697241 
1972.000000	64.708757 
1971.000000	64.716672 
1970.000000	64.720392 
1969.000000	64.719963 
1968.000000	64.715981 
1967.000000	64.709067 
1966.000000	64.699769 
1965.000000	64.688539 
1964.000000	64.675450 
1963.000000	64.660644 
1962.000000	64.644193 
1961.000000	64.626622 
1960.000000	64.608764 
1959.000000	64.591956 
1958.000000	64.577579 
1957.000000	64.566993 
1956.000000	64.561319 
1955.000000	64.561104 
1954.000000	64.566063 
1953.000000	64.575338 
1952.000000	64.587402 
1951.000000	64.600324 
1950.000000	64.612293 
1949.000000	64.621782 
1948.000000	64.627909 
1947.000000	64.630699 
1946.000000	64.630746 
1945.000000	64.629411 
1944.000000	64.628076 
1943.000000	64.628195 
1942.000000	64.630770 
1941.000000	64.636278 
1940.000000	64.644622 
1939.000000	64.655065 
1938.000000	64.666533 
1937.000000	64.677762 
1936.000000	64.687514 
1935.000000	64.694547 
1934.000000	64.697980 
1933.000000	64.697217 
1932.000000	64.692258 
1931.000000	64.683365 
1930.000000	64.671444 
1929.000000	64.657783 
1928.000000	64.643812 
1927.000000	64.631080 
1926.000000	64.620661 
1925.000000	64.613223 
1924.000000	64.608550 
1923.000000	64.605617 
1922.000000	64.602994 
1921.000000	64.599013 
1920.000000	64.592480 
1919.000000	64.582800 
1918.000000	64.570617 
1917.000000	64.557552 
1916.000000	64.546012 
1915.000000	64.538598 
1914.000000	64.537620 
1913.000000	64.544367 
1912.000000	64.558792 
1911.000000	64.579439 
1910.000000	64.603352 
1909.000000	64.626812 
1908.000000	64.645957 
1907.000000	64.657402 
1906.000000	64.659023 
1905.000000	64.650321 
1904.000000	64.632344 
1903.000000	64.607405 
1902.000000	64.578771 
1901.000000	64.549684 
1900.000000	64.523053 
1899.000000	64.500927 
1898.000000	64.484310 
1897.000000	64.473152 
1896.000000	64.466834 
1895.000000	64.464306 
1894.000000	64.464259 
1893.000000	64.465570 
1892.000000	64.467096 
1891.000000	64.468431 
1890.000000	64.469146 
1889.000000	64.469456 
1888.000000	64.469718 
1887.000000	64.470648 
1886.000000	64.472794 
1885.000000	64.476656 
1884.000000	64.482593 
1883.000000	64.490556 
1882.000000	64.500069 
1881.000000	64.510273 
1880.000000	64.520168 
1879.000000	64.528656 
1878.000000	64.534950 
1877.000000	64.538502 
1876.000000	64.539265 
1875.000000	64.537692 
1874.000000	64.534687 
1873.000000	64.531397 
1872.000000	64.529132 
1871.000000	64.529109 
1870.000000	64.532232 
1869.000000	64.539098 
1868.000000	64.549779 
1867.000000	64.563798 
1866.000000	64.580225 
1865.000000	64.597797 
1864.000000	64.615130 
1863.000000	64.630985 
1862.000000	64.644575 
1861.000000	64.655399 
1860.000000	64.663600 
1859.000000	64.669632 
1858.000000	64.674162 
1857.000000	64.677858 
1856.000000	64.680981 
1855.000000	64.683532 
1854.000000	64.685201 
1853.000000	64.685440 
1852.000000	64.683842 
1851.000000	64.680314 
1850.000000	64.675140 
1849.000000	64.669013 
1848.000000	64.662957 
1847.000000	64.657950 
1846.000000	64.654707 
1845.000000	64.653444 
1844.000000	64.653873 
1843.000000	64.655160 
1842.000000	64.656162 
1841.000000	64.655613 
1840.000000	64.652657 
1839.000000	64.646863 
1838.000000	64.638376 
1837.000000	64.627742 
1836.000000	64.615893 
1835.000000	64.603924 
1834.000000	64.592766 
1833.000000	64.583110 
1832.000000	64.575386 
1831.000000	64.569759 
1830.000000	64.566063 
1829.000000	64.564085 
1828.000000	64.563441 
1827.000000	64.563775 
1826.000000	64.564752 
1825.000000	64.566111 
1824.000000	64.567637 
1823.000000	64.569330 
1822.000000	64.571213 
1821.000000	64.573359 
1820.000000	64.575719 
1819.000000	64.578223 
1818.000000	64.580583 
1817.000000	64.582419 
1816.000000	64.583253 
1815.000000	64.582657 
1814.000000	64.580702 
1813.000000	64.577746 
1812.000000	64.574623 
1811.000000	64.572405 
1810.000000	64.572215 
1809.000000	64.574766 
1808.000000	64.580130 
1807.000000	64.587545 
1806.000000	64.595627 
1805.000000	64.602422 
1804.000000	64.606142 
1803.000000	64.605498 
1802.000000	64.600038 
1801.000000	64.590334 
1800.000000	64.577817 
1799.000000	64.564442 
1798.000000	64.552330 
1797.000000	64.543318 
1796.000000	64.538645 
1795.000000	64.538574 
1794.000000	64.542794 
1793.000000	64.550256 
1792.000000	64.559698 
1791.000000	64.569735 
1790.000000	64.579224 
1789.000000	64.587259 
1788.000000	64.593219 
1787.000000	64.596724 
1786.000000	64.597678 
1785.000000	64.596152 
1784.000000	64.592552 
1783.000000	64.587068 
1782.000000	64.580273 
1781.000000	64.572668 
1780.000000	64.564633 
1779.000000	64.556503 
1778.000000	64.548444 
1777.000000	64.540266 
1776.000000	64.531803 
1775.000000	64.522552 
1774.000000	64.512205 
1773.000000	64.500546 
1772.000000	64.487504 
1771.000000	64.473319 
1770.000000	64.458417 
1769.000000	64.443302 
1768.000000	64.428734 
1767.000000	64.415383 
1766.000000	64.403986 
1765.000000	64.395117 
1764.000000	64.389324 
1763.000000	64.386796 
1762.000000	64.387583 
1761.000000	64.391160 
1760.000000	64.396691 
1759.000000	64.402961 
1758.000000	64.408636 
1757.000000	64.412355 
1756.000000	64.413022 
1755.000000	64.409899 
1754.000000	64.402961 
1753.000000	64.392685 
1752.000000	64.380121 
1751.000000	64.366340 
1750.000000	64.352488 
1749.000000	64.339518 
1748.000000	64.328265 
1747.000000	64.319205 
1746.000000	64.312601 
1745.000000	64.308738 
1744.000000	64.307761 
1743.000000	64.309692 
1742.000000	64.314270 
1741.000000	64.321017 
1740.000000	64.329051 
1739.000000	64.337229 
1738.000000	64.344143 
1737.000000	64.348649 
1736.000000	64.349937 
1735.000000	64.347982 
1734.000000	64.343333 
1733.000000	64.337253 
1732.000000	64.331269 
1731.000000	64.326953 
1730.000000	64.325404 
1729.000000	64.327239 
1728.000000	64.332389 
1727.000000	64.340329 
1726.000000	64.350247 
1725.000000	64.361214 
1724.000000	64.372324 
1723.000000	64.382910 
1722.000000	64.392375 
1721.000000	64.400386 
1720.000000	64.406657 
1719.000000	64.411020 
1718.000000	64.413404 
1717.000000	64.413833 
1716.000000	64.412379 
1715.000000	64.409136 
1714.000000	64.404439 
1713.000000	64.398574 
1712.000000	64.391803 
1711.000000	64.384222 
1710.000000	64.375925 
1709.000000	64.366888 
1708.000000	64.357089 
1707.000000	64.346623 
1706.000000	64.335775 
1705.000000	64.325094 
1704.000000	64.315414 
1703.000000	64.307618 
1702.000000	64.302754 
1701.000000	64.301681 
1700.000000	64.304971 
1699.000000	64.312815 
1698.000000	64.324688 
1697.000000	64.339542 
1696.000000	64.355754 
1695.000000	64.371347 
1694.000000	64.384317 
1693.000000	64.392948 
1692.000000	64.395999 
1691.000000	64.392924 
1690.000000	64.383935 
1689.000000	64.369988 
1688.000000	64.352440 
1687.000000	64.332962 
1686.000000	64.313220 
1685.000000	64.294743 
1684.000000	64.278626 
1683.000000	64.265775 
1682.000000	64.256596 
1681.000000	64.251112 
1680.000000	64.249134 
1679.000000	64.250206 
1678.000000	64.253520 
1677.000000	64.258313 
1676.000000	64.263725 
1675.000000	64.269328 
1674.000000	64.274978 
1673.000000	64.281296 
1672.000000	64.289069 
1671.000000	64.299345 
1670.000000	64.313173 
1669.000000	64.331007 
1668.000000	64.352464 
1667.000000	64.376235 
1666.000000	64.400243 
1665.000000	64.421939 
1664.000000	64.438748 
1663.000000	64.448714 
1662.000000	64.450764 
1661.000000	64.444923 
1660.000000	64.432406 
1659.000000	64.415168 
1658.000000	64.395499 
1657.000000	64.375758 
1656.000000	64.358019 
1655.000000	64.344048 
1654.000000	64.335060 
1653.000000	64.332103 
1652.000000	64.335536 
1651.000000	64.345431 
1650.000000	64.360857 
1649.000000	64.380240 
1648.000000	64.400959 
1647.000000	64.419889 
1646.000000	64.433526 
1645.000000	64.438629 
1644.000000	64.433240 
1643.000000	64.416885 
1642.000000	64.391160 
1641.000000	64.359235 
1640.000000	64.325642 
1639.000000	64.295291 
1638.000000	64.272332 
1637.000000	64.259481 
1636.000000	64.257645 
1635.000000	64.265680 
1634.000000	64.280819 
1633.000000	64.299392 
1632.000000	64.317488 
1631.000000	64.331912 
1630.000000	64.340472 
1629.000000	64.342570 
1628.000000	64.339017 
1627.000000	64.331817 
1626.000000	64.323520 
1625.000000	64.316773 
1624.000000	64.313578 
1623.000000	64.314866 
1622.000000	64.320564 
1621.000000	64.329528 
1620.000000	64.339804 
1619.000000	64.349222 
1618.000000	64.355802 
1617.000000	64.358305 
1616.000000	64.356446 
1615.000000	64.350986 
1614.000000	64.343428 
1613.000000	64.335584 
1612.000000	64.329171 
1611.000000	64.325261 
1610.000000	64.324116 
1609.000000	64.325332 
1608.000000	64.327931 
1607.000000	64.330744 
1606.000000	64.332962 
1605.000000	64.333915 
1604.000000	64.333438 
1603.000000	64.331793 
1602.000000	64.329433 
1601.000000	64.327025 
1600.000000	64.325022 
1599.000000	64.323711 
1598.000000	64.323091 
1597.000000	64.322924 
1596.000000	64.322876 
1595.000000	64.322495 
1594.000000	64.321494 
1593.000000	64.319896 
1592.000000	64.317750 
1591.000000	64.315462 
1590.000000	64.313435 
1589.000000	64.312195 
1588.000000	64.311981 
1587.000000	64.312696 
1586.000000	64.313721 
1585.000000	64.313960 
1584.000000	64.312076 
1583.000000	64.306879 
1582.000000	64.297890 
1581.000000	64.285516 
1580.000000	64.271259 
1579.000000	64.257502 
1578.000000	64.246892 
1577.000000	64.241886 
1576.000000	64.243817 
1575.000000	64.252638 
1574.000000	64.267086 
1573.000000	64.284920 
1572.000000	64.303350 
1571.000000	64.319872 
1570.000000	64.332509 
1569.000000	64.340305 
1568.000000	64.343094 
1567.000000	64.341521 
1566.000000	64.336395 
1565.000000	64.328932 
1564.000000	64.320039 
1563.000000	64.310812 
1562.000000	64.302253 
1561.000000	64.295578 
1560.000000	64.292287 
1559.000000	64.293718 
1558.000000	64.300799 
1557.000000	64.313817 
1556.000000	64.331984 
1555.000000	64.353537 
1554.000000	64.375901 
1553.000000	64.396262 
1552.000000	64.411854 
1551.000000	64.420700 
1550.000000	64.421796 
1549.000000	64.415287 
1548.000000	64.402365 
1547.000000	64.384913 
1546.000000	64.365220 
1545.000000	64.345455 
1544.000000	64.327311 
1543.000000	64.311718 
1542.000000	64.298987 
1541.000000	64.288783 
1540.000000	64.280486 
1539.000000	64.273571 
1538.000000	64.268088 
1537.000000	64.264130 
1536.000000	64.262366 
1535.000000	64.263486 
1534.000000	64.268088 
1533.000000	64.276266 
1532.000000	64.287757 
1531.000000	64.301538 
1530.000000	64.316225 
1529.000000	64.330124 
1528.000000	64.341664 
1527.000000	64.349460 
1526.000000	64.352583 
1525.000000	64.350652 
1524.000000	64.343762 
1523.000000	64.332365 
1522.000000	64.317297 
1521.000000	64.299535 
1520.000000	64.280128 
1519.000000	64.260196 
1518.000000	64.240884 
1517.000000	64.223313 
1516.000000	64.208269 
1515.000000	64.196324 
1514.000000	64.187645 
1513.000000	64.182329 
1512.000000	64.180064 
1511.000000	64.180469 
1510.000000	64.183139 
1509.000000	64.188003 
1508.000000	64.194917 
1507.000000	64.204049 
1506.000000	64.215350 
1505.000000	64.228749 
1504.000000	64.243888 
1503.000000	64.259982 
1502.000000	64.275836 
1501.000000	64.290237 
1500.000000	64.301967 
1499.000000	64.310145 
1498.000000	64.314341 
1497.000000	64.314746 
1496.000000	64.312052 
1495.000000	64.307355 
1494.000000	64.301824 
1493.000000	64.296460 
1492.000000	64.291787 
1491.000000	64.287948 
1490.000000	64.284753 
1489.000000	64.281821 
1488.000000	64.278841 
1487.000000	64.276003 
1486.000000	64.273762 
1485.000000	64.272809 
1484.000000	64.273929 
1483.000000	64.277696 
1482.000000	64.284324 
1481.000000	64.293503 
1480.000000	64.304494 
1479.000000	64.315986 
1478.000000	64.326333 
1477.000000	64.333796 
1476.000000	64.336681 
1475.000000	64.333605 
1474.000000	64.323925 
1473.000000	64.307880 
1472.000000	64.286684 
1471.000000	64.262199 
1470.000000	64.236760 
1469.000000	64.212846 
1468.000000	64.192628 
1467.000000	64.177680 
1466.000000	64.168953 
1465.000000	64.166665 
1464.000000	64.170360 
1463.000000	64.179420 
1462.000000	64.192748 
1461.000000	64.209222 
1460.000000	64.227557 
1459.000000	64.246368 
1458.000000	64.264035 
1457.000000	64.278912 
1456.000000	64.289402 
1455.000000	64.294171 
1454.000000	64.292407 
1453.000000	64.283990 
1452.000000	64.269685 
1451.000000	64.250802 
1450.000000	64.229130 
1449.000000	64.206576 
1448.000000	64.184999 
1447.000000	64.165973 
1446.000000	64.150762 
1445.000000	64.140415 
1444.000000	64.135622 
1443.000000	64.136862 
1442.000000	64.144372 
1441.000000	64.157938 
1440.000000	64.176893 
1439.000000	64.199924 
1438.000000	64.225339 
1437.000000	64.251017 
1436.000000	64.274764 
1435.000000	64.294648 
1434.000000	64.309120 
1433.000000	64.317440 
1432.000000	64.319443 
1431.000000	64.315795 
1430.000000	64.307427 
1429.000000	64.295673 
1428.000000	64.281725 
1427.000000	64.266967 
1426.000000	64.252448 
1425.000000	64.239096 
1424.000000	64.227581 
1423.000000	64.218378 
1422.000000	64.211821 
1421.000000	64.207983 
1420.000000	64.206624 
1419.000000	64.207267 
1418.000000	64.209342 
1417.000000	64.212393 
1416.000000	64.215970 
1415.000000	64.219951 
1414.000000	64.224314 
1413.000000	64.229154 
1412.000000	64.234495 
1411.000000	64.239931 
1410.000000	64.244771 
1409.000000	64.247989 
1408.000000	64.248633 
1407.000000	64.245820 
1406.000000	64.239239 
1405.000000	64.229130 
1404.000000	64.216375 
1403.000000	64.202284 
1402.000000	64.188170 
1401.000000	64.175081 
1400.000000	64.163732 
1399.000000	64.154410 
1398.000000	64.146947 
1397.000000	64.141178 
1396.000000	64.136958 
1395.000000	64.134621 
1394.000000	64.134693 
1393.000000	64.137887 
1392.000000	64.144730 
1391.000000	64.155268 
1390.000000	64.168858 
1389.000000	64.184212 
1388.000000	64.199542 
1387.000000	64.212870 
1386.000000	64.222598 
1385.000000	64.227795 
1384.000000	64.228582 
1383.000000	64.225792 
1382.000000	64.220952 
1381.000000	64.215946 
1380.000000	64.212346 
1379.000000	64.211511 
1378.000000	64.213657 
1377.000000	64.218401 
1376.000000	64.224386 
1375.000000	64.230108 
1374.000000	64.233875 
1373.000000	64.234161 
1372.000000	64.230155 
1371.000000	64.221692 
1370.000000	64.209461 
1369.000000	64.194798 
1368.000000	64.179563 
1367.000000	64.165759 
1366.000000	64.155173 
1365.000000	64.148974 
1364.000000	64.147663 
1363.000000	64.150667 
1362.000000	64.156603 
1361.000000	64.163517 
1360.000000	64.169144 
1359.000000	64.171433 
1358.000000	64.169001 
1357.000000	64.161467 
1356.000000	64.149570 
1355.000000	64.135074 
1354.000000	64.120626 
1353.000000	64.109039 
1352.000000	64.102792 
1351.000000	64.103484 
1350.000000	64.111328 
1349.000000	64.125084 
1348.000000	64.142274 
1347.000000	64.159488 
1346.000000	64.173054 
1345.000000	64.179611 
1344.000000	64.176988 
1343.000000	64.164519 
1342.000000	64.143276 
1341.000000	64.115881 
1340.000000	64.085888 
1339.000000	64.057064 
1338.000000	64.032649 
1337.000000	64.014840 
1336.000000	64.004635 
1335.000000	64.001798 
1334.000000	64.005231 
1333.000000	64.013385 
1332.000000	64.024734 
1331.000000	64.037823 
1330.000000	64.051604 
1329.000000	64.064979 
1328.000000	64.077138 
1327.000000	64.087247 
1326.000000	64.094400 
1325.000000	64.098000 
1324.000000	64.097619 
1323.000000	64.093470 
1322.000000	64.086103 
1321.000000	64.076709 
1320.000000	64.066600 
1319.000000	64.057064 
1318.000000	64.049124 
1317.000000	64.043331 
1316.000000	64.040088 
1315.000000	64.039874 
1314.000000	64.043116 
1313.000000	64.050197 
1312.000000	64.061260 
1311.000000	64.076161 
1310.000000	64.093971 
1309.000000	64.113092 
1308.000000	64.131236 
1307.000000	64.146041 
1306.000000	64.155554 
1305.000000	64.158773 
1304.000000	64.155960 
1303.000000	64.148354 
1302.000000	64.138150 
1301.000000	64.127731 
1300.000000	64.118862 
1299.000000	64.112472 
1298.000000	64.108395 
1297.000000	64.105868 
1296.000000	64.103674 
1295.000000	64.100790 
1294.000000	64.096975 
1293.000000	64.092302 
1292.000000	64.087343 
1291.000000	64.082407 
1290.000000	64.077281 
1289.000000	64.071059 
1288.000000	64.062380 
1287.000000	64.049983 
1286.000000	64.033102 
1285.000000	64.011955 
1284.000000	63.988018 
1283.000000	63.963818 
1282.000000	63.942337 
1281.000000	63.926219 
1280.000000	63.917374 
1279.000000	63.916182 
1278.000000	63.921856 
1277.000000	63.932895 
1276.000000	63.947868 
1275.000000	63.965606 
1274.000000	63.985800 
1273.000000	64.008903 
1272.000000	64.035606 
1271.000000	64.066195 
1270.000000	64.099717 
1269.000000	64.133954 
1268.000000	64.165353 
1267.000000	64.189791 
1266.000000	64.203405 
1265.000000	64.203643 
1264.000000	64.189982 
1263.000000	64.164400 
1262.000000	64.130830 
1261.000000	64.094424 
1260.000000	64.060688 
1259.000000	64.034295 
1258.000000	64.018630 
1257.000000	64.015173 
1256.000000	64.023566 
1255.000000	64.041948 
1254.000000	64.067006 
1253.000000	64.094829 
1252.000000	64.120984 
1251.000000	64.141678 
1250.000000	64.153981 
1249.000000	64.156293 
1248.000000	64.148712 
1247.000000	64.132690 
1246.000000	64.111018 
1245.000000	64.086914 
1244.000000	64.063501 
1243.000000	64.043116 
1242.000000	64.027166 
1241.000000	64.016032 
1240.000000	64.009189 
1239.000000	64.005661 
1238.000000	64.004397 
1237.000000	64.004659 
1236.000000	64.006066 
1235.000000	64.008688 
1234.000000	64.012527 
1233.000000	64.017486 
1232.000000	64.022922 
1231.000000	64.027786 
1230.000000	64.030694 
1229.000000	64.030575 
1228.000000	64.026761 
1227.000000	64.019298 
1226.000000	64.008808 
1225.000000	63.996315 
1224.000000	63.983106 
1223.000000	63.970017 
1222.000000	63.957428 
1221.000000	63.945102 
1220.000000	63.932394 
1219.000000	63.918685 
1218.000000	63.904047 
1217.000000	63.889169 
1216.000000	63.875889 
1215.000000	63.866353 
1214.000000	63.863015 
1213.000000	63.867783 
1212.000000	63.881349 
1211.000000	63.902568 
1210.000000	63.928818 
1209.000000	63.956236 
1208.000000	63.980746 
1207.000000	63.999032 
1206.000000	64.008998 
1205.000000	64.010596 
1204.000000	64.005398 
1203.000000	63.996124 
1202.000000	63.986015 
1201.000000	63.977766 
1200.000000	63.973093 
1199.000000	63.972306 
1198.000000	63.974523 
1197.000000	63.977980 
1196.000000	63.980793 
1195.000000	63.981556 
1194.000000	63.979482 
1193.000000	63.975024 
1192.000000	63.969540 
1191.000000	63.965058 
1190.000000	63.963770 
1189.000000	63.967370 
1188.000000	63.977026 
1187.000000	63.992738 
1186.000000	64.013648 
1185.000000	64.037728 
1184.000000	64.062500 
1183.000000	64.085078 
1182.000000	64.102911 
1181.000000	64.114260 
1180.000000	64.118623 
1179.000000	64.116716 
1178.000000	64.110064 
1177.000000	64.100813 
1176.000000	64.091014 
1175.000000	64.082002 
1174.000000	64.074039 
1173.000000	64.066481 
1172.000000	64.058184 
1171.000000	64.047741 
1170.000000	64.034175 
1169.000000	64.016842 
1168.000000	63.995718 
1167.000000	63.971400 
1166.000000	63.945031 
1165.000000	63.918185 
1164.000000	63.892745 
1163.000000	63.870620 
1162.000000	63.853526 
1161.000000	63.842511 
1160.000000	63.837885 
1159.000000	63.839125 
1158.000000	63.844895 
1157.000000	63.853430 
1156.000000	63.862657 
1155.000000	63.870525 
1154.000000	63.874888 
1153.000000	63.873791 
1152.000000	63.865566 
1151.000000	63.848996 
1150.000000	63.824272 
1149.000000	63.793063 
1148.000000	63.758587 
1147.000000	63.725256 
1146.000000	63.697719 
1145.000000	63.680195 
1144.000000	63.675308 
1143.000000	63.683700 
1142.000000	63.704133 
1141.000000	63.733696 
1140.000000	63.768649 
1139.000000	63.805270 
1138.000000	63.840055 
1137.000000	63.870549 
1136.000000	63.895082 
1135.000000	63.913321 
1134.000000	63.925528 
1133.000000	63.932728 
1132.000000	63.936495 
1131.000000	63.938307 
1130.000000	63.939571 
1129.000000	63.941168 
1128.000000	63.943791 
1127.000000	63.947391 
1126.000000	63.951539 
1125.000000	63.955378 
1124.000000	63.957738 
1123.000000	63.957357 
1122.000000	63.953232 
1121.000000	63.944840 
1120.000000	63.932251 
1119.000000	63.916420 
1118.000000	63.899183 
1117.000000	63.883042 
1116.000000	63.870692 
1115.000000	63.864278 
1114.000000	63.865089 
1113.000000	63.873219 
1112.000000	63.887643 
1111.000000	63.906145 
1110.000000	63.925790 
1109.000000	63.943910 
1108.000000	63.958191 
1107.000000	63.967251 
1106.000000	63.970756 
1105.000000	63.969135 
1104.000000	63.963460 
1103.000000	63.955402 
1102.000000	63.946390 
1101.000000	63.937401 
1100.000000	63.928747 
1099.000000	63.920331 
1098.000000	63.911247 
1097.000000	63.900470 
1096.000000	63.886952 
1095.000000	63.870429 
1094.000000	63.851261 
1093.000000	63.830733 
1092.000000	63.810777 
1091.000000	63.793897 
1090.000000	63.782668 
1089.000000	63.779425 
1088.000000	63.785982 
1087.000000	63.803625 
1086.000000	63.832688 
1085.000000	63.872623 
1084.000000	63.922047 
1083.000000	63.978552 
1082.000000	64.038968 
1081.000000	64.099407 
1080.000000	64.155864 
1079.000000	64.203929 
1078.000000	64.239883 
1077.000000	64.260482 
1076.000000	64.264035 
1075.000000	64.249897 
1074.000000	64.219284 
1073.000000	64.174747 
1072.000000	64.120149 
1071.000000	64.060282 
1070.000000	64.000344 
1069.000000	63.945508 
1068.000000	63.900303 
1067.000000	63.868117 
1066.000000	63.850879 
1065.000000	63.848757 
1064.000000	63.860249 
1063.000000	63.882184 
1062.000000	63.910341 
1061.000000	63.939857 
1060.000000	63.966321 
1059.000000	63.985991 
1058.000000	63.996767 
1057.000000	63.998293 
1056.000000	63.991880 
1055.000000	63.980126 
1054.000000	63.965916 
1053.000000	63.952112 
1052.000000	63.940429 
1051.000000	63.931179 
1050.000000	63.923406 
1049.000000	63.915705 
1048.000000	63.906431 
1047.000000	63.894414 
1046.000000	63.879632 
1045.000000	63.863420 
1044.000000	63.848114 
1043.000000	63.836383 
1042.000000	63.830685 
1041.000000	63.832473 
1040.000000	63.841962 
1039.000000	63.858079 
1038.000000	63.878464 
1037.000000	63.900279 
1036.000000	63.920783 
1035.000000	63.938140 
1034.000000	63.951611 
1033.000000	63.961863 
1032.000000	63.970398 
1031.000000	63.979196 
1030.000000	63.990139 
1029.000000	64.003968 
1028.000000	64.020395 
1027.000000	64.037346 
1026.000000	64.051699 
1025.000000	64.059662 
1024.000000	64.057826 
1023.000000	64.043903 
1022.000000	64.017319 
1021.000000	63.979649 
1020.000000	63.934659 
1019.000000	63.887310 
1018.000000	63.842892 
1017.000000	63.806152 
1016.000000	63.780331 
1015.000000	63.766694 
1014.000000	63.764619 
1013.000000	63.771700 
1012.000000	63.784670 
1011.000000	63.800072 
1010.000000	63.815140 
1009.000000	63.827943 
1008.000000	63.837695 
1007.000000	63.844418 
1006.000000	63.848733 
1005.000000	63.851404 
1004.000000	63.853049 
1003.000000	63.854146 
1002.000000	63.855004 
1001.000000	63.855886 
1000.000000	63.856935 
999.000000	 63.858366 
998.000000	 63.860559 
997.000000	 63.863587 
996.000000	 63.867783 
995.000000	 63.873505 
994.000000	 63.881158 
993.000000	 63.891029 
992.000000	 63.903164 
991.000000	 63.917231 
990.000000	 63.932275 
989.000000	 63.946843 
988.000000	 63.958787 
987.000000	 63.965773 
986.000000	 63.965773 
985.000000	 63.957762 
984.000000	 63.942074 
983.000000	 63.920426 
982.000000	 63.896059 
981.000000	 63.873052 
980.000000	 63.855576 
979.000000	 63.846683 
978.000000	 63.847923 
977.000000	 63.858580 
976.000000	 63.876342 
975.000000	 63.897347 
974.000000	 63.917279 
973.000000	 63.931846 
972.000000	 63.937997 
971.000000	 63.933968 
970.000000	 63.919615 
969.000000	 63.896274 
968.000000	 63.866305 
967.000000	 63.832831 
966.000000	 63.799118 
965.000000	 63.768053 
964.000000	 63.741874 
963.000000	 63.722109 
962.000000	 63.709378 
961.000000	 63.703560 
960.000000	 63.703870 
959.000000	 63.709115 
958.000000	 63.718032 
957.000000	 63.729572 
956.000000	 63.742995 
955.000000	 63.757896 
954.000000	 63.773918 
953.000000	 63.790631 
952.000000	 63.807034 
951.000000	 63.821744 
950.000000	 63.832926 
949.000000	 63.838410 
948.000000	 63.836383 
947.000000	 63.825964 
946.000000	 63.807415 
945.000000	 63.782286 
944.000000	 63.753223 
943.000000	 63.723492 
942.000000	 63.696503 
941.000000	 63.675022 
940.000000	 63.661026 
939.000000	 63.655233 
938.000000	 63.657593 
937.000000	 63.667440 
936.000000	 63.683962 
935.000000	 63.706254 
934.000000	 63.733339 
933.000000	 63.763785 
932.000000	 63.795685 
931.000000	 63.826584 
930.000000	 63.853526 
929.000000	 63.873529 
928.000000	 63.884162 
927.000000	 63.884210 
926.000000	 63.874053 
925.000000	 63.855695 
924.000000	 63.832616 
923.000000	 63.808798 
922.000000	 63.788270 
921.000000	 63.774132 
920.000000	 63.768172 
919.000000	 63.770914 
918.000000	 63.781619 
917.000000	 63.798546 
916.000000	 63.820052 
915.000000	 63.844132 
914.000000	 63.868880 
913.000000	 63.892459 
912.000000	 63.912963 
911.000000	 63.928747 
910.000000	 63.938498 
909.000000	 63.941550 
908.000000	 63.938045 
907.000000	 63.929033 
906.000000	 63.916254 
905.000000	 63.901853 
904.000000	 63.887882 
903.000000	 63.876008 
902.000000	 63.867306 
901.000000	 63.861751 
900.000000	 63.858413 
899.000000	 63.855910 
898.000000	 63.852834 
897.000000	 63.848233 
896.000000	 63.842034 
895.000000	 63.835120 
894.000000	 63.829684 
893.000000	 63.828396 
892.000000	 63.833856 
891.000000	 63.847899 
890.000000	 63.870930 
889.000000	 63.901686 
888.000000	 63.937187 
887.000000	 63.972997 
886.000000	 64.004230 
885.000000	 64.026546 
884.000000	 64.037108 
883.000000	 64.035344 
882.000000	 64.022946 
881.000000	 64.003372 
880.000000	 63.980722 
879.000000	 63.958811 
878.000000	 63.939929 
877.000000	 63.924455 
876.000000	 63.911151 
875.000000	 63.897991 
874.000000	 63.882994 
873.000000	 63.865232 
872.000000	 63.845372 
871.000000	 63.825845 
870.000000	 63.809847 
869.000000	 63.800883 
868.000000	 63.801670 
867.000000	 63.813614 
866.000000	 63.835906 
865.000000	 63.866376 
864.000000	 63.901543 
863.000000	 63.937735 
862.000000	 63.971781 
861.000000	 64.001488 
860.000000	 64.025640 
859.000000	 64.044141 
858.000000	 64.057540 
857.000000	 64.066624 
856.000000	 64.072179 
855.000000	 64.074754 
854.000000	 64.074444 
853.000000	 64.071106 
852.000000	 64.064884 
851.000000	 64.055800 
850.000000	 64.043998 
849.000000	 64.029669 
848.000000	 64.013028 
847.000000	 63.994288 
846.000000	 63.973784 
845.000000	 63.951683 
844.000000	 63.928532 
843.000000	 63.904929 
842.000000	 63.881850 
841.000000	 63.860559 
840.000000	 63.842964 
839.000000	 63.830852 
838.000000	 63.826298 
837.000000	 63.831281 
836.000000	 63.847255 
835.000000	 63.874793 
834.000000	 63.912940 
833.000000	 63.959097 
832.000000	 64.008641 
831.000000	 64.055609 
830.000000	 64.093136 
829.000000	 64.114713 
828.000000	 64.115476 
827.000000	 64.093184 
826.000000	 64.049243 
825.000000	 63.988471 
824.000000	 63.918948 
823.000000	 63.850378 
822.000000	 63.791942 
821.000000	 63.750529 
820.000000	 63.729834 
819.000000	 63.729572 
818.000000	 63.746380 
817.000000	 63.774514 
816.000000	 63.807630 
815.000000	 63.839602 
814.000000	 63.865065 
813.000000	 63.880467 
812.000000	 63.883328 
811.000000	 63.873481 
810.000000	 63.852524 
809.000000	 63.823938 
808.000000	 63.792490 
807.000000	 63.763093 
806.000000	 63.740253 
805.000000	 63.726663 
804.000000	 63.722753 
803.000000	 63.727092 
802.000000	 63.737201 
801.000000	 63.750481 
800.000000	 63.764882 
799.000000	 63.780069 
798.000000	 63.797116 
797.000000	 63.818144 
796.000000	 63.845157 
795.000000	 63.879060 
794.000000	 63.918852 
793.000000	 63.961577 
792.000000	 64.002513 
791.000000	 64.036345 
790.000000	 64.058279 
789.000000	 64.065837 
788.000000	 64.058876 
787.000000	 64.039564 
786.000000	 64.011502 
785.000000	 63.978934 
784.000000	 63.945293 
783.000000	 63.913106 
782.000000	 63.882994 
781.000000	 63.854575 
780.000000	 63.826346 
779.000000	 63.796925 
778.000000	 63.765645 
777.000000	 63.732838 
776.000000	 63.700413 
775.000000	 63.671112 
774.000000	 63.648390 
773.000000	 63.635253 
772.000000	 63.633561 
771.000000	 63.643264 
770.000000	 63.662290 
769.000000	 63.687062 
768.000000	 63.713073 
767.000000	 63.736200 
766.000000	 63.753271 
765.000000	 63.763046 
764.000000	 63.766407 
763.000000	 63.766026 
762.000000	 63.765573 
761.000000	 63.767957 
760.000000	 63.774657 
759.000000	 63.784551 
758.000000	 63.794636 
757.000000	 63.800263 
756.000000	 63.796687 
755.000000	 63.780140 
754.000000	 63.749480 
753.000000	 63.706278 
752.000000	 63.654255 
751.000000	 63.598966 
750.000000	 63.546276 
749.000000	 63.501739 
748.000000	 63.469409 
747.000000	 63.451743 
746.000000	 63.449454 
745.000000	 63.461184 
744.000000	 63.484215 
743.000000	 63.514471 
742.000000	 63.547325 
741.000000	 63.577556 
740.000000	 63.600349 
739.000000	 63.611674 
738.000000	 63.609480 
737.000000	 63.594675 
736.000000	 63.571310 
735.000000	 63.545703 
734.000000	 63.525176 
733.000000	 63.516950 
732.000000	 63.526153 
731.000000	 63.554358 
730.000000	 63.599228 
729.000000	 63.654851 
728.000000	 63.712859 
727.000000	 63.764786 
726.000000	 63.803219 
725.000000	 63.823294 
724.000000	 63.823795 
723.000000	 63.806819 
722.000000	 63.777613 
721.000000	 63.742780 
720.000000	 63.709950 
719.000000	 63.686132 
718.000000	 63.676953 
717.000000	 63.685584 
716.000000	 63.712453 
715.000000	 63.754868 
714.000000	 63.806509 
713.000000	 63.858318 
712.000000	 63.899183 
711.000000	 63.918042 
710.000000	 63.905787 
709.000000	 63.857436 
708.000000	 63.773846 
707.000000	 63.662266 
706.000000	 63.535284 
705.000000	 63.408994 
704.000000	 63.299727 
703.000000	 63.221144 
702.000000	 63.181042 
701.000000	 63.180804 
700.000000	 63.215088 
699.000000	 63.274335 
698.000000	 63.347101 
697.000000	 63.422775 
696.000000	 63.493323 
695.000000	 63.554310 
694.000000	 63.604474 
693.000000	 63.644194 
692.000000	 63.673663 
691.000000	 63.692164 
690.000000	 63.697576 
689.000000	 63.687872 
688.000000	 63.662552 
687.000000	 63.623929 
686.000000	 63.577389 
685.000000	 63.531708 
684.000000	 63.497138 
683.000000	 63.482475 
682.000000	 63.493204 
681.000000	 63.529181 
680.000000	 63.585495 
679.000000	 63.653635 
678.000000	 63.724112 
677.000000	 63.788819 
676.000000	 63.842773 
675.000000	 63.885045 
674.000000	 63.917851 
673.000000	 63.944554 
672.000000	 63.967895 
671.000000	 63.988542 
670.000000	 64.004611 
669.000000	 64.012432 
668.000000	 64.008402 
667.000000	 63.991498 
666.000000	 63.964176 
665.000000	 63.932681 
664.000000	 63.906288 
663.000000	 63.895440 
662.000000	 63.908576 
661.000000	 63.949751 
660.000000	 64.017415 
659.000000	 64.104318 
658.000000	 64.199304 
657.000000	 64.289236 
656.000000	 64.361882 
655.000000	 64.407634 
654.000000	 64.421796 
653.000000	 64.403986 
652.000000	 64.356875 
651.000000	 64.285182 
650.000000	 64.195132 
649.000000	 64.092659 
648.000000	 63.983511 
647.000000	 63.872003 
646.000000	 63.762450 
645.000000	 63.658213 
644.000000	 63.563275 
643.000000	 63.480544 
642.000000	 63.411068 
641.000000	 63.354945 
640.000000	 63.310813 
639.000000	 63.276982 
638.000000	 63.251352 
637.000000	 63.232874 
636.000000	 63.221526 
635.000000	 63.218736 
634.000000	 63.226532 
633.000000	 63.245964 
632.000000	 63.276934 
631.000000	 63.317131 
630.000000	 63.363695 
629.000000	 63.414359 
628.000000	 63.469219 
627.000000	 63.530564 
626.000000	 63.602614 
625.000000	 63.691806 
624.000000	 63.802266 
623.000000	 63.934206 
622.000000	 64.079999 
621.000000	 64.225816 
620.000000	 64.351248 
619.000000	 64.435076 
618.000000	 64.458298 
617.000000	 64.409446 
616.000000	 64.288449 
615.000000	 64.108657 
614.000000	 63.894319 
613.000000	 63.675498 
612.000000	 63.483810 
611.000000	 63.346028 
610.000000	 63.280320 
609.000000	 63.293337 
608.000000	 63.380432 
607.000000	 63.527321 
606.000000	 63.712000 
605.000000	 63.908624 
604.000000	 64.090085 
603.000000	 64.231801 
602.000000	 64.314842 
601.000000	 64.327788 
600.000000	 64.267206 
599.000000	 64.137911 
598.000000	 63.951468 
597.000000	 63.725233 
596.000000	 63.480043 
595.000000	 63.238430 
594.000000	 63.023185 
593.000000	 62.854290 
592.000000	 62.747216 
591.000000	 62.710618 
590.000000	 62.744951 
589.000000	 62.842345 
588.000000	 62.986493 
587.000000	 63.156843 
586.000000	 63.330531 
585.000000	 63.487720 
584.000000	 63.613462 
583.000000	 63.700652 
582.000000	 63.749194 
581.000000	 63.765549 
580.000000	 63.759493 
579.000000	 63.739776 
578.000000	 63.711524 
577.000000	 63.675642 
576.000000	 63.629651 
575.000000	 63.571071 
574.000000	 63.499474 
573.000000	 63.419008 
572.000000	 63.338088 
571.000000	 63.268923 
570.000000	 63.224101 
569.000000	 63.211846 
568.000000	 63.234996 
567.000000	 63.289070 
566.000000	 63.364195 
565.000000	 63.447570 
564.000000	 63.526535 
563.000000	 63.590955 
562.000000	 63.636088 
561.000000	 63.662791 
560.000000	 63.676619 
559.000000	 63.684868 
558.000000	 63.695025 
557.000000	 63.712453 
556.000000	 63.738822 
555.000000	 63.771986 
554.000000	 63.807058 
553.000000	 63.838124 
552.000000	 63.859868 
551.000000	 63.868808 
550.000000	 63.863444 
549.000000	 63.843774 
548.000000	 63.810324 
547.000000	 63.763618 
546.000000	 63.704013 
545.000000	 63.632035 
544.000000	 63.549709 
543.000000	 63.460159 
542.000000	 63.368868 
541.000000	 63.281822 
540.000000	 63.204956 
539.000000	 63.142681 
538.000000	 63.095664 
537.000000	 63.063311 
536.000000	 63.042974 
535.000000	 63.033723 
534.000000	 63.035416 
533.000000	 63.052082 
532.000000	 63.090348 
531.000000	 63.157963 
530.000000	 63.259959 
529.000000	 63.397073 
528.000000	 63.563728 
527.000000	 63.747644 
526.000000	 63.931083 
525.000000	 64.094519 
524.000000	 64.220356 
523.000000	 64.297032 
522.000000	 64.320778 
521.000000	 64.297080 
520.000000	 64.237713 
519.000000	 64.158606 
518.000000	 64.074110 
517.000000	 63.994479 
516.000000	 63.922858 
515.000000	 63.856983 
514.000000	 63.790249 
513.000000	 63.716459 
512.000000	 63.631558 
511.000000	 63.537597 
510.000000	 63.440847 
509.000000	 63.349819 
508.000000	 63.273024 
507.000000	 63.215589 
506.000000	 63.178420 
505.000000	 63.156986 
504.000000	 63.143849 
503.000000	 63.131070 
502.000000	 63.111710 
501.000000	 63.081812 
500.000000	 63.040590 
499.000000	 62.990164 
498.000000	 62.934207 
497.000000	 62.876677 
496.000000	 62.820339 
495.000000	 62.766313 
494.000000	 62.715029 
493.000000	 62.666416 
492.000000	 62.619781 
491.000000	 62.574696 
490.000000	 62.532210 
489.000000	 62.494540 
488.000000	 62.463212 
487.000000	 62.440276 
486.000000	 62.426543 
485.000000	 62.423539 
484.000000	 62.431955 
483.000000	 62.453794 
482.000000	 62.491083 
481.000000	 62.546420 
480.000000	 62.621688 
479.000000	 62.717270 
478.000000	 62.830162 
477.000000	 62.955212 
476.000000	 63.085484 
475.000000	 63.213682 
474.000000	 63.332867 
473.000000	 63.439226 
472.000000	 63.531708 
471.000000	 63.610291 
470.000000	 63.673853 
469.000000	 63.720035 
468.000000	 63.743424 
467.000000	 63.735246 
466.000000	 63.684749 
465.000000	 63.584232 
464.000000	 63.430881 
463.000000	 63.229084 
462.000000	 62.990784 
461.000000	 62.736082 
460.000000	 62.488484 
459.000000	 62.269639 
458.000000	 62.096452 
457.000000	 61.977052 
456.000000	 61.912369 
455.000000	 61.895895 
454.000000	 61.918473 
453.000000	 61.968994 
452.000000	 62.039494 
451.000000	 62.124896 
450.000000	 62.223553 
449.000000	 62.332892 
448.000000	 62.453269 
447.000000	 62.585854 
446.000000	 62.730312 
445.000000	 62.883186 
444.000000	 63.041210 
443.000000	 63.201379 
442.000000	 63.360881 
441.000000	 63.517713 
440.000000	 63.669586 
439.000000	 63.815116 
438.000000	 63.955330 
437.000000	 64.093136 
436.000000	 64.232492 
435.000000	 64.376544 
434.000000	 64.530014 
433.000000	 64.692974 
432.000000	 64.860415 
431.000000	 65.020942 
430.000000	 65.161633 
429.000000	 65.267539 
428.000000	 65.328764 
427.000000	 65.337657 
426.000000	 65.296220 
425.000000	 65.205192 
424.000000	 65.067982 
423.000000	 64.878988 
422.000000	 64.626026 
421.000000	 64.293265 
420.000000	 63.869905 
419.000000	 63.356757 
418.000000	 62.773561 
417.000000	 62.163496 
416.000000	 61.590909 
415.000000	 61.128377 
414.000000	 60.844230 
413.000000	 60.793542 
412.000000	 61.003708 
411.000000	 61.456060 
410.000000	 62.094187 
409.000000	 62.833261 
408.000000	 63.580060 
407.000000	 64.253330 
406.000000	 64.797163 
405.000000	 65.178394 
404.000000	 65.394854 
403.000000	 65.480041 
402.000000	 65.473651 
401.000000	 65.410470 
400.000000	 65.300607 
399.000000	 65.135192 
398.000000	 64.880275 
397.000000	 64.493894 
396.000000	 63.948011 
395.000000	 63.247394 
394.000000	 62.444138 
393.000000	 61.637735 
392.000000	 60.937714 
391.000000	 60.430979 
390.000000	 60.173463 
389.000000	 60.162639 
388.000000	 60.311937 
387.000000	 60.469913 
386.000000	 60.417604 
385.000000	 59.962916 
384.000000	 58.976054 
383.000000	 57.492923 
382.000000	 55.733847 
381.000000	 54.087233 
380.000000	 53.035712 
379.000000	 53.018093 
378.000000	 54.294943 
377.000000	 56.870245 
376.000000	 60.428094 
375.000000	 64.453911 
374.000000	 68.360137 
373.000000	 71.631455 
372.000000	 73.990178 
371.000000	 75.358891 
370.000000	 75.853323 

