PE IR       SPECTRUM    SPECTRUM    ASCII       PEDS        1.60        
  -1
BZCB79~1.ASC
17/04/07
21:55:55.00
17/04/07
21:55:55.00
tln
$BZ1503107-1_t0106$<tbV0>[-2.6,10.4,8.0,0.0,27,1,0]
370.000000
64









2002,4.07    
MIRTGS : RIGHTBACK : INTERNAL 2
MIR : ON : INTERNAL 2
OPTKBR

0.200000
8
8.000000
FILLER
RATIO
SPECTRUM
UNLOCKED 256

DOUBLE
64
COMBINED
1
0
0


1.000000
RATIO


1
0
TRUE
51149
0
LEFT NOT FITTED RIGHT NOT FITTED 0
NONE
NONE
15600
12.000000
4.427000
51148
TRUE
1 0 8 72 0 0 0 0 

15798.010000






#HDR
-1
-1
#GR
CM-1
%T
0.00002384185791015625
0.0
5000.000000
-1.000000
4631
8
85.037374
52.639174
#DATA
5000.000000	63.983964 
4999.000000	64.281892 
4998.000000	64.539003 
4997.000000	64.743995 
4996.000000	64.888381 
4995.000000	64.967989 
4994.000000	64.984583 
4993.000000	64.950227 
4992.000000	64.881753 
4991.000000	64.800143 
4990.000000	64.724636 
4989.000000	64.671897 
4988.000000	64.649677 
4987.000000	64.657497 
4986.000000	64.686298 
4985.000000	64.722776 
4984.000000	64.750146 
4983.000000	64.752626 
4982.000000	64.720416 
4981.000000	64.652061 
4980.000000	64.552879 
4979.000000	64.433932 
4978.000000	64.309644 
4977.000000	64.193916 
4976.000000	64.097404 
4975.000000	64.025497 
4974.000000	63.975191 
4973.000000	63.939857 
4972.000000	63.912963 
4971.000000	63.891792 
4970.000000	63.876152 
4969.000000	63.872075 
4968.000000	63.889837 
4967.000000	63.940834 
4966.000000	64.031171 
4965.000000	64.161229 
4964.000000	64.323234 
4963.000000	64.503574 
4962.000000	64.683890 
4961.000000	64.849162 
4960.000000	64.990425 
4959.000000	65.110230 
4958.000000	65.221190 
4957.000000	65.343809 
4956.000000	65.499043 
4955.000000	65.702724 
4954.000000	65.957283 
4953.000000	66.247105 
4952.000000	66.537737 
4951.000000	66.783237 
4950.000000	66.934180 
4949.000000	66.950273 
4948.000000	66.809558 
4947.000000	66.516542 
4946.000000	66.101765 
4945.000000	65.616655 
4944.000000	65.123224 
4943.000000	64.682245 
4942.000000	64.340949 
4941.000000	64.126777 
4940.000000	64.042305 
4939.000000	64.069843 
4938.000000	64.175605 
4937.000000	64.319062 
4936.000000	64.462399 
4935.000000	64.575195 
4934.000000	64.643621 
4933.000000	64.668655 
4932.000000	64.665365 
4931.000000	64.653897 
4930.000000	64.656758 
4929.000000	64.690971 
4928.000000	64.764904 
4927.000000	64.875602 
4926.000000	65.011882 
4925.000000	65.155720 
4924.000000	65.287590 
4923.000000	65.388560 
4922.000000	65.443563 
4921.000000	65.443515 
4920.000000	65.384769 
4919.000000	65.271973 
4918.000000	65.116930 
4917.000000	64.938688 
4916.000000	64.761686 
4915.000000	64.611268 
4914.000000	64.510440 
4913.000000	64.473748 
4912.000000	64.507222 
4911.000000	64.602613 
4910.000000	64.738726 
4909.000000	64.885520 
4908.000000	65.010428 
4907.000000	65.086388 
4906.000000	65.097427 
4905.000000	65.043020 
4904.000000	64.936971 
4903.000000	64.804887 
4902.000000	64.677166 
4901.000000	64.581227 
4900.000000	64.534664 
4899.000000	64.542627 
4898.000000	64.596939 
4897.000000	64.680528 
4896.000000	64.771890 
4895.000000	64.850854 
4894.000000	64.903497 
4893.000000	64.923524 
4892.000000	64.913821 
4891.000000	64.883375 
4890.000000	64.844775 
4889.000000	64.809823 
4888.000000	64.786767 
4887.000000	64.778828 
4886.000000	64.783358 
4885.000000	64.795231 
4884.000000	64.806222 
4883.000000	64.808583 
4882.000000	64.796018 
4881.000000	64.765715 
4880.000000	64.718389 
4879.000000	64.657902 
4878.000000	64.590620 
4877.000000	64.523625 
4876.000000	64.464020 
4875.000000	64.417433 
4874.000000	64.387297 
4873.000000	64.374518 
4872.000000	64.377808 
4871.000000	64.394545 
4870.000000	64.421510 
4869.000000	64.455938 
4868.000000	64.495205 
4867.000000	64.537763 
4866.000000	64.582037 
4865.000000	64.626955 
4864.000000	64.671730 
4863.000000	64.715170 
4862.000000	64.755630 
4861.000000	64.791083 
4860.000000	64.819455 
4859.000000	64.838695 
4858.000000	64.847970 
4857.000000	64.846944 
4856.000000	64.835906 
4855.000000	64.816021 
4854.000000	64.789533 
4853.000000	64.759469 
4852.000000	64.729571 
4851.000000	64.703965 
4850.000000	64.686679 
4849.000000	64.680576 
4848.000000	64.686608 
4847.000000	64.703917 
4846.000000	64.729833 
4845.000000	64.760088 
4844.000000	64.789724 
4843.000000	64.814186 
4842.000000	64.829969 
4841.000000	64.834785 
4840.000000	64.828205 
4839.000000	64.810919 
4838.000000	64.785504 
4837.000000	64.755654 
4836.000000	64.726424 
4835.000000	64.703035 
4834.000000	64.690518 
4833.000000	64.693140 
4832.000000	64.713263 
4831.000000	64.750790 
4830.000000	64.802789 
4829.000000	64.863777 
4828.000000	64.926838 
4827.000000	64.984631 
4826.000000	65.031743 
4825.000000	65.065813 
4824.000000	65.088009 
4823.000000	65.102553 
4822.000000	65.115284 
4821.000000	65.131902 
4820.000000	65.155959 
4819.000000	65.187692 
4818.000000	65.224218 
4817.000000	65.260076 
4816.000000	65.289258 
4815.000000	65.306329 
4814.000000	65.308308 
4813.000000	65.295219 
4812.000000	65.269517 
4811.000000	65.235853 
4810.000000	65.199518 
4809.000000	65.165805 
4808.000000	65.138649 
4807.000000	65.120720 
4806.000000	65.113687 
4805.000000	65.117955 
4804.000000	65.133547 
4803.000000	65.159010 
4802.000000	65.191864 
4801.000000	65.228080 
4800.000000	65.262365 
4799.000000	65.288972 
4798.000000	65.302538 
4797.000000	65.299391 
4796.000000	65.278339 
4795.000000	65.241098 
4794.000000	65.191864 
4793.000000	65.136432 
4792.000000	65.080595 
4791.000000	65.029287 
4790.000000	64.985585 
4789.000000	64.950323 
4788.000000	64.922618 
4787.000000	64.901065 
4786.000000	64.884424 
4785.000000	64.871668 
4784.000000	64.862680 
4783.000000	64.857745 
4782.000000	64.857316 
4781.000000	64.860534 
4780.000000	64.866185 
4779.000000	64.872050 
4778.000000	64.876627 
4777.000000	64.878964 
4776.000000	64.879941 
4775.000000	64.881873 
4774.000000	64.888167 
4773.000000	64.902019 
4772.000000	64.925742 
4771.000000	64.959859 
4770.000000	65.002727 
4769.000000	65.050745 
4768.000000	65.099167 
4767.000000	65.143060 
4766.000000	65.178561 
4765.000000	65.203261 
4764.000000	65.215945 
4763.000000	65.215992 
4762.000000	65.203166 
4761.000000	65.177059 
4760.000000	65.136837 
4759.000000	65.081810 
4758.000000	65.012574 
4757.000000	64.931821 
4756.000000	64.844894 
4755.000000	64.759159 
4754.000000	64.683532 
4753.000000	64.626002 
4752.000000	64.592146 
4751.000000	64.583349 
4750.000000	64.596271 
4749.000000	64.623546 
4748.000000	64.654850 
4747.000000	64.680385 
4746.000000	64.692521 
4745.000000	64.688563 
4744.000000	64.670825 
4743.000000	64.646577 
4742.000000	64.625525 
4741.000000	64.617586 
4740.000000	64.629864 
4739.000000	64.665031 
4738.000000	64.720416 
4737.000000	64.789009 
4736.000000	64.860987 
4735.000000	64.926242 
4734.000000	64.976143 
4733.000000	65.004992 
4732.000000	65.011024 
4731.000000	64.995670 
4730.000000	64.963293 
4729.000000	64.919185 
4728.000000	64.869546 
4727.000000	64.820361 
4726.000000	64.777326 
4725.000000	64.745354 
4724.000000	64.728569 
4723.000000	64.730381 
4722.000000	64.752578 
4721.000000	64.794802 
4720.000000	64.854454 
4719.000000	64.926552 
4718.000000	65.004539 
4717.000000	65.081024 
4716.000000	65.149044 
4715.000000	65.202999 
4714.000000	65.239334 
4713.000000	65.256953 
4712.000000	65.256953 
4711.000000	65.242171 
4710.000000	65.216398 
4709.000000	65.183877 
4708.000000	65.149021 
4707.000000	65.115809 
4706.000000	65.088105 
4705.000000	65.068840 
4704.000000	65.060186 
4703.000000	65.062808 
4702.000000	65.075993 
4701.000000	65.097570 
4700.000000	65.124011 
4699.000000	65.151548 
4698.000000	65.176534 
4697.000000	65.196561 
4696.000000	65.210795 
4695.000000	65.219879 
4694.000000	65.225410 
4693.000000	65.229415 
4692.000000	65.233111 
4691.000000	65.237379 
4690.000000	65.242505 
4689.000000	65.248274 
4688.000000	65.254330 
4687.000000	65.260577 
4686.000000	65.267467 
4685.000000	65.275430 
4684.000000	65.284657 
4683.000000	65.294718 
4682.000000	65.304636 
4681.000000	65.312671 
4680.000000	65.317106 
4679.000000	65.316987 
4678.000000	65.312743 
4677.000000	65.306591 
4676.000000	65.302062 
4675.000000	65.303111 
4674.000000	65.313029 
4673.000000	65.333604 
4672.000000	65.363907 
4671.000000	65.400862 
4670.000000	65.438961 
4669.000000	65.471816 
4668.000000	65.492582 
4667.000000	65.495920 
4666.000000	65.478324 
4665.000000	65.439033 
4664.000000	65.380382 
4663.000000	65.307354 
4662.000000	65.227246 
4661.000000	65.148591 
4660.000000	65.079641 
4659.000000	65.027022 
4658.000000	64.995098 
4657.000000	64.985227 
4656.000000	64.995861 
4655.000000	65.022873 
4654.000000	65.060257 
4653.000000	65.101599 
4652.000000	65.141105 
4651.000000	65.174674 
4650.000000	65.199804 
4649.000000	65.215897 
4648.000000	65.223813 
4647.000000	65.225005 
4646.000000	65.220832 
4645.000000	65.211820 
4644.000000	65.198183 
4643.000000	65.179491 
4642.000000	65.155220 
4641.000000	65.125608 
4640.000000	65.092039 
4639.000000	65.057587 
4638.000000	65.026092 
4637.000000	65.002751 
4636.000000	64.992904 
4635.000000	65.001177 
4634.000000	65.030050 
4633.000000	65.079236 
4632.000000	65.145111 
4631.000000	65.220952 
4630.000000	65.297818 
4629.000000	65.365934 
4628.000000	65.416073 
4627.000000	65.441608 
4626.000000	65.439319 
4625.000000	65.409994 
4624.000000	65.357828 
4623.000000	65.289950 
4622.000000	65.214228 
4621.000000	65.138506 
4620.000000	65.068483 
4619.000000	65.007662 
4618.000000	64.956474 
4617.000000	64.913296 
4616.000000	64.874911 
4615.000000	64.838171 
4614.000000	64.800858 
4613.000000	64.762163 
4612.000000	64.723157 
4611.000000	64.685869 
4610.000000	64.653110 
4609.000000	64.626979 
4608.000000	64.608407 
4607.000000	64.596605 
4606.000000	64.589190 
4605.000000	64.582777 
4604.000000	64.573812 
4603.000000	64.559626 
4602.000000	64.539313 
4601.000000	64.513945 
4600.000000	64.486241 
4599.000000	64.459776 
4598.000000	64.438176 
4597.000000	64.424300 
4596.000000	64.419007 
4595.000000	64.421701 
4594.000000	64.430594 
4593.000000	64.443731 
4592.000000	64.459633 
4591.000000	64.477539 
4590.000000	64.497160 
4589.000000	64.518785 
4588.000000	64.542722 
4587.000000	64.568877 
4586.000000	64.596223 
4585.000000	64.622974 
4584.000000	64.647197 
4583.000000	64.666676 
4582.000000	64.679765 
4581.000000	64.685583 
4580.000000	64.684462 
4579.000000	64.677643 
4578.000000	64.667034 
4577.000000	64.654898 
4576.000000	64.643406 
4575.000000	64.634442 
4574.000000	64.629054 
4573.000000	64.627647 
4572.000000	64.629769 
4571.000000	64.634132 
4570.000000	64.639019 
4569.000000	64.642643 
4568.000000	64.643740 
4567.000000	64.642119 
4566.000000	64.638638 
4565.000000	64.635419 
4564.000000	64.634418 
4563.000000	64.636945 
4562.000000	64.642643 
4561.000000	64.649701 
4560.000000	64.654946 
4559.000000	64.654994 
4558.000000	64.647245 
4557.000000	64.630746 
4556.000000	64.606618 
4555.000000	64.577865 
4554.000000	64.548420 
4553.000000	64.521956 
4552.000000	64.501070 
4551.000000	64.486622 
4550.000000	64.477515 
4549.000000	64.471197 
4548.000000	64.464306 
4547.000000	64.453840 
4546.000000	64.437770 
4545.000000	64.415764 
4544.000000	64.388847 
4543.000000	64.359784 
4542.000000	64.331483 
4541.000000	64.307665 
4540.000000	64.291501 
4539.000000	64.286160 
4538.000000	64.294075 
4537.000000	64.316439 
4536.000000	64.352989 
4535.000000	64.401483 
4534.000000	64.457941 
4533.000000	64.516758 
4532.000000	64.571022 
4531.000000	64.613866 
4530.000000	64.639353 
4529.000000	64.643812 
4528.000000	64.626741 
4527.000000	64.591002 
4526.000000	64.542531 
4525.000000	64.489388 
4524.000000	64.440298 
4523.000000	64.402866 
4522.000000	64.382052 
4521.000000	64.379167 
4520.000000	64.391684 
4519.000000	64.413881 
4518.000000	64.438223 
4517.000000	64.457082 
4516.000000	64.465117 
4515.000000	64.459705 
4514.000000	64.442896 
4513.000000	64.420413 
4512.000000	64.400815 
4511.000000	64.393329 
4510.000000	64.405322 
4509.000000	64.440155 
4508.000000	64.496064 
4507.000000	64.566564 
4506.000000	64.641380 
4505.000000	64.709353 
4504.000000	64.760375 
4503.000000	64.787960 
4502.000000	64.789891 
4501.000000	64.768385 
4500.000000	64.728736 
4499.000000	64.677596 
4498.000000	64.621186 
4497.000000	64.564061 
4496.000000	64.508366 
4495.000000	64.454245 
4494.000000	64.400911 
4493.000000	64.347577 
4492.000000	64.295387 
4491.000000	64.247322 
4490.000000	64.205861 
4489.000000	64.173579 
4488.000000	64.151930 
4487.000000	64.141774 
4486.000000	64.142656 
4485.000000	64.153432 
4484.000000	64.173674 
4483.000000	64.202141 
4482.000000	64.234089 
4481.000000	64.264559 
4480.000000	64.291143 
4479.000000	64.312100 
4478.000000	64.321374 
4477.000000	64.318084 
4476.000000	64.312624 
4475.000000	64.312863 
4474.000000	64.319109 
4473.000000	64.329099 
4472.000000	64.338278 
4471.000000	64.341473 
4470.000000	64.337015 
4469.000000	64.318442 
4468.000000	64.278316 
4467.000000	64.225435 
4466.000000	64.182209 
4465.000000	64.176750 
4464.000000	64.234614 
4463.000000	64.370608 
4462.000000	64.585113 
4461.000000	64.846920 
4460.000000	65.116429 
4459.000000	65.362620 
4458.000000	65.574932 
4457.000000	65.763473 
4456.000000	65.966320 
4455.000000	66.214632 
4454.000000	66.565942 
4453.000000	67.044830 
4452.000000	67.717790 
4451.000000	68.687772 
4450.000000	70.069074 
4449.000000	71.984314 
4448.000000	74.438571 
4447.000000	77.293610 
4446.000000	80.231976 
4445.000000	82.804083 
4444.000000	84.535264 
4443.000000	85.037374 
4442.000000	84.130859 
4441.000000	81.892156 
4440.000000	78.604412 
4439.000000	74.696731 
4438.000000	70.628619 
4437.000000	66.807746 
4436.000000	63.550162 
4435.000000	61.026144 
4434.000000	59.315443 
4433.000000	58.367347 
4432.000000	58.044075 
4431.000000	58.137011 
4430.000000	58.375191 
4429.000000	58.515477 
4428.000000	58.345651 
4427.000000	57.776308 
4426.000000	56.806421 
4425.000000	55.575728 
4424.000000	54.298543 
4423.000000	53.241610 
4422.000000	52.639174 
4421.000000	52.658271 
4420.000000	53.355216 
4419.000000	54.663014 
4418.000000	56.406188 
4417.000000	58.349704 
4416.000000	60.253262 
4415.000000	61.918020 
4414.000000	63.222408 
4413.000000	64.132308 
4412.000000	64.691662 
4411.000000	64.985609 
4410.000000	65.112257 
4409.000000	65.155673 
4408.000000	65.165567 
4407.000000	65.185236 
4406.000000	65.226888 
4405.000000	65.284919 
4404.000000	65.336322 
4403.000000	65.374994 
4402.000000	65.395593 
4401.000000	65.394973 
4400.000000	65.373659 
4399.000000	65.334796 
4398.000000	65.283346 
4397.000000	65.224194 
4396.000000	65.162658 
4395.000000	65.104651 
4394.000000	65.055251 
4393.000000	65.018558 
4392.000000	64.996743 
4391.000000	64.990091 
4390.000000	64.995765 
4389.000000	65.008568 
4388.000000	65.022802 
4387.000000	65.032768 
4386.000000	65.037226 
4385.000000	65.038633 
4384.000000	65.034151 
4383.000000	65.018105 
4382.000000	64.988851 
4381.000000	64.947175 
4380.000000	64.893960 
4379.000000	64.831924 
4378.000000	64.766073 
4377.000000	64.702677 
4376.000000	64.647769 
4375.000000	64.606094 
4374.000000	64.580249 
4373.000000	64.569997 
4372.000000	64.571928 
4371.000000	64.581060 
4370.000000	64.591789 
4369.000000	64.600086 
4368.000000	64.603424 
4367.000000	64.602923 
4366.000000	64.602303 
4365.000000	64.607310 
4364.000000	64.623808 
4363.000000	64.655923 
4362.000000	64.704346 
4361.000000	64.766144 
4360.000000	64.835023 
4359.000000	64.902877 
4358.000000	64.961886 
4357.000000	65.006518 
4356.000000	65.035033 
4355.000000	65.049433 
4354.000000	65.055108 
4353.000000	65.059351 
4352.000000	65.068578 
4351.000000	65.087223 
4350.000000	65.115356 
4349.000000	65.149903 
4348.000000	65.183925 
4347.000000	65.209126 
4346.000000	65.217256 
4345.000000	65.202856 
4344.000000	65.164065 
4343.000000	65.103101 
4342.000000	65.026140 
4341.000000	64.942026 
4340.000000	64.860367 
4339.000000	64.789795 
4338.000000	64.736270 
4337.000000	64.702367 
4336.000000	64.687085 
4335.000000	64.686727 
4334.000000	64.695739 
4333.000000	64.708542 
4332.000000	64.721059 
4331.000000	64.731645 
4330.000000	64.740920 
4329.000000	64.751315 
4328.000000	64.766097 
4327.000000	64.787769 
4326.000000	64.816761 
4325.000000	64.851045 
4324.000000	64.886569 
4323.000000	64.918160 
4322.000000	64.940786 
4321.000000	64.950942 
4320.000000	64.947295 
4319.000000	64.931440 
4318.000000	64.907503 
4317.000000	64.881372 
4316.000000	64.859533 
4315.000000	64.847517 
4314.000000	64.848756 
4313.000000	64.863681 
4312.000000	64.889788 
4311.000000	64.922237 
4310.000000	64.955091 
4309.000000	64.982628 
4308.000000	65.000510 
4307.000000	65.006923 
4306.000000	65.002655 
4305.000000	64.990234 
4304.000000	64.972996 
4303.000000	64.954042 
4302.000000	64.935374 
4301.000000	64.917707 
4300.000000	64.900612 
4299.000000	64.883112 
4298.000000	64.864611 
4297.000000	64.846038 
4296.000000	64.829516 
4295.000000	64.818453 
4294.000000	64.815998 
4293.000000	64.824271 
4292.000000	64.843320 
4291.000000	64.870405 
4290.000000	64.900875 
4289.000000	64.928913 
4288.000000	64.949107 
4287.000000	64.957785 
4286.000000	64.953732 
4285.000000	64.938139 
4284.000000	64.914536 
4283.000000	64.887642 
4282.000000	64.862799 
4281.000000	64.844894 
4280.000000	64.837384 
4279.000000	64.841771 
4278.000000	64.857578 
4277.000000	64.882349 
4276.000000	64.911890 
4275.000000	64.941215 
4274.000000	64.965176 
4273.000000	64.979815 
4272.000000	64.982557 
4271.000000	64.973521 
4270.000000	64.954948 
4269.000000	64.931440 
4268.000000	64.908480 
4267.000000	64.891672 
4266.000000	64.885377 
4265.000000	64.891934 
4264.000000	64.911150 
4263.000000	64.940667 
4262.000000	64.976739 
4261.000000	65.014982 
4260.000000	65.051436 
4259.000000	65.082621 
4258.000000	65.105867 
4257.000000	65.118980 
4256.000000	65.120244 
4255.000000	65.108728 
4254.000000	65.084743 
4253.000000	65.050005 
4252.000000	65.007781 
4251.000000	64.962744 
4250.000000	64.920210 
4249.000000	64.885520 
4248.000000	64.862775 
4247.000000	64.854145 
4246.000000	64.858961 
4245.000000	64.874029 
4244.000000	64.893960 
4243.000000	64.912390 
4242.000000	64.923405 
4241.000000	64.922595 
4240.000000	64.908385 
4239.000000	64.881896 
4238.000000	64.847111 
4237.000000	64.809989 
4236.000000	64.777183 
4235.000000	64.754247 
4234.000000	64.744639 
4233.000000	64.749479 
4232.000000	64.766502 
4231.000000	64.791440 
4230.000000	64.818120 
4229.000000	64.840245 
4228.000000	64.852952 
4227.000000	64.854049 
4226.000000	64.844012 
4225.000000	64.825749 
4224.000000	64.803791 
4223.000000	64.783143 
4222.000000	64.767861 
4221.000000	64.760136 
4220.000000	64.759802 
4219.000000	64.764857 
4218.000000	64.772367 
4217.000000	64.780068 
4216.000000	64.786458 
4215.000000	64.792561 
4214.000000	64.801049 
4213.000000	64.816284 
4212.000000	64.842772 
4211.000000	64.884018 
4210.000000	64.941191 
4209.000000	65.012240 
4208.000000	65.092182 
4207.000000	65.173292 
4206.000000	65.246796 
4205.000000	65.303587 
4204.000000	65.336179 
4203.000000	65.339660 
4202.000000	65.312910 
4201.000000	65.258502 
4200.000000	65.182399 
4199.000000	65.093016 
4198.000000	64.999842 
4197.000000	64.912295 
4196.000000	64.838409 
4195.000000	64.783740 
4194.000000	64.751148 
4193.000000	64.740705 
4192.000000	64.750266 
4191.000000	64.775991 
4190.000000	64.813709 
4189.000000	64.859032 
4188.000000	64.908242 
4187.000000	64.957833 
4186.000000	65.005111 
4185.000000	65.047359 
4184.000000	65.082430 
4183.000000	65.108251 
4182.000000	65.123653 
4181.000000	65.128564 
4180.000000	65.124106 
4179.000000	65.113019 
4178.000000	65.098714 
4177.000000	65.085053 
4176.000000	65.074777 
4175.000000	65.069031 
4174.000000	65.066862 
4173.000000	65.065908 
4172.000000	65.062618 
4171.000000	65.053558 
4170.000000	65.036678 
4169.000000	65.012311 
4168.000000	64.983463 
4167.000000	64.955043 
4166.000000	64.932322 
4165.000000	64.919829 
4164.000000	64.920163 
4163.000000	64.933466 
4162.000000	64.957261 
4161.000000	64.987564 
4160.000000	65.020036 
4159.000000	65.051221 
4158.000000	65.079188 
4157.000000	65.103578 
4156.000000	65.125226 
4155.000000	65.145301 
4154.000000	65.164661 
4153.000000	65.182876 
4152.000000	65.198159 
4151.000000	65.207099 
4150.000000	65.205931 
4149.000000	65.191054 
4148.000000	65.160536 
4147.000000	65.114355 
4146.000000	65.054917 
4145.000000	64.986848 
4144.000000	64.916419 
4143.000000	64.850568 
4142.000000	64.795899 
4141.000000	64.757871 
4140.000000	64.739894 
4139.000000	64.743113 
4138.000000	64.766383 
4137.000000	64.806342 
4136.000000	64.858293 
4135.000000	64.916729 
4134.000000	64.976334 
4133.000000	65.032172 
4132.000000	65.080332 
4131.000000	65.117883 
4130.000000	65.143251 
4129.000000	65.155744 
4128.000000	65.156173 
4127.000000	65.146780 
4126.000000	65.130972 
4125.000000	65.112972 
4124.000000	65.096926 
4123.000000	65.086436 
4122.000000	65.083694 
4121.000000	65.089392 
4120.000000	65.102672 
4119.000000	65.121316 
4118.000000	65.142607 
4117.000000	65.163588 
4116.000000	65.181756 
4115.000000	65.194964 
4114.000000	65.201997 
4113.000000	65.202522 
4112.000000	65.196514 
4111.000000	65.184378 
4110.000000	65.167236 
4109.000000	65.146565 
4108.000000	65.124392 
4107.000000	65.102934 
4106.000000	65.084457 
4105.000000	65.070629 
4104.000000	65.062308 
4103.000000	65.059208 
4102.000000	65.059614 
4101.000000	65.061473 
4100.000000	65.063023 
4099.000000	65.063261 
4098.000000	65.062046 
4097.000000	65.060186 
4096.000000	65.058684 
4095.000000	65.058517 
4094.000000	65.059876 
4093.000000	65.062499 
4092.000000	65.065765 
4091.000000	65.069246 
4090.000000	65.073060 
4089.000000	65.078186 
4088.000000	65.086150 
4087.000000	65.098428 
4086.000000	65.115785 
4085.000000	65.137910 
4084.000000	65.163016 
4083.000000	65.188074 
4082.000000	65.209317 
4081.000000	65.223503 
4080.000000	65.228486 
4079.000000	65.223908 
4078.000000	65.210938 
4077.000000	65.192103 
4076.000000	65.170240 
4075.000000	65.147805 
4074.000000	65.126776 
4073.000000	65.108227 
4072.000000	65.092921 
4071.000000	65.081620 
4070.000000	65.075230 
4069.000000	65.074944 
4068.000000	65.081763 
4067.000000	65.095973 
4066.000000	65.116500 
4065.000000	65.140628 
4064.000000	65.164113 
4063.000000	65.182018 
4062.000000	65.189671 
4061.000000	65.183711 
4060.000000	65.163350 
4059.000000	65.130400 
4058.000000	65.089464 
4057.000000	65.046525 
4056.000000	65.007829 
4055.000000	64.978003 
4054.000000	64.959311 
4053.000000	64.950871 
4052.000000	64.949202 
4051.000000	64.949154 
4050.000000	64.945554 
4049.000000	64.934539 
4048.000000	64.914393 
4047.000000	64.886283 
4046.000000	64.853334 
4045.000000	64.820647 
4044.000000	64.793252 
4043.000000	64.775609 
4042.000000	64.770293 
4041.000000	64.778113 
4040.000000	64.797973 
4039.000000	64.827466 
4038.000000	64.863419 
4037.000000	64.902400 
4036.000000	64.941191 
4035.000000	64.976835 
4034.000000	65.006971 
4033.000000	65.029668 
4032.000000	65.043783 
4031.000000	65.049076 
4030.000000	65.046024 
4029.000000	65.036249 
4028.000000	65.022039 
4027.000000	65.005612 
4026.000000	64.988994 
4025.000000	64.973473 
4024.000000	64.959692 
4023.000000	64.947628 
4022.000000	64.937090 
4021.000000	64.928007 
4020.000000	64.920878 
4019.000000	64.916729 
4018.000000	64.916729 
4017.000000	64.921855 
4016.000000	64.932274 
4015.000000	64.947199 
4014.000000	64.964652 
4013.000000	64.981913 
4012.000000	64.996004 
4011.000000	65.004324 
4010.000000	65.005660 
4009.000000	65.000534 
4008.000000	64.991235 
4007.000000	64.981102 
4006.000000	64.973831 
4005.000000	64.972376 
4004.000000	64.978361 
4003.000000	64.991331 
4002.000000	65.009117 
4001.000000	65.028071 
4000.000000	65.044116 
3999.000000	65.053391 
3998.000000	65.053582 
3997.000000	65.043950 
3996.000000	65.025472 
3995.000000	65.000510 
3994.000000	64.972209 
3993.000000	64.943742 
3992.000000	64.917564 
3991.000000	64.895391 
3990.000000	64.877963 
3989.000000	64.865732 
3988.000000	64.859294 
3987.000000	64.859461 
3986.000000	64.867210 
3985.000000	64.883232 
3984.000000	64.907670 
3983.000000	64.939284 
3982.000000	64.975428 
3981.000000	65.012598 
3980.000000	65.047216 
3979.000000	65.075993 
3978.000000	65.096926 
3977.000000	65.109920 
3976.000000	65.116524 
3975.000000	65.119743 
3974.000000	65.122890 
3973.000000	65.128779 
3972.000000	65.138745 
3971.000000	65.153026 
3970.000000	65.169692 
3969.000000	65.185976 
3968.000000	65.198063 
3967.000000	65.202856 
3966.000000	65.197873 
3965.000000	65.181827 
3964.000000	65.154910 
3963.000000	65.118813 
3962.000000	65.076470 
3961.000000	65.031552 
3960.000000	64.988112 
3959.000000	64.949941 
3958.000000	64.919662 
3957.000000	64.898419 
3956.000000	64.885067 
3955.000000	64.876723 
3954.000000	64.869141 
3953.000000	64.857912 
3952.000000	64.839172 
3951.000000	64.810800 
3950.000000	64.773106 
3949.000000	64.729380 
3948.000000	64.684534 
3947.000000	64.645004 
3946.000000	64.617323 
3945.000000	64.606952 
3944.000000	64.617085 
3943.000000	64.648127 
3942.000000	64.697766 
3941.000000	64.761519 
3940.000000	64.833498 
3939.000000	64.907336 
3938.000000	64.977216 
3937.000000	65.038466 
3936.000000	65.087842 
3935.000000	65.123319 
3934.000000	65.143823 
3933.000000	65.149164 
3932.000000	65.139865 
3931.000000	65.116834 
3930.000000	65.081453 
3929.000000	65.036082 
3928.000000	64.984130 
3927.000000	64.929461 
3926.000000	64.876079 
3925.000000	64.827752 
3924.000000	64.787364 
3923.000000	64.756369 
3922.000000	64.734864 
3921.000000	64.721250 
3920.000000	64.713263 
3919.000000	64.708209 
3918.000000	64.704227 
3917.000000	64.699983 
3916.000000	64.695811 
3915.000000	64.692592 
3914.000000	64.692163 
3913.000000	64.696311 
3912.000000	64.706373 
3911.000000	64.722537 
3910.000000	64.744043 
3909.000000	64.769077 
3908.000000	64.795470 
3907.000000	64.821267 
3906.000000	64.844846 
3905.000000	64.865279 
3904.000000	64.882254 
3903.000000	64.896011 
3902.000000	64.906930 
3901.000000	64.915156 
3900.000000	64.920473 
3899.000000	64.922189 
3898.000000	64.919710 
3897.000000	64.912366 
3896.000000	64.899492 
3895.000000	64.880704 
3894.000000	64.856433 
3893.000000	64.828062 
3892.000000	64.797472 
3891.000000	64.767742 
3890.000000	64.742326 
3889.000000	64.725255 
3888.000000	64.720153 
3887.000000	64.729857 
3886.000000	64.755582 
3885.000000	64.796710 
3884.000000	64.850330 
3883.000000	64.911675 
3882.000000	64.974546 
3881.000000	65.032744 
3880.000000	65.080809 
3879.000000	65.114927 
3878.000000	65.133333 
3877.000000	65.136408 
3876.000000	65.126228 
3875.000000	65.105938 
3874.000000	65.079426 
3873.000000	65.050792 
3872.000000	65.024232 
3871.000000	65.003728 
3870.000000	64.992570 
3869.000000	64.993357 
3868.000000	65.007185 
3867.000000	65.033364 
3866.000000	65.069484 
3865.000000	65.111589 
3864.000000	65.155005 
3863.000000	65.194845 
3862.000000	65.227222 
3861.000000	65.249752 
3860.000000	65.262031 
3859.000000	65.265488 
3858.000000	65.262460 
3857.000000	65.255856 
3856.000000	65.247750 
3855.000000	65.239357 
3854.000000	65.230941 
3853.000000	65.222120 
3852.000000	65.212345 
3851.000000	65.201616 
3850.000000	65.190553 
3849.000000	65.180468 
3848.000000	65.172600 
3847.000000	65.167546 
3846.000000	65.165328 
3845.000000	65.164971 
3844.000000	65.164375 
3843.000000	65.161085 
3842.000000	65.152621 
3841.000000	65.137505 
3840.000000	65.115427 
3839.000000	65.087723 
3838.000000	65.056920 
3837.000000	65.026402 
3836.000000	64.999485 
3835.000000	64.978814 
3834.000000	64.965558 
3833.000000	64.959526 
3832.000000	64.959025 
3831.000000	64.961767 
3830.000000	64.965629 
3829.000000	64.969372 
3828.000000	64.972782 
3827.000000	64.977049 
3826.000000	64.984035 
3825.000000	64.995527 
3824.000000	65.012311 
3823.000000	65.033197 
3822.000000	65.055084 
3821.000000	65.073323 
3820.000000	65.082669 
3819.000000	65.078830 
3818.000000	65.059781 
3817.000000	65.026354 
3816.000000	64.982438 
3815.000000	64.934062 
3814.000000	64.887976 
3813.000000	64.850211 
3812.000000	64.825057 
3811.000000	64.814352 
3810.000000	64.817690 
3809.000000	64.832830 
3808.000000	64.856839 
3807.000000	64.886522 
3806.000000	64.919328 
3805.000000	64.953327 
3804.000000	64.987063 
3803.000000	65.019059 
3802.000000	65.047645 
3801.000000	65.070629 
3800.000000	65.085673 
3799.000000	65.090537 
3798.000000	65.083789 
3797.000000	65.065431 
3796.000000	65.036964 
3795.000000	65.001535 
3794.000000	64.963364 
3793.000000	64.926815 
3792.000000	64.895820 
3791.000000	64.873099 
3790.000000	64.859795 
3789.000000	64.855694 
3788.000000	64.859271 
3787.000000	64.868378 
3786.000000	64.880704 
3785.000000	64.894533 
3784.000000	64.908361 
3783.000000	64.921545 
3782.000000	64.933753 
3781.000000	64.945054 
3780.000000	64.954948 
3779.000000	64.963054 
3778.000000	64.968967 
3777.000000	64.972448 
3776.000000	64.973855 
3775.000000	64.973950 
3774.000000	64.974045 
3773.000000	64.975476 
3772.000000	64.979147 
3771.000000	64.985108 
3770.000000	64.992594 
3769.000000	65.000319 
3768.000000	65.006947 
3767.000000	65.011596 
3766.000000	65.014100 
3765.000000	65.015268 
3764.000000	65.016388 
3763.000000	65.018987 
3762.000000	65.024113 
3761.000000	65.031981 
3760.000000	65.041804 
3759.000000	65.052080 
3758.000000	65.061140 
3757.000000	65.067577 
3756.000000	65.070867 
3755.000000	65.071606 
3754.000000	65.071415 
3753.000000	65.072584 
3752.000000	65.077686 
3751.000000	65.088677 
3750.000000	65.106606 
3749.000000	65.131616 
3748.000000	65.162563 
3747.000000	65.197587 
3746.000000	65.234255 
3745.000000	65.270018 
3744.000000	65.302324 
3743.000000	65.328979 
3742.000000	65.348291 
3741.000000	65.359401 
3740.000000	65.362262 
3739.000000	65.357518 
3738.000000	65.346789 
3737.000000	65.332126 
3736.000000	65.316128 
3735.000000	65.301156 
3734.000000	65.289330 
3733.000000	65.281748 
3732.000000	65.278720 
3731.000000	65.279650 
3730.000000	65.283298 
3729.000000	65.288138 
3728.000000	65.292716 
3727.000000	65.295958 
3726.000000	65.297269 
3725.000000	65.296483 
3724.000000	65.293812 
3723.000000	65.289473 
3722.000000	65.283918 
3721.000000	65.277361 
3720.000000	65.269851 
3719.000000	65.261054 
3718.000000	65.250706 
3717.000000	65.238213 
3716.000000	65.223050 
3715.000000	65.204882 
3714.000000	65.183806 
3713.000000	65.160274 
3712.000000	65.135240 
3711.000000	65.110135 
3710.000000	65.086960 
3709.000000	65.067815 
3708.000000	65.054512 
3707.000000	65.048336 
3706.000000	65.049815 
3705.000000	65.058398 
3704.000000	65.072798 
3703.000000	65.090918 
3702.000000	65.110492 
3701.000000	65.129232 
3700.000000	65.145373 
3699.000000	65.157437 
3698.000000	65.164470 
3697.000000	65.166020 
3696.000000	65.161895 
3695.000000	65.152573 
3694.000000	65.138673 
3693.000000	65.121364 
3692.000000	65.101957 
3691.000000	65.082073 
3690.000000	65.063166 
3689.000000	65.046620 
3688.000000	65.033197 
3687.000000	65.022730 
3686.000000	65.014648 
3685.000000	65.008163 
3684.000000	65.002560 
3683.000000	64.997553 
3682.000000	64.993691 
3681.000000	64.992070 
3680.000000	64.993953 
3679.000000	65.000224 
3678.000000	65.011000 
3677.000000	65.025281 
3676.000000	65.040922 
3675.000000	65.055084 
3674.000000	65.065002 
3673.000000	65.068411 
3672.000000	65.064167 
3671.000000	65.052199 
3670.000000	65.033721 
3669.000000	65.010380 
3668.000000	64.984059 
3667.000000	64.956521 
3666.000000	64.929103 
3665.000000	64.903235 
3664.000000	64.880490 
3663.000000	64.862990 
3662.000000	64.853167 
3661.000000	64.853453 
3660.000000	64.865493 
3659.000000	64.889502 
3658.000000	64.923858 
3657.000000	64.965176 
3656.000000	65.008902 
3655.000000	65.050148 
3654.000000	65.084719 
3653.000000	65.110063 
3652.000000	65.125417 
3651.000000	65.132284 
3650.000000	65.133404 
3649.000000	65.131616 
3648.000000	65.129280 
3647.000000	65.127825 
3646.000000	65.127301 
3645.000000	65.127038 
3644.000000	65.125870 
3643.000000	65.123295 
3642.000000	65.119338 
3641.000000	65.114879 
3640.000000	65.111064 
3639.000000	65.108871 
3638.000000	65.108633 
3637.000000	65.109825 
3636.000000	65.110993 
3635.000000	65.109920 
3634.000000	65.104174 
3633.000000	65.091586 
3632.000000	65.070819 
3631.000000	65.041708 
3630.000000	65.005397 
3629.000000	64.964485 
3628.000000	64.922332 
3627.000000	64.883160 
3626.000000	64.851355 
3625.000000	64.831018 
3624.000000	64.825391 
3623.000000	64.836430 
3622.000000	64.864253 
3621.000000	64.907407 
3620.000000	64.962458 
3619.000000	65.024638 
3618.000000	65.088534 
3617.000000	65.148544 
3616.000000	65.199899 
3615.000000	65.238571 
3614.000000	65.261888 
3613.000000	65.268540 
3612.000000	65.258622 
3611.000000	65.233373 
3610.000000	65.195465 
3609.000000	65.148353 
3608.000000	65.096378 
3607.000000	65.044045 
3606.000000	64.995765 
3605.000000	64.955258 
3604.000000	64.925312 
3603.000000	64.907288 
3602.000000	64.901304 
3601.000000	64.906167 
3600.000000	64.920115 
3599.000000	64.940786 
3598.000000	64.965939 
3597.000000	64.993572 
3596.000000	65.022110 
3595.000000	65.049886 
3594.000000	65.075397 
3593.000000	65.096950 
3592.000000	65.112733 
3591.000000	65.121650 
3590.000000	65.122866 
3589.000000	65.116333 
3588.000000	65.102458 
3587.000000	65.082573 
3586.000000	65.058040 
3585.000000	65.030121 
3584.000000	65.000057 
3583.000000	64.968848 
3582.000000	64.937520 
3581.000000	64.907288 
3580.000000	64.879775 
3579.000000	64.856815 
3578.000000	64.840483 
3577.000000	64.832782 
3576.000000	64.835071 
3575.000000	64.847755 
3574.000000	64.870190 
3573.000000	64.900612 
3572.000000	64.936423 
3571.000000	64.974355 
3570.000000	65.011215 
3569.000000	65.043592 
3568.000000	65.068483 
3567.000000	65.083098 
3566.000000	65.085124 
3565.000000	65.072846 
3564.000000	65.046048 
3563.000000	65.005946 
3562.000000	64.955568 
3561.000000	64.899539 
3560.000000	64.843821 
3559.000000	64.794778 
3558.000000	64.758396 
3557.000000	64.739131 
3556.000000	64.739131 
3555.000000	64.757943 
3554.000000	64.792490 
3553.000000	64.837670 
3552.000000	64.887285 
3551.000000	64.935135 
3550.000000	64.975976 
3549.000000	65.006160 
3548.000000	65.024113 
3547.000000	65.030145 
3546.000000	65.026211 
3545.000000	65.015196 
3544.000000	64.999842 
3543.000000	64.982819 
3542.000000	64.965748 
3541.000000	64.949369 
3540.000000	64.933276 
3539.000000	64.916729 
3538.000000	64.898967 
3537.000000	64.879727 
3536.000000	64.859867 
3535.000000	64.841055 
3534.000000	64.825606 
3533.000000	64.815711 
3532.000000	64.813184 
3531.000000	64.818739 
3530.000000	64.831662 
3529.000000	64.849972 
3528.000000	64.870691 
3527.000000	64.890718 
3526.000000	64.907312 
3525.000000	64.918708 
3524.000000	64.924383 
3523.000000	64.925265 
3522.000000	64.923238 
3521.000000	64.920759 
3520.000000	64.920139 
3519.000000	64.922904 
3518.000000	64.929819 
3517.000000	64.940595 
3516.000000	64.954113 
3515.000000	64.968585 
3514.000000	64.982104 
3513.000000	64.992952 
3512.000000	64.999914 
3511.000000	65.002679 
3510.000000	65.001726 
3509.000000	64.998316 
3508.000000	64.994287 
3507.000000	64.991521 
3506.000000	64.991593 
3505.000000	64.995551 
3504.000000	65.003657 
3503.000000	65.015268 
3502.000000	65.028905 
3501.000000	65.042757 
3500.000000	65.054893 
3499.000000	65.063786 
3498.000000	65.068531 
3497.000000	65.069007 
3496.000000	65.065860 
3495.000000	65.060472 
3494.000000	65.054559 
3493.000000	65.049934 
3492.000000	65.047955 
3491.000000	65.049409 
3490.000000	65.053939 
3489.000000	65.060567 
3488.000000	65.067219 
3487.000000	65.071296 
3486.000000	65.070104 
3485.000000	65.061283 
3484.000000	65.043759 
3483.000000	65.018081 
3482.000000	64.986801 
3481.000000	64.953827 
3480.000000	64.923954 
3479.000000	64.901971 
3478.000000	64.891457 
3477.000000	64.893817 
3476.000000	64.908146 
3475.000000	64.931249 
3474.000000	64.958167 
3473.000000	64.983510 
3472.000000	65.002608 
3471.000000	65.012407 
3470.000000	65.012168 
3469.000000	65.003275 
3468.000000	64.988923 
3467.000000	64.973163 
3466.000000	64.959979 
3465.000000	64.952421 
3464.000000	64.952135 
3463.000000	64.958882 
3462.000000	64.971303 
3461.000000	64.986872 
3460.000000	65.002679 
3459.000000	65.015602 
3458.000000	65.023088 
3457.000000	65.023326 
3456.000000	65.015482 
3455.000000	64.999794 
3454.000000	64.977264 
3453.000000	64.949679 
3452.000000	64.919161 
3451.000000	64.887881 
3450.000000	64.857959 
3449.000000	64.831185 
3448.000000	64.808654 
3447.000000	64.791202 
3446.000000	64.779424 
3445.000000	64.773869 
3444.000000	64.775156 
3443.000000	64.784049 
3442.000000	64.801192 
3441.000000	64.827013 
3440.000000	64.861130 
3439.000000	64.902162 
3438.000000	64.947462 
3437.000000	64.993524 
3436.000000	65.035963 
3435.000000	65.070652 
3434.000000	65.094017 
3433.000000	65.103697 
3432.000000	65.098953 
3431.000000	65.080738 
3430.000000	65.051698 
3429.000000	65.015697 
3428.000000	64.977216 
3427.000000	64.940786 
3426.000000	64.910483 
3425.000000	64.889359 
3424.000000	64.879369 
3423.000000	64.881253 
3422.000000	64.894628 
3421.000000	64.918279 
3420.000000	64.950370 
3419.000000	64.988493 
3418.000000	65.030121 
3417.000000	65.072631 
3416.000000	65.113663 
3415.000000	65.150785 
3414.000000	65.182018 
3413.000000	65.205717 
3412.000000	65.220928 
3411.000000	65.227293 
3410.000000	65.225386 
3409.000000	65.216302 
3408.000000	65.201950 
3407.000000	65.184330 
3406.000000	65.165567 
3405.000000	65.147423 
3404.000000	65.131235 
3403.000000	65.117621 
3402.000000	65.107059 
3401.000000	65.099501 
3400.000000	65.094661 
3399.000000	65.091896 
3398.000000	65.090346 
3397.000000	65.088677 
3396.000000	65.085268 
3395.000000	65.078449 
3394.000000	65.066623 
3393.000000	65.049004 
3392.000000	65.025544 
3391.000000	64.997529 
3390.000000	64.967584 
3389.000000	64.939141 
3388.000000	64.915752 
3387.000000	64.900445 
3386.000000	64.895009 
3385.000000	64.899563 
3384.000000	64.912772 
3383.000000	64.932203 
3382.000000	64.955067 
3381.000000	64.978671 
3380.000000	65.000772 
3379.000000	65.019869 
3378.000000	65.034747 
3377.000000	65.044450 
3376.000000	65.047931 
3375.000000	65.044093 
3374.000000	65.032005 
3373.000000	65.011477 
3372.000000	64.983296 
3371.000000	64.949488 
3370.000000	64.913034 
3369.000000	64.877748 
3368.000000	64.847230 
3367.000000	64.824223 
3366.000000	64.810323 
3365.000000	64.805507 
3364.000000	64.808797 
3363.000000	64.818692 
3362.000000	64.833807 
3361.000000	64.853167 
3360.000000	64.876270 
3359.000000	64.902615 
3358.000000	64.931416 
3357.000000	64.961171 
3356.000000	64.989352 
3355.000000	65.013003 
3354.000000	65.029191 
3353.000000	65.035963 
3352.000000	65.032768 
3351.000000	65.020895 
3350.000000	65.003442 
3349.000000	64.984178 
3348.000000	64.966988 
3347.000000	64.954471 
3346.000000	64.947581 
3345.000000	64.945530 
3344.000000	64.946317 
3343.000000	64.947295 
3342.000000	64.946341 
3341.000000	64.942336 
3340.000000	64.935541 
3339.000000	64.927339 
3338.000000	64.919686 
3337.000000	64.914441 
3336.000000	64.912724 
3335.000000	64.914631 
3334.000000	64.919042 
3333.000000	64.923906 
3332.000000	64.926838 
3331.000000	64.925837 
3330.000000	64.919829 
3329.000000	64.909076 
3328.000000	64.895248 
3327.000000	64.881110 
3326.000000	64.870023 
3325.000000	64.865255 
3324.000000	64.869046 
3323.000000	64.882397 
3322.000000	64.904260 
3321.000000	64.931941 
3320.000000	64.961123 
3319.000000	64.986968 
3318.000000	65.004754 
3317.000000	65.011072 
3316.000000	65.004348 
3315.000000	64.985251 
3314.000000	64.956450 
3313.000000	64.921808 
3312.000000	64.885830 
3311.000000	64.852499 
3310.000000	64.825248 
3309.000000	64.806365 
3308.000000	64.797115 
3307.000000	64.797687 
3306.000000	64.807486 
3305.000000	64.825367 
3304.000000	64.849662 
3303.000000	64.878559 
3302.000000	64.910125 
3301.000000	64.942502 
3300.000000	64.974093 
3299.000000	65.003252 
3298.000000	65.028810 
3297.000000	65.049791 
3296.000000	65.065598 
3295.000000	65.075802 
3294.000000	65.080308 
3293.000000	65.079140 
3292.000000	65.072870 
3291.000000	65.062308 
3290.000000	65.048718 
3289.000000	65.033507 
3288.000000	65.018177 
3287.000000	65.003848 
3286.000000	64.991188 
3285.000000	64.980149 
3284.000000	64.970207 
3283.000000	64.960527 
3282.000000	64.950323 
3281.000000	64.939427 
3280.000000	64.928221 
3279.000000	64.917564 
3278.000000	64.908647 
3277.000000	64.902377 
3276.000000	64.899277 
3275.000000	64.899039 
3274.000000	64.900898 
3273.000000	64.903426 
3272.000000	64.905381 
3271.000000	64.906144 
3270.000000	64.906215 
3269.000000	64.906620 
3268.000000	64.909076 
3267.000000	64.915299 
3266.000000	64.926505 
3265.000000	64.942741 
3264.000000	64.962720 
3263.000000	64.984130 
3262.000000	65.004014 
3261.000000	65.019679 
3260.000000	65.029144 
3259.000000	65.031528 
3258.000000	65.027308 
3257.000000	65.017914 
3256.000000	65.005326 
3255.000000	64.991569 
3254.000000	64.978098 
3253.000000	64.965581 
3252.000000	64.954137 
3251.000000	64.943313 
3250.000000	64.932560 
3249.000000	64.921450 
3248.000000	64.909911 
3247.000000	64.898419 
3246.000000	64.887475 
3245.000000	64.877986 
3244.000000	64.870476 
3243.000000	64.865493 
3242.000000	64.863348 
3241.000000	64.864325 
3240.000000	64.868593 
3239.000000	64.876270 
3238.000000	64.887356 
3237.000000	64.901471 
3236.000000	64.917778 
3235.000000	64.935016 
3234.000000	64.951276 
3233.000000	64.964580 
3232.000000	64.972925 
3231.000000	64.974737 
3230.000000	64.969015 
3229.000000	64.955496 
3228.000000	64.934635 
3227.000000	64.907336 
3226.000000	64.875078 
3225.000000	64.839291 
3224.000000	64.801573 
3223.000000	64.763617 
3222.000000	64.727401 
3221.000000	64.694976 
3220.000000	64.668679 
3219.000000	64.650630 
3218.000000	64.642691 
3217.000000	64.645719 
3216.000000	64.659762 
3215.000000	64.683413 
3214.000000	64.714264 
3213.000000	64.748787 
3212.000000	64.783287 
3211.000000	64.814186 
3210.000000	64.838767 
3209.000000	64.855194 
3208.000000	64.862966 
3207.000000	64.862632 
3206.000000	64.855790 
3205.000000	64.844632 
3204.000000	64.831709 
3203.000000	64.819478 
3202.000000	64.810156 
3201.000000	64.805650 
3200.000000	64.807128 
3199.000000	64.814972 
3198.000000	64.828538 
3197.000000	64.846301 
3196.000000	64.865922 
3195.000000	64.884686 
3194.000000	64.899849 
3193.000000	64.909625 
3192.000000	64.913082 
3191.000000	64.911150 
3190.000000	64.905762 
3189.000000	64.900207 
3188.000000	64.897942 
3187.000000	64.901971 
3186.000000	64.914321 
3185.000000	64.935111 
3184.000000	64.962887 
3183.000000	64.994335 
3182.000000	65.025329 
3181.000000	65.051388 
3180.000000	65.068769 
3179.000000	65.075039 
3178.000000	65.069532 
3177.000000	65.053439 
3176.000000	65.029382 
3175.000000	65.000677 
3174.000000	64.970779 
3173.000000	64.942479 
3172.000000	64.917516 
3171.000000	64.896297 
3170.000000	64.877915 
3169.000000	64.860820 
3168.000000	64.843392 
3167.000000	64.824557 
3166.000000	64.804124 
3165.000000	64.782643 
3164.000000	64.761376 
3163.000000	64.741635 
3162.000000	64.724588 
3161.000000	64.710450 
3160.000000	64.698839 
3159.000000	64.688968 
3158.000000	64.680314 
3157.000000	64.672756 
3156.000000	64.666962 
3155.000000	64.664268 
3154.000000	64.666318 
3153.000000	64.674353 
3152.000000	64.688777 
3151.000000	64.708805 
3150.000000	64.732384 
3149.000000	64.756584 
3148.000000	64.778327 
3147.000000	64.795279 
3146.000000	64.806556 
3145.000000	64.812946 
3144.000000	64.816665 
3143.000000	64.820647 
3142.000000	64.827847 
3141.000000	64.840102 
3140.000000	64.857482 
3139.000000	64.877963 
3138.000000	64.898061 
3137.000000	64.913654 
3136.000000	64.921069 
3135.000000	64.918160 
3134.000000	64.904928 
3133.000000	64.883708 
3132.000000	64.858150 
3131.000000	64.832901 
3130.000000	64.812064 
3129.000000	64.798569 
3128.000000	64.793395 
3127.000000	64.795708 
3126.000000	64.803481 
3125.000000	64.814066 
3124.000000	64.825201 
3123.000000	64.835500 
3122.000000	64.844679 
3121.000000	64.853334 
3120.000000	64.862251 
3119.000000	64.872026 
3118.000000	64.882516 
3117.000000	64.892888 
3116.000000	64.901757 
3115.000000	64.907789 
3114.000000	64.909768 
3113.000000	64.907240 
3112.000000	64.900588 
3111.000000	64.890766 
3110.000000	64.879322 
3109.000000	64.867782 
3108.000000	64.857649 
3107.000000	64.849948 
3106.000000	64.845108 
3105.000000	64.843201 
3104.000000	64.843606 
3103.000000	64.845466 
3102.000000	64.847922 
3101.000000	64.850115 
3100.000000	64.851737 
3099.000000	64.852786 
3098.000000	64.853858 
3097.000000	64.855790 
3096.000000	64.859700 
3095.000000	64.866518 
3094.000000	64.876508 
3093.000000	64.889073 
3092.000000	64.902663 
3091.000000	64.914917 
3090.000000	64.923167 
3089.000000	64.924907 
3088.000000	64.918446 
3087.000000	64.903283 
3086.000000	64.880371 
3085.000000	64.851951 
3084.000000	64.821028 
3083.000000	64.791202 
3082.000000	64.766001 
3081.000000	64.748263 
3080.000000	64.739918 
3079.000000	64.741516 
3078.000000	64.752221 
3077.000000	64.769959 
3076.000000	64.791631 
3075.000000	64.813661 
3074.000000	64.832520 
3073.000000	64.845395 
3072.000000	64.850544 
3071.000000	64.847946 
3070.000000	64.839005 
3069.000000	64.826679 
3068.000000	64.814639 
3067.000000	64.806747 
3066.000000	64.805912 
3065.000000	64.813685 
3064.000000	64.829754 
3063.000000	64.852166 
3062.000000	64.877629 
3061.000000	64.902162 
3060.000000	64.922189 
3059.000000	64.935135 
3058.000000	64.940118 
3057.000000	64.937829 
3056.000000	64.930486 
3055.000000	64.921188 
3054.000000	64.913487 
3053.000000	64.910316 
3052.000000	64.913463 
3051.000000	64.923191 
3050.000000	64.938282 
3049.000000	64.956521 
3048.000000	64.975333 
3047.000000	64.992237 
3046.000000	65.005469 
3045.000000	65.014362 
3044.000000	65.019083 
3043.000000	65.020585 
3042.000000	65.020036 
3041.000000	65.018272 
3040.000000	65.015602 
3039.000000	65.011620 
3038.000000	65.005421 
3037.000000	64.995980 
3036.000000	64.982485 
3035.000000	64.964818 
3034.000000	64.943623 
3033.000000	64.920186 
3032.000000	64.896178 
3031.000000	64.873313 
3030.000000	64.852881 
3029.000000	64.835667 
3028.000000	64.821815 
3027.000000	64.811515 
3026.000000	64.804458 
3025.000000	64.800524 
3024.000000	64.799594 
3023.000000	64.801716 
3022.000000	64.806771 
3021.000000	64.814567 
3020.000000	64.824628 
3019.000000	64.836382 
3018.000000	64.848875 
3017.000000	64.860987 
3016.000000	64.871692 
3015.000000	64.879965 
3014.000000	64.884901 
3013.000000	64.885640 
3012.000000	64.881610 
3011.000000	64.872527 
3010.000000	64.858627 
3009.000000	64.840698 
3008.000000	64.819979 
3007.000000	64.798235 
3006.000000	64.777445 
3005.000000	64.759492 
3004.000000	64.745783 
3003.000000	64.737057 
3002.000000	64.733195 
3001.000000	64.733505 
3000.000000	64.736914 
2999.000000	64.742279 
2998.000000	64.748382 
2997.000000	64.754343 
2996.000000	64.759230 
2995.000000	64.762139 
2994.000000	64.762330 
2993.000000	64.759063 
2992.000000	64.752125 
2991.000000	64.741492 
2990.000000	64.728140 
2989.000000	64.713931 
2988.000000	64.701557 
2987.000000	64.693999 
2986.000000	64.693832 
2985.000000	64.702582 
2984.000000	64.720201 
2983.000000	64.744758 
2982.000000	64.772605 
2981.000000	64.798974 
2980.000000	64.818930 
2979.000000	64.828443 
2978.000000	64.824986 
2977.000000	64.808249 
2976.000000	64.780163 
2975.000000	64.744639 
2974.000000	64.706420 
2973.000000	64.670443 
2972.000000	64.641189 
2971.000000	64.621257 
2970.000000	64.611506 
2969.000000	64.610481 
2968.000000	64.615440 
2967.000000	64.622330 
2966.000000	64.627242 
2965.000000	64.626741 
2964.000000	64.618420 
2963.000000	64.601945 
2962.000000	64.578580 
2961.000000	64.551138 
2960.000000	64.523243 
2959.000000	64.498758 
2958.000000	64.480948 
2957.000000	64.472055 
2956.000000	64.472961 
2955.000000	64.483094 
2954.000000	64.500880 
2953.000000	64.524102 
2952.000000	64.550399 
2951.000000	64.577651 
2950.000000	64.604401 
2949.000000	64.629626 
2948.000000	64.653277 
2947.000000	64.675498 
2946.000000	64.696788 
2945.000000	64.717745 
2944.000000	64.738464 
2943.000000	64.758872 
2942.000000	64.778304 
2941.000000	64.795970 
2940.000000	64.810609 
2939.000000	64.820861 
2938.000000	64.825224 
2937.000000	64.822888 
2936.000000	64.813566 
2935.000000	64.797949 
2934.000000	64.777445 
2933.000000	64.754247 
2932.000000	64.730620 
2931.000000	64.708638 
2930.000000	64.689922 
2929.000000	64.675354 
2928.000000	64.665293 
2927.000000	64.659738 
2926.000000	64.658570 
2925.000000	64.661693 
2924.000000	64.668917 
2923.000000	64.679908 
2922.000000	64.693856 
2921.000000	64.709377 
2920.000000	64.724826 
2919.000000	64.738273 
2918.000000	64.747905 
2917.000000	64.752507 
2916.000000	64.751577 
2915.000000	64.745545 
2914.000000	64.735579 
2913.000000	64.723086 
2912.000000	64.709687 
2911.000000	64.696502 
2910.000000	64.684200 
2909.000000	64.672899 
2908.000000	64.662408 
2907.000000	64.652585 
2906.000000	64.643669 
2905.000000	64.636373 
2904.000000	64.631772 
2903.000000	64.631128 
2902.000000	64.635324 
2901.000000	64.644432 
2900.000000	64.657521 
2899.000000	64.672660 
2898.000000	64.687442 
2897.000000	64.699482 
2896.000000	64.707112 
2895.000000	64.709806 
2894.000000	64.708089 
2893.000000	64.703726 
2892.000000	64.698815 
2891.000000	64.695286 
2890.000000	64.694142 
2889.000000	64.695572 
2888.000000	64.698672 
2887.000000	64.702033 
2886.000000	64.704012 
2885.000000	64.703512 
2884.000000	64.700293 
2883.000000	64.695072 
2882.000000	64.689278 
2881.000000	64.684510 
2880.000000	64.682245 
2879.000000	64.683341 
2878.000000	64.687895 
2877.000000	64.695143 
2876.000000	64.703774 
2875.000000	64.712357 
2874.000000	64.719605 
2873.000000	64.724469 
2872.000000	64.726376 
2871.000000	64.725089 
2870.000000	64.720702 
2869.000000	64.713191 
2868.000000	64.702677 
2867.000000	64.689111 
2866.000000	64.672780 
2865.000000	64.653873 
2864.000000	64.633107 
2863.000000	64.611411 
2862.000000	64.589762 
2861.000000	64.569425 
2860.000000	64.551663 
2859.000000	64.537501 
2858.000000	64.527750 
2857.000000	64.522886 
2856.000000	64.522910 
2855.000000	64.527654 
2854.000000	64.536452 
2853.000000	64.548397 
2852.000000	64.562249 
2851.000000	64.576768 
2850.000000	64.590716 
2849.000000	64.603042 
2848.000000	64.613151 
2847.000000	64.620780 
2846.000000	64.626169 
2845.000000	64.629697 
2844.000000	64.632081 
2843.000000	64.633679 
2842.000000	64.634799 
2841.000000	64.635443 
2840.000000	64.635586 
2839.000000	64.635372 
2838.000000	64.635205 
2837.000000	64.635992 
2836.000000	64.638948 
2835.000000	64.645242 
2834.000000	64.655804 
2833.000000	64.670896 
2832.000000	64.689850 
2831.000000	64.711046 
2830.000000	64.732170 
2829.000000	64.750695 
2828.000000	64.764356 
2827.000000	64.771699 
2826.000000	64.772200 
2825.000000	64.766550 
2824.000000	64.756250 
2823.000000	64.743351 
2822.000000	64.729762 
2821.000000	64.717078 
2820.000000	64.706444 
2819.000000	64.698410 
2818.000000	64.693117 
2817.000000	64.690327 
2816.000000	64.689707 
2815.000000	64.690852 
2814.000000	64.693212 
2813.000000	64.696240 
2812.000000	64.699554 
2811.000000	64.702939 
2810.000000	64.706420 
2809.000000	64.710259 
2808.000000	64.715123 
2807.000000	64.721798 
2806.000000	64.730811 
2805.000000	64.742422 
2804.000000	64.756369 
2803.000000	64.771652 
2802.000000	64.786672 
2801.000000	64.799523 
2800.000000	64.808320 
2799.000000	64.811754 
2798.000000	64.809203 
2797.000000	64.801025 
2796.000000	64.788341 
2795.000000	64.772915 
2794.000000	64.756727 
2793.000000	64.741587 
2792.000000	64.728832 
2791.000000	64.719247 
2790.000000	64.713096 
2789.000000	64.710307 
2788.000000	64.710378 
2787.000000	64.712786 
2786.000000	64.716887 
2785.000000	64.721751 
2784.000000	64.726209 
2783.000000	64.728856 
2782.000000	64.728236 
2781.000000	64.722824 
2780.000000	64.711785 
2779.000000	64.695024 
2778.000000	64.673328 
2777.000000	64.648461 
2776.000000	64.622902 
2775.000000	64.599537 
2774.000000	64.581131 
2773.000000	64.569926 
2772.000000	64.567160 
2771.000000	64.573073 
2770.000000	64.586758 
2769.000000	64.606547 
2768.000000	64.630270 
2767.000000	64.655351 
2766.000000	64.679431 
2765.000000	64.700603 
2764.000000	64.717316 
2763.000000	64.728713 
2762.000000	64.734292 
2761.000000	64.734005 
2760.000000	64.728283 
2759.000000	64.718008 
2758.000000	64.704418 
2757.000000	64.688897 
2756.000000	64.673209 
2755.000000	64.659214 
2754.000000	64.648604 
2753.000000	64.642667 
2752.000000	64.642190 
2751.000000	64.647388 
2750.000000	64.657807 
2749.000000	64.672493 
2748.000000	64.690065 
2747.000000	64.708948 
2746.000000	64.727568 
2745.000000	64.744448 
2744.000000	64.758324 
2743.000000	64.768338 
2742.000000	64.773821 
2741.000000	64.774656 
2740.000000	64.771008 
2739.000000	64.763617 
2738.000000	64.753866 
2737.000000	64.743375 
2736.000000	64.734053 
2735.000000	64.727926 
2734.000000	64.726567 
2733.000000	64.730811 
2732.000000	64.740371 
2731.000000	64.754271 
2730.000000	64.770627 
2729.000000	64.787030 
2728.000000	64.801025 
2727.000000	64.810633 
2726.000000	64.814805 
2725.000000	64.813518 
2724.000000	64.807748 
2723.000000	64.799356 
2722.000000	64.790487 
2721.000000	64.783120 
2720.000000	64.778614 
2719.000000	64.777588 
2718.000000	64.779686 
2717.000000	64.784026 
2716.000000	64.789247 
2715.000000	64.794015 
2714.000000	64.797186 
2713.000000	64.798045 
2712.000000	64.796376 
2711.000000	64.792203 
2710.000000	64.785695 
2709.000000	64.776992 
2708.000000	64.766073 
2707.000000	64.752817 
2706.000000	64.737343 
2705.000000	64.719843 
2704.000000	64.701247 
2703.000000	64.682650 
2702.000000	64.665603 
2701.000000	64.651703 
2700.000000	64.642071 
2699.000000	64.637136 
2698.000000	64.636278 
2697.000000	64.637994 
2696.000000	64.640235 
2695.000000	64.640855 
2694.000000	64.637947 
2693.000000	64.630699 
2692.000000	64.619326 
2691.000000	64.605140 
2690.000000	64.590215 
2689.000000	64.576601 
2688.000000	64.565992 
2687.000000	64.559388 
2686.000000	64.556860 
2685.000000	64.557695 
2684.000000	64.560818 
2683.000000	64.565062 
2682.000000	64.569616 
2681.000000	64.574050 
2680.000000	64.578223 
2679.000000	64.582300 
2678.000000	64.586520 
2677.000000	64.591002 
2676.000000	64.595794 
2675.000000	64.600777 
2674.000000	64.605832 
2673.000000	64.610838 
2672.000000	64.615678 
2671.000000	64.620208 
2670.000000	64.624166 
2669.000000	64.627194 
2668.000000	64.628672 
2667.000000	64.627957 
2666.000000	64.624762 
2665.000000	64.619040 
2664.000000	64.611411 
2663.000000	64.603018 
2662.000000	64.595413 
2661.000000	64.590287 
2660.000000	64.589166 
2659.000000	64.592909 
2658.000000	64.601922 
2657.000000	64.615893 
2656.000000	64.634108 
2655.000000	64.655447 
2654.000000	64.678549 
2653.000000	64.701962 
2652.000000	64.724183 
2651.000000	64.743590 
2650.000000	64.758872 
2649.000000	64.768600 
2648.000000	64.771890 
2647.000000	64.768433 
2646.000000	64.758634 
2645.000000	64.743638 
2644.000000	64.725399 
2643.000000	64.706182 
2642.000000	64.688420 
2641.000000	64.673995 
2640.000000	64.664173 
2639.000000	64.659094 
2638.000000	64.658117 
2637.000000	64.659976 
2636.000000	64.663052 
2635.000000	64.665746 
2634.000000	64.666795 
2633.000000	64.665460 
2632.000000	64.661502 
2631.000000	64.655137 
2630.000000	64.646959 
2629.000000	64.637660 
2628.000000	64.628052 
2627.000000	64.618778 
2626.000000	64.610385 
2625.000000	64.603257 
2624.000000	64.597654 
2623.000000	64.593887 
2622.000000	64.592003 
2621.000000	64.591717 
2620.000000	64.592456 
2619.000000	64.593243 
2618.000000	64.592862 
2617.000000	64.589881 
2616.000000	64.583277 
2615.000000	64.572334 
2614.000000	64.557170 
2613.000000	64.538812 
2612.000000	64.518952 
2611.000000	64.499735 
2610.000000	64.483308 
2609.000000	64.471387 
2608.000000	64.464855 
2607.000000	64.463686 
2606.000000	64.467024 
2605.000000	64.473390 
2604.000000	64.481377 
2603.000000	64.489889 
2602.000000	64.498353 
2601.000000	64.506673 
2600.000000	64.514875 
2599.000000	64.523053 
2598.000000	64.530801 
2597.000000	64.537453 
2596.000000	64.541912 
2595.000000	64.543271 
2594.000000	64.541244 
2593.000000	64.536333 
2592.000000	64.530158 
2591.000000	64.524984 
2590.000000	64.523482 
2589.000000	64.527726 
2588.000000	64.538836 
2587.000000	64.556384 
2586.000000	64.578604 
2585.000000	64.602494 
2584.000000	64.624619 
2583.000000	64.641809 
2582.000000	64.652061 
2581.000000	64.654541 
2580.000000	64.649772 
2579.000000	64.639306 
2578.000000	64.625406 
2577.000000	64.610314 
2576.000000	64.595890 
2575.000000	64.583420 
2574.000000	64.573502 
2573.000000	64.566397 
2572.000000	64.562010 
2571.000000	64.560055 
2570.000000	64.560174 
2569.000000	64.561939 
2568.000000	64.564824 
2567.000000	64.568233 
2566.000000	64.571642 
2565.000000	64.574718 
2564.000000	64.577651 
2563.000000	64.580941 
2562.000000	64.585399 
2561.000000	64.591932 
2560.000000	64.601302 
2559.000000	64.613676 
2558.000000	64.628648 
2557.000000	64.645195 
2556.000000	64.661884 
2555.000000	64.677166 
2554.000000	64.689779 
2553.000000	64.698982 
2552.000000	64.704656 
2551.000000	64.706897 
2550.000000	64.705872 
2549.000000	64.701652 
2548.000000	64.693975 
2547.000000	64.682364 
2546.000000	64.666461 
2545.000000	64.646196 
2544.000000	64.622449 
2543.000000	64.596724 
2542.000000	64.571142 
2541.000000	64.547991 
2540.000000	64.529180 
2539.000000	64.516234 
2538.000000	64.509558 
2537.000000	64.508962 
2536.000000	64.513421 
2535.000000	64.521503 
2534.000000	64.531517 
2533.000000	64.541840 
2532.000000	64.550852 
2531.000000	64.557433 
2530.000000	64.560770 
2529.000000	64.560508 
2528.000000	64.556789 
2527.000000	64.550161 
2526.000000	64.541554 
2525.000000	64.532184 
2524.000000	64.523291 
2523.000000	64.515852 
2522.000000	64.510464 
2521.000000	64.507174 
2520.000000	64.505577 
2519.000000	64.505195 
2518.000000	64.505696 
2517.000000	64.506840 
2516.000000	64.508867 
2515.000000	64.512300 
2514.000000	64.517688 
2513.000000	64.525246 
2512.000000	64.534831 
2511.000000	64.545655 
2510.000000	64.556622 
2509.000000	64.566564 
2508.000000	64.574646 
2507.000000	64.580440 
2506.000000	64.584255 
2505.000000	64.587020 
2504.000000	64.590239 
2503.000000	64.595484 
2502.000000	64.604020 
2501.000000	64.616465 
2500.000000	64.632725 
2499.000000	64.651918 
2498.000000	64.672636 
2497.000000	64.693236 
2496.000000	64.711976 
2495.000000	64.727210 
2494.000000	64.737772 
2493.000000	64.742660 
2492.000000	64.741277 
2491.000000	64.733028 
2490.000000	64.717888 
2489.000000	64.696073 
2488.000000	64.668416 
2487.000000	64.636111 
2486.000000	64.600968 
2485.000000	64.565420 
2484.000000	64.532136 
2483.000000	64.503836 
2482.000000	64.482688 
2481.000000	64.470148 
2480.000000	64.466667 
2479.000000	64.471673 
2478.000000	64.483428 
2477.000000	64.499497 
2476.000000	64.517140 
2475.000000	64.533710 
2474.000000	64.546751 
2473.000000	64.554953 
2472.000000	64.558005 
2471.000000	64.556646 
2470.000000	64.552330 
2469.000000	64.547157 
2468.000000	64.543390 
2467.000000	64.543008 
2466.000000	64.547348 
2465.000000	64.557027 
2464.000000	64.571690 
2463.000000	64.590167 
2462.000000	64.610600 
2461.000000	64.630508 
2460.000000	64.647126 
2459.000000	64.658236 
2458.000000	64.662003 
2457.000000	64.657616 
2456.000000	64.645218 
2455.000000	64.626312 
2454.000000	64.603233 
2453.000000	64.578676 
2452.000000	64.555215 
2451.000000	64.535140 
2450.000000	64.519596 
2449.000000	64.508533 
2448.000000	64.501047 
2447.000000	64.495491 
2446.000000	64.490199 
2445.000000	64.483880 
2444.000000	64.475846 
2443.000000	64.465975 
2442.000000	64.454865 
2441.000000	64.443492 
2440.000000	64.432573 
2439.000000	64.422774 
2438.000000	64.414358 
2437.000000	64.407777 
2436.000000	64.403295 
2435.000000	64.401555 
2434.000000	64.403319 
2433.000000	64.409518 
2432.000000	64.420604 
2431.000000	64.436674 
2430.000000	64.456939 
2429.000000	64.480257 
2428.000000	64.504575 
2427.000000	64.528107 
2426.000000	64.549279 
2425.000000	64.567279 
2424.000000	64.582180 
2423.000000	64.594364 
2422.000000	64.604353 
2421.000000	64.612364 
2420.000000	64.618158 
2419.000000	64.620900 
2418.000000	64.619350 
2417.000000	64.612507 
2416.000000	64.600086 
2415.000000	64.582753 
2414.000000	64.561986 
2413.000000	64.540219 
2412.000000	64.520049 
2411.000000	64.503765 
2410.000000	64.492797 
2409.000000	64.487361 
2408.000000	64.486742 
2407.000000	64.489293 
2406.000000	64.492988 
2405.000000	64.496064 
2404.000000	64.497303 
2403.000000	64.496159 
2402.000000	64.493036 
2401.000000	64.488601 
2400.000000	64.483714 
2399.000000	64.479041 
2398.000000	64.474749 
2397.000000	64.470696 
2396.000000	64.466285 
2395.000000	64.460921 
2394.000000	64.454317 
2393.000000	64.446592 
2392.000000	64.438366 
2391.000000	64.430832 
2390.000000	64.425373 
2389.000000	64.423418 
2388.000000	64.425969 
2387.000000	64.433336 
2386.000000	64.445042 
2385.000000	64.459681 
2384.000000	64.475250 
2383.000000	64.489483 
2382.000000	64.500117 
2381.000000	64.505386 
2380.000000	64.504289 
2379.000000	64.496850 
2378.000000	64.484143 
2377.000000	64.468073 
2376.000000	64.451217 
2375.000000	64.436364 
2374.000000	64.425969 
2373.000000	64.421892 
2372.000000	64.425134 
2371.000000	64.435672 
2370.000000	64.452505 
2369.000000	64.473986 
2368.000000	64.498043 
2367.000000	64.522624 
2366.000000	64.546036 
2365.000000	64.567208 
2364.000000	64.585566 
2363.000000	64.600920 
2362.000000	64.613270 
2361.000000	64.622330 
2360.000000	64.627385 
2359.000000	64.627552 
2358.000000	64.621639 
2357.000000	64.608836 
2356.000000	64.588809 
2355.000000	64.562344 
2354.000000	64.531254 
2353.000000	64.498257 
2352.000000	64.466309 
2351.000000	64.438176 
2350.000000	64.415812 
2349.000000	64.399862 
2348.000000	64.389824 
2347.000000	64.384031 
2346.000000	64.380478 
2345.000000	64.377093 
2344.000000	64.372658 
2343.000000	64.366793 
2342.000000	64.360094 
2341.000000	64.353632 
2340.000000	64.348530 
2339.000000	64.345455 
2338.000000	64.344668 
2337.000000	64.345836 
2336.000000	64.348316 
2335.000000	64.351511 
2334.000000	64.355325 
2333.000000	64.360260 
2332.000000	64.367318 
2331.000000	64.377617 
2330.000000	64.392089 
2329.000000	64.410948 
2328.000000	64.433383 
2327.000000	64.457631 
2326.000000	64.481139 
2325.000000	64.500975 
2324.000000	64.514803 
2323.000000	64.520788 
2322.000000	64.518189 
2321.000000	64.507460 
2320.000000	64.490246 
2319.000000	64.468955 
2318.000000	64.446258 
2317.000000	64.424896 
2316.000000	64.407324 
2315.000000	64.395380 
2314.000000	64.390063 
2313.000000	64.391469 
2312.000000	64.398908 
2311.000000	64.411020 
2310.000000	64.425969 
2309.000000	64.441657 
2308.000000	64.456129 
2307.000000	64.467811 
2306.000000	64.475870 
2305.000000	64.480042 
2304.000000	64.480900 
2303.000000	64.479470 
2302.000000	64.477014 
2301.000000	64.474797 
2300.000000	64.473605 
2299.000000	64.473915 
2298.000000	64.475536 
2297.000000	64.477920 
2296.000000	64.480137 
2295.000000	64.481472 
2294.000000	64.481329 
2293.000000	64.479470 
2292.000000	64.475965 
2291.000000	64.471220 
2290.000000	64.465737 
2289.000000	64.459943 
2288.000000	64.454102 
2287.000000	64.448070 
2286.000000	64.441370 
2285.000000	64.433646 
2284.000000	64.424443 
2283.000000	64.413785 
2282.000000	64.401984 
2281.000000	64.389896 
2280.000000	64.378881 
2279.000000	64.370489 
2278.000000	64.366030 
2277.000000	64.366388 
2276.000000	64.371776 
2275.000000	64.381575 
2274.000000	64.394283 
2273.000000	64.407944 
2272.000000	64.420342 
2271.000000	64.429569 
2270.000000	64.434289 
2269.000000	64.434123 
2268.000000	64.429378 
2267.000000	64.421319 
2266.000000	64.411616 
2265.000000	64.402294 
2264.000000	64.395117 
2263.000000	64.391398 
2262.000000	64.391899 
2261.000000	64.396405 
2260.000000	64.403939 
2259.000000	64.412951 
2258.000000	64.421629 
2257.000000	64.428186 
2256.000000	64.431118 
2255.000000	64.429569 
2254.000000	64.423441 
2253.000000	64.413213 
2252.000000	64.399957 
2251.000000	64.384913 
2250.000000	64.369535 
2249.000000	64.355087 
2248.000000	64.342594 
2247.000000	64.332699 
2246.000000	64.325833 
2245.000000	64.322113 
2244.000000	64.321494 
2243.000000	64.323687 
2242.000000	64.328217 
2241.000000	64.334440 
2240.000000	64.341759 
2239.000000	64.349341 
2238.000000	64.356565 
2237.000000	64.363098 
2236.000000	64.369010 
2235.000000	64.374494 
2234.000000	64.379858 
2233.000000	64.385294 
2232.000000	64.390754 
2231.000000	64.395833 
2230.000000	64.399981 
2229.000000	64.402627 
2228.000000	64.403462 
2227.000000	64.402484 
2226.000000	64.399933 
2225.000000	64.396286 
2224.000000	64.391827 
2223.000000	64.386773 
2222.000000	64.380812 
2221.000000	64.373373 
2220.000000	64.363765 
2219.000000	64.351534 
2218.000000	64.336585 
2217.000000	64.319372 
2216.000000	64.301133 
2215.000000	64.283394 
2214.000000	64.267706 
2213.000000	64.255404 
2212.000000	64.247131 
2211.000000	64.242887 
2210.000000	64.242029 
2209.000000	64.243555 
2208.000000	64.246368 
2207.000000	64.249396 
2206.000000	64.251852 
2205.000000	64.253330 
2204.000000	64.253592 
2203.000000	64.252638 
2202.000000	64.250493 
2201.000000	64.247393 
2200.000000	64.243650 
2199.000000	64.239645 
2198.000000	64.235711 
2197.000000	64.232349 
2196.000000	64.229893 
2195.000000	64.228510 
2194.000000	64.228129 
2193.000000	64.228415 
2192.000000	64.228725 
2191.000000	64.228367 
2190.000000	64.226651 
2189.000000	64.223241 
2188.000000	64.218068 
2187.000000	64.211392 
2186.000000	64.203786 
2185.000000	64.195990 
2184.000000	64.188838 
2183.000000	64.182806 
2182.000000	64.178276 
2181.000000	64.175295 
2180.000000	64.173841 
2179.000000	64.174032 
2178.000000	64.175963 
2177.000000	64.179897 
2176.000000	64.186263 
2175.000000	64.195370 
2174.000000	64.207386 
2173.000000	64.222121 
2172.000000	64.238762 
2171.000000	64.256072 
2170.000000	64.272451 
2169.000000	64.286279 
2168.000000	64.296030 
2167.000000	64.300513 
2166.000000	64.299249 
2165.000000	64.292478 
2164.000000	64.281177 
2163.000000	64.266777 
2162.000000	64.251017 
2161.000000	64.235591 
2160.000000	64.222335 
2159.000000	64.212369 
2158.000000	64.206385 
2157.000000	64.204049 
2156.000000	64.204406 
2155.000000	64.205813 
2154.000000	64.206314 
2153.000000	64.204025 
2152.000000	64.197731 
2151.000000	64.187216 
2150.000000	64.173364 
2149.000000	64.158177 
2148.000000	64.144182 
2147.000000	64.134097 
2146.000000	64.130091 
2145.000000	64.133358 
2144.000000	64.143943 
2143.000000	64.160680 
2142.000000	64.181280 
2141.000000	64.203143 
2140.000000	64.223599 
2139.000000	64.240360 
2138.000000	64.251923 
2137.000000	64.257574 
2136.000000	64.257287 
2135.000000	64.251589 
2134.000000	64.241456 
2133.000000	64.228105 
2132.000000	64.212799 
2131.000000	64.197111 
2130.000000	64.182353 
2129.000000	64.169740 
2128.000000	64.160084 
2127.000000	64.153909 
2126.000000	64.151215 
2125.000000	64.151620 
2124.000000	64.154291 
2123.000000	64.158248 
2122.000000	64.162492 
2121.000000	64.165997 
2120.000000	64.168047 
2119.000000	64.168262 
2118.000000	64.166808 
2117.000000	64.164304 
2116.000000	64.161753 
2115.000000	64.160227 
2114.000000	64.160585 
2113.000000	64.163231 
2112.000000	64.167952 
2111.000000	64.173889 
2110.000000	64.179921 
2109.000000	64.184737 
2108.000000	64.187383 
2107.000000	64.187288 
2106.000000	64.184427 
2105.000000	64.179539 
2104.000000	64.173698 
2103.000000	64.168047 
2102.000000	64.163494 
2101.000000	64.160561 
2100.000000	64.159297 
2099.000000	64.159250 
2098.000000	64.159631 
2097.000000	64.159464 
2096.000000	64.158034 
2095.000000	64.154672 
2094.000000	64.148974 
2093.000000	64.140820 
2092.000000	64.130496 
2091.000000	64.118647 
2090.000000	64.106273 
2089.000000	64.094567 
2088.000000	64.084839 
2087.000000	64.078164 
2086.000000	64.075136 
2085.000000	64.075613 
2084.000000	64.078950 
2083.000000	64.084100 
2082.000000	64.089870 
2081.000000	64.095115 
2080.000000	64.099264 
2079.000000	64.102363 
2078.000000	64.105057 
2077.000000	64.108276 
2076.000000	64.112782 
2075.000000	64.118885 
2074.000000	64.126348 
2073.000000	64.134287 
2072.000000	64.141464 
2071.000000	64.146685 
2070.000000	64.149188 
2069.000000	64.148974 
2068.000000	64.146733 
2067.000000	64.143633 
2066.000000	64.140963 
2065.000000	64.139819 
2064.000000	64.140892 
2063.000000	64.144206 
2062.000000	64.149212 
2061.000000	64.155006 
2060.000000	64.160561 
2059.000000	64.164781 
2058.000000	64.166617 
2057.000000	64.165401 
2056.000000	64.160704 
2055.000000	64.152455 
2054.000000	64.140939 
2053.000000	64.127063 
2052.000000	64.112019 
2051.000000	64.097404 
2050.000000	64.085149 
2049.000000	64.076876 
2048.000000	64.073777 
2047.000000	64.076328 
2046.000000	64.084172 
2045.000000	64.096283 
2044.000000	64.111328 
2043.000000	64.127922 
2042.000000	64.144945 
2041.000000	64.161753 
2040.000000	64.178204 
2039.000000	64.194154 
2038.000000	64.209413 
2037.000000	64.223217 
2036.000000	64.234209 
2035.000000	64.240503 
2034.000000	64.240217 
2033.000000	64.231753 
2032.000000	64.214372 
2031.000000	64.188861 
2030.000000	64.157176 
2029.000000	64.122366 
2028.000000	64.087986 
2027.000000	64.057612 
2026.000000	64.034104 
2025.000000	64.019203 
2024.000000	64.013504 
2023.000000	64.016461 
2022.000000	64.026641 
2021.000000	64.042019 
2020.000000	64.060354 
2019.000000	64.079356 
2018.000000	64.097070 
2017.000000	64.111924 
2016.000000	64.122772 
2015.000000	64.128875 
2014.000000	64.130067 
2013.000000	64.126729 
2012.000000	64.119720 
2011.000000	64.110159 
2010.000000	64.099383 
2009.000000	64.088726 
2008.000000	64.079213 
2007.000000	64.071583 
2006.000000	64.066243 
2005.000000	64.063334 
2004.000000	64.062762 
2003.000000	64.064455 
2002.000000	64.068150 
2001.000000	64.073729 
2000.000000	64.081001 
1999.000000	64.089751 
1998.000000	64.099526 
1997.000000	64.109706 
1996.000000	64.119839 
1995.000000	64.129137 
1994.000000	64.136719 
1993.000000	64.141559 
1992.000000	64.142966 
1991.000000	64.140200 
1990.000000	64.132976 
1989.000000	64.121341 
1988.000000	64.105725 
1987.000000	64.087080 
1986.000000	64.066886 
1985.000000	64.046764 
1984.000000	64.028239 
1983.000000	64.012575 
1982.000000	64.000535 
1981.000000	63.992190 
1980.000000	63.987040 
1979.000000	63.984131 
1978.000000	63.982605 
1977.000000	63.981533 
1976.000000	63.980650 
1975.000000	63.980126 
1974.000000	63.980793 
1973.000000	63.983440 
1972.000000	63.989043 
1971.000000	63.998198 
1970.000000	64.010882 
1969.000000	64.026689 
1968.000000	64.044499 
1967.000000	64.062976 
1966.000000	64.080691 
1965.000000	64.096474 
1964.000000	64.109349 
1963.000000	64.118671 
1962.000000	64.124178 
1961.000000	64.125704 
1960.000000	64.123320 
1959.000000	64.117145 
1958.000000	64.107370 
1957.000000	64.094424 
1956.000000	64.078831 
1955.000000	64.061379 
1954.000000	64.042973 
1953.000000	64.024591 
1952.000000	64.006996 
1951.000000	63.990688 
1950.000000	63.975882 
1949.000000	63.962864 
1948.000000	63.951873 
1947.000000	63.943243 
1946.000000	63.937759 
1945.000000	63.936209 
1944.000000	63.939261 
1943.000000	63.947272 
1942.000000	63.959860 
1941.000000	63.976073 
1940.000000	63.994169 
1939.000000	64.012050 
1938.000000	64.027500 
1937.000000	64.038658 
1936.000000	64.044260 
1935.000000	64.043784 
1934.000000	64.037466 
1933.000000	64.026212 
1932.000000	64.011335 
1931.000000	63.994264 
1930.000000	63.976478 
1929.000000	63.959407 
1928.000000	63.944268 
1927.000000	63.932204 
1926.000000	63.924002 
1925.000000	63.919878 
1924.000000	63.919591 
1923.000000	63.922333 
1922.000000	63.927125 
1921.000000	63.932704 
1920.000000	63.938188 
1919.000000	63.943099 
1918.000000	63.947653 
1917.000000	63.952302 
1916.000000	63.957595 
1915.000000	63.963913 
1914.000000	63.971138 
1913.000000	63.978457 
1912.000000	63.984680 
1911.000000	63.988375 
1910.000000	63.988566 
1909.000000	63.984847 
1908.000000	63.977837 
1907.000000	63.968992 
1906.000000	63.960480 
1905.000000	63.954520 
1904.000000	63.952779 
1903.000000	63.956022 
1902.000000	63.963675 
1901.000000	63.974237 
1900.000000	63.985466 
1899.000000	63.995146 
1898.000000	64.001607 
1897.000000	64.004230 
1896.000000	64.003562 
1895.000000	64.001035 
1894.000000	63.998675 
1893.000000	63.998365 
1892.000000	64.001321 
1891.000000	64.007711 
1890.000000	64.016604 
1889.000000	64.026308 
1888.000000	64.034795 
1887.000000	64.040184 
1886.000000	64.041352 
1885.000000	64.038181 
1884.000000	64.031505 
1883.000000	64.022970 
1882.000000	64.014339 
1881.000000	64.007306 
1880.000000	64.002871 
1879.000000	64.001393 
1878.000000	64.002442 
1877.000000	64.005303 
1876.000000	64.008808 
1875.000000	64.011859 
1874.000000	64.013552 
1873.000000	64.013171 
1872.000000	64.010524 
1871.000000	64.005470 
1870.000000	63.998031 
1869.000000	63.988471 
1868.000000	63.977193 
1867.000000	63.964843 
1866.000000	63.952159 
1865.000000	63.940072 
1864.000000	63.929390 
1863.000000	63.920998 
1862.000000	63.915419 
1861.000000	63.912796 
1860.000000	63.912916 
1859.000000	63.915109 
1858.000000	63.918375 
1857.000000	63.921570 
1856.000000	63.923430 
1855.000000	63.922977 
1854.000000	63.919281 
1853.000000	63.911962 
1852.000000	63.900995 
1851.000000	63.886904 
1850.000000	63.870811 
1849.000000	63.854312 
1848.000000	63.839340 
1847.000000	63.828086 
1846.000000	63.822436 
1845.000000	63.823986 
1844.000000	63.833403 
1843.000000	63.850402 
1842.000000	63.873529 
1841.000000	63.900470 
1840.000000	63.928222 
1839.000000	63.953757 
1838.000000	63.974428 
1837.000000	63.988471 
1836.000000	63.995051 
1835.000000	63.994503 
1834.000000	63.988113 
1833.000000	63.977527 
1832.000000	63.964486 
1831.000000	63.950252 
1830.000000	63.935804 
1829.000000	63.921642 
1828.000000	63.907980 
1827.000000	63.895130 
1826.000000	63.883781 
1825.000000	63.874840 
1824.000000	63.869571 
1823.000000	63.869047 
1822.000000	63.873934 
1821.000000	63.884162 
1820.000000	63.898682 
1819.000000	63.915681 
1818.000000	63.932633 
1817.000000	63.947129 
1816.000000	63.957238 
1815.000000	63.961839 
1814.000000	63.961052 
1813.000000	63.955831 
1812.000000	63.947868 
1811.000000	63.939070 
1810.000000	63.931107 
1809.000000	63.925075 
1808.000000	63.921451 
1807.000000	63.920187 
1806.000000	63.920664 
1805.000000	63.922190 
1804.000000	63.924145 
1803.000000	63.926219 
1802.000000	63.928365 
1801.000000	63.930630 
1800.000000	63.933157 
1799.000000	63.935995 
1798.000000	63.938832 
1797.000000	63.941049 
1796.000000	63.941740 
1795.000000	63.939857 
1794.000000	63.934373 
1793.000000	63.924407 
1792.000000	63.909578 
1791.000000	63.890099 
1790.000000	63.866925 
1789.000000	63.841772 
1788.000000	63.816785 
1787.000000	63.794255 
1786.000000	63.776350 
1785.000000	63.764572 
1784.000000	63.759517 
1783.000000	63.760614 
1782.000000	63.766527 
1781.000000	63.775491 
1780.000000	63.785409 
1779.000000	63.794565 
1778.000000	63.801789 
1777.000000	63.806629 
1776.000000	63.809275 
1775.000000	63.810324 
1774.000000	63.810729 
1773.000000	63.811111 
1772.000000	63.811755 
1771.000000	63.812661 
1770.000000	63.813591 
1769.000000	63.813972 
1768.000000	63.813376 
1767.000000	63.811659 
1766.000000	63.808870 
1765.000000	63.805270 
1764.000000	63.801121 
1763.000000	63.796520 
1762.000000	63.791155 
1761.000000	63.784432 
1760.000000	63.775348 
1759.000000	63.762927 
1758.000000	63.746309 
1757.000000	63.725423 
1756.000000	63.700962 
1755.000000	63.674426 
1754.000000	63.647842 
1753.000000	63.623595 
1752.000000	63.603901 
1751.000000	63.590025 
1750.000000	63.582229 
1749.000000	63.579726 
1748.000000	63.580799 
1747.000000	63.583207 
1746.000000	63.584733 
1745.000000	63.583683 
1744.000000	63.578844 
1743.000000	63.569831 
1742.000000	63.556838 
1741.000000	63.540554 
1740.000000	63.521766 
1739.000000	63.501238 
1738.000000	63.479804 
1737.000000	63.458323 
1736.000000	63.437795 
1735.000000	63.419556 
1734.000000	63.405036 
1733.000000	63.395643 
1732.000000	63.392448 
1731.000000	63.396143 
1730.000000	63.406348 
1729.000000	63.422346 
1728.000000	63.442730 
1727.000000	63.465929 
1726.000000	63.490509 
1725.000000	63.515114 
1724.000000	63.538599 
1723.000000	63.559961 
1722.000000	63.578629 
1721.000000	63.594198 
1720.000000	63.606381 
1719.000000	63.615489 
1718.000000	63.622283 
1717.000000	63.627934 
1716.000000	63.633728 
1715.000000	63.640832 
1714.000000	63.650083 
1713.000000	63.661694 
1712.000000	63.675069 
1711.000000	63.688898 
1710.000000	63.701343 
1709.000000	63.710498 
1708.000000	63.714671 
1707.000000	63.712739 
1706.000000	63.704442 
1705.000000	63.690257 
1704.000000	63.671374 
1703.000000	63.649463 
1702.000000	63.626670 
1701.000000	63.605213 
1700.000000	63.587450 
1699.000000	63.575363 
1698.000000	63.570427 
1697.000000	63.573479 
1696.000000	63.584351 
1695.000000	63.601732 
1694.000000	63.623476 
1693.000000	63.646960 
1692.000000	63.669514 
1691.000000	63.688635 
1690.000000	63.702630 
1689.000000	63.710689 
1688.000000	63.712882 
1687.000000	63.709878 
1686.000000	63.702630 
1685.000000	63.692021 
1684.000000	63.678669 
1683.000000	63.662862 
1682.000000	63.644814 
1681.000000	63.624882 
1680.000000	63.603806 
1679.000000	63.582754 
1678.000000	63.563323 
1677.000000	63.547348 
1676.000000	63.536262 
1675.000000	63.531064 
1674.000000	63.531970 
1673.000000	63.538503 
1672.000000	63.549375 
1671.000000	63.562965 
1670.000000	63.577485 
1669.000000	63.591670 
1668.000000	63.604521 
1667.000000	63.615727 
1666.000000	63.625454 
1665.000000	63.634204 
1664.000000	63.642573 
1663.000000	63.651132 
1662.000000	63.660144 
1661.000000	63.669490 
1660.000000	63.678622 
1659.000000	63.686847 
1658.000000	63.693308 
1657.000000	63.697218 
1656.000000	63.698029 
1655.000000	63.695597 
1654.000000	63.690066 
1653.000000	63.682150 
1652.000000	63.672661 
1651.000000	63.662481 
1650.000000	63.652229 
1649.000000	63.642287 
1648.000000	63.632798 
1647.000000	63.623499 
1646.000000	63.614058 
1645.000000	63.604116 
1644.000000	63.593673 
1643.000000	63.583064 
1642.000000	63.573002 
1641.000000	63.564419 
1640.000000	63.558363 
1639.000000	63.555788 
1638.000000	63.557195 
1637.000000	63.562417 
1636.000000	63.570880 
1635.000000	63.581490 
1634.000000	63.592839 
1633.000000	63.603520 
1632.000000	63.612294 
1631.000000	63.618469 
1630.000000	63.621926 
1629.000000	63.622999 
1628.000000	63.622570 
1627.000000	63.621807 
1626.000000	63.621973 
1625.000000	63.624119 
1624.000000	63.628983 
1623.000000	63.636779 
1622.000000	63.647198 
1621.000000	63.659167 
1620.000000	63.671255 
1619.000000	63.681459 
1618.000000	63.687896 
1617.000000	63.689064 
1616.000000	63.684153 
1615.000000	63.673448 
1614.000000	63.658094 
1613.000000	63.640165 
1612.000000	63.622283 
1611.000000	63.606953 
1610.000000	63.596105 
1609.000000	63.590598 
1608.000000	63.590264 
1607.000000	63.593816 
1606.000000	63.599395 
1605.000000	63.604903 
1604.000000	63.608622 
1603.000000	63.609623 
1602.000000	63.607907 
1601.000000	63.604259 
1600.000000	63.600182 
1599.000000	63.597321 
1598.000000	63.597130 
1597.000000	63.600564 
1596.000000	63.607740 
1595.000000	63.618159 
1594.000000	63.630485 
1593.000000	63.643074 
1592.000000	63.653874 
1591.000000	63.660931 
1590.000000	63.662338 
1589.000000	63.656806 
1588.000000	63.643598 
1587.000000	63.622689 
1586.000000	63.594865 
1585.000000	63.561749 
1584.000000	63.525772 
1583.000000	63.489770 
1582.000000	63.456797 
1581.000000	63.429737 
1580.000000	63.410973 
1579.000000	63.402152 
1578.000000	63.403916 
1577.000000	63.415813 
1576.000000	63.436579 
1575.000000	63.464212 
1574.000000	63.496470 
1573.000000	63.531017 
1572.000000	63.565635 
1571.000000	63.598275 
1570.000000	63.627028 
1569.000000	63.650226 
1568.000000	63.666439 
1567.000000	63.674569 
1566.000000	63.674068 
1565.000000	63.665056 
1564.000000	63.648676 
1563.000000	63.626456 
1562.000000	63.600468 
1561.000000	63.572645 
1560.000000	63.544940 
1559.000000	63.518857 
1558.000000	63.495469 
1557.000000	63.475680 
1556.000000	63.460111 
1555.000000	63.449239 
1554.000000	63.443470 
1553.000000	63.442945 
1552.000000	63.447546 
1551.000000	63.456559 
1550.000000	63.468742 
1549.000000	63.482260 
1548.000000	63.495182 
1547.000000	63.505578 
1546.000000	63.512110 
1545.000000	63.514184 
1544.000000	63.511967 
1543.000000	63.506388 
1542.000000	63.498759 
1541.000000	63.490462 
1540.000000	63.482642 
1539.000000	63.476252 
1538.000000	63.471817 
1537.000000	63.469719 
1536.000000	63.469815 
1535.000000	63.471841 
1534.000000	63.475346 
1533.000000	63.479733 
1532.000000	63.484358 
1531.000000	63.488483 
1530.000000	63.491582 
1529.000000	63.493371 
1528.000000	63.493776 
1527.000000	63.492941 
1526.000000	63.491129 
1525.000000	63.488769 
1524.000000	63.486218 
1523.000000	63.483691 
1522.000000	63.481163 
1521.000000	63.478636 
1520.000000	63.475894 
1519.000000	63.473010 
1518.000000	63.470053 
1517.000000	63.467431 
1516.000000	63.465738 
1515.000000	63.465714 
1514.000000	63.467907 
1513.000000	63.472604 
1512.000000	63.479828 
1511.000000	63.489031 
1510.000000	63.499331 
1509.000000	63.509583 
1508.000000	63.518428 
1507.000000	63.524723 
1506.000000	63.527584 
1505.000000	63.526678 
1504.000000	63.522028 
1503.000000	63.514280 
1502.000000	63.504481 
1501.000000	63.493943 
1500.000000	63.484144 
1499.000000	63.476371 
1498.000000	63.471555 
1497.000000	63.470101 
1496.000000	63.471817 
1495.000000	63.475966 
1494.000000	63.481187 
1493.000000	63.485956 
1492.000000	63.488936 
1491.000000	63.489007 
1490.000000	63.485717 
1489.000000	63.479042 
1488.000000	63.469600 
1487.000000	63.458371 
1486.000000	63.446736 
1485.000000	63.436007 
1484.000000	63.427519 
1483.000000	63.422369 
1482.000000	63.421201 
1481.000000	63.424420 
1480.000000	63.431763 
1479.000000	63.442587 
1478.000000	63.455677 
1477.000000	63.469552 
1476.000000	63.482499 
1475.000000	63.492894 
1474.000000	63.499236 
1473.000000	63.500547 
1472.000000	63.496255 
1471.000000	63.486504 
1470.000000	63.471937 
1469.000000	63.453745 
1468.000000	63.433313 
1467.000000	63.412356 
1466.000000	63.392448 
1465.000000	63.375139 
1464.000000	63.361477 
1463.000000	63.352441 
1462.000000	63.348484 
1461.000000	63.349819 
1460.000000	63.356065 
1459.000000	63.366460 
1458.000000	63.379645 
1457.000000	63.394165 
1456.000000	63.408231 
1455.000000	63.420200 
1454.000000	63.428735 
1453.000000	63.433003 
1452.000000	63.432860 
1451.000000	63.428640 
1450.000000	63.421010 
1449.000000	63.410782 
1448.000000	63.398790 
1447.000000	63.385748 
1446.000000	63.372397 
1445.000000	63.359475 
1444.000000	63.347768 
1443.000000	63.338208 
1442.000000	63.331627 
1441.000000	63.328647 
1440.000000	63.329577 
1439.000000	63.333868 
1438.000000	63.340425 
1437.000000	63.347434 
1436.000000	63.352942 
1435.000000	63.355016 
1434.000000	63.352632 
1433.000000	63.345527 
1432.000000	63.334846 
1431.000000	63.322567 
1430.000000	63.311553 
1429.000000	63.304424 
1428.000000	63.303494 
1427.000000	63.310050 
1426.000000	63.324069 
1425.000000	63.343906 
1424.000000	63.366866 
1423.000000	63.389468 
1422.000000	63.408136 
1421.000000	63.419938 
1420.000000	63.423037 
1419.000000	63.417243 
1418.000000	63.404011 
1417.000000	63.386178 
1416.000000	63.367271 
1415.000000	63.350605 
1414.000000	63.338875 
1413.000000	63.333320 
1412.000000	63.333559 
1411.000000	63.337659 
1410.000000	63.342809 
1409.000000	63.345980 
1408.000000	63.344740 
1407.000000	63.337779 
1406.000000	63.325095 
1405.000000	63.307857 
1404.000000	63.287830 
1403.000000	63.266944 
1402.000000	63.246417 
1401.000000	63.226819 
1400.000000	63.207936 
1399.000000	63.189244 
1398.000000	63.170385 
1397.000000	63.151717 
1396.000000	63.134455 
1395.000000	63.120770 
1394.000000	63.113188 
1393.000000	63.114070 
1392.000000	63.124847 
1391.000000	63.145542 
1390.000000	63.174271 
1389.000000	63.207769 
1388.000000	63.241791 
1387.000000	63.271975 
1386.000000	63.294625 
1385.000000	63.307619 
1384.000000	63.310480 
1383.000000	63.304662 
1382.000000	63.292694 
1381.000000	63.277554 
1380.000000	63.261938 
1379.000000	63.247728 
1378.000000	63.235783 
1377.000000	63.226056 
1376.000000	63.217830 
1375.000000	63.210535 
1374.000000	63.203811 
1373.000000	63.197660 
1372.000000	63.192820 
1371.000000	63.190221 
1370.000000	63.190937 
1369.000000	63.195610 
1368.000000	63.204526 
1367.000000	63.217306 
1366.000000	63.233041 
1365.000000	63.250422 
1364.000000	63.267731 
1363.000000	63.283300 
1362.000000	63.295221 
1361.000000	63.301849 
1360.000000	63.301849 
1359.000000	63.294577 
1358.000000	63.280415 
1357.000000	63.261055 
1356.000000	63.239097 
1355.000000	63.217949 
1354.000000	63.201451 
1353.000000	63.192939 
1352.000000	63.194513 
1351.000000	63.206529 
1350.000000	63.227653 
1349.000000	63.254857 
1348.000000	63.284206 
1347.000000	63.311409 
1346.000000	63.332843 
1345.000000	63.346076 
1344.000000	63.350152 
1343.000000	63.345575 
1342.000000	63.334012 
1341.000000	63.317847 
1340.000000	63.299536 
1339.000000	63.281345 
1338.000000	63.265037 
1337.000000	63.251733 
1336.000000	63.242125 
1335.000000	63.236141 
1334.000000	63.233113 
1333.000000	63.231921 
1332.000000	63.230848 
1331.000000	63.228058 
1330.000000	63.221836 
1329.000000	63.210916 
1328.000000	63.194942 
1327.000000	63.174390 
1326.000000	63.150811 
1325.000000	63.126492 
1324.000000	63.104081 
1323.000000	63.085889 
1322.000000	63.073635 
1321.000000	63.067913 
1320.000000	63.068151 
1319.000000	63.072943 
1318.000000	63.080334 
1317.000000	63.088202 
1316.000000	63.095116 
1315.000000	63.100361 
1314.000000	63.104009 
1313.000000	63.106822 
1312.000000	63.109874 
1311.000000	63.114213 
1310.000000	63.120484 
1309.000000	63.128709 
1308.000000	63.138246 
1307.000000	63.147926 
1306.000000	63.156437 
1305.000000	63.162732 
1304.000000	63.166165 
1303.000000	63.166570 
1302.000000	63.164424 
1301.000000	63.160681 
1300.000000	63.156318 
1299.000000	63.152265 
1298.000000	63.149070 
1297.000000	63.146638 
1296.000000	63.144445 
1295.000000	63.141441 
1294.000000	63.136744 
1293.000000	63.129520 
1292.000000	63.119268 
1291.000000	63.106274 
1290.000000	63.091516 
1289.000000	63.076710 
1288.000000	63.063693 
1287.000000	63.054323 
1286.000000	63.049983 
1285.000000	63.051319 
1284.000000	63.058018 
1283.000000	63.068819 
1282.000000	63.081789 
1281.000000	63.094854 
1280.000000	63.106131 
1279.000000	63.114404 
1278.000000	63.119339 
1277.000000	63.121533 
1276.000000	63.122224 
1275.000000	63.122868 
1274.000000	63.124632 
1273.000000	63.128185 
1272.000000	63.133287 
1271.000000	63.139081 
1270.000000	63.144302 
1269.000000	63.147687 
1268.000000	63.148450 
1267.000000	63.146591 
1266.000000	63.142943 
1265.000000	63.138723 
1264.000000	63.135385 
1263.000000	63.134074 
1262.000000	63.135266 
1261.000000	63.138580 
1260.000000	63.142824 
1259.000000	63.146376 
1258.000000	63.147497 
1257.000000	63.144898 
1256.000000	63.137912 
1255.000000	63.126683 
1254.000000	63.112068 
1253.000000	63.095259 
1252.000000	63.077592 
1251.000000	63.060092 
1250.000000	63.043522 
1249.000000	63.028264 
1248.000000	63.014459 
1247.000000	63.002181 
1246.000000	62.991666 
1245.000000	62.983441 
1244.000000	62.978100 
1243.000000	62.976336 
1242.000000	62.978839 
1241.000000	62.986016 
1240.000000	62.997722 
1239.000000	63.013219 
1238.000000	63.031244 
1237.000000	63.049960 
1236.000000	63.067269 
1235.000000	63.081145 
1234.000000	63.090038 
1233.000000	63.092947 
1232.000000	63.089728 
1231.000000	63.080930 
1230.000000	63.067698 
1229.000000	63.051676 
1228.000000	63.034605 
1227.000000	63.018274 
1226.000000	63.004064 
1225.000000	62.993121 
1224.000000	62.986207 
1223.000000	62.983608 
1222.000000	62.984991 
1221.000000	62.989783 
1220.000000	62.997126 
1219.000000	63.005876 
1218.000000	63.015198 
1217.000000	63.024067 
1216.000000	63.031959 
1215.000000	63.038682 
1214.000000	63.044428 
1213.000000	63.049626 
1212.000000	63.054609 
1211.000000	63.059782 
1210.000000	63.065028 
1209.000000	63.069963 
1208.000000	63.073658 
1207.000000	63.075065 
1206.000000	63.073134 
1205.000000	63.067030 
1204.000000	63.056588 
1203.000000	63.042545 
1202.000000	63.026332 
1201.000000	63.010001 
1200.000000	62.995982 
1199.000000	62.986564 
1198.000000	62.983465 
1197.000000	62.987279 
1196.000000	62.997555 
1195.000000	63.012576 
1194.000000	63.029551 
1193.000000	63.045120 
1192.000000	63.055777 
1191.000000	63.058686 
1190.000000	63.051843 
1189.000000	63.034844 
1188.000000	63.008809 
1187.000000	62.976264 
1186.000000	62.940788 
1185.000000	62.906455 
1184.000000	62.876939 
1183.000000	62.854981 
1182.000000	62.842011 
1181.000000	62.838006 
1180.000000	62.841582 
1179.000000	62.850451 
1178.000000	62.861990 
1177.000000	62.873768 
1176.000000	62.883925 
1175.000000	62.891387 
1174.000000	62.895894 
1173.000000	62.897443 
1172.000000	62.896108 
1171.000000	62.892007 
1170.000000	62.885093 
1169.000000	62.875175 
1168.000000	62.862110 
1167.000000	62.846136 
1166.000000	62.828230 
1165.000000	62.809944 
1164.000000	62.793350 
1163.000000	62.780594 
1162.000000	62.773561 
1161.000000	62.773370 
1160.000000	62.780356 
1159.000000	62.793540 
1158.000000	62.811279 
1157.000000	62.831521 
1156.000000	62.852287 
1155.000000	62.872004 
1154.000000	62.889504 
1153.000000	62.904024 
1152.000000	62.915515 
1151.000000	62.924170 
1150.000000	62.930750 
1149.000000	62.936258 
1148.000000	62.942075 
1147.000000	62.949824 
1146.000000	62.961077 
1145.000000	62.976908 
1144.000000	62.997674 
1143.000000	63.022398 
1142.000000	63.048982 
1141.000000	63.074231 
1140.000000	63.094496 
1139.000000	63.106131 
1138.000000	63.106775 
1137.000000	63.095211 
1136.000000	63.072419 
1135.000000	63.040637 
1134.000000	63.003301 
1133.000000	62.964057 
1132.000000	62.926268 
1131.000000	62.892723 
1130.000000	62.865185 
1129.000000	62.844729 
1128.000000	62.831902 
1127.000000	62.826704 
1126.000000	62.828755 
1125.000000	62.837219 
1124.000000	62.850594 
1123.000000	62.866973 
1122.000000	62.884092 
1121.000000	62.899470 
1120.000000	62.910795 
1119.000000	62.916469 
1118.000000	62.915730 
1117.000000	62.908697 
1116.000000	62.896227 
1115.000000	62.879848 
1114.000000	62.861275 
1113.000000	62.841916 
1112.000000	62.822914 
1111.000000	62.805271 
1110.000000	62.789726 
1109.000000	62.777161 
1108.000000	62.768268 
1107.000000	62.763810 
1106.000000	62.764310 
1105.000000	62.769842 
1104.000000	62.780117 
1103.000000	62.794280 
1102.000000	62.811279 
1101.000000	62.829947 
1100.000000	62.849116 
1099.000000	62.867593 
1098.000000	62.884497 
1097.000000	62.899017 
1096.000000	62.910389 
1095.000000	62.917780 
1094.000000	62.920451 
1093.000000	62.917733 
1092.000000	62.909221 
1091.000000	62.894749 
1090.000000	62.874722 
1089.000000	62.849974 
1088.000000	62.821650 
1087.000000	62.791109 
1086.000000	62.759780 
1085.000000	62.729001 
1084.000000	62.700152 
1083.000000	62.674546 
1082.000000	62.653326 
1081.000000	62.637519 
1080.000000	62.627482 
1079.000000	62.623071 
1078.000000	62.623476 
1077.000000	62.627506 
1076.000000	62.633395 
1075.000000	62.639832 
1074.000000	62.645673 
1073.000000	62.650561 
1072.000000	62.654757 
1071.000000	62.658977 
1070.000000	62.664079 
1069.000000	62.670612 
1068.000000	62.678694 
1067.000000	62.687587 
1066.000000	62.695884 
1065.000000	62.701964 
1064.000000	62.704467 
1063.000000	62.702679 
1062.000000	62.696647 
1061.000000	62.687087 
1060.000000	62.675261 
1059.000000	62.662720 
1058.000000	62.651038 
1057.000000	62.641477 
1056.000000	62.635111 
1055.000000	62.632799 
1054.000000	62.635350 
1053.000000	62.643170 
1052.000000	62.656402 
1051.000000	62.674713 
1050.000000	62.697529 
1049.000000	62.723731 
1048.000000	62.751865 
1047.000000	62.780284 
1046.000000	62.806940 
1045.000000	62.829995 
1044.000000	62.847328 
1043.000000	62.857031 
1042.000000	62.857317 
1041.000000	62.846946 
1040.000000	62.825226 
1039.000000	62.792491 
1038.000000	62.750291 
1037.000000	62.701678 
1036.000000	62.650990 
1035.000000	62.603306 
1034.000000	62.564015 
1033.000000	62.537860 
1032.000000	62.527918 
1031.000000	62.535119 
1030.000000	62.557983 
1029.000000	62.593078 
1028.000000	62.635254 
1027.000000	62.679004 
1026.000000	62.719058 
1025.000000	62.751388 
1024.000000	62.773728 
1023.000000	62.785506 
1022.000000	62.787818 
1021.000000	62.782478 
1020.000000	62.771868 
1019.000000	62.757873 
1018.000000	62.741827 
1017.000000	62.724280 
1016.000000	62.705540 
1015.000000	62.685632 
1014.000000	62.664985 
1013.000000	62.644362 
1012.000000	62.624955 
1011.000000	62.608003 
1010.000000	62.594461 
1009.000000	62.584686 
1008.000000	62.578344 
1007.000000	62.574481 
1006.000000	62.571930 
1005.000000	62.569570 
1004.000000	62.566709 
1003.000000	62.563085 
1002.000000	62.559008 
1001.000000	62.554955 
1000.000000	62.551760 
999.000000	 62.549853 
998.000000	 62.549686 
997.000000	 62.551188 
996.000000	 62.554359 
995.000000	 62.559247 
994.000000	 62.566089 
993.000000	 62.575197 
992.000000	 62.587141 
991.000000	 62.602376 
990.000000	 62.621212 
989.000000	 62.643718 
988.000000	 62.669515 
987.000000	 62.697815 
986.000000	 62.727499 
985.000000	 62.757301 
984.000000	 62.785434 
983.000000	 62.809658 
982.000000	 62.827730 
981.000000	 62.837505 
980.000000	 62.837123 
979.000000	 62.825489 
978.000000	 62.802910 
977.000000	 62.771105 
976.000000	 62.733244 
975.000000	 62.693643 
974.000000	 62.657094 
973.000000	 62.627983 
972.000000	 62.609767 
971.000000	 62.604165 
970.000000	 62.610912 
969.000000	 62.627983 
968.000000	 62.651944 
967.000000	 62.678837 
966.000000	 62.704777 
965.000000	 62.726759 
964.000000	 62.743091 
963.000000	 62.753534 
962.000000	 62.758803 
961.000000	 62.760376 
960.000000	 62.759900 
959.000000	 62.758898 
958.000000	 62.758350 
957.000000	 62.758851 
956.000000	 62.760496 
955.000000	 62.763071 
954.000000	 62.766122 
953.000000	 62.768888 
952.000000	 62.770533 
951.000000	 62.769818 
950.000000	 62.765717 
949.000000	 62.757539 
948.000000	 62.745213 
947.000000	 62.729549 
946.000000	 62.711906 
945.000000	 62.694215 
944.000000	 62.678313 
943.000000	 62.665772 
942.000000	 62.657165 
941.000000	 62.651801 
940.000000	 62.648034 
939.000000	 62.643480 
938.000000	 62.636137 
937.000000	 62.624740 
936.000000	 62.609601 
935.000000	 62.592291 
934.000000	 62.575912 
933.000000	 62.564182 
932.000000	 62.560629 
931.000000	 62.567448 
930.000000	 62.585139 
929.000000	 62.612199 
928.000000	 62.645483 
927.000000	 62.680482 
926.000000	 62.712430 
925.000000	 62.736916 
924.000000	 62.750744 
923.000000	 62.752342 
922.000000	 62.741875 
921.000000	 62.721228 
920.000000	 62.693643 
919.000000	 62.663125 
918.000000	 62.633705 
917.000000	 62.608861 
916.000000	 62.591385 
915.000000	 62.582445 
914.000000	 62.581801 
913.000000	 62.587666 
912.000000	 62.597084 
911.000000	 62.606501 
910.000000	 62.612247 
909.000000	 62.611579 
908.000000	 62.602996 
907.000000	 62.586688 
906.000000	 62.564373 
905.000000	 62.539052 
904.000000	 62.514257 
903.000000	 62.493252 
902.000000	 62.478065 
901.000000	 62.469434 
900.000000	 62.466669 
899.000000	 62.467956 
898.000000	 62.471342 
897.000000	 62.475013 
896.000000	 62.478280 
895.000000	 62.481617 
894.000000	 62.486410 
893.000000	 62.494277 
892.000000	 62.506365 
891.000000	 62.522768 
890.000000	 62.541985 
889.000000	 62.561154 
888.000000	 62.576508 
887.000000	 62.584376 
886.000000	 62.582182 
885.000000	 62.569308 
884.000000	 62.547326 
883.000000	 62.519884 
882.000000	 62.492084 
881.000000	 62.469172 
880.000000	 62.455725 
879.000000	 62.454676 
878.000000	 62.466764 
877.000000	 62.490606 
876.000000	 62.523102 
875.000000	 62.560319 
874.000000	 62.598156 
873.000000	 62.633085 
872.000000	 62.662506 
871.000000	 62.684917 
870.000000	 62.699747 
869.000000	 62.707209 
868.000000	 62.708020 
867.000000	 62.703132 
866.000000	 62.693881 
865.000000	 62.681341 
864.000000	 62.667059 
863.000000	 62.652134 
862.000000	 62.637853 
861.000000	 62.624788 
860.000000	 62.613391 
859.000000	 62.603402 
858.000000	 62.594223 
857.000000	 62.585163 
856.000000	 62.575483 
855.000000	 62.564826 
854.000000	 62.553334 
853.000000	 62.541556 
852.000000	 62.530541 
851.000000	 62.521529 
850.000000	 62.515544 
849.000000	 62.513160 
848.000000	 62.514209 
847.000000	 62.517714 
846.000000	 62.522196 
845.000000	 62.525939 
844.000000	 62.527298 
843.000000	 62.525200 
842.000000	 62.519192 
841.000000	 62.509799 
840.000000	 62.498116 
839.000000	 62.485599 
838.000000	 62.473773 
837.000000	 62.463974 
836.000000	 62.457156 
835.000000	 62.453627 
834.000000	 62.453079 
833.000000	 62.454748 
832.000000	 62.457776 
831.000000	 62.461137 
830.000000	 62.464046 
829.000000	 62.466192 
828.000000	 62.467861 
827.000000	 62.469720 
826.000000	 62.472748 
825.000000	 62.477493 
824.000000	 62.484312 
823.000000	 62.493062 
822.000000	 62.503099 
821.000000	 62.513637 
820.000000	 62.523865 
819.000000	 62.533354 
818.000000	 62.541961 
817.000000	 62.549829 
816.000000	 62.557530 
815.000000	 62.565517 
814.000000	 62.574100 
813.000000	 62.582850 
812.000000	 62.591004 
811.000000	 62.596917 
810.000000	 62.598586 
809.000000	 62.593746 
808.000000	 62.580561 
807.000000	 62.558293 
806.000000	 62.527728 
805.000000	 62.491250 
804.000000	 62.452793 
803.000000	 62.417030 
802.000000	 62.388753 
801.000000	 62.371635 
800.000000	 62.367558 
799.000000	 62.376236 
798.000000	 62.395286 
797.000000	 62.420749 
796.000000	 62.448072 
795.000000	 62.473297 
794.000000	 62.493991 
793.000000	 62.509512 
792.000000	 62.520837 
791.000000	 62.530088 
790.000000	 62.539505 
789.000000	 62.550735 
788.000000	 62.564063 
787.000000	 62.578630 
786.000000	 62.592124 
785.000000	 62.602138 
784.000000	 62.606120 
783.000000	 62.602305 
782.000000	 62.589597 
781.000000	 62.568163 
780.000000	 62.539243 
779.000000	 62.504982 
778.000000	 62.468147 
777.000000	 62.431907 
776.000000	 62.399315 
775.000000	 62.373113 
774.000000	 62.355279 
773.000000	 62.346863 
772.000000	 62.347364 
771.000000	 62.354803 
770.000000	 62.366032 
769.000000	 62.377381 
768.000000	 62.385463 
767.000000	 62.388014 
766.000000	 62.384366 
765.000000	 62.375545 
764.000000	 62.364292 
763.000000	 62.354326 
762.000000	 62.349271 
761.000000	 62.351918 
760.000000	 62.363791 
759.000000	 62.384510 
758.000000	 62.412428 
757.000000	 62.444162 
756.000000	 62.475538 
755.000000	 62.502241 
754.000000	 62.520170 
753.000000	 62.526631 
752.000000	 62.520337 
751.000000	 62.502360 
750.000000	 62.475538 
749.000000	 62.444448 
748.000000	 62.414598 
747.000000	 62.391567 
746.000000	 62.380003 
745.000000	 62.382197 
744.000000	 62.397789 
743.000000	 62.423443 
742.000000	 62.453770 
741.000000	 62.482094 
740.000000	 62.502121 
739.000000	 62.509202 
738.000000	 62.501478 
737.000000	 62.480187 
736.000000	 62.449288 
735.000000	 62.414360 
734.000000	 62.381243 
733.000000	 62.354850 
732.000000	 62.338018 
731.000000	 62.331128 
730.000000	 62.332081 
729.000000	 62.337136 
728.000000	 62.341785 
727.000000	 62.342071 
726.000000	 62.335467 
725.000000	 62.321400 
724.000000	 62.301301 
723.000000	 62.277936 
722.000000	 62.254691 
721.000000	 62.234306 
720.000000	 62.218880 
719.000000	 62.209081 
718.000000	 62.204551 
717.000000	 62.204027 
716.000000	 62.206172 
715.000000	 62.209987 
714.000000	 62.214708 
713.000000	 62.219834 
712.000000	 62.224507 
711.000000	 62.227463 
710.000000	 62.227344 
709.000000	 62.222671 
708.000000	 62.212347 
707.000000	 62.196159 
706.000000	 62.174940 
705.000000	 62.150979 
704.000000	 62.127661 
703.000000	 62.109160 
702.000000	 62.098670 
701.000000	 62.098479 
700.000000	 62.109112 
699.000000	 62.129497 
698.000000	 62.156605 
697.000000	 62.187051 
696.000000	 62.217426 
695.000000	 62.246155 
694.000000	 62.273931 
693.000000	 62.303185 
692.000000	 62.337303 
691.000000	 62.378621 
690.000000	 62.427353 
689.000000	 62.479901 
688.000000	 62.529110 
687.000000	 62.565565 
686.000000	 62.579917 
685.000000	 62.565016 
684.000000	 62.518358 
683.000000	 62.443184 
682.000000	 62.348651 
681.000000	 62.247920 
680.000000	 62.156462 
679.000000	 62.089014 
678.000000	 62.056803 
677.000000	 62.066030 
676.000000	 62.116360 
675.000000	 62.201094 
674.000000	 62.308597 
673.000000	 62.424516 
672.000000	 62.534189 
671.000000	 62.624645 
670.000000	 62.686705 
669.000000	 62.715816 
668.000000	 62.711858 
667.000000	 62.678098 
666.000000	 62.619924 
665.000000	 62.543773 
664.000000	 62.455582 
663.000000	 62.360596 
662.000000	 62.262725 
661.000000	 62.165307 
660.000000	 62.070822 
659.000000	 61.981844 
658.000000	 61.901068 
657.000000	 61.831736 
656.000000	 61.776995 
655.000000	 61.740350 
654.000000	 61.723875 
653.000000	 61.728954 
652.000000	 61.755061 
651.000000	 61.800670 
650.000000	 61.862301 
649.000000	 61.935567 
648.000000	 62.015032 
647.000000	 62.095522 
646.000000	 62.171649 
645.000000	 62.239432 
644.000000	 62.296915 
643.000000	 62.343358 
642.000000	 62.378907 
641.000000	 62.404036 
640.000000	 62.419486 
639.000000	 62.425541 
638.000000	 62.422633 
637.000000	 62.411308 
636.000000	 62.392783 
635.000000	 62.369775 
634.000000	 62.346386 
633.000000	 62.327527 
632.000000	 62.317705 
631.000000	 62.320351 
630.000000	 62.336516 
629.000000	 62.363362 
628.000000	 62.394952 
627.000000	 62.424111 
626.000000	 62.443709 
625.000000	 62.449574 
624.000000	 62.439537 
623.000000	 62.415122 
622.000000	 62.377905 
621.000000	 62.329101 
620.000000	 62.267374 
619.000000	 62.187743 
618.000000	 62.085342 
617.000000	 61.957621 
616.000000	 61.808395 
615.000000	 61.648273 
614.000000	 61.495447 
613.000000	 61.372876 
612.000000	 61.302280 
611.000000	 61.298799 
610.000000	 61.364817 
609.000000	 61.487960 
608.000000	 61.643409 
607.000000	 61.799526 
606.000000	 61.927366 
605.000000	 62.007784 
604.000000	 62.036681 
603.000000	 62.024688 
602.000000	 61.992669 
601.000000	 61.964201 
600.000000	 61.957287 
599.000000	 61.978244 
598.000000	 62.021636 
597.000000	 62.070250 
596.000000	 62.103986 
595.000000	 62.102246 
594.000000	 62.052464 
593.000000	 61.951112 
592.000000	 61.804127 
591.000000	 61.626315 
590.000000	 61.435556 
589.000000	 61.252760 
588.000000	 61.095881 
587.000000	 60.981106 
586.000000	 60.920214 
585.000000	 60.921216 
584.000000	 60.988259 
583.000000	 61.117982 
582.000000	 61.299133 
581.000000	 61.511397 
580.000000	 61.727643 
579.000000	 61.917209 
578.000000	 62.051391 
577.000000	 62.109589 
576.000000	 62.083530 
575.000000	 61.980104 
574.000000	 61.818671 
573.000000	 61.627483 
572.000000	 61.435675 
571.000000	 61.268091 
570.000000	 61.138534 
569.000000	 61.049866 
568.000000	 60.993671 
567.000000	 60.954809 
566.000000	 60.917735 
565.000000	 60.871720 
564.000000	 60.815310 
563.000000	 60.755038 
562.000000	 60.705518 
561.000000	 60.682201 
560.000000	 60.699224 
559.000000	 60.762977 
558.000000	 60.871815 
557.000000	 61.015319 
556.000000	 61.176800 
555.000000	 61.336708 
554.000000	 61.477065 
553.000000	 61.585259 
552.000000	 61.655449 
551.000000	 61.688733 
550.000000	 61.691355 
549.000000	 61.672115 
548.000000	 61.639785 
547.000000	 61.601376 
546.000000	 61.560487 
545.000000	 61.518836 
544.000000	 61.478257 
543.000000	 61.442065 
542.000000	 61.416864 
541.000000	 61.411094 
540.000000	 61.432600 
539.000000	 61.486768 
538.000000	 61.574482 
537.000000	 61.690735 
536.000000	 61.824798 
535.000000	 61.961388 
534.000000	 62.083458 
533.000000	 62.175512 
532.000000	 62.226963 
531.000000	 62.233996 
530.000000	 62.199687 
529.000000	 62.135481 
528.000000	 62.058758 
527.000000	 61.989283 
526.000000	 61.944770 
525.000000	 61.936616 
524.000000	 61.967110 
523.000000	 62.028479 
522.000000	 62.104749 
521.000000	 62.175464 
520.000000	 62.221503 
519.000000	 62.229609 
518.000000	 62.196969 
517.000000	 62.131476 
516.000000	 62.050080 
515.000000	 61.974215 
514.000000	 61.923289 
513.000000	 61.910414 
512.000000	 61.936759 
511.000000	 61.992931 
510.000000	 62.058568 
509.000000	 62.110018 
508.000000	 62.123370 
507.000000	 62.082529 
506.000000	 61.979818 
505.000000	 61.817979 
504.000000	 61.608314 
503.000000	 61.367249 
502.000000	 61.115431 
501.000000	 60.874176 
500.000000	 60.663652 
499.000000	 60.500693 
498.000000	 60.399150 
497.000000	 60.368847 
496.000000	 60.413908 
495.000000	 60.531830 
494.000000	 60.712933 
493.000000	 60.940241 
492.000000	 61.190176 
491.000000	 61.435222 
490.000000	 61.645865 
489.000000	 61.796116 
488.000000	 61.866259 
487.000000	 61.848402 
486.000000	 61.747741 
485.000000	 61.582756 
484.000000	 61.382842 
483.000000	 61.181950 
482.000000	 61.013197 
481.000000	 60.901379 
480.000000	 60.860395 
479.000000	 60.889196 
478.000000	 60.975432 
477.000000	 61.095571 
476.000000	 61.221742 
475.000000	 61.324977 
474.000000	 61.381244 
473.000000	 61.374807 
472.000000	 61.300706 
471.000000	 61.165976 
470.000000	 60.987734 
469.000000	 60.791921 
468.000000	 60.607743 
467.000000	 60.461497 
466.000000	 60.370993 
465.000000	 60.344958 
464.000000	 60.380244 
463.000000	 60.462498 
462.000000	 60.570335 
461.000000	 60.679650 
460.000000	 60.769820 
459.000000	 60.828781 
458.000000	 60.853004 
457.000000	 60.845851 
456.000000	 60.814523 
455.000000	 60.766410 
454.000000	 60.705757 
453.000000	 60.632324 
452.000000	 60.542511 
451.000000	 60.432219 
450.000000	 60.300159 
449.000000	 60.151815 
448.000000	 59.996771 
447.000000	 59.848165 
446.000000	 59.718656 
445.000000	 59.618663 
444.000000	 59.556317 
443.000000	 59.538030 
442.000000	 59.569931 
441.000000	 59.658694 
440.000000	 59.812021 
439.000000	 60.035514 
438.000000	 60.331344 
437.000000	 60.691118 
436.000000	 61.092424 
435.000000	 61.497831 
434.000000	 61.859750 
433.000000	 62.128162 
432.000000	 62.260937 
431.000000	 62.234568 
430.000000	 62.050294 
429.000000	 61.736965 
428.000000	 61.347818 
427.000000	 60.948967 
426.000000	 60.609459 
425.000000	 60.381388 
424.000000	 60.289716 
423.000000	 60.329341 
422.000000	 60.471415 
421.000000	 60.668182 
420.000000	 60.866212 
419.000000	 61.022830 
418.000000	 61.117029 
417.000000	 61.145091 
416.000000	 61.120390 
415.000000	 61.068463 
414.000000	 61.020541 
413.000000	 61.009669 
412.000000	 61.060929 
411.000000	 61.190390 
410.000000	 61.394429 
409.000000	 61.654353 
408.000000	 61.932373 
407.000000	 62.174391 
406.000000	 62.325930 
405.000000	 62.344717 
404.000000	 62.216520 
403.000000	 61.954331 
402.000000	 61.608481 
401.000000	 61.253237 
400.000000	 60.978770 
399.000000	 60.866045 
398.000000	 60.978031 
397.000000	 61.339974 
396.000000	 61.947393 
395.000000	 62.765574 
394.000000	 63.747000 
393.000000	 64.840316 
392.000000	 65.995979 
391.000000	 67.165994 
390.000000	 68.310976 
389.000000	 69.392108 
388.000000	 70.353174 
387.000000	 71.120882 
386.000000	 71.618747 
385.000000	 71.774911 
384.000000	 71.564006 
383.000000	 70.999145 
382.000000	 70.123028 
381.000000	 69.006180 
380.000000	 67.763781 
379.000000	 66.516113 
378.000000	 65.373897 
377.000000	 64.420175 
376.000000	 63.678669 
375.000000	 63.153171 
374.000000	 62.849378 
373.000000	 62.777447 
372.000000	 62.948489 
371.000000	 63.374114 
370.000000	 64.056825 

