PE IR       SPECTRUM    SPECTRUM    ASCII       PEDS        1.60        
  -1
BZ6BA0~1.ASC
17/04/07
15:56:02.00
17/04/07
15:56:02.00
tln
$BZ1503107-1_t0033$<tbV0>[-13.0,-7.8,8.0,0.0,27,1,0]
370.000000
64









2002,4.07    
MIRTGS : RIGHTBACK : INTERNAL 2
MIR : ON : INTERNAL 2
OPTKBR

0.200000
8
8.000000
FILLER
RATIO
SPECTRUM
UNLOCKED 256

DOUBLE
64
COMBINED
1
0
0


1.000000
RATIO


1
0
TRUE
51149
0
LEFT NOT FITTED RIGHT NOT FITTED 0
NONE
NONE
15600
12.000000
4.427000
51148
TRUE
1 0 8 72 0 0 0 0 

15798.010000






#HDR
-1
-1
#GR
CM-1
%T
0.00002384185791015625
0.0
5000.000000
-1.000000
4631
8
76.684165
48.534417
#DATA
5000.000000	65.372848 
4999.000000	65.309762 
4998.000000	65.241932 
4997.000000	65.170359 
4996.000000	65.093207 
4995.000000	65.008497 
4994.000000	64.915060 
4993.000000	64.814972 
4992.000000	64.713478 
4991.000000	64.618539 
4990.000000	64.538955 
4989.000000	64.482307 
4988.000000	64.452457 
4987.000000	64.448189 
4986.000000	64.463567 
4985.000000	64.489006 
4984.000000	64.514040 
4983.000000	64.529466 
4982.000000	64.529490 
4981.000000	64.512825 
4980.000000	64.482736 
4979.000000	64.445686 
4978.000000	64.408969 
4977.000000	64.378738 
4976.000000	64.358210 
4975.000000	64.347124 
4974.000000	64.342260 
4973.000000	64.338445 
4972.000000	64.330720 
4971.000000	64.315915 
4970.000000	64.293789 
4969.000000	64.267349 
4968.000000	64.241886 
4967.000000	64.223599 
4966.000000	64.217543 
4965.000000	64.225864 
4964.000000	64.246463 
4963.000000	64.273858 
4962.000000	64.300489 
4961.000000	64.318919 
4960.000000	64.323782 
4959.000000	64.314079 
4958.000000	64.293646 
4957.000000	64.269661 
4956.000000	64.250421 
4955.000000	64.243412 
4954.000000	64.252877 
4953.000000	64.278531 
4952.000000	64.315986 
4951.000000	64.358091 
4950.000000	64.397192 
4949.000000	64.427876 
4948.000000	64.447927 
4947.000000	64.459395 
4946.000000	64.466595 
4945.000000	64.473843 
4944.000000	64.483451 
4943.000000	64.494657 
4942.000000	64.503121 
4941.000000	64.502191 
4940.000000	64.485192 
4939.000000	64.448261 
4938.000000	64.392113 
4937.000000	64.322423 
4936.000000	64.249467 
4935.000000	64.185309 
4934.000000	64.142179 
4933.000000	64.129042 
4932.000000	64.150142 
4931.000000	64.203810 
4930.000000	64.283084 
4929.000000	64.377546 
4928.000000	64.474868 
4927.000000	64.563298 
4926.000000	64.633274 
4925.000000	64.678955 
4924.000000	64.698052 
4923.000000	64.692211 
4922.000000	64.666199 
4921.000000	64.627122 
4920.000000	64.583539 
4919.000000	64.544129 
4918.000000	64.517283 
4917.000000	64.508938 
4916.000000	64.523029 
4915.000000	64.559483 
4914.000000	64.614796 
4913.000000	64.681839 
4912.000000	64.751577 
4911.000000	64.814209 
4910.000000	64.860987 
4909.000000	64.885878 
4908.000000	64.886450 
4907.000000	64.864349 
4906.000000	64.824557 
4905.000000	64.774250 
4904.000000	64.721202 
4903.000000	64.672040 
4902.000000	64.631152 
4901.000000	64.600157 
4900.000000	64.578366 
4899.000000	64.563703 
4898.000000	64.553952 
4897.000000	64.546966 
4896.000000	64.541625 
4895.000000	64.537739 
4894.000000	64.536643 
4893.000000	64.539337 
4892.000000	64.547777 
4891.000000	64.563846 
4890.000000	64.589548 
4889.000000	64.626884 
4888.000000	64.676427 
4887.000000	64.736938 
4886.000000	64.804768 
4885.000000	64.874100 
4884.000000	64.937949 
4883.000000	64.989352 
4882.000000	65.022826 
4881.000000	65.035772 
4880.000000	65.028738 
4879.000000	65.005660 
4878.000000	64.971971 
4877.000000	64.933633 
4876.000000	64.894628 
4875.000000	64.856553 
4874.000000	64.818572 
4873.000000	64.778470 
4872.000000	64.734029 
4871.000000	64.684772 
4870.000000	64.633274 
4869.000000	64.585256 
4868.000000	64.548063 
4867.000000	64.529371 
4866.000000	64.534330 
4865.000000	64.564776 
4864.000000	64.618062 
4863.000000	64.687919 
4862.000000	64.765930 
4861.000000	64.842939 
4860.000000	64.911293 
4859.000000	64.965510 
4858.000000	65.002989 
4857.000000	65.023684 
4856.000000	65.029454 
4855.000000	65.023183 
4854.000000	65.007853 
4853.000000	64.986634 
4852.000000	64.962816 
4851.000000	64.939975 
4850.000000	64.921903 
4849.000000	64.912152 
4848.000000	64.913630 
4847.000000	64.927577 
4846.000000	64.953422 
4845.000000	64.988064 
4844.000000	65.026760 
4843.000000	65.064120 
4842.000000	65.095520 
4841.000000	65.118122 
4840.000000	65.131735 
4839.000000	65.138745 
4838.000000	65.143036 
4837.000000	65.149068 
4836.000000	65.160179 
4835.000000	65.177488 
4834.000000	65.199422 
4833.000000	65.222311 
4832.000000	65.241122 
4831.000000	65.251302 
4830.000000	65.249800 
4829.000000	65.236639 
4828.000000	65.214276 
4827.000000	65.186977 
4826.000000	65.159821 
4825.000000	65.137243 
4824.000000	65.122151 
4823.000000	65.115094 
4822.000000	65.114951 
4821.000000	65.119504 
4820.000000	65.126538 
4819.000000	65.134525 
4818.000000	65.142750 
4817.000000	65.151166 
4816.000000	65.159726 
4815.000000	65.167951 
4814.000000	65.174460 
4813.000000	65.177154 
4812.000000	65.173578 
4811.000000	65.161657 
4810.000000	65.140867 
4809.000000	65.112304 
4808.000000	65.078926 
4807.000000	65.044736 
4806.000000	65.014290 
4805.000000	64.991235 
4804.000000	64.977574 
4803.000000	64.973163 
4802.000000	64.975762 
4801.000000	64.981603 
4800.000000	64.986348 
4799.000000	64.986133 
4798.000000	64.978408 
4797.000000	64.962530 
4796.000000	64.939498 
4795.000000	64.911913 
4794.000000	64.883065 
4793.000000	64.856505 
4792.000000	64.835405 
4791.000000	64.821934 
4790.000000	64.817047 
4789.000000	64.820623 
4788.000000	64.831781 
4787.000000	64.848828 
4786.000000	64.869809 
4785.000000	64.892673 
4784.000000	64.915609 
4783.000000	64.936828 
4782.000000	64.955043 
4781.000000	64.969587 
4780.000000	64.980292 
4779.000000	64.987516 
4778.000000	64.991784 
4777.000000	64.993929 
4776.000000	64.994454 
4775.000000	64.993429 
4774.000000	64.990329 
4773.000000	64.984440 
4772.000000	64.975309 
4771.000000	64.963150 
4770.000000	64.949131 
4769.000000	64.935326 
4768.000000	64.924740 
4767.000000	64.920568 
4766.000000	64.925384 
4765.000000	64.940285 
4764.000000	64.964628 
4763.000000	64.996051 
4762.000000	65.031051 
4761.000000	65.066194 
4760.000000	65.098810 
4759.000000	65.128040 
4758.000000	65.154838 
4757.000000	65.181708 
4756.000000	65.212059 
4755.000000	65.248632 
4754.000000	65.292501 
4753.000000	65.342140 
4752.000000	65.393853 
4751.000000	65.442085 
4750.000000	65.481209 
4749.000000	65.506076 
4748.000000	65.513658 
4747.000000	65.503287 
4746.000000	65.477061 
4745.000000	65.438747 
4744.000000	65.392684 
4743.000000	65.343141 
4742.000000	65.293669 
4741.000000	65.246701 
4740.000000	65.203881 
4739.000000	65.166616 
4738.000000	65.136647 
4737.000000	65.116190 
4736.000000	65.107321 
4735.000000	65.111327 
4734.000000	65.127730 
4733.000000	65.153431 
4732.000000	65.183138 
4731.000000	65.209221 
4730.000000	65.224146 
4729.000000	65.222287 
4728.000000	65.201950 
4727.000000	65.165567 
4726.000000	65.120077 
4725.000000	65.075278 
4724.000000	65.041851 
4723.000000	65.028047 
4722.000000	65.038657 
4721.000000	65.073990 
4720.000000	65.129947 
4719.000000	65.199089 
4718.000000	65.273070 
4717.000000	65.344548 
4716.000000	65.408587 
4715.000000	65.463161 
4714.000000	65.508747 
4713.000000	65.547204 
4712.000000	65.580487 
4711.000000	65.609312 
4710.000000	65.632700 
4709.000000	65.647935 
4708.000000	65.652132 
4707.000000	65.642666 
4706.000000	65.618753 
4705.000000	65.581631 
4704.000000	65.535068 
4703.000000	65.484285 
4702.000000	65.435338 
4701.000000	65.393090 
4700.000000	65.360689 
4699.000000	65.338110 
4698.000000	65.322947 
4697.000000	65.310597 
4696.000000	65.295529 
4695.000000	65.273094 
4694.000000	65.240859 
4693.000000	65.199542 
4692.000000	65.152907 
4691.000000	65.106940 
4690.000000	65.068078 
4689.000000	65.041780 
4688.000000	65.030956 
4687.000000	65.035080 
4686.000000	65.050482 
4685.000000	65.070843 
4684.000000	65.088701 
4683.000000	65.097737 
4682.000000	65.094089 
4681.000000	65.077137 
4680.000000	65.049362 
4679.000000	65.015578 
4678.000000	64.981722 
4677.000000	64.953136 
4676.000000	64.933037 
4675.000000	64.922261 
4674.000000	64.918470 
4673.000000	64.917707 
4672.000000	64.915037 
4671.000000	64.905953 
4670.000000	64.887857 
4669.000000	64.860391 
4668.000000	64.826583 
4667.000000	64.791584 
4666.000000	64.762639 
4665.000000	64.746761 
4664.000000	64.749717 
4663.000000	64.774370 
4662.000000	64.819788 
4661.000000	64.881181 
4660.000000	64.950346 
4659.000000	65.017175 
4658.000000	65.071463 
4657.000000	65.105128 
4656.000000	65.113687 
4655.000000	65.097045 
4654.000000	65.060019 
4653.000000	65.010833 
4652.000000	64.959645 
4651.000000	64.915680 
4650.000000	64.886212 
4649.000000	64.873576 
4648.000000	64.875912 
4647.000000	64.886546 
4646.000000	64.896678 
4645.000000	64.897036 
4644.000000	64.880299 
4643.000000	64.843177 
4642.000000	64.786767 
4641.000000	64.717054 
4640.000000	64.642834 
4639.000000	64.574193 
4638.000000	64.519786 
4637.000000	64.485263 
4636.000000	64.472270 
4635.000000	64.478349 
4634.000000	64.497971 
4633.000000	64.524555 
4632.000000	64.552402 
4631.000000	64.577722 
4630.000000	64.599466 
4629.000000	64.619135 
4628.000000	64.639902 
4627.000000	64.664769 
4626.000000	64.695310 
4625.000000	64.730954 
4624.000000	64.768385 
4623.000000	64.802932 
4622.000000	64.828848 
4621.000000	64.841079 
4620.000000	64.836192 
4619.000000	64.814066 
4618.000000	64.777517 
4617.000000	64.732003 
4616.000000	64.684247 
4615.000000	64.641761 
4614.000000	64.610195 
4613.000000	64.592814 
4612.000000	64.588999 
4611.000000	64.595389 
4610.000000	64.605355 
4609.000000	64.610910 
4608.000000	64.604234 
4607.000000	64.579725 
4606.000000	64.535236 
4605.000000	64.472770 
4604.000000	64.398312 
4603.000000	64.320707 
4602.000000	64.250159 
4601.000000	64.196276 
4600.000000	64.165878 
4599.000000	64.161753 
4598.000000	64.182639 
4597.000000	64.223647 
4596.000000	64.277291 
4595.000000	64.335656 
4594.000000	64.391160 
4593.000000	64.438796 
4592.000000	64.475655 
4591.000000	64.502286 
4590.000000	64.521026 
4589.000000	64.535808 
4588.000000	64.550471 
4587.000000	64.568114 
4586.000000	64.590525 
4585.000000	64.617466 
4584.000000	64.647603 
4583.000000	64.677858 
4582.000000	64.704632 
4581.000000	64.723992 
4580.000000	64.732623 
4579.000000	64.727735 
4578.000000	64.707636 
4577.000000	64.671993 
4576.000000	64.622139 
4575.000000	64.560985 
4574.000000	64.493274 
4573.000000	64.425396 
4572.000000	64.364719 
4571.000000	64.318847 
4570.000000	64.294219 
4569.000000	64.295196 
4568.000000	64.322805 
4567.000000	64.374446 
4566.000000	64.443659 
4565.000000	64.520668 
4564.000000	64.594221 
4563.000000	64.653420 
4562.000000	64.689803 
4561.000000	64.697957 
4560.000000	64.677286 
4559.000000	64.631938 
4558.000000	64.569735 
4557.000000	64.500260 
4556.000000	64.433073 
4555.000000	64.376091 
4554.000000	64.334130 
4553.000000	64.308619 
4552.000000	64.298343 
4551.000000	64.300560 
4550.000000	64.312052 
4549.000000	64.329981 
4548.000000	64.352297 
4547.000000	64.377641 
4546.000000	64.404797 
4545.000000	64.432096 
4544.000000	64.456653 
4543.000000	64.474487 
4542.000000	64.481639 
4541.000000	64.474582 
4540.000000	64.450931 
4539.000000	64.410066 
4538.000000	64.354372 
4537.000000	64.288043 
4536.000000	64.216899 
4535.000000	64.146876 
4534.000000	64.083147 
4533.000000	64.028954 
4532.000000	63.985896 
4531.000000	63.953018 
4530.000000	63.927674 
4529.000000	63.906121 
4528.000000	63.884639 
4527.000000	63.860177 
4526.000000	63.831043 
4525.000000	63.797307 
4524.000000	63.760757 
4523.000000	63.724875 
4522.000000	63.693952 
4521.000000	63.672590 
4520.000000	63.664865 
4519.000000	63.673591 
4518.000000	63.700127 
4517.000000	63.744020 
4516.000000	63.803076 
4515.000000	63.873791 
4514.000000	63.951516 
4513.000000	64.030933 
4512.000000	64.106249 
4511.000000	64.172244 
4510.000000	64.223933 
4509.000000	64.257383 
4508.000000	64.269757 
4507.000000	64.260244 
4506.000000	64.229726 
4505.000000	64.181399 
4504.000000	64.120292 
4503.000000	64.053606 
4502.000000	63.988304 
4501.000000	63.930511 
4500.000000	63.884449 
4499.000000	63.852214 
4498.000000	63.833570 
4497.000000	63.826465 
4496.000000	63.827681 
4495.000000	63.834118 
4494.000000	63.842821 
4493.000000	63.852381 
4492.000000	63.862442 
4491.000000	63.874411 
4490.000000	63.890528 
4489.000000	63.913583 
4488.000000	63.946485 
4487.000000	63.990473 
4486.000000	64.044451 
4485.000000	64.103770 
4484.000000	64.160990 
4483.000000	64.207267 
4482.000000	64.234352 
4481.000000	64.236974 
4480.000000	64.214158 
4479.000000	64.170289 
4478.000000	64.114308 
4477.000000	64.058136 
4476.000000	64.013743 
4475.000000	63.990974 
4474.000000	63.995480 
4473.000000	64.027190 
4472.000000	64.081120 
4471.000000	64.146065 
4470.000000	64.207458 
4469.000000	64.252543 
4468.000000	64.273977 
4467.000000	64.271306 
4466.000000	64.251542 
4465.000000	64.229154 
4464.000000	64.221668 
4463.000000	64.243435 
4462.000000	64.301276 
4461.000000	64.396524 
4460.000000	64.521145 
4459.000000	64.654445 
4458.000000	64.771962 
4457.000000	64.855957 
4456.000000	64.896774 
4455.000000	64.896106 
4454.000000	64.864230 
4453.000000	64.817190 
4452.000000	64.769434 
4451.000000	64.729261 
4450.000000	64.696693 
4449.000000	64.660716 
4448.000000	64.613485 
4447.000000	64.555048 
4446.000000	64.501428 
4445.000000	64.483952 
4444.000000	64.539933 
4443.000000	64.701890 
4442.000000	64.983582 
4441.000000	65.374898 
4440.000000	65.837001 
4439.000000	66.318297 
4438.000000	66.763281 
4437.000000	67.140865 
4436.000000	67.459249 
4435.000000	67.772316 
4434.000000	68.164873 
4433.000000	68.728852 
4432.000000	69.543671 
4431.000000	70.632672 
4430.000000	71.954464 
4429.000000	73.387455 
4428.000000	74.760222 
4427.000000	75.873970 
4426.000000	76.553034 
4425.000000	76.684165 
4424.000000	76.251769 
4423.000000	75.340461 
4422.000000	74.121379 
4421.000000	72.811031 
4420.000000	71.624732 
4419.000000	70.734620 
4418.000000	70.238399 
4417.000000	70.159745 
4416.000000	70.455813 
4415.000000	71.039462 
4414.000000	71.801161 
4413.000000	72.619700 
4412.000000	73.379087 
4411.000000	73.965740 
4410.000000	74.285459 
4409.000000	74.273753 
4408.000000	73.904013 
4407.000000	73.196053 
4406.000000	72.206306 
4405.000000	71.024584 
4404.000000	69.751596 
4403.000000	68.485426 
4402.000000	67.307114 
4401.000000	66.281723 
4400.000000	65.447878 
4399.000000	64.823627 
4398.000000	64.405131 
4397.000000	64.173626 
4396.000000	64.097237 
4395.000000	64.128255 
4394.000000	64.220786 
4393.000000	64.331197 
4392.000000	64.427328 
4391.000000	64.486384 
4390.000000	64.498424 
4389.000000	64.461541 
4388.000000	64.384961 
4387.000000	64.284062 
4386.000000	64.173936 
4385.000000	64.066338 
4384.000000	63.969588 
4383.000000	63.887476 
4382.000000	63.822078 
4381.000000	63.773655 
4380.000000	63.742089 
4379.000000	63.726973 
4378.000000	63.727307 
4377.000000	63.741159 
4376.000000	63.765096 
4375.000000	63.794732 
4374.000000	63.821101 
4373.000000	63.837337 
4372.000000	63.842415 
4371.000000	63.838982 
4370.000000	63.829016 
4369.000000	63.818144 
4368.000000	63.814949 
4367.000000	63.826560 
4366.000000	63.856077 
4365.000000	63.903141 
4364.000000	63.964200 
4363.000000	64.032244 
4362.000000	64.098381 
4361.000000	64.153456 
4360.000000	64.190077 
4359.000000	64.204907 
4358.000000	64.199233 
4357.000000	64.178323 
4356.000000	64.150238 
4355.000000	64.123487 
4354.000000	64.105248 
4353.000000	64.100313 
4352.000000	64.110159 
4351.000000	64.133167 
4350.000000	64.165711 
4349.000000	64.204311 
4348.000000	64.245891 
4347.000000	64.288830 
4346.000000	64.332342 
4345.000000	64.376091 
4344.000000	64.419198 
4343.000000	64.459371 
4342.000000	64.492821 
4341.000000	64.515066 
4340.000000	64.521861 
4339.000000	64.510750 
4338.000000	64.481902 
4337.000000	64.438724 
4336.000000	64.386224 
4335.000000	64.330124 
4334.000000	64.275002 
4333.000000	64.223480 
4332.000000	64.175581 
4331.000000	64.129590 
4330.000000	64.082980 
4329.000000	64.034271 
4328.000000	63.984346 
4327.000000	63.937044 
4326.000000	63.897895 
4325.000000	63.873386 
4324.000000	63.868665 
4323.000000	63.886260 
4322.000000	63.924264 
4321.000000	63.977122 
4320.000000	64.036417 
4319.000000	64.093136 
4318.000000	64.139318 
4317.000000	64.170336 
4316.000000	64.185357 
4315.000000	64.187526 
4314.000000	64.182519 
4313.000000	64.177298 
4312.000000	64.178133 
4311.000000	64.189386 
4310.000000	64.212584 
4309.000000	64.246320 
4308.000000	64.287257 
4307.000000	64.330983 
4306.000000	64.373207 
4305.000000	64.410305 
4304.000000	64.439916 
4303.000000	64.461350 
4302.000000	64.474964 
4301.000000	64.481186 
4300.000000	64.480113 
4299.000000	64.471912 
4298.000000	64.456486 
4297.000000	64.433836 
4296.000000	64.404797 
4295.000000	64.371275 
4294.000000	64.336657 
4293.000000	64.305567 
4292.000000	64.283275 
4291.000000	64.274644 
4290.000000	64.283180 
4289.000000	64.310073 
4288.000000	64.353394 
4287.000000	64.408016 
4286.000000	64.466595 
4285.000000	64.521288 
4284.000000	64.564800 
4283.000000	64.591789 
4282.000000	64.600276 
4281.000000	64.592099 
4280.000000	64.572644 
4279.000000	64.549684 
4278.000000	64.532446 
4277.000000	64.529204 
4276.000000	64.546132 
4275.000000	64.585137 
4274.000000	64.643931 
4273.000000	64.715766 
4272.000000	64.790987 
4271.000000	64.858818 
4270.000000	64.909601 
4269.000000	64.937019 
4268.000000	64.939260 
4267.000000	64.918994 
4266.000000	64.882588 
4265.000000	64.837884 
4264.000000	64.793014 
4263.000000	64.753270 
4262.000000	64.720654 
4261.000000	64.693355 
4260.000000	64.667630 
4259.000000	64.638757 
4258.000000	64.603590 
4257.000000	64.561796 
4256.000000	64.516258 
4255.000000	64.472532 
4254.000000	64.437174 
4253.000000	64.415550 
4252.000000	64.410424 
4251.000000	64.421200 
4250.000000	64.444065 
4249.000000	64.473032 
4248.000000	64.501714 
4247.000000	64.524865 
4246.000000	64.539766 
4245.000000	64.546442 
4244.000000	64.547586 
4243.000000	64.547586 
4242.000000	64.551353 
4241.000000	64.562559 
4240.000000	64.582920 
4239.000000	64.612054 
4238.000000	64.647459 
4237.000000	64.685750 
4236.000000	64.723086 
4235.000000	64.756298 
4234.000000	64.783740 
4233.000000	64.805555 
4232.000000	64.823365 
4231.000000	64.839434 
4230.000000	64.856505 
4229.000000	64.876818 
4228.000000	64.901709 
4227.000000	64.931106 
4226.000000	64.963817 
4225.000000	64.997720 
4224.000000	65.030217 
4223.000000	65.058541 
4222.000000	65.080308 
4221.000000	65.093612 
4220.000000	65.097236 
4219.000000	65.090751 
4218.000000	65.074157 
4217.000000	65.048694 
4216.000000	65.016722 
4215.000000	64.982104 
4214.000000	64.949679 
4213.000000	64.924955 
4212.000000	64.913392 
4211.000000	64.919471 
4210.000000	64.945530 
4209.000000	64.991211 
4208.000000	65.053319 
4207.000000	65.125989 
4206.000000	65.201473 
4205.000000	65.271592 
4204.000000	65.329432 
4203.000000	65.370321 
4202.000000	65.392446 
4201.000000	65.397191 
4200.000000	65.388393 
4199.000000	65.371298 
4198.000000	65.350723 
4197.000000	65.330028 
4196.000000	65.309977 
4195.000000	65.288996 
4194.000000	65.263795 
4193.000000	65.230727 
4192.000000	65.187478 
4191.000000	65.134143 
4190.000000	65.074086 
4189.000000	65.013289 
4188.000000	64.959406 
4187.000000	64.919757 
4186.000000	64.899754 
4185.000000	64.901494 
4184.000000	64.922857 
4183.000000	64.958024 
4182.000000	64.998722 
4181.000000	65.035891 
4180.000000	65.062069 
4179.000000	65.072441 
4178.000000	65.066289 
4177.000000	65.046358 
4176.000000	65.018200 
4175.000000	64.988088 
4174.000000	64.962196 
4173.000000	64.945197 
4172.000000	64.939141 
4171.000000	64.943671 
4170.000000	64.956784 
4169.000000	64.975857 
4168.000000	64.998555 
4167.000000	65.023612 
4166.000000	65.050768 
4165.000000	65.080332 
4164.000000	65.112853 
4163.000000	65.147733 
4162.000000	65.182781 
4161.000000	65.214323 
4160.000000	65.237760 
4159.000000	65.248823 
4158.000000	65.244436 
4157.000000	65.224170 
4156.000000	65.191054 
4155.000000	65.150976 
4154.000000	65.111637 
4153.000000	65.080761 
4152.000000	65.064501 
4151.000000	65.065360 
4150.000000	65.081620 
4149.000000	65.107464 
4148.000000	65.134644 
4147.000000	65.154671 
4146.000000	65.160822 
4145.000000	65.150260 
4144.000000	65.124678 
4143.000000	65.089154 
4142.000000	65.050697 
4141.000000	65.016531 
4140.000000	64.992117 
4139.000000	64.979958 
4138.000000	64.979434 
4137.000000	64.987373 
4136.000000	64.999532 
4135.000000	65.012097 
4134.000000	65.022754 
4133.000000	65.030598 
4132.000000	65.036654 
4131.000000	65.042757 
4130.000000	65.051174 
4129.000000	65.062785 
4128.000000	65.077757 
4127.000000	65.095281 
4126.000000	65.113997 
4125.000000	65.132737 
4124.000000	65.150833 
4123.000000	65.168547 
4122.000000	65.186953 
4121.000000	65.207695 
4120.000000	65.232920 
4119.000000	65.264463 
4118.000000	65.303754 
4117.000000	65.351152 
4116.000000	65.405774 
4115.000000	65.465188 
4114.000000	65.525627 
4113.000000	65.582013 
4112.000000	65.628862 
4111.000000	65.660476 
4110.000000	65.672707 
4109.000000	65.663027 
4108.000000	65.631246 
4107.000000	65.579509 
4106.000000	65.512561 
4105.000000	65.436458 
4104.000000	65.358304 
4103.000000	65.284609 
4102.000000	65.220737 
4101.000000	65.170264 
4100.000000	65.135073 
4099.000000	65.115141 
4098.000000	65.108966 
4097.000000	65.113854 
4096.000000	65.126514 
4095.000000	65.143322 
4094.000000	65.160608 
4093.000000	65.175676 
4092.000000	65.186905 
4091.000000	65.193891 
4090.000000	65.196967 
4089.000000	65.197372 
4088.000000	65.196657 
4087.000000	65.196108 
4086.000000	65.196728 
4085.000000	65.199208 
4084.000000	65.203857 
4083.000000	65.210819 
4082.000000	65.219831 
4081.000000	65.230727 
4080.000000	65.242791 
4079.000000	65.254998 
4078.000000	65.265774 
4077.000000	65.273165 
4076.000000	65.275430 
4075.000000	65.271401 
4074.000000	65.261244 
4073.000000	65.246462 
4072.000000	65.229964 
4071.000000	65.215706 
4070.000000	65.207266 
4069.000000	65.206885 
4068.000000	65.214705 
4067.000000	65.228772 
4066.000000	65.245795 
4065.000000	65.262150 
4064.000000	65.275049 
4063.000000	65.283250 
4062.000000	65.287470 
4061.000000	65.289998 
4060.000000	65.293407 
4059.000000	65.299844 
4058.000000	65.309929 
4057.000000	65.322589 
4056.000000	65.335345 
4055.000000	65.345072 
4054.000000	65.349245 
4053.000000	65.346503 
4052.000000	65.337705 
4051.000000	65.325164 
4050.000000	65.312194 
4049.000000	65.301799 
4048.000000	65.295982 
4047.000000	65.294957 
4046.000000	65.297603 
4045.000000	65.301156 
4044.000000	65.302848 
4043.000000	65.299820 
4042.000000	65.290164 
4041.000000	65.272927 
4040.000000	65.248513 
4039.000000	65.218210 
4038.000000	65.183973 
4037.000000	65.148115 
4036.000000	65.112996 
4035.000000	65.080785 
4034.000000	65.052986 
4033.000000	65.030598 
4032.000000	65.014076 
4031.000000	65.003514 
4030.000000	64.998841 
4029.000000	64.999747 
4028.000000	65.006089 
4027.000000	65.017747 
4026.000000	65.034580 
4025.000000	65.056204 
4024.000000	65.081763 
4023.000000	65.109825 
4022.000000	65.138220 
4021.000000	65.164113 
4020.000000	65.184855 
4019.000000	65.198183 
4018.000000	65.203142 
4017.000000	65.200161 
4016.000000	65.191483 
4015.000000	65.180468 
4014.000000	65.171051 
4013.000000	65.166759 
4012.000000	65.170001 
4011.000000	65.181565 
4010.000000	65.200400 
4009.000000	65.223979 
4008.000000	65.248799 
4007.000000	65.271234 
4006.000000	65.288567 
4005.000000	65.299296 
4004.000000	65.303301 
4003.000000	65.301847 
4002.000000	65.296864 
4001.000000	65.290665 
4000.000000	65.285301 
3999.000000	65.282058 
3998.000000	65.281558 
3997.000000	65.283513 
3996.000000	65.287303 
3995.000000	65.291810 
3994.000000	65.296030 
3993.000000	65.298628 
3992.000000	65.298390 
3991.000000	65.293812 
3990.000000	65.283393 
3989.000000	65.266013 
3988.000000	65.241289 
3987.000000	65.209650 
3986.000000	65.172624 
3985.000000	65.132784 
3984.000000	65.093469 
3983.000000	65.058350 
3982.000000	65.030646 
3981.000000	65.012693 
3980.000000	65.005493 
3979.000000	65.008354 
3978.000000	65.019249 
3977.000000	65.035033 
3976.000000	65.052247 
3975.000000	65.067291 
3974.000000	65.077614 
3973.000000	65.081644 
3972.000000	65.079784 
3971.000000	65.073394 
3970.000000	65.065217 
3969.000000	65.058732 
3968.000000	65.057301 
3967.000000	65.063524 
3966.000000	65.077996 
3965.000000	65.099358 
3964.000000	65.123963 
3963.000000	65.146851 
3962.000000	65.162777 
3961.000000	65.167474 
3960.000000	65.158939 
3959.000000	65.137863 
3958.000000	65.107583 
3957.000000	65.073108 
3956.000000	65.040230 
3955.000000	65.014100 
3954.000000	64.998054 
3953.000000	64.993023 
3952.000000	64.997887 
3951.000000	65.009975 
3950.000000	65.026044 
3949.000000	65.042781 
3948.000000	65.057706 
3947.000000	65.069055 
3946.000000	65.075540 
3945.000000	65.076231 
3944.000000	65.070104 
3943.000000	65.056562 
3942.000000	65.035963 
3941.000000	65.009713 
3940.000000	64.980936 
3939.000000	64.953374 
3938.000000	64.931011 
3937.000000	64.916968 
3936.000000	64.912676 
3935.000000	64.917635 
3934.000000	64.929461 
3933.000000	64.944744 
3932.000000	64.960122 
3931.000000	64.973330 
3930.000000	64.983868 
3929.000000	64.993071 
3928.000000	65.003252 
3927.000000	65.016818 
3926.000000	65.035057 
3925.000000	65.057444 
3924.000000	65.081739 
3923.000000	65.104413 
3922.000000	65.121579 
3921.000000	65.130567 
3920.000000	65.130424 
3919.000000	65.122246 
3918.000000	65.108966 
3917.000000	65.094208 
3916.000000	65.081429 
3915.000000	65.073394 
3914.000000	65.071249 
3913.000000	65.074872 
3912.000000	65.082883 
3911.000000	65.093374 
3910.000000	65.104436 
3909.000000	65.114855 
3908.000000	65.123820 
3907.000000	65.130877 
3906.000000	65.135812 
3905.000000	65.138483 
3904.000000	65.138649 
3903.000000	65.135908 
3902.000000	65.130233 
3901.000000	65.121936 
3900.000000	65.112018 
3899.000000	65.101742 
3898.000000	65.092420 
3897.000000	65.084862 
3896.000000	65.079474 
3895.000000	65.075683 
3894.000000	65.072107 
3893.000000	65.066766 
3892.000000	65.057635 
3891.000000	65.043091 
3890.000000	65.022397 
3889.000000	64.995980 
3888.000000	64.965462 
3887.000000	64.933800 
3886.000000	64.904284 
3885.000000	64.880657 
3884.000000	64.865970 
3883.000000	64.862585 
3882.000000	64.871525 
3881.000000	64.892745 
3880.000000	64.925003 
3879.000000	64.966082 
3878.000000	65.012836 
3877.000000	65.061521 
3876.000000	65.108108 
3875.000000	65.148425 
3874.000000	65.178775 
3873.000000	65.196013 
3872.000000	65.198278 
3871.000000	65.185332 
3870.000000	65.158581 
3869.000000	65.121197 
3868.000000	65.077662 
3867.000000	65.033268 
3866.000000	64.993429 
3865.000000	64.962625 
3864.000000	64.944005 
3863.000000	64.939045 
3862.000000	64.947247 
3861.000000	64.966630 
3860.000000	64.993810 
3859.000000	65.024828 
3858.000000	65.055489 
3857.000000	65.081906 
3856.000000	65.101099 
3855.000000	65.111088 
3854.000000	65.111422 
3853.000000	65.102839 
3852.000000	65.087437 
3851.000000	65.068483 
3850.000000	65.049695 
3849.000000	65.034627 
3848.000000	65.025997 
3847.000000	65.025305 
3846.000000	65.032505 
3845.000000	65.046048 
3844.000000	65.063095 
3843.000000	65.080237 
3842.000000	65.094637 
3841.000000	65.104579 
3840.000000	65.109515 
3839.000000	65.110063 
3838.000000	65.107822 
3837.000000	65.104460 
3836.000000	65.101432 
3835.000000	65.099358 
3834.000000	65.097928 
3833.000000	65.096426 
3832.000000	65.094137 
3831.000000	65.091037 
3830.000000	65.087890 
3829.000000	65.086507 
3828.000000	65.089344 
3827.000000	65.098905 
3826.000000	65.117239 
3825.000000	65.145277 
3824.000000	65.182280 
3823.000000	65.226125 
3822.000000	65.273451 
3821.000000	65.320134 
3820.000000	65.361714 
3819.000000	65.393638 
3818.000000	65.411853 
3817.000000	65.413212 
3816.000000	65.396022 
3815.000000	65.360379 
3814.000000	65.308642 
3813.000000	65.245461 
3812.000000	65.177106 
3811.000000	65.110802 
3810.000000	65.053510 
3809.000000	65.010738 
3808.000000	64.985752 
3807.000000	64.979052 
3806.000000	64.988350 
3805.000000	65.009117 
3804.000000	65.035748 
3803.000000	65.062594 
3802.000000	65.085172 
3801.000000	65.100598 
3800.000000	65.108013 
3799.000000	65.107893 
3798.000000	65.101957 
3797.000000	65.092158 
3796.000000	65.080380 
3795.000000	65.068006 
3794.000000	65.056014 
3793.000000	65.044736 
3792.000000	65.034294 
3791.000000	65.024614 
3790.000000	65.015459 
3789.000000	65.007042 
3788.000000	65.000081 
3787.000000	64.995861 
3786.000000	64.995861 
3785.000000	65.001440 
3784.000000	65.013241 
3783.000000	65.030741 
3782.000000	65.052390 
3781.000000	65.075302 
3780.000000	65.095806 
3779.000000	65.110516 
3778.000000	65.116930 
3777.000000	65.114665 
3776.000000	65.105175 
3775.000000	65.092039 
3774.000000	65.079832 
3773.000000	65.073370 
3772.000000	65.076375 
3771.000000	65.090537 
3770.000000	65.114974 
3769.000000	65.146541 
3768.000000	65.180706 
3767.000000	65.212583 
3766.000000	65.238118 
3765.000000	65.254259 
3764.000000	65.259790 
3763.000000	65.254831 
3762.000000	65.240931 
3761.000000	65.219974 
3760.000000	65.194177 
3759.000000	65.165734 
3758.000000	65.136861 
3757.000000	65.109729 
3756.000000	65.086650 
3755.000000	65.069913 
3754.000000	65.061426 
3753.000000	65.062332 
3752.000000	65.072727 
3751.000000	65.091061 
3750.000000	65.114355 
3749.000000	65.138149 
3748.000000	65.157604 
3747.000000	65.168404 
3746.000000	65.167760 
3745.000000	65.154814 
3744.000000	65.131425 
3743.000000	65.101575 
3742.000000	65.070772 
3741.000000	65.044760 
3740.000000	65.028524 
3739.000000	65.025162 
3738.000000	65.035724 
3737.000000	65.058708 
3736.000000	65.090847 
3735.000000	65.127396 
3734.000000	65.163278 
3733.000000	65.193915 
3732.000000	65.215563 
3731.000000	65.226101 
3730.000000	65.224719 
3729.000000	65.212416 
3728.000000	65.191292 
3727.000000	65.164971 
3726.000000	65.137696 
3725.000000	65.114331 
3724.000000	65.099692 
3723.000000	65.097832 
3722.000000	65.111613 
3721.000000	65.141797 
3720.000000	65.186953 
3719.000000	65.243458 
3718.000000	65.306091 
3717.000000	65.368342 
3716.000000	65.423607 
3715.000000	65.465950 
3714.000000	65.491104 
3713.000000	65.496945 
3712.000000	65.483713 
3711.000000	65.454196 
3710.000000	65.412855 
3709.000000	65.365576 
3708.000000	65.318322 
3707.000000	65.276408 
3706.000000	65.243625 
3705.000000	65.222024 
3704.000000	65.211725 
3703.000000	65.211272 
3702.000000	65.218186 
3701.000000	65.229511 
3700.000000	65.242385 
3699.000000	65.254521 
3698.000000	65.264129 
3697.000000	65.269756 
3696.000000	65.270447 
3695.000000	65.265274 
3694.000000	65.253543 
3693.000000	65.234947 
3692.000000	65.209889 
3691.000000	65.179634 
3690.000000	65.146374 
3689.000000	65.113162 
3688.000000	65.083169 
3687.000000	65.058922 
3686.000000	65.041875 
3685.000000	65.032148 
3684.000000	65.028595 
3683.000000	65.029287 
3682.000000	65.032219 
3681.000000	65.036249 
3680.000000	65.041089 
3679.000000	65.047860 
3678.000000	65.058207 
3677.000000	65.074014 
3676.000000	65.096306 
3675.000000	65.124893 
3674.000000	65.157985 
3673.000000	65.192461 
3672.000000	65.224623 
3671.000000	65.251016 
3670.000000	65.269017 
3669.000000	65.277886 
3668.000000	65.279150 
3667.000000	65.275979 
3666.000000	65.272378 
3665.000000	65.272307 
3664.000000	65.278720 
3663.000000	65.293192 
3662.000000	65.315771 
3661.000000	65.345239 
3660.000000	65.379619 
3659.000000	65.417098 
3658.000000	65.456104 
3657.000000	65.495324 
3656.000000	65.533232 
3655.000000	65.568161 
3654.000000	65.597796 
3653.000000	65.619373 
3652.000000	65.629839 
3651.000000	65.627050 
3650.000000	65.609765 
3649.000000	65.579080 
3648.000000	65.537190 
3647.000000	65.488171 
3646.000000	65.435886 
3645.000000	65.383768 
3644.000000	65.333604 
3643.000000	65.285611 
3642.000000	65.239000 
3641.000000	65.193033 
3640.000000	65.148138 
3639.000000	65.105986 
3638.000000	65.069985 
3637.000000	65.044164 
3636.000000	65.032148 
3635.000000	65.035653 
3634.000000	65.054225 
3633.000000	65.084815 
3632.000000	65.122556 
3631.000000	65.161681 
3630.000000	65.197062 
3629.000000	65.225410 
3628.000000	65.245437 
3627.000000	65.258002 
3626.000000	65.265417 
3625.000000	65.270638 
3624.000000	65.276026 
3623.000000	65.282750 
3622.000000	65.290784 
3621.000000	65.298843 
3620.000000	65.305590 
3619.000000	65.309381 
3618.000000	65.309286 
3617.000000	65.304994 
3616.000000	65.297055 
3615.000000	65.286803 
3614.000000	65.275835 
3613.000000	65.265774 
3612.000000	65.258359 
3611.000000	65.254640 
3610.000000	65.254902 
3609.000000	65.258574 
3608.000000	65.264368 
3607.000000	65.270161 
3606.000000	65.273690 
3605.000000	65.272665 
3604.000000	65.265703 
3603.000000	65.252423 
3602.000000	65.233802 
3601.000000	65.212035 
3600.000000	65.190172 
3599.000000	65.171599 
3598.000000	65.159273 
3597.000000	65.154886 
3596.000000	65.158772 
3595.000000	65.170097 
3594.000000	65.186929 
3593.000000	65.206861 
3592.000000	65.227222 
3591.000000	65.245866 
3590.000000	65.261173 
3589.000000	65.272092 
3588.000000	65.277981 
3587.000000	65.278506 
3586.000000	65.273380 
3585.000000	65.262484 
3584.000000	65.245795 
3583.000000	65.223693 
3582.000000	65.197038 
3581.000000	65.167427 
3580.000000	65.136933 
3579.000000	65.107870 
3578.000000	65.082573 
3577.000000	65.062880 
3576.000000	65.050005 
3575.000000	65.043926 
3574.000000	65.043783 
3573.000000	65.047669 
3572.000000	65.052890 
3571.000000	65.056419 
3570.000000	65.055227 
3569.000000	65.047192 
3568.000000	65.031170 
3567.000000	65.007615 
3566.000000	64.978528 
3565.000000	64.947199 
3564.000000	64.917683 
3563.000000	64.894104 
3562.000000	64.879679 
3561.000000	64.876341 
3560.000000	64.884305 
3559.000000	64.902019 
3558.000000	64.926457 
3557.000000	64.953923 
3556.000000	64.980912 
3555.000000	65.004801 
3554.000000	65.024256 
3553.000000	65.039467 
3552.000000	65.051603 
3551.000000	65.062665 
3550.000000	65.074682 
3549.000000	65.089058 
3548.000000	65.106058 
3547.000000	65.125179 
3546.000000	65.144705 
3545.000000	65.162324 
3544.000000	65.175294 
3543.000000	65.181374 
3542.000000	65.179181 
3541.000000	65.168762 
3540.000000	65.151214 
3539.000000	65.128922 
3538.000000	65.104770 
3537.000000	65.081739 
3536.000000	65.061783 
3535.000000	65.045905 
3534.000000	65.033864 
3533.000000	65.024423 
3532.000000	65.015840 
3531.000000	65.006494 
3530.000000	64.995479 
3529.000000	64.983034 
3528.000000	64.970326 
3527.000000	64.959239 
3526.000000	64.952063 
3525.000000	64.950895 
3524.000000	64.956951 
3523.000000	64.970183 
3522.000000	64.989352 
3521.000000	65.012288 
3520.000000	65.036344 
3519.000000	65.059041 
3518.000000	65.078783 
3517.000000	65.094995 
3516.000000	65.108418 
3515.000000	65.120458 
3514.000000	65.132880 
3513.000000	65.146684 
3512.000000	65.162181 
3511.000000	65.178203 
3510.000000	65.192937 
3509.000000	65.203738 
3508.000000	65.208363 
3507.000000	65.205097 
3506.000000	65.193581 
3505.000000	65.174436 
3504.000000	65.149593 
3503.000000	65.121412 
3502.000000	65.092158 
3501.000000	65.063834 
3500.000000	65.037679 
3499.000000	65.014338 
3498.000000	64.994192 
3497.000000	64.977431 
3496.000000	64.964509 
3495.000000	64.955949 
3494.000000	64.952301 
3493.000000	64.953684 
3492.000000	64.959716 
3491.000000	64.969182 
3490.000000	64.980340 
3489.000000	64.990949 
3488.000000	64.999055 
3487.000000	65.003228 
3486.000000	65.003013 
3485.000000	64.999032 
3484.000000	64.992785 
3483.000000	64.986419 
3482.000000	64.981913 
3481.000000	64.980888 
3480.000000	64.983701 
3479.000000	64.990067 
3478.000000	64.998745 
3477.000000	65.007948 
3476.000000	65.015864 
3475.000000	65.021252 
3474.000000	65.023708 
3473.000000	65.023708 
3472.000000	65.022301 
3471.000000	65.020847 
3470.000000	65.020680 
3469.000000	65.022802 
3468.000000	65.027499 
3467.000000	65.034294 
3466.000000	65.042304 
3465.000000	65.050625 
3464.000000	65.058445 
3463.000000	65.065503 
3462.000000	65.072178 
3461.000000	65.079092 
3460.000000	65.087318 
3459.000000	65.097379 
3458.000000	65.109395 
3457.000000	65.122365 
3456.000000	65.134382 
3455.000000	65.142440 
3454.000000	65.143585 
3453.000000	65.135169 
3452.000000	65.115547 
3451.000000	65.084862 
3450.000000	65.045094 
3449.000000	65.000033 
3448.000000	64.954566 
3447.000000	64.914011 
3446.000000	64.883089 
3445.000000	64.865231 
3444.000000	64.862084 
3443.000000	64.873337 
3442.000000	64.896869 
3441.000000	64.929318 
3440.000000	64.966726 
3439.000000	65.005111 
3438.000000	65.040946 
3437.000000	65.071272 
3436.000000	65.094161 
3435.000000	65.108299 
3434.000000	65.113520 
3433.000000	65.110588 
3432.000000	65.101552 
3431.000000	65.089249 
3430.000000	65.077137 
3429.000000	65.069246 
3428.000000	65.068912 
3427.000000	65.078759 
3426.000000	65.099310 
3425.000000	65.129303 
3424.000000	65.165352 
3423.000000	65.202665 
3422.000000	65.235924 
3421.000000	65.260219 
3420.000000	65.272355 
3419.000000	65.271139 
3418.000000	65.258026 
3417.000000	65.236306 
3416.000000	65.210890 
3415.000000	65.187215 
3414.000000	65.170240 
3413.000000	65.163254 
3412.000000	65.167951 
3411.000000	65.183711 
3410.000000	65.207958 
3409.000000	65.236425 
3408.000000	65.263962 
3407.000000	65.285301 
3406.000000	65.296077 
3405.000000	65.293669 
3404.000000	65.277194 
3403.000000	65.248203 
3402.000000	65.210175 
3401.000000	65.167880 
3400.000000	65.126633 
3399.000000	65.090966 
3398.000000	65.064096 
3397.000000	65.047287 
3396.000000	65.039825 
3395.000000	65.039563 
3394.000000	65.043854 
3393.000000	65.050268 
3392.000000	65.057134 
3391.000000	65.064263 
3390.000000	65.072584 
3389.000000	65.083694 
3388.000000	65.098977 
3387.000000	65.119266 
3386.000000	65.144252 
3385.000000	65.172529 
3384.000000	65.201783 
3383.000000	65.229105 
3382.000000	65.251851 
3381.000000	65.268158 
3380.000000	65.277123 
3379.000000	65.278792 
3378.000000	65.274214 
3377.000000	65.264844 
3376.000000	65.252518 
3375.000000	65.238785 
3374.000000	65.225028 
3373.000000	65.212512 
3372.000000	65.201997 
3371.000000	65.193963 
3370.000000	65.188407 
3369.000000	65.185189 
3368.000000	65.183639 
3367.000000	65.182828 
3366.000000	65.181636 
3365.000000	65.178990 
3364.000000	65.174221 
3363.000000	65.167331 
3362.000000	65.158915 
3361.000000	65.150117 
3360.000000	65.142345 
3359.000000	65.136837 
3358.000000	65.134239 
3357.000000	65.134477 
3356.000000	65.136742 
3355.000000	65.139865 
3354.000000	65.142488 
3353.000000	65.143895 
3352.000000	65.144181 
3351.000000	65.144515 
3350.000000	65.146756 
3349.000000	65.153002 
3348.000000	65.165066 
3347.000000	65.183568 
3346.000000	65.207982 
3345.000000	65.236282 
3344.000000	65.265178 
3343.000000	65.290880 
3342.000000	65.309882 
3341.000000	65.319442 
3340.000000	65.318250 
3339.000000	65.306544 
3338.000000	65.286040 
3337.000000	65.259575 
3336.000000	65.230536 
3335.000000	65.201997 
3334.000000	65.176463 
3333.000000	65.155506 
3332.000000	65.139555 
3331.000000	65.127968 
3330.000000	65.119504 
3329.000000	65.112447 
3328.000000	65.105748 
3327.000000	65.098619 
3326.000000	65.091419 
3325.000000	65.085220 
3324.000000	65.081810 
3323.000000	65.083193 
3322.000000	65.090680 
3321.000000	65.104627 
3320.000000	65.123939 
3319.000000	65.146207 
3318.000000	65.168190 
3317.000000	65.186548 
3316.000000	65.198588 
3315.000000	65.203022 
3314.000000	65.199899 
3313.000000	65.190625 
3312.000000	65.177178 
3311.000000	65.161633 
3310.000000	65.145397 
3309.000000	65.128922 
3308.000000	65.111732 
3307.000000	65.092873 
3306.000000	65.071177 
3305.000000	65.045952 
3304.000000	65.017509 
3303.000000	64.987492 
3302.000000	64.958500 
3301.000000	64.933800 
3300.000000	64.916539 
3299.000000	64.909195 
3298.000000	64.912891 
3297.000000	64.927101 
3296.000000	64.949893 
3295.000000	64.978313 
3294.000000	65.008807 
3293.000000	65.038204 
3292.000000	65.063905 
3291.000000	65.084528 
3290.000000	65.099596 
3289.000000	65.109658 
3288.000000	65.115523 
3287.000000	65.118551 
3286.000000	65.120172 
3285.000000	65.121912 
3284.000000	65.124964 
3283.000000	65.130543 
3282.000000	65.139627 
3281.000000	65.152835 
3280.000000	65.170288 
3279.000000	65.191173 
3278.000000	65.213894 
3277.000000	65.236043 
3276.000000	65.255045 
3275.000000	65.268445 
3274.000000	65.274715 
3273.000000	65.273618 
3272.000000	65.266394 
3271.000000	65.255689 
3270.000000	65.244770 
3269.000000	65.237164 
3268.000000	65.235233 
3267.000000	65.240049 
3266.000000	65.250492 
3265.000000	65.263891 
3264.000000	65.276098 
3263.000000	65.282893 
3262.000000	65.280628 
3261.000000	65.267252 
3260.000000	65.242886 
3259.000000	65.209794 
3258.000000	65.172123 
3257.000000	65.134906 
3256.000000	65.103149 
3255.000000	65.080833 
3254.000000	65.070033 
3253.000000	65.070772 
3252.000000	65.081095 
3251.000000	65.097665 
3250.000000	65.116286 
3249.000000	65.133047 
3248.000000	65.144920 
3247.000000	65.150618 
3246.000000	65.150070 
3245.000000	65.144515 
3244.000000	65.135931 
3243.000000	65.126466 
3242.000000	65.117859 
3241.000000	65.110898 
3240.000000	65.105533 
3239.000000	65.101027 
3238.000000	65.096449 
3237.000000	65.091109 
3236.000000	65.084815 
3235.000000	65.078401 
3234.000000	65.073347 
3233.000000	65.071678 
3232.000000	65.075516 
3231.000000	65.086483 
3230.000000	65.105032 
3229.000000	65.130162 
3228.000000	65.159249 
3227.000000	65.188598 
3226.000000	65.214085 
3225.000000	65.231752 
3224.000000	65.238523 
3223.000000	65.233039 
3222.000000	65.215682 
3221.000000	65.188598 
3220.000000	65.154981 
3219.000000	65.118551 
3218.000000	65.083336 
3217.000000	65.052866 
3216.000000	65.029788 
3215.000000	65.016031 
3214.000000	65.012335 
3213.000000	65.018486 
3212.000000	65.033030 
3211.000000	65.053701 
3210.000000	65.077424 
3209.000000	65.100669 
3208.000000	65.120029 
3207.000000	65.132761 
3206.000000	65.137386 
3205.000000	65.134119 
3204.000000	65.124845 
3203.000000	65.112829 
3202.000000	65.102005 
3201.000000	65.096044 
3200.000000	65.097355 
3199.000000	65.106511 
3198.000000	65.122222 
3197.000000	65.141558 
3196.000000	65.160751 
3195.000000	65.176224 
3194.000000	65.185523 
3193.000000	65.188074 
3192.000000	65.185046 
3191.000000	65.178918 
3190.000000	65.172767 
3189.000000	65.169286 
3188.000000	65.170073 
3187.000000	65.175175 
3186.000000	65.183067 
3185.000000	65.191340 
3184.000000	65.197563 
3183.000000	65.199756 
3182.000000	65.197062 
3181.000000	65.189886 
3180.000000	65.179586 
3179.000000	65.168166 
3178.000000	65.157604 
3177.000000	65.149378 
3176.000000	65.143918 
3175.000000	65.140891 
3174.000000	65.139484 
3173.000000	65.138554 
3172.000000	65.137219 
3171.000000	65.134787 
3170.000000	65.130996 
3169.000000	65.125799 
3168.000000	65.119194 
3167.000000	65.111160 
3166.000000	65.101575 
3165.000000	65.090179 
3164.000000	65.077042 
3163.000000	65.062808 
3162.000000	65.048646 
3161.000000	65.036487 
3160.000000	65.028405 
3159.000000	65.026307 
3158.000000	65.031194 
3157.000000	65.042948 
3156.000000	65.059614 
3155.000000	65.077877 
3154.000000	65.093302 
3153.000000	65.101337 
3152.000000	65.098166 
3151.000000	65.081858 
3150.000000	65.052914 
3149.000000	65.014290 
3148.000000	64.971208 
3147.000000	64.929986 
3146.000000	64.896965 
3145.000000	64.877104 
3144.000000	64.872789 
3143.000000	64.883494 
3142.000000	64.905858 
3141.000000	64.934515 
3140.000000	64.963459 
3139.000000	64.987468 
3138.000000	65.002989 
3137.000000	65.008950 
3136.000000	65.006709 
3135.000000	64.999365 
3134.000000	64.990711 
3133.000000	64.984059 
3132.000000	64.981412 
3131.000000	64.983010 
3130.000000	64.987826 
3129.000000	64.993906 
3128.000000	64.999413 
3127.000000	65.003395 
3126.000000	65.006017 
3125.000000	65.008687 
3124.000000	65.013170 
3123.000000	65.021133 
3122.000000	65.033316 
3121.000000	65.049433 
3120.000000	65.068244 
3119.000000	65.088081 
3118.000000	65.106964 
3117.000000	65.123391 
3116.000000	65.136361 
3115.000000	65.145492 
3114.000000	65.150880 
3113.000000	65.152287 
3112.000000	65.149450 
3111.000000	65.141797 
3110.000000	65.128898 
3109.000000	65.110945 
3108.000000	65.088891 
3107.000000	65.065002 
3106.000000	65.042114 
3105.000000	65.023589 
3104.000000	65.012288 
3103.000000	65.010023 
3102.000000	65.016913 
3101.000000	65.031599 
3100.000000	65.051150 
3099.000000	65.072154 
3098.000000	65.090870 
3097.000000	65.104031 
3096.000000	65.109276 
3095.000000	65.105462 
3094.000000	65.092563 
3093.000000	65.071725 
3092.000000	65.044975 
3091.000000	65.014767 
3090.000000	64.984059 
3089.000000	64.955663 
3088.000000	64.932203 
3087.000000	64.915871 
3086.000000	64.908361 
3085.000000	64.910745 
3084.000000	64.923048 
3083.000000	64.944338 
3082.000000	64.972901 
3081.000000	65.006279 
3080.000000	65.041255 
3079.000000	65.074467 
3078.000000	65.102481 
3077.000000	65.122485 
3076.000000	65.132474 
3075.000000	65.131974 
3074.000000	65.122103 
3073.000000	65.105390 
3072.000000	65.085768 
3071.000000	65.067386 
3070.000000	65.054106 
3069.000000	65.048384 
3068.000000	65.051102 
3067.000000	65.061402 
3066.000000	65.077209 
3065.000000	65.095591 
3064.000000	65.113425 
3063.000000	65.128135 
3062.000000	65.137958 
3061.000000	65.142178 
3060.000000	65.140986 
3059.000000	65.135002 
3058.000000	65.125036 
3057.000000	65.111923 
3056.000000	65.096426 
3055.000000	65.079188 
3054.000000	65.060949 
3053.000000	65.042591 
3052.000000	65.025377 
3051.000000	65.010833 
3050.000000	65.000724 
3049.000000	64.996480 
3048.000000	64.999198 
3047.000000	65.009427 
3046.000000	65.026783 
3045.000000	65.049815 
3044.000000	65.076065 
3043.000000	65.102171 
3042.000000	65.124177 
3041.000000	65.138316 
3040.000000	65.141463 
3039.000000	65.131926 
3038.000000	65.110015 
3037.000000	65.078139 
3036.000000	65.040302 
3035.000000	65.001535 
3034.000000	64.966940 
3033.000000	64.940786 
3032.000000	64.925599 
3031.000000	64.921665 
3030.000000	64.927124 
3029.000000	64.938426 
3028.000000	64.951014 
3027.000000	64.960670 
3026.000000	64.964056 
3025.000000	64.959955 
3024.000000	64.948797 
3023.000000	64.933276 
3022.000000	64.916944 
3021.000000	64.903855 
3020.000000	64.897036 
3019.000000	64.898180 
3018.000000	64.907193 
3017.000000	64.922404 
3016.000000	64.941167 
3015.000000	64.960551 
3014.000000	64.978098 
3013.000000	64.992713 
3012.000000	65.004730 
3011.000000	65.015673 
3010.000000	65.027594 
3009.000000	65.042591 
3008.000000	65.062022 
3007.000000	65.086007 
3006.000000	65.113401 
3005.000000	65.142059 
3004.000000	65.169215 
3003.000000	65.192532 
3002.000000	65.210175 
3001.000000	65.221428 
3000.000000	65.226793 
2999.000000	65.227627 
2998.000000	65.225958 
2997.000000	65.223956 
2996.000000	65.223550 
2995.000000	65.226054 
2994.000000	65.231728 
2993.000000	65.240168 
2992.000000	65.249872 
2991.000000	65.259099 
2990.000000	65.265631 
2989.000000	65.267539 
2988.000000	65.263390 
2987.000000	65.252685 
2986.000000	65.235757 
2985.000000	65.213704 
2984.000000	65.188241 
2983.000000	65.161204 
2982.000000	65.134549 
2981.000000	65.109729 
2980.000000	65.087532 
2979.000000	65.068078 
2978.000000	65.051102 
2977.000000	65.035986 
2976.000000	65.021872 
2975.000000	65.008091 
2974.000000	64.994072 
2973.000000	64.979743 
2972.000000	64.964652 
2971.000000	64.948773 
2970.000000	64.931964 
2969.000000	64.914631 
2968.000000	64.896965 
2967.000000	64.879822 
2966.000000	64.864301 
2965.000000	64.852118 
2964.000000	64.844942 
2963.000000	64.844584 
2962.000000	64.852237 
2961.000000	64.868330 
2960.000000	64.892244 
2959.000000	64.922165 
2958.000000	64.955353 
2957.000000	64.988517 
2956.000000	65.018486 
2955.000000	65.042591 
2954.000000	65.059208 
2953.000000	65.068006 
2952.000000	65.069699 
2951.000000	65.065741 
2950.000000	65.057420 
2949.000000	65.046143 
2948.000000	65.032410 
2947.000000	65.016078 
2946.000000	64.996266 
2945.000000	64.972424 
2944.000000	64.944410 
2943.000000	64.912796 
2942.000000	64.879226 
2941.000000	64.846229 
2940.000000	64.816856 
2939.000000	64.793944 
2938.000000	64.779686 
2937.000000	64.775037 
2936.000000	64.779996 
2935.000000	64.793300 
2934.000000	64.813232 
2933.000000	64.837741 
2932.000000	64.864730 
2931.000000	64.892315 
2930.000000	64.918804 
2929.000000	64.942622 
2928.000000	64.962267 
2927.000000	64.976429 
2926.000000	64.983940 
2925.000000	64.984130 
2924.000000	64.977097 
2923.000000	64.963865 
2922.000000	64.946413 
2921.000000	64.927506 
2920.000000	64.910435 
2919.000000	64.898228 
2918.000000	64.893460 
2917.000000	64.897274 
2916.000000	64.909243 
2915.000000	64.927196 
2914.000000	64.947843 
2913.000000	64.967274 
2912.000000	64.981961 
2911.000000	64.989495 
2910.000000	64.988970 
2909.000000	64.981412 
2908.000000	64.969396 
2907.000000	64.956545 
2906.000000	64.946436 
2905.000000	64.942121 
2904.000000	64.945316 
2903.000000	64.956068 
2902.000000	64.972901 
2901.000000	64.993047 
2900.000000	65.013051 
2899.000000	65.029478 
2898.000000	65.039944 
2897.000000	65.043234 
2896.000000	65.039896 
2895.000000	65.031981 
2894.000000	65.022373 
2893.000000	65.014386 
2892.000000	65.010690 
2891.000000	65.013217 
2890.000000	65.022134 
2889.000000	65.036296 
2888.000000	65.053224 
2887.000000	65.069937 
2886.000000	65.082883 
2885.000000	65.089082 
2884.000000	65.086078 
2883.000000	65.072703 
2882.000000	65.049266 
2881.000000	65.017485 
2880.000000	64.980530 
2879.000000	64.942359 
2878.000000	64.907479 
2877.000000	64.880323 
2876.000000	64.864563 
2875.000000	64.862561 
2874.000000	64.875054 
2873.000000	64.900898 
2872.000000	64.937400 
2871.000000	64.980745 
2870.000000	65.026617 
2869.000000	65.070962 
2868.000000	65.110325 
2867.000000	65.142416 
2866.000000	65.166187 
2865.000000	65.181589 
2864.000000	65.189409 
2863.000000	65.190744 
2862.000000	65.186834 
2861.000000	65.178394 
2860.000000	65.166378 
2859.000000	65.150928 
2858.000000	65.132308 
2857.000000	65.110349 
2856.000000	65.085268 
2855.000000	65.057325 
2854.000000	65.027213 
2853.000000	64.996051 
2852.000000	64.965200 
2851.000000	64.936447 
2850.000000	64.911794 
2849.000000	64.893198 
2848.000000	64.882254 
2847.000000	64.879870 
2846.000000	64.886069 
2845.000000	64.899826 
2844.000000	64.919471 
2843.000000	64.942598 
2842.000000	64.966750 
2841.000000	64.989495 
2840.000000	65.009069 
2839.000000	65.024518 
2838.000000	65.035700 
2837.000000	65.042972 
2836.000000	65.047144 
2835.000000	65.049505 
2834.000000	65.051293 
2833.000000	65.053653 
2832.000000	65.057301 
2831.000000	65.062713 
2830.000000	65.069699 
2829.000000	65.077948 
2828.000000	65.086436 
2827.000000	65.093660 
2826.000000	65.097975 
2825.000000	65.098094 
2824.000000	65.093135 
2823.000000	65.082955 
2822.000000	65.068626 
2821.000000	65.052199 
2820.000000	65.036082 
2819.000000	65.022754 
2818.000000	65.014100 
2817.000000	65.010929 
2816.000000	65.012884 
2815.000000	65.018343 
2814.000000	65.024876 
2813.000000	65.029883 
2812.000000	65.031147 
2811.000000	65.027356 
2810.000000	65.018200 
2809.000000	65.004467 
2808.000000	64.987587 
2807.000000	64.969730 
2806.000000	64.952707 
2805.000000	64.938449 
2804.000000	64.928412 
2803.000000	64.923691 
2802.000000	64.925146 
2801.000000	64.933300 
2800.000000	64.948248 
2799.000000	64.969563 
2798.000000	64.996194 
2797.000000	65.026593 
2796.000000	65.058779 
2795.000000	65.090513 
2794.000000	65.119433 
2793.000000	65.143370 
2792.000000	65.160298 
2791.000000	65.168809 
2790.000000	65.167903 
2789.000000	65.157341 
2788.000000	65.137481 
2787.000000	65.109634 
2786.000000	65.075802 
2785.000000	65.038776 
2784.000000	65.001821 
2783.000000	64.968609 
2782.000000	64.942574 
2781.000000	64.926743 
2780.000000	64.923119 
2779.000000	64.932250 
2778.000000	64.953207 
2777.000000	64.983415 
2776.000000	65.019416 
2775.000000	65.056943 
2774.000000	65.092110 
2773.000000	65.121841 
2772.000000	65.144538 
2771.000000	65.159988 
2770.000000	65.169477 
2769.000000	65.175056 
2768.000000	65.178966 
2767.000000	65.182924 
2766.000000	65.187811 
2765.000000	65.193438 
2764.000000	65.198779 
2763.000000	65.202307 
2762.000000	65.202879 
2761.000000	65.199804 
2760.000000	65.193414 
2759.000000	65.184640 
2758.000000	65.174961 
2757.000000	65.165615 
2756.000000	65.157604 
2755.000000	65.151023 
2754.000000	65.145039 
2753.000000	65.138411 
2752.000000	65.129923 
2751.000000	65.118908 
2750.000000	65.105390 
2749.000000	65.090322 
2748.000000	65.075445 
2747.000000	65.062832 
2746.000000	65.054225 
2745.000000	65.050673 
2744.000000	65.051913 
2743.000000	65.056705 
2742.000000	65.063118 
2741.000000	65.068888 
2740.000000	65.071892 
2739.000000	65.070796 
2738.000000	65.065193 
2737.000000	65.055680 
2736.000000	65.043663 
2735.000000	65.030956 
2734.000000	65.019631 
2733.000000	65.011548 
2732.000000	65.008234 
2731.000000	65.010714 
2730.000000	65.019321 
2729.000000	65.033912 
2728.000000	65.053868 
2727.000000	65.078115 
2726.000000	65.105128 
2725.000000	65.133094 
2724.000000	65.160012 
2723.000000	65.183806 
2722.000000	65.202522 
2721.000000	65.214514 
2720.000000	65.218758 
2719.000000	65.214991 
2718.000000	65.203642 
2717.000000	65.186095 
2716.000000	65.163993 
2715.000000	65.139436 
2714.000000	65.114355 
2713.000000	65.090727 
2712.000000	65.069961 
2711.000000	65.053319 
2710.000000	65.041470 
2709.000000	65.034985 
2708.000000	65.034151 
2707.000000	65.039324 
2706.000000	65.050292 
2705.000000	65.066790 
2704.000000	65.088009 
2703.000000	65.112662 
2702.000000	65.138864 
2701.000000	65.164375 
2700.000000	65.186643 
2699.000000	65.203142 
2698.000000	65.211677 
2697.000000	65.210843 
2696.000000	65.200281 
2695.000000	65.180802 
2694.000000	65.154266 
2693.000000	65.123748 
2692.000000	65.093040 
2691.000000	65.066146 
2690.000000	65.046715 
2689.000000	65.037465 
2688.000000	65.039610 
2687.000000	65.052700 
2686.000000	65.074610 
2685.000000	65.101790 
2684.000000	65.130043 
2683.000000	65.154957 
2682.000000	65.173006 
2681.000000	65.181708 
2680.000000	65.180206 
2679.000000	65.169072 
2678.000000	65.150189 
2677.000000	65.126299 
2676.000000	65.100359 
2675.000000	65.075087 
2674.000000	65.052199 
2673.000000	65.032839 
2672.000000	65.017008 
2671.000000	65.004014 
2670.000000	64.992856 
2669.000000	64.982581 
2668.000000	64.972686 
2667.000000	64.963030 
2666.000000	64.954113 
2665.000000	64.946794 
2664.000000	64.942169 
2663.000000	64.940977 
2662.000000	64.943528 
2661.000000	64.949417 
2660.000000	64.957642 
2659.000000	64.967012 
2658.000000	64.976429 
2657.000000	64.985060 
2656.000000	64.992713 
2655.000000	64.999818 
2654.000000	65.007019 
2653.000000	65.014910 
2652.000000	65.023636 
2651.000000	65.032625 
2650.000000	65.040802 
2649.000000	65.046596 
2648.000000	65.048575 
2647.000000	65.045690 
2646.000000	65.037775 
2645.000000	65.025472 
2644.000000	65.010571 
2643.000000	64.995193 
2642.000000	64.981579 
2641.000000	64.971470 
2640.000000	64.966154 
2639.000000	64.965987 
2638.000000	64.970588 
2637.000000	64.978933 
2636.000000	64.989709 
2635.000000	65.001535 
2634.000000	65.013098 
2633.000000	65.023231 
2632.000000	65.031051 
2631.000000	65.035843 
2630.000000	65.037035 
2629.000000	65.034484 
2628.000000	65.028285 
2627.000000	65.018987 
2626.000000	65.007376 
2625.000000	64.994382 
2624.000000	64.980983 
2623.000000	64.968013 
2622.000000	64.956092 
2621.000000	64.945554 
2620.000000	64.936518 
2619.000000	64.929032 
2618.000000	64.923286 
2617.000000	64.919447 
2616.000000	64.917922 
2615.000000	64.918804 
2614.000000	64.921951 
2613.000000	64.926838 
2612.000000	64.932513 
2611.000000	64.937686 
2610.000000	64.941358 
2609.000000	64.942812 
2608.000000	64.942407 
2607.000000	64.941477 
2606.000000	64.942240 
2605.000000	64.947080 
2604.000000	64.957952 
2603.000000	64.975500 
2602.000000	64.998745 
2601.000000	65.025115 
2600.000000	65.050816 
2599.000000	65.071654 
2598.000000	65.084195 
2597.000000	65.086340 
2596.000000	65.077900 
2595.000000	65.060782 
2594.000000	65.038275 
2593.000000	65.014505 
2592.000000	64.993333 
2591.000000	64.977860 
2590.000000	64.969921 
2589.000000	64.969825 
2588.000000	64.976692 
2587.000000	64.988493 
2586.000000	65.002918 
2585.000000	65.017509 
2584.000000	65.029788 
2583.000000	65.037775 
2582.000000	65.039968 
2581.000000	65.036010 
2580.000000	65.026402 
2579.000000	65.012907 
2578.000000	64.997839 
2577.000000	64.984035 
2576.000000	64.974069 
2575.000000	64.969635 
2574.000000	64.971184 
2573.000000	64.977788 
2572.000000	64.987516 
2571.000000	64.997720 
2570.000000	65.005946 
2569.000000	65.010380 
2568.000000	65.010523 
2567.000000	65.006923 
2566.000000	65.001440 
2565.000000	64.996218 
2564.000000	64.993739 
2563.000000	64.995741 
2562.000000	65.003085 
2561.000000	65.015816 
2560.000000	65.033006 
2559.000000	65.053272 
2558.000000	65.074777 
2557.000000	65.095663 
2556.000000	65.113902 
2555.000000	65.127682 
2554.000000	65.135383 
2553.000000	65.135908 
2552.000000	65.128564 
2551.000000	65.113568 
2550.000000	65.091896 
2549.000000	65.065479 
2548.000000	65.036964 
2547.000000	65.009331 
2546.000000	64.985227 
2545.000000	64.966726 
2544.000000	64.954781 
2543.000000	64.949464 
2542.000000	64.949679 
2541.000000	64.953970 
2540.000000	64.960598 
2539.000000	64.968276 
2538.000000	64.976119 
2537.000000	64.983892 
2536.000000	64.991569 
2535.000000	64.999151 
2534.000000	65.006470 
2533.000000	65.012836 
2532.000000	65.017151 
2531.000000	65.018105 
2530.000000	65.014505 
2529.000000	65.005588 
2528.000000	64.991474 
2527.000000	64.973139 
2526.000000	64.952397 
2525.000000	64.931631 
2524.000000	64.913105 
2523.000000	64.898777 
2522.000000	64.889812 
2521.000000	64.886426 
2520.000000	64.888000 
2519.000000	64.893317 
2518.000000	64.900994 
2517.000000	64.910030 
2516.000000	64.919638 
2515.000000	64.929628 
2514.000000	64.939951 
2513.000000	64.950609 
2512.000000	64.961361 
2511.000000	64.971375 
2510.000000	64.979410 
2509.000000	64.984035 
2508.000000	64.984059 
2507.000000	64.978885 
2506.000000	64.968967 
2505.000000	64.955782 
2504.000000	64.941811 
2503.000000	64.929986 
2502.000000	64.923191 
2501.000000	64.923357 
2500.000000	64.931035 
2499.000000	64.945101 
2498.000000	64.962959 
2497.000000	64.981102 
2496.000000	64.996004 
2495.000000	65.004873 
2494.000000	65.006303 
2493.000000	65.000700 
2492.000000	64.989733 
2491.000000	64.976048 
2490.000000	64.962577 
2489.000000	64.951825 
2488.000000	64.945459 
2487.000000	64.944028 
2486.000000	64.947199 
2485.000000	64.953804 
2484.000000	64.962434 
2483.000000	64.971756 
2482.000000	64.980554 
2481.000000	64.988064 
2480.000000	64.993858 
2479.000000	64.998006 
2478.000000	65.000462 
2477.000000	65.001487 
2476.000000	65.001225 
2475.000000	64.999699 
2474.000000	64.996886 
2473.000000	64.992523 
2472.000000	64.986300 
2471.000000	64.977812 
2470.000000	64.967060 
2469.000000	64.954209 
2468.000000	64.939880 
2467.000000	64.925146 
2466.000000	64.911341 
2465.000000	64.899802 
2464.000000	64.891505 
2463.000000	64.886808 
2462.000000	64.885282 
2461.000000	64.885997 
2460.000000	64.887857 
2459.000000	64.889669 
2458.000000	64.890766 
2457.000000	64.891147 
2456.000000	64.891266 
2455.000000	64.892005 
2454.000000	64.894151 
2453.000000	64.898037 
2452.000000	64.903354 
2451.000000	64.908933 
2450.000000	64.913225 
2449.000000	64.914441 
2448.000000	64.911484 
2447.000000	64.904046 
2446.000000	64.893054 
2445.000000	64.880657 
2444.000000	64.869832 
2443.000000	64.863777 
2442.000000	64.865326 
2441.000000	64.876246 
2440.000000	64.896917 
2439.000000	64.925885 
2438.000000	64.960122 
2437.000000	64.995026 
2436.000000	65.025687 
2435.000000	65.047550 
2434.000000	65.057182 
2433.000000	65.053153 
2432.000000	65.036129 
2431.000000	65.008902 
2430.000000	64.976000 
2429.000000	64.942336 
2428.000000	64.912748 
2427.000000	64.890503 
2426.000000	64.877319 
2425.000000	64.872646 
2424.000000	64.874458 
2423.000000	64.879822 
2422.000000	64.885783 
2421.000000	64.890265 
2420.000000	64.892458 
2419.000000	64.892959 
2418.000000	64.893388 
2417.000000	64.895796 
2416.000000	64.901828 
2415.000000	64.912509 
2414.000000	64.927792 
2413.000000	64.946675 
2412.000000	64.967465 
2411.000000	64.988255 
2410.000000	65.007042 
2409.000000	65.022397 
2408.000000	65.033245 
2407.000000	65.039086 
2406.000000	65.039849 
2405.000000	65.035557 
2404.000000	65.026521 
2403.000000	65.013504 
2402.000000	64.997434 
2401.000000	64.979839 
2400.000000	64.962315 
2399.000000	64.946603 
2398.000000	64.934110 
2397.000000	64.926028 
2396.000000	64.922952 
2395.000000	64.924860 
2394.000000	64.931249 
2393.000000	64.941358 
2392.000000	64.953994 
2391.000000	64.967942 
2390.000000	64.981842 
2389.000000	64.994478 
2388.000000	65.004825 
2387.000000	65.012192 
2386.000000	65.016174 
2385.000000	65.016841 
2384.000000	65.014553 
2383.000000	65.009903 
2382.000000	65.003657 
2381.000000	64.996504 
2380.000000	64.989089 
2379.000000	64.981865 
2378.000000	64.974880 
2377.000000	64.968276 
2376.000000	64.962148 
2375.000000	64.956593 
2374.000000	64.951825 
2373.000000	64.948034 
2372.000000	64.945507 
2371.000000	64.944195 
2370.000000	64.943885 
2369.000000	64.944291 
2368.000000	64.944982 
2367.000000	64.945745 
2366.000000	64.946413 
2365.000000	64.947175 
2364.000000	64.948201 
2363.000000	64.949822 
2362.000000	64.952301 
2361.000000	64.955759 
2360.000000	64.960145 
2359.000000	64.965152 
2358.000000	64.970278 
2357.000000	64.974927 
2356.000000	64.978218 
2355.000000	64.979362 
2354.000000	64.977788 
2353.000000	64.972996 
2352.000000	64.964985 
2351.000000	64.954137 
2350.000000	64.941358 
2349.000000	64.927935 
2348.000000	64.915084 
2347.000000	64.904117 
2346.000000	64.895725 
2345.000000	64.890122 
2344.000000	64.886665 
2343.000000	64.884066 
2342.000000	64.881134 
2341.000000	64.877009 
2340.000000	64.871573 
2339.000000	64.865612 
2338.000000	64.860820 
2337.000000	64.859080 
2336.000000	64.862227 
2335.000000	64.871358 
2334.000000	64.886260 
2333.000000	64.905595 
2332.000000	64.926910 
2331.000000	64.947509 
2330.000000	64.964985 
2329.000000	64.977884 
2328.000000	64.985918 
2327.000000	64.989995 
2326.000000	64.991998 
2325.000000	64.993929 
2324.000000	64.997601 
2323.000000	65.003681 
2322.000000	65.011978 
2321.000000	65.020966 
2320.000000	65.028691 
2319.000000	65.032696 
2318.000000	65.030932 
2317.000000	65.021991 
2316.000000	65.005588 
2315.000000	64.982748 
2314.000000	64.955568 
2313.000000	64.927148 
2312.000000	64.901018 
2311.000000	64.880514 
2310.000000	64.868378 
2309.000000	64.866256 
2308.000000	64.874243 
2307.000000	64.890885 
2306.000000	64.913463 
2305.000000	64.938306 
2304.000000	64.961671 
2303.000000	64.980387 
2302.000000	64.992380 
2301.000000	64.997005 
2300.000000	64.994907 
2299.000000	64.987874 
2298.000000	64.978241 
2297.000000	64.968180 
2296.000000	64.959383 
2295.000000	64.952874 
2294.000000	64.949011 
2293.000000	64.947700 
2292.000000	64.948368 
2291.000000	64.950466 
2290.000000	64.953327 
2289.000000	64.956402 
2288.000000	64.959144 
2287.000000	64.960932 
2286.000000	64.961385 
2285.000000	64.960122 
2284.000000	64.956998 
2283.000000	64.952182 
2282.000000	64.946317 
2281.000000	64.940333 
2280.000000	64.935183 
2279.000000	64.931654 
2278.000000	64.930152 
2277.000000	64.930391 
2276.000000	64.931583 
2275.000000	64.932227 
2274.000000	64.930820 
2273.000000	64.925742 
2272.000000	64.916062 
2271.000000	64.901494 
2270.000000	64.882493 
2269.000000	64.860320 
2268.000000	64.836621 
2267.000000	64.813375 
2266.000000	64.792394 
2265.000000	64.775133 
2264.000000	64.762401 
2263.000000	64.754414 
2262.000000	64.750933 
2261.000000	64.751410 
2260.000000	64.755201 
2259.000000	64.761757 
2258.000000	64.770746 
2257.000000	64.781928 
2256.000000	64.795303 
2255.000000	64.810848 
2254.000000	64.828395 
2253.000000	64.847517 
2252.000000	64.867258 
2251.000000	64.886450 
2250.000000	64.903640 
2249.000000	64.917373 
2248.000000	64.926123 
2247.000000	64.928841 
2246.000000	64.925146 
2245.000000	64.915490 
2244.000000	64.901041 
2243.000000	64.883923 
2242.000000	64.866638 
2241.000000	64.851927 
2240.000000	64.842009 
2239.000000	64.838600 
2238.000000	64.842057 
2237.000000	64.851689 
2236.000000	64.865612 
2235.000000	64.881205 
2234.000000	64.895606 
2233.000000	64.906263 
2232.000000	64.911437 
2231.000000	64.910531 
2230.000000	64.904260 
2229.000000	64.894366 
2228.000000	64.883184 
2227.000000	64.873003 
2226.000000	64.865779 
2225.000000	64.862489 
2224.000000	64.863157 
2223.000000	64.867019 
2222.000000	64.872598 
2221.000000	64.878511 
2220.000000	64.883494 
2219.000000	64.886951 
2218.000000	64.888906 
2217.000000	64.889883 
2216.000000	64.890646 
2215.000000	64.891648 
2214.000000	64.892983 
2213.000000	64.894270 
2212.000000	64.894723 
2211.000000	64.893341 
2210.000000	64.889430 
2209.000000	64.882826 
2208.000000	64.874076 
2207.000000	64.864420 
2206.000000	64.855527 
2205.000000	64.848923 
2204.000000	64.845585 
2203.000000	64.845728 
2202.000000	64.848685 
2201.000000	64.853215 
2200.000000	64.857673 
2199.000000	64.860701 
2198.000000	64.861631 
2197.000000	64.860606 
2196.000000	64.858555 
2195.000000	64.856696 
2194.000000	64.856290 
2193.000000	64.858102 
2192.000000	64.862132 
2191.000000	64.867448 
2190.000000	64.872622 
2189.000000	64.875936 
2188.000000	64.876174 
2187.000000	64.872670 
2186.000000	64.865565 
2185.000000	64.855694 
2184.000000	64.844322 
2183.000000	64.832568 
2182.000000	64.821100 
2181.000000	64.810061 
2180.000000	64.799094 
2179.000000	64.787697 
2178.000000	64.775562 
2177.000000	64.762902 
2176.000000	64.750599 
2175.000000	64.740037 
2174.000000	64.732933 
2173.000000	64.730858 
2172.000000	64.734864 
2171.000000	64.745211 
2170.000000	64.761328 
2169.000000	64.781856 
2168.000000	64.805006 
2167.000000	64.828896 
2166.000000	64.851784 
2165.000000	64.872384 
2164.000000	64.889764 
2163.000000	64.903521 
2162.000000	64.913678 
2161.000000	64.920258 
2160.000000	64.923834 
2159.000000	64.924716 
2158.000000	64.923477 
2157.000000	64.920330 
2156.000000	64.915466 
2155.000000	64.908552 
2154.000000	64.899396 
2153.000000	64.887738 
2152.000000	64.873528 
2151.000000	64.857363 
2150.000000	64.840483 
2149.000000	64.824533 
2148.000000	64.811515 
2147.000000	64.803194 
2146.000000	64.800786 
2145.000000	64.804601 
2144.000000	64.813899 
2143.000000	64.826965 
2142.000000	64.841461 
2141.000000	64.855027 
2140.000000	64.865565 
2139.000000	64.871716 
2138.000000	64.872813 
2137.000000	64.869117 
2136.000000	64.861369 
2135.000000	64.850401 
2134.000000	64.837217 
2133.000000	64.822864 
2132.000000	64.808535 
2131.000000	64.795422 
2130.000000	64.784789 
2129.000000	64.777922 
2128.000000	64.775967 
2127.000000	64.779639 
2126.000000	64.789009 
2125.000000	64.803409 
2124.000000	64.821600 
2123.000000	64.841866 
2122.000000	64.862418 
2121.000000	64.881563 
2120.000000	64.898228 
2119.000000	64.911794 
2118.000000	64.922213 
2117.000000	64.929819 
2116.000000	64.935111 
2115.000000	64.938473 
2114.000000	64.940261 
2113.000000	64.940524 
2112.000000	64.939451 
2111.000000	64.937043 
2110.000000	64.933514 
2109.000000	64.928984 
2108.000000	64.923715 
2107.000000	64.917945 
2106.000000	64.911890 
2105.000000	64.905619 
2104.000000	64.899230 
2103.000000	64.892721 
2102.000000	64.886188 
2101.000000	64.879775 
2100.000000	64.873814 
2099.000000	64.868521 
2098.000000	64.864063 
2097.000000	64.860391 
2096.000000	64.857363 
2095.000000	64.854574 
2094.000000	64.851593 
2093.000000	64.847779 
2092.000000	64.842605 
2091.000000	64.835572 
2090.000000	64.826393 
2089.000000	64.814782 
2088.000000	64.800977 
2087.000000	64.785766 
2086.000000	64.770507 
2085.000000	64.757156 
2084.000000	64.747738 
2083.000000	64.743876 
2082.000000	64.746427 
2081.000000	64.755034 
2080.000000	64.768218 
2079.000000	64.783573 
2078.000000	64.798307 
2077.000000	64.809799 
2076.000000	64.816331 
2075.000000	64.817237 
2074.000000	64.813160 
2073.000000	64.805698 
2072.000000	64.797019 
2071.000000	64.789319 
2070.000000	64.784216 
2069.000000	64.782500 
2068.000000	64.783835 
2067.000000	64.786863 
2066.000000	64.789795 
2065.000000	64.790773 
2064.000000	64.788317 
2063.000000	64.781785 
2062.000000	64.771509 
2061.000000	64.758777 
2060.000000	64.745378 
2059.000000	64.733290 
2058.000000	64.724254 
2057.000000	64.719557 
2056.000000	64.719557 
2055.000000	64.723896 
2054.000000	64.731574 
2053.000000	64.741158 
2052.000000	64.751148 
2051.000000	64.760160 
2050.000000	64.767050 
2049.000000	64.771223 
2048.000000	64.772486 
2047.000000	64.771199 
2046.000000	64.767885 
2045.000000	64.763355 
2044.000000	64.758515 
2043.000000	64.754271 
2042.000000	64.751315 
2041.000000	64.750146 
2040.000000	64.751029 
2039.000000	64.753961 
2038.000000	64.758682 
2037.000000	64.764881 
2036.000000	64.772152 
2035.000000	64.780259 
2034.000000	64.789104 
2033.000000	64.798736 
2032.000000	64.809226 
2031.000000	64.820742 
2030.000000	64.833331 
2029.000000	64.846801 
2028.000000	64.860582 
2027.000000	64.874053 
2026.000000	64.886426 
2025.000000	64.897060 
2024.000000	64.905309 
2023.000000	64.910960 
2022.000000	64.913868 
2021.000000	64.914202 
2020.000000	64.912056 
2019.000000	64.907550 
2018.000000	64.900708 
2017.000000	64.891719 
2016.000000	64.880895 
2015.000000	64.868736 
2014.000000	64.856076 
2013.000000	64.844226 
2012.000000	64.834690 
2011.000000	64.828968 
2010.000000	64.828324 
2009.000000	64.833450 
2008.000000	64.844369 
2007.000000	64.860177 
2006.000000	64.879322 
2005.000000	64.899778 
2004.000000	64.919281 
2003.000000	64.935493 
2002.000000	64.946556 
2001.000000	64.950990 
2000.000000	64.948153 
1999.000000	64.938116 
1998.000000	64.921927 
1997.000000	64.901065 
1996.000000	64.877748 
1995.000000	64.854311 
1994.000000	64.833021 
1993.000000	64.815664 
1992.000000	64.803314 
1991.000000	64.796113 
1990.000000	64.793515 
1989.000000	64.794182 
1988.000000	64.796614 
1987.000000	64.799475 
1986.000000	64.801716 
1985.000000	64.802932 
1984.000000	64.803290 
1983.000000	64.803218 
1982.000000	64.803194 
1981.000000	64.803600 
1980.000000	64.804625 
1979.000000	64.806222 
1978.000000	64.808344 
1977.000000	64.811062 
1976.000000	64.814496 
1975.000000	64.819049 
1974.000000	64.825034 
1973.000000	64.832520 
1972.000000	64.841175 
1971.000000	64.850282 
1970.000000	64.858913 
1969.000000	64.865922 
1968.000000	64.870405 
1967.000000	64.871883 
1966.000000	64.870381 
1965.000000	64.866566 
1964.000000	64.861392 
1963.000000	64.855742 
1962.000000	64.850306 
1961.000000	64.845514 
1960.000000	64.841771 
1959.000000	64.839482 
1958.000000	64.839172 
1957.000000	64.841532 
1956.000000	64.847135 
1955.000000	64.856028 
1954.000000	64.867591 
1953.000000	64.880442 
1952.000000	64.892530 
1951.000000	64.901661 
1950.000000	64.906048 
1949.000000	64.904594 
1948.000000	64.897489 
1947.000000	64.885854 
1946.000000	64.871740 
1945.000000	64.857459 
1944.000000	64.845156 
1943.000000	64.836192 
1942.000000	64.831066 
1941.000000	64.829349 
1940.000000	64.830160 
1939.000000	64.832329 
1938.000000	64.834952 
1937.000000	64.837217 
1936.000000	64.838814 
1935.000000	64.839482 
1934.000000	64.838933 
1933.000000	64.836931 
1932.000000	64.833426 
1931.000000	64.828515 
1930.000000	64.822649 
1929.000000	64.816641 
1928.000000	64.811348 
1927.000000	64.807605 
1926.000000	64.805960 
1925.000000	64.806437 
1924.000000	64.808297 
1923.000000	64.810466 
1922.000000	64.811563 
1921.000000	64.810347 
1920.000000	64.806079 
1919.000000	64.798974 
1918.000000	64.789915 
1917.000000	64.780402 
1916.000000	64.772224 
1915.000000	64.766836 
1914.000000	64.764881 
1913.000000	64.765906 
1912.000000	64.768362 
1911.000000	64.770030 
1910.000000	64.768552 
1909.000000	64.761972 
1908.000000	64.749336 
1907.000000	64.731001 
1906.000000	64.708662 
1905.000000	64.685034 
1904.000000	64.663171 
1903.000000	64.646029 
1902.000000	64.635777 
1901.000000	64.633536 
1900.000000	64.639306 
1899.000000	64.652156 
1898.000000	64.670348 
1897.000000	64.691829 
1896.000000	64.714622 
1895.000000	64.737129 
1894.000000	64.758038 
1893.000000	64.776420 
1892.000000	64.791631 
1891.000000	64.803075 
1890.000000	64.810228 
1889.000000	64.812421 
1888.000000	64.809417 
1887.000000	64.800977 
1886.000000	64.787530 
1885.000000	64.769840 
1884.000000	64.749526 
1883.000000	64.728379 
1882.000000	64.708185 
1881.000000	64.690589 
1880.000000	64.676737 
1879.000000	64.667248 
1878.000000	64.662241 
1877.000000	64.661550 
1876.000000	64.664888 
1875.000000	64.672183 
1874.000000	64.683341 
1873.000000	64.698433 
1872.000000	64.717340 
1871.000000	64.739465 
1870.000000	64.763545 
1869.000000	64.787387 
1868.000000	64.808368 
1867.000000	64.823722 
1866.000000	64.831256 
1865.000000	64.829707 
1864.000000	64.819288 
1863.000000	64.801883 
1862.000000	64.780735 
1861.000000	64.759874 
1860.000000	64.743208 
1859.000000	64.733982 
1858.000000	64.733839 
1857.000000	64.742612 
1856.000000	64.758539 
1855.000000	64.778614 
1854.000000	64.799356 
1853.000000	64.817619 
1852.000000	64.831352 
1851.000000	64.839887 
1850.000000	64.843964 
1849.000000	64.845347 
1848.000000	64.846086 
1847.000000	64.847755 
1846.000000	64.851188 
1845.000000	64.855957 
1844.000000	64.860820 
1843.000000	64.863777 
1842.000000	64.863061 
1841.000000	64.857101 
1840.000000	64.845395 
1839.000000	64.828419 
1838.000000	64.807438 
1837.000000	64.784264 
1836.000000	64.761137 
1835.000000	64.740014 
1834.000000	64.722609 
1833.000000	64.709925 
1832.000000	64.702439 
1831.000000	64.699769 
1830.000000	64.701294 
1829.000000	64.705848 
1828.000000	64.711999 
1827.000000	64.718484 
1826.000000	64.724087 
1825.000000	64.728236 
1824.000000	64.730954 
1823.000000	64.732789 
1822.000000	64.734625 
1821.000000	64.737510 
1820.000000	64.742016 
1819.000000	64.748239 
1818.000000	64.755415 
1817.000000	64.761900 
1816.000000	64.765763 
1815.000000	64.765095 
1814.000000	64.758920 
1813.000000	64.747238 
1812.000000	64.731431 
1811.000000	64.713931 
1810.000000	64.697837 
1809.000000	64.686298 
1808.000000	64.681649 
1807.000000	64.684987 
1806.000000	64.696002 
1805.000000	64.713072 
1804.000000	64.733695 
1803.000000	64.755177 
1802.000000	64.775013 
1801.000000	64.791250 
1800.000000	64.802742 
1799.000000	64.808893 
1798.000000	64.809679 
1797.000000	64.805340 
1796.000000	64.796376 
1795.000000	64.783310 
1794.000000	64.767074 
1793.000000	64.748740 
1792.000000	64.729857 
1791.000000	64.712166 
1790.000000	64.697146 
1789.000000	64.685964 
1788.000000	64.678907 
1787.000000	64.675474 
1786.000000	64.674448 
1785.000000	64.674162 
1784.000000	64.672851 
1783.000000	64.669418 
1782.000000	64.663290 
1781.000000	64.654850 
1780.000000	64.645075 
1779.000000	64.635467 
1778.000000	64.627456 
1777.000000	64.622116 
1776.000000	64.619827 
1775.000000	64.620304 
1774.000000	64.622664 
1773.000000	64.625525 
1772.000000	64.627432 
1771.000000	64.627289 
1770.000000	64.624619 
1769.000000	64.619398 
1768.000000	64.612150 
1767.000000	64.603638 
1766.000000	64.594793 
1765.000000	64.586305 
1764.000000	64.578557 
1763.000000	64.571666 
1762.000000	64.565491 
1761.000000	64.559864 
1760.000000	64.554738 
1759.000000	64.549970 
1758.000000	64.545559 
1757.000000	64.541602 
1756.000000	64.538311 
1755.000000	64.535760 
1754.000000	64.533805 
1753.000000	64.532279 
1752.000000	64.530587 
1751.000000	64.527988 
1750.000000	64.523363 
1749.000000	64.515805 
1748.000000	64.504361 
1747.000000	64.488458 
1746.000000	64.468002 
1745.000000	64.443588 
1744.000000	64.416432 
1743.000000	64.388036 
1742.000000	64.360237 
1741.000000	64.334678 
1740.000000	64.312601 
1739.000000	64.294648 
1738.000000	64.280891 
1737.000000	64.270973 
1736.000000	64.264416 
1735.000000	64.260935 
1734.000000	64.260482 
1733.000000	64.263343 
1732.000000	64.269685 
1731.000000	64.279460 
1730.000000	64.292001 
1729.000000	64.306426 
1728.000000	64.321088 
1727.000000	64.334511 
1726.000000	64.345407 
1725.000000	64.353370 
1724.000000	64.358735 
1723.000000	64.362692 
1722.000000	64.367032 
1721.000000	64.373564 
1720.000000	64.383602 
1719.000000	64.397692 
1718.000000	64.415383 
1717.000000	64.435410 
1716.000000	64.455986 
1715.000000	64.475321 
1714.000000	64.491987 
1713.000000	64.505171 
1712.000000	64.514684 
1711.000000	64.520978 
1710.000000	64.525008 
1709.000000	64.527726 
1708.000000	64.530014 
1707.000000	64.532709 
1706.000000	64.536190 
1705.000000	64.540696 
1704.000000	64.545989 
1703.000000	64.551734 
1702.000000	64.557456 
1701.000000	64.562654 
1700.000000	64.566993 
1699.000000	64.570307 
1698.000000	64.572596 
1697.000000	64.574265 
1696.000000	64.575743 
1695.000000	64.577436 
1694.000000	64.579463 
1693.000000	64.581632 
1692.000000	64.583253 
1691.000000	64.583325 
1690.000000	64.580917 
1689.000000	64.575481 
1688.000000	64.567136 
1687.000000	64.556694 
1686.000000	64.545845 
1685.000000	64.536857 
1684.000000	64.531803 
1683.000000	64.532375 
1682.000000	64.539313 
1681.000000	64.552330 
1680.000000	64.569926 
1679.000000	64.589715 
1678.000000	64.608836 
1677.000000	64.624500 
1676.000000	64.634442 
1675.000000	64.637231 
1674.000000	64.632654 
1673.000000	64.621472 
1672.000000	64.605379 
1671.000000	64.586615 
1670.000000	64.567613 
1669.000000	64.550638 
1668.000000	64.537525 
1667.000000	64.529252 
1666.000000	64.526128 
1665.000000	64.527440 
1664.000000	64.531922 
1663.000000	64.537739 
1662.000000	64.542984 
1661.000000	64.545917 
1660.000000	64.545369 
1659.000000	64.540863 
1658.000000	64.532732 
1657.000000	64.522004 
1656.000000	64.510130 
1655.000000	64.498782 
1654.000000	64.489531 
1653.000000	64.483356 
1652.000000	64.480400 
1651.000000	64.480066 
1650.000000	64.480924 
1649.000000	64.481186 
1648.000000	64.479231 
1647.000000	64.473915 
1646.000000	64.465069 
1645.000000	64.453506 
1644.000000	64.440917 
1643.000000	64.429378 
1642.000000	64.421105 
1641.000000	64.417624 
1640.000000	64.419603 
1639.000000	64.426541 
1638.000000	64.437055 
1637.000000	64.449167 
1636.000000	64.460754 
1635.000000	64.469861 
1634.000000	64.475202 
1633.000000	64.476084 
1632.000000	64.472484 
1631.000000	64.464759 
1630.000000	64.453554 
1629.000000	64.439773 
1628.000000	64.424300 
1627.000000	64.408183 
1626.000000	64.392781 
1625.000000	64.379334 
1624.000000	64.368987 
1623.000000	64.362549 
1622.000000	64.360237 
1621.000000	64.361619 
1620.000000	64.365792 
1619.000000	64.371442 
1618.000000	64.377212 
1617.000000	64.382100 
1616.000000	64.385581 
1615.000000	64.387702 
1614.000000	64.388966 
1613.000000	64.390039 
1612.000000	64.391422 
1611.000000	64.393162 
1610.000000	64.394760 
1609.000000	64.395260 
1608.000000	64.393734 
1607.000000	64.389467 
1606.000000	64.382266 
1605.000000	64.372944 
1604.000000	64.362978 
1603.000000	64.354348 
1602.000000	64.349031 
1601.000000	64.348697 
1600.000000	64.354038 
1599.000000	64.364719 
1598.000000	64.379405 
1597.000000	64.395785 
1596.000000	64.411330 
1595.000000	64.423704 
1594.000000	64.431452 
1593.000000	64.434099 
1592.000000	64.432382 
1591.000000	64.427971 
1590.000000	64.423012 
1589.000000	64.419388 
1588.000000	64.418292 
1587.000000	64.420056 
1586.000000	64.423847 
1585.000000	64.428067 
1584.000000	64.430856 
1583.000000	64.430642 
1582.000000	64.426612 
1581.000000	64.419221 
1580.000000	64.409780 
1579.000000	64.400362 
1578.000000	64.392948 
1577.000000	64.389014 
1576.000000	64.389085 
1575.000000	64.392638 
1574.000000	64.398384 
1573.000000	64.404511 
1572.000000	64.409518 
1571.000000	64.412593 
1570.000000	64.413666 
1569.000000	64.413571 
1568.000000	64.413475 
1567.000000	64.414691 
1566.000000	64.418148 
1565.000000	64.424228 
1564.000000	64.432573 
1563.000000	64.442324 
1562.000000	64.452433 
1561.000000	64.461898 
1560.000000	64.469909 
1559.000000	64.475870 
1558.000000	64.479351 
1557.000000	64.480042 
1556.000000	64.477610 
1555.000000	64.471864 
1554.000000	64.462804 
1553.000000	64.451026 
1552.000000	64.437723 
1551.000000	64.424490 
1550.000000	64.413356 
1549.000000	64.406275 
1548.000000	64.404797 
1547.000000	64.409422 
1546.000000	64.419507 
1545.000000	64.433312 
1544.000000	64.448404 
1543.000000	64.462089 
1542.000000	64.471983 
1541.000000	64.476585 
1540.000000	64.475655 
1539.000000	64.470028 
1538.000000	64.461374 
1537.000000	64.451718 
1536.000000	64.442896 
1535.000000	64.436078 
1534.000000	64.431309 
1533.000000	64.427828 
1532.000000	64.424109 
1531.000000	64.418506 
1530.000000	64.409685 
1529.000000	64.397120 
1528.000000	64.381504 
1527.000000	64.364838 
1526.000000	64.350152 
1525.000000	64.340615 
1524.000000	64.339137 
1523.000000	64.347577 
1522.000000	64.366126 
1521.000000	64.393353 
1520.000000	64.426326 
1519.000000	64.461183 
1518.000000	64.493942 
1517.000000	64.521169 
1516.000000	64.540600 
1515.000000	64.551424 
1514.000000	64.554262 
1513.000000	64.550876 
1512.000000	64.543795 
1511.000000	64.535760 
1510.000000	64.529061 
1509.000000	64.525270 
1508.000000	64.525175 
1507.000000	64.528536 
1506.000000	64.534687 
1505.000000	64.542222 
1504.000000	64.549541 
1503.000000	64.555001 
1502.000000	64.557266 
1501.000000	64.555335 
1500.000000	64.548707 
1499.000000	64.537477 
1498.000000	64.522266 
1497.000000	64.504218 
1496.000000	64.484906 
1495.000000	64.466023 
1494.000000	64.449381 
1493.000000	64.436459 
1492.000000	64.428329 
1491.000000	64.425420 
1490.000000	64.427566 
1489.000000	64.433979 
1488.000000	64.443302 
1487.000000	64.453864 
1486.000000	64.463710 
1485.000000	64.471411 
1484.000000	64.475798 
1483.000000	64.476275 
1482.000000	64.472866 
1481.000000	64.466404 
1480.000000	64.458155 
1479.000000	64.449691 
1478.000000	64.442515 
1477.000000	64.437842 
1476.000000	64.436292 
1475.000000	64.437913 
1474.000000	64.442205 
1473.000000	64.448308 
1472.000000	64.455127 
1471.000000	64.461827 
1470.000000	64.467740 
1469.000000	64.472556 
1468.000000	64.476275 
1467.000000	64.479303 
1466.000000	64.482259 
1465.000000	64.486002 
1464.000000	64.491367 
1463.000000	64.498782 
1462.000000	64.508581 
1461.000000	64.520359 
1460.000000	64.533424 
1459.000000	64.546275 
1458.000000	64.557313 
1457.000000	64.564776 
1456.000000	64.567089 
1455.000000	64.563107 
1454.000000	64.552569 
1453.000000	64.536070 
1452.000000	64.514970 
1451.000000	64.491581 
1450.000000	64.468479 
1449.000000	64.448499 
1448.000000	64.434146 
1447.000000	64.427495 
1446.000000	64.429688 
1445.000000	64.440751 
1444.000000	64.459753 
1443.000000	64.484453 
1442.000000	64.511895 
1441.000000	64.538574 
1440.000000	64.560890 
1439.000000	64.575934 
1438.000000	64.581799 
1437.000000	64.577865 
1436.000000	64.564967 
1435.000000	64.544820 
1434.000000	64.519715 
1433.000000	64.492177 
1432.000000	64.464259 
1431.000000	64.437556 
1430.000000	64.412903 
1429.000000	64.390826 
1428.000000	64.371514 
1427.000000	64.355182 
1426.000000	64.342164 
1425.000000	64.332842 
1424.000000	64.327740 
1423.000000	64.327168 
1422.000000	64.331054 
1421.000000	64.338731 
1420.000000	64.349126 
1419.000000	64.360690 
1418.000000	64.371871 
1417.000000	64.381408 
1416.000000	64.388394 
1415.000000	64.392518 
1414.000000	64.393949 
1413.000000	64.393258 
1412.000000	64.391231 
1411.000000	64.388537 
1410.000000	64.385676 
1409.000000	64.382672 
1408.000000	64.379262 
1407.000000	64.374923 
1406.000000	64.369201 
1405.000000	64.361858 
1404.000000	64.353060 
1403.000000	64.343333 
1402.000000	64.333748 
1401.000000	64.325594 
1400.000000	64.319944 
1399.000000	64.317655 
1398.000000	64.318871 
1397.000000	64.323282 
1396.000000	64.329981 
1395.000000	64.337682 
1394.000000	64.344978 
1393.000000	64.350628 
1392.000000	64.353871 
1391.000000	64.354324 
1390.000000	64.352178 
1389.000000	64.348196 
1388.000000	64.343333 
1387.000000	64.338803 
1386.000000	64.335751 
1385.000000	64.335107 
1384.000000	64.337635 
1383.000000	64.343786 
1382.000000	64.353728 
1381.000000	64.367413 
1380.000000	64.384579 
1379.000000	64.404726 
1378.000000	64.427089 
1377.000000	64.450645 
1376.000000	64.474058 
1375.000000	64.495730 
1374.000000	64.513683 
1373.000000	64.525961 
1372.000000	64.530825 
1371.000000	64.527130 
1370.000000	64.514517 
1369.000000	64.493417 
1368.000000	64.465332 
1367.000000	64.432716 
1366.000000	64.398574 
1365.000000	64.366173 
1364.000000	64.338397 
1363.000000	64.317464 
1362.000000	64.304661 
1361.000000	64.300131 
1360.000000	64.302873 
1359.000000	64.311051 
1358.000000	64.322352 
1357.000000	64.334201 
1356.000000	64.344358 
1355.000000	64.351058 
1354.000000	64.353084 
1353.000000	64.349937 
1352.000000	64.341688 
1351.000000	64.329004 
1350.000000	64.312863 
1349.000000	64.294791 
1348.000000	64.276599 
1347.000000	64.260458 
1346.000000	64.248704 
1345.000000	64.243602 
1344.000000	64.246964 
1343.000000	64.259624 
1342.000000	64.281272 
1341.000000	64.310145 
1340.000000	64.343166 
1339.000000	64.376258 
1338.000000	64.405059 
1337.000000	64.425778 
1336.000000	64.435863 
1335.000000	64.434623 
1334.000000	64.423060 
1333.000000	64.403986 
1332.000000	64.381051 
1331.000000	64.357995 
1330.000000	64.337873 
1329.000000	64.322495 
1328.000000	64.312219 
1327.000000	64.306139 
1326.000000	64.302611 
1325.000000	64.299964 
1324.000000	64.297008 
1323.000000	64.293432 
1322.000000	64.289927 
1321.000000	64.287734 
1320.000000	64.288163 
1319.000000	64.291930 
1318.000000	64.298987 
1317.000000	64.308190 
1316.000000	64.318037 
1315.000000	64.326548 
1314.000000	64.332222 
1313.000000	64.334273 
1312.000000	64.332723 
1311.000000	64.328336 
1310.000000	64.322209 
1309.000000	64.315438 
1308.000000	64.308929 
1307.000000	64.303183 
1306.000000	64.298343 
1305.000000	64.294290 
1304.000000	64.291143 
1303.000000	64.289164 
1302.000000	64.288806 
1301.000000	64.290475 
1300.000000	64.294052 
1299.000000	64.299130 
1298.000000	64.304614 
1297.000000	64.309358 
1296.000000	64.312100 
1295.000000	64.312171 
1294.000000	64.309668 
1293.000000	64.305281 
1292.000000	64.300298 
1291.000000	64.296007 
1290.000000	64.293336 
1289.000000	64.292788 
1288.000000	64.294314 
1287.000000	64.297366 
1286.000000	64.301323 
1285.000000	64.305758 
1284.000000	64.310455 
1283.000000	64.315462 
1282.000000	64.320921 
1281.000000	64.326596 
1280.000000	64.331984 
1279.000000	64.336013 
1278.000000	64.337372 
1277.000000	64.334988 
1276.000000	64.328217 
1275.000000	64.317584 
1274.000000	64.304399 
1273.000000	64.290523 
1272.000000	64.278030 
1271.000000	64.268541 
1270.000000	64.263153 
1269.000000	64.262342 
1268.000000	64.265751 
1267.000000	64.272642 
1266.000000	64.281678 
1265.000000	64.291644 
1264.000000	64.300870 
1263.000000	64.307689 
1262.000000	64.310550 
1261.000000	64.308261 
1260.000000	64.300298 
1259.000000	64.286804 
1258.000000	64.268970 
1257.000000	64.248728 
1256.000000	64.228725 
1255.000000	64.211678 
1254.000000	64.199876 
1253.000000	64.194679 
1252.000000	64.196300 
1251.000000	64.203882 
1250.000000	64.215612 
1249.000000	64.229512 
1248.000000	64.243507 
1247.000000	64.256143 
1246.000000	64.266276 
1245.000000	64.273071 
1244.000000	64.276051 
1243.000000	64.274764 
1242.000000	64.268779 
1241.000000	64.257693 
1240.000000	64.241671 
1239.000000	64.221143 
1238.000000	64.197325 
1237.000000	64.171743 
1236.000000	64.146304 
1235.000000	64.122939 
1234.000000	64.103031 
1233.000000	64.087629 
1232.000000	64.076972 
1231.000000	64.071130 
1230.000000	64.069962 
1229.000000	64.073371 
1228.000000	64.081287 
1227.000000	64.093422 
1226.000000	64.109325 
1225.000000	64.127802 
1224.000000	64.147305 
1223.000000	64.165973 
1222.000000	64.182162 
1221.000000	64.194893 
1220.000000	64.204096 
1219.000000	64.210820 
1218.000000	64.216685 
1217.000000	64.223575 
1216.000000	64.232754 
1215.000000	64.244675 
1214.000000	64.258337 
1213.000000	64.271879 
1212.000000	64.282751 
1211.000000	64.288711 
1210.000000	64.288282 
1209.000000	64.281630 
1208.000000	64.270114 
1207.000000	64.256095 
1206.000000	64.242076 
1205.000000	64.230132 
1204.000000	64.221239 
1203.000000	64.214968 
1202.000000	64.209699 
1201.000000	64.203166 
1200.000000	64.193010 
1199.000000	64.177513 
1198.000000	64.155983 
1197.000000	64.129161 
1196.000000	64.099049 
1195.000000	64.068722 
1194.000000	64.041495 
1193.000000	64.020371 
1192.000000	64.007616 
1191.000000	64.004349 
1190.000000	64.010262 
1189.000000	64.024114 
1188.000000	64.043688 
1187.000000	64.066624 
1186.000000	64.090442 
1185.000000	64.113140 
1184.000000	64.133310 
1183.000000	64.150285 
1182.000000	64.163732 
1181.000000	64.173603 
1180.000000	64.179873 
1179.000000	64.182305 
1178.000000	64.180612 
1177.000000	64.174485 
1176.000000	64.163708 
1175.000000	64.148569 
1174.000000	64.129829 
1173.000000	64.108514 
1172.000000	64.086031 
1171.000000	64.063644 
1170.000000	64.042687 
1169.000000	64.024066 
1168.000000	64.008665 
1167.000000	63.997125 
1166.000000	63.990163 
1165.000000	63.988137 
1164.000000	63.991260 
1163.000000	63.999438 
1162.000000	64.012050 
1161.000000	64.027857 
1160.000000	64.045047 
1159.000000	64.061307 
1158.000000	64.074468 
1157.000000	64.082717 
1156.000000	64.085268 
1155.000000	64.082503 
1154.000000	64.076042 
1153.000000	64.068341 
1152.000000	64.062166 
1151.000000	64.059925 
1150.000000	64.062976 
1149.000000	64.071130 
1148.000000	64.082741 
1147.000000	64.095067 
1146.000000	64.104509 
1145.000000	64.107751 
1144.000000	64.102482 
1143.000000	64.088201 
1142.000000	64.066433 
1141.000000	64.040541 
1140.000000	64.015197 
1139.000000	63.995003 
1138.000000	63.983082 
1137.000000	63.980579 
1136.000000	63.986253 
1135.000000	63.997149 
1134.000000	64.009571 
1133.000000	64.020156 
1132.000000	64.026927 
1131.000000	64.029765 
1130.000000	64.029765 
1129.000000	64.029049 
1128.000000	64.029288 
1127.000000	64.031815 
1126.000000	64.037036 
1125.000000	64.044713 
1124.000000	64.054131 
1123.000000	64.064431 
1122.000000	64.074969 
1121.000000	64.085268 
1120.000000	64.095234 
1119.000000	64.104771 
1118.000000	64.113879 
1117.000000	64.122390 
1116.000000	64.130163 
1115.000000	64.136886 
1114.000000	64.142537 
1113.000000	64.147377 
1112.000000	64.152216 
1111.000000	64.158678 
1110.000000	64.168524 
1109.000000	64.183545 
1108.000000	64.204263 
1107.000000	64.229941 
1106.000000	64.257812 
1105.000000	64.283919 
1104.000000	64.303421 
1103.000000	64.312076 
1102.000000	64.307069 
1101.000000	64.287924 
1100.000000	64.256525 
1099.000000	64.216804 
1098.000000	64.173841 
1097.000000	64.132809 
1096.000000	64.097976 
1095.000000	64.072036 
1094.000000	64.055895 
1093.000000	64.048886 
1092.000000	64.049410 
1091.000000	64.055490 
1090.000000	64.065217 
1089.000000	64.077043 
1088.000000	64.089655 
1087.000000	64.102149 
1086.000000	64.113450 
1085.000000	64.122462 
1084.000000	64.128160 
1083.000000	64.129757 
1082.000000	64.127111 
1081.000000	64.120697 
1080.000000	64.111661 
1079.000000	64.101433 
1078.000000	64.091587 
1077.000000	64.083242 
1076.000000	64.077162 
1075.000000	64.073371 
1074.000000	64.071249 
1073.000000	64.069986 
1072.000000	64.068746 
1071.000000	64.067006 
1070.000000	64.064550 
1069.000000	64.061474 
1068.000000	64.057874 
1067.000000	64.053773 
1066.000000	64.049172 
1065.000000	64.043974 
1064.000000	64.038133 
1063.000000	64.032101 
1062.000000	64.026832 
1061.000000	64.023590 
1060.000000	64.023923 
1059.000000	64.029145 
1058.000000	64.040017 
1057.000000	64.056754 
1056.000000	64.078307 
1055.000000	64.102840 
1054.000000	64.127540 
1053.000000	64.149165 
1052.000000	64.164400 
1051.000000	64.170503 
1050.000000	64.165997 
1049.000000	64.151191 
1048.000000	64.128136 
1047.000000	64.100575 
1046.000000	64.073109 
1045.000000	64.050364 
1044.000000	64.036011 
1043.000000	64.032149 
1042.000000	64.038729 
1041.000000	64.053726 
1040.000000	64.073586 
1039.000000	64.094352 
1038.000000	64.112281 
1037.000000	64.124774 
1036.000000	64.130997 
1035.000000	64.131665 
1034.000000	64.128541 
1033.000000	64.123773 
1032.000000	64.119458 
1031.000000	64.116835 
1030.000000	64.116215 
1029.000000	64.116835 
1028.000000	64.117550 
1027.000000	64.117074 
1026.000000	64.114332 
1025.000000	64.108920 
1024.000000	64.100885 
1023.000000	64.090919 
1022.000000	64.080071 
1021.000000	64.069676 
1020.000000	64.060640 
1019.000000	64.053869 
1018.000000	64.049911 
1017.000000	64.049029 
1016.000000	64.051198 
1015.000000	64.056158 
1014.000000	64.063310 
1013.000000	64.072060 
1012.000000	64.081954 
1011.000000	64.092803 
1010.000000	64.104914 
1009.000000	64.118957 
1008.000000	64.135742 
1007.000000	64.155936 
1006.000000	64.179706 
1005.000000	64.206385 
1004.000000	64.234423 
1003.000000	64.261770 
1002.000000	64.286112 
1001.000000	64.305663 
1000.000000	64.319276 
999.000000	 64.326858 
998.000000	 64.328932 
997.000000	 64.326834 
996.000000	 64.321732 
995.000000	 64.314532 
994.000000	 64.305567 
993.000000	 64.294695 
992.000000	 64.281797 
991.000000	 64.266967 
990.000000	 64.251112 
989.000000	 64.236259 
988.000000	 64.224910 
987.000000	 64.219737 
986.000000	 64.222550 
985.000000	 64.233732 
984.000000	 64.251828 
983.000000	 64.273643 
982.000000	 64.294672 
981.000000	 64.310240 
980.000000	 64.316725 
979.000000	 64.312338 
978.000000	 64.297628 
977.000000	 64.275336 
976.000000	 64.249658 
975.000000	 64.225363 
974.000000	 64.206337 
973.000000	 64.194726 
972.000000	 64.191007 
971.000000	 64.193940 
970.000000	 64.201068 
969.000000	 64.209771 
968.000000	 64.218068 
967.000000	 64.225387 
966.000000	 64.232230 
965.000000	 64.240384 
964.000000	 64.251875 
963.000000	 64.268445 
962.000000	 64.290690 
961.000000	 64.317846 
960.000000	 64.347791 
959.000000	 64.377379 
958.000000	 64.403271 
957.000000	 64.422488 
956.000000	 64.432930 
955.000000	 64.433860 
954.000000	 64.425969 
953.000000	 64.410877 
952.000000	 64.390707 
951.000000	 64.367866 
950.000000	 64.344263 
949.000000	 64.321041 
948.000000	 64.298534 
947.000000	 64.276647 
946.000000	 64.254856 
945.000000	 64.232778 
944.000000	 64.210677 
943.000000	 64.189291 
942.000000	 64.169979 
941.000000	 64.154219 
940.000000	 64.143514 
939.000000	 64.138555 
938.000000	 64.139533 
937.000000	 64.145565 
936.000000	 64.155340 
935.000000	 64.166998 
934.000000	 64.178895 
933.000000	 64.190101 
932.000000	 64.200472 
931.000000	 64.210391 
930.000000	 64.220809 
929.000000	 64.233016 
928.000000	 64.248037 
927.000000	 64.266371 
926.000000	 64.288163 
925.000000	 64.312934 
924.000000	 64.340043 
923.000000	 64.368271 
922.000000	 64.396190 
921.000000	 64.421868 
920.000000	 64.443445 
919.000000	 64.458918 
918.000000	 64.466452 
917.000000	 64.464855 
916.000000	 64.454150 
915.000000	 64.435315 
914.000000	 64.410638 
913.000000	 64.382886 
912.000000	 64.355492 
911.000000	 64.331102 
910.000000	 64.311408 
909.000000	 64.296507 
908.000000	 64.285206 
907.000000	 64.275193 
906.000000	 64.263772 
905.000000	 64.248871 
904.000000	 64.229655 
903.000000	 64.206910 
902.000000	 64.182996 
901.000000	 64.161086 
900.000000	 64.144539 
899.000000	 64.136099 
898.000000	 64.137196 
897.000000	 64.147496 
896.000000	 64.165186 
895.000000	 64.187288 
894.000000	 64.210391 
893.000000	 64.231181 
892.000000	 64.247250 
891.000000	 64.257669 
890.000000	 64.262437 
889.000000	 64.262557 
888.000000	 64.259123 
887.000000	 64.253115 
886.000000	 64.245176 
885.000000	 64.235424 
884.000000	 64.224171 
883.000000	 64.212250 
882.000000	 64.201354 
881.000000	 64.193964 
880.000000	 64.192700 
879.000000	 64.199590 
878.000000	 64.215421 
877.000000	 64.239263 
876.000000	 64.268374 
875.000000	 64.298844 
874.000000	 64.326500 
873.000000	 64.347887 
872.000000	 64.361143 
871.000000	 64.366173 
870.000000	 64.364624 
869.000000	 64.358949 
868.000000	 64.351463 
867.000000	 64.343380 
866.000000	 64.334678 
865.000000	 64.324140 
864.000000	 64.310216 
863.000000	 64.291596 
862.000000	 64.268136 
861.000000	 64.240860 
860.000000	 64.211964 
859.000000	 64.184069 
858.000000	 64.159321 
857.000000	 64.139127 
856.000000	 64.123606 
855.000000	 64.111900 
854.000000	 64.102768 
853.000000	 64.095163 
852.000000	 64.088702 
851.000000	 64.083933 
850.000000	 64.081978 
849.000000	 64.084219 
848.000000	 64.091777 
847.000000	 64.104914 
846.000000	 64.122605 
845.000000	 64.143109 
844.000000	 64.164066 
843.000000	 64.183115 
842.000000	 64.198374 
841.000000	 64.208817 
840.000000	 64.214181 
839.000000	 64.214777 
838.000000	 64.211106 
837.000000	 64.203596 
836.000000	 64.192867 
835.000000	 64.179563 
834.000000	 64.164733 
833.000000	 64.150238 
832.000000	 64.138364 
831.000000	 64.132046 
830.000000	 64.133405 
829.000000	 64.142942 
828.000000	 64.159297 
827.000000	 64.179325 
826.000000	 64.198517 
825.000000	 64.212083 
824.000000	 64.216351 
823.000000	 64.209866 
822.000000	 64.193534 
821.000000	 64.170360 
820.000000	 64.144659 
819.000000	 64.120817 
818.000000	 64.102220 
817.000000	 64.090251 
816.000000	 64.084291 
815.000000	 64.081621 
814.000000	 64.078545 
813.000000	 64.071202 
812.000000	 64.056420 
811.000000	 64.032912 
810.000000	 64.001393 
809.000000	 63.965153 
808.000000	 63.928294 
807.000000	 63.896417 
806.000000	 63.874673 
805.000000	 63.867688 
804.000000	 63.878273 
803.000000	 63.907122 
802.000000	 63.952565 
801.000000	 64.010810 
800.000000	 64.076328 
799.000000	 64.143133 
798.000000	 64.205527 
797.000000	 64.259123 
796.000000	 64.301300 
795.000000	 64.331531 
794.000000	 64.351034 
793.000000	 64.362287 
792.000000	 64.367985 
791.000000	 64.371037 
790.000000	 64.373135 
789.000000	 64.375114 
788.000000	 64.376068 
787.000000	 64.374041 
786.000000	 64.365959 
785.000000	 64.349079 
784.000000	 64.321708 
783.000000	 64.283633 
782.000000	 64.236998 
781.000000	 64.185976 
780.000000	 64.136242 
779.000000	 64.093565 
778.000000	 64.062857 
777.000000	 64.047122 
776.000000	 64.046454 
775.000000	 64.057850 
774.000000	 64.076209 
773.000000	 64.095664 
772.000000	 64.110517 
771.000000	 64.116764 
770.000000	 64.112353 
769.000000	 64.097380 
768.000000	 64.073753 
767.000000	 64.044141 
766.000000	 64.010810 
765.000000	 63.975119 
764.000000	 63.937759 
763.000000	 63.899111 
762.000000	 63.859605 
761.000000	 63.820672 
760.000000	 63.785290 
759.000000	 63.757658 
758.000000	 63.741612 
757.000000	 63.740515 
756.000000	 63.755536 
755.000000	 63.786220 
754.000000	 63.828969 
753.000000	 63.879394 
752.000000	 63.932561 
751.000000	 63.985109 
750.000000	 64.035868 
749.000000	 64.085745 
748.000000	 64.136505 
747.000000	 64.190006 
746.000000	 64.247202 
745.000000	 64.306259 
744.000000	 64.362382 
743.000000	 64.409327 
742.000000	 64.440655 
741.000000	 64.451861 
740.000000	 64.441537 
739.000000	 64.412355 
738.000000	 64.369964 
737.000000	 64.321279 
736.000000	 64.271736 
735.000000	 64.224171 
734.000000	 64.177250 
733.000000	 64.126348 
732.000000	 64.064836 
731.000000	 63.987207 
730.000000	 63.891100 
729.000000	 63.778543 
728.000000	 63.657498 
727.000000	 63.539505 
726.000000	 63.439249 
725.000000	 63.370180 
724.000000	 63.343334 
723.000000	 63.363528 
722.000000	 63.430023 
721.000000	 63.536381 
720.000000	 63.671517 
719.000000	 63.821101 
718.000000	 63.970661 
717.000000	 64.107298 
716.000000	 64.221096 
715.000000	 64.305496 
714.000000	 64.358735 
713.000000	 64.382815 
712.000000	 64.382791 
711.000000	 64.364790 
710.000000	 64.335727 
709.000000	 64.301204 
708.000000	 64.265394 
707.000000	 64.230608 
706.000000	 64.198327 
705.000000	 64.169907 
704.000000	 64.148068 
703.000000	 64.136576 
702.000000	 64.139652 
701.000000	 64.160704 
700.000000	 64.202070 
699.000000	 64.261960 
698.000000	 64.333844 
697.000000	 64.406776 
696.000000	 64.467787 
695.000000	 64.503526 
694.000000	 64.503669 
693.000000	 64.463472 
692.000000	 64.385271 
691.000000	 64.277958 
690.000000	 64.155149 
689.000000	 64.031243 
688.000000	 63.917946 
687.000000	 63.821434 
686.000000	 63.741230 
685.000000	 63.670325 
684.000000	 63.598322 
683.000000	 63.515281 
682.000000	 63.415765 
681.000000	 63.300490 
680.000000	 63.177800 
679.000000	 63.060522 
678.000000	 62.964701 
677.000000	 62.903928 
676.000000	 62.887835 
675.000000	 62.918567 
674.000000	 62.991642 
673.000000	 63.097476 
672.000000	 63.222742 
671.000000	 63.352465 
670.000000	 63.472747 
669.000000	 63.572406 
668.000000	 63.643813 
667.000000	 63.682484 
666.000000	 63.687634 
665.000000	 63.661479 
664.000000	 63.609099 
663.000000	 63.537788 
662.000000	 63.456773 
661.000000	 63.376307 
660.000000	 63.306093 
659.000000	 63.253903 
658.000000	 63.224697 
657.000000	 63.220024 
656.000000	 63.237071 
655.000000	 63.270473 
654.000000	 63.312697 
653.000000	 63.357806 
652.000000	 63.401412 
651.000000	 63.443851 
650.000000	 63.487982 
649.000000	 63.540363 
648.000000	 63.608121 
647.000000	 63.697838 
646.000000	 63.812518 
645.000000	 63.950657 
644.000000	 64.106464 
643.000000	 64.269709 
642.000000	 64.428234 
641.000000	 64.569330 
640.000000	 64.682602 
639.000000	 64.760923 
638.000000	 64.801788 
637.000000	 64.807343 
636.000000	 64.783740 
635.000000	 64.739775 
634.000000	 64.685368 
633.000000	 64.629149 
632.000000	 64.577102 
631.000000	 64.533042 
630.000000	 64.497661 
629.000000	 64.469408 
628.000000	 64.444708 
627.000000	 64.420056 
626.000000	 64.392137 
625.000000	 64.358115 
624.000000	 64.315676 
623.000000	 64.262723 
622.000000	 64.197993 
621.000000	 64.121055 
620.000000	 64.033007 
619.000000	 63.935589 
618.000000	 63.833165 
617.000000	 63.732504 
616.000000	 63.642024 
615.000000	 63.569736 
614.000000	 63.522863 
613.000000	 63.506340 
612.000000	 63.521599 
611.000000	 63.565182 
610.000000	 63.630747 
609.000000	 63.710021 
608.000000	 63.794755 
607.000000	 63.878059 
606.000000	 63.956046 
605.000000	 64.028048 
604.000000	 64.096331 
603.000000	 64.164614 
602.000000	 64.236116 
601.000000	 64.311885 
600.000000	 64.390993 
599.000000	 64.469408 
598.000000	 64.541459 
597.000000	 64.599680 
596.000000	 64.638447 
595.000000	 64.652585 
594.000000	 64.640021 
593.000000	 64.599990 
592.000000	 64.534473 
591.000000	 64.446616 
590.000000	 64.340567 
589.000000	 64.221549 
588.000000	 64.096069 
587.000000	 63.971734 
586.000000	 63.856792 
585.000000	 63.760328 
584.000000	 63.691186 
583.000000	 63.656949 
582.000000	 63.662099 
581.000000	 63.707518 
580.000000	 63.789725 
579.000000	 63.901972 
578.000000	 64.034914 
577.000000	 64.177227 
576.000000	 64.316987 
575.000000	 64.443850 
574.000000	 64.549517 
573.000000	 64.627575 
572.000000	 64.673805 
571.000000	 64.686775 
570.000000	 64.667129 
569.000000	 64.617943 
568.000000	 64.543890 
567.000000	 64.452242 
566.000000	 64.351511 
565.000000	 64.251542 
564.000000	 64.162158 
563.000000	 64.092159 
562.000000	 64.048552 
561.000000	 64.035439 
560.000000	 64.054465 
559.000000	 64.104223 
558.000000	 64.181017 
557.000000	 64.278960 
556.000000	 64.389133 
555.000000	 64.500188 
554.000000	 64.598846 
553.000000	 64.671754 
552.000000	 64.707636 
551.000000	 64.698815 
550.000000	 64.643764 
549.000000	 64.546728 
548.000000	 64.416909 
547.000000	 64.266514 
546.000000	 64.108657 
545.000000	 63.955473 
544.000000	 63.817834 
543.000000	 63.703680 
542.000000	 63.618397 
541.000000	 63.564038 
540.000000	 63.539695 
539.000000	 63.541913 
538.000000	 63.563656 
537.000000	 63.597702 
536.000000	 63.636541 
535.000000	 63.674879 
534.000000	 63.709259 
533.000000	 63.738679 
532.000000	 63.762855 
531.000000	 63.782477 
530.000000	 63.797903 
529.000000	 63.809323 
528.000000	 63.816452 
527.000000	 63.819146 
526.000000	 63.817763 
525.000000	 63.813304 
524.000000	 63.807702 
523.000000	 63.803315 
522.000000	 63.803005 
521.000000	 63.810229 
520.000000	 63.828110 
519.000000	 63.859272 
518.000000	 63.903927 
517.000000	 63.959264 
516.000000	 64.018440 
515.000000	 64.072728 
514.000000	 64.111900 
513.000000	 64.125537 
512.000000	 64.106655 
511.000000	 64.053416 
510.000000	 63.970708 
509.000000	 63.869476 
508.000000	 63.765430 
507.000000	 63.675260 
506.000000	 63.613843 
505.000000	 63.591241 
504.000000	 63.610196 
503.000000	 63.665866 
502.000000	 63.746809 
501.000000	 63.837647 
500.000000	 63.922357 
499.000000	 63.987517 
498.000000	 64.024639 
497.000000	 64.031529 
496.000000	 64.010787 
495.000000	 63.969373 
494.000000	 63.916420 
493.000000	 63.862013 
492.000000	 63.815355 
491.000000	 63.784122 
490.000000	 63.774943 
489.000000	 63.791608 
488.000000	 63.836741 
487.000000	 63.908410 
486.000000	 64.000606 
485.000000	 64.102149 
484.000000	 64.197492 
483.000000	 64.269852 
482.000000	 64.303708 
481.000000	 64.289760 
480.000000	 64.226818 
479.000000	 64.124226 
478.000000	 64.000248 
477.000000	 63.878583 
476.000000	 63.783478 
475.000000	 63.733053 
474.000000	 63.735413 
473.000000	 63.785386 
472.000000	 63.866066 
471.000000	 63.952541 
470.000000	 64.018249 
469.000000	 64.040541 
468.000000	 64.007091 
467.000000	 63.918256 
466.000000	 63.787984 
465.000000	 63.639378 
464.000000	 63.499617 
463.000000	 63.392686 
462.000000	 63.334274 
461.000000	 63.329052 
460.000000	 63.369846 
459.000000	 63.442540 
458.000000	 63.528156 
457.000000	 63.608217 
456.000000	 63.668131 
455.000000	 63.700056 
454.000000	 63.702964 
453.000000	 63.679862 
452.000000	 63.637900 
451.000000	 63.585638 
450.000000	 63.530278 
449.000000	 63.476419 
448.000000	 63.423442 
447.000000	 63.366961 
446.000000	 63.299703 
445.000000	 63.215422 
444.000000	 63.110470 
443.000000	 62.987065 
442.000000	 62.855100 
441.000000	 62.731409 
440.000000	 62.638473 
439.000000	 62.597846 
438.000000	 62.625479 
437.000000	 62.724375 
436.000000	 62.880969 
435.000000	 63.065671 
434.000000	 63.239669 
433.000000	 63.361883 
432.000000	 63.399577 
431.000000	 63.334751 
430.000000	 63.167238 
429.000000	 62.915325 
428.000000	 62.613558 
427.000000	 62.301278 
426.000000	 62.012958 
425.000000	 61.772370 
424.000000	 61.587190 
423.000000	 61.456108 
422.000000	 61.373639 
421.000000	 61.335730 
420.000000	 61.342835 
419.000000	 61.399912 
418.000000	 61.512708 
417.000000	 61.677718 
416.000000	 61.880588 
415.000000	 62.086057 
414.000000	 62.250280 
413.000000	 62.341809 
412.000000	 62.351775 
411.000000	 62.299132 
410.000000	 62.224173 
409.000000	 62.188673 
408.000000	 62.241625 
407.000000	 62.409353 
406.000000	 62.668204 
405.000000	 62.943816 
404.000000	 63.128137 
403.000000	 63.101649 
402.000000	 62.781357 
401.000000	 62.147331 
400.000000	 61.266255 
399.000000	 60.279226 
398.000000	 59.378600 
397.000000	 58.756589 
396.000000	 58.566141 
395.000000	 58.883547 
394.000000	 59.677529 
393.000000	 60.811018 
392.000000	 62.075805 
391.000000	 63.236594 
390.000000	 64.062309 
389.000000	 64.370822 
388.000000	 64.037537 
387.000000	 63.021373 
386.000000	 61.375832 
385.000000	 59.246349 
384.000000	 56.827831 
383.000000	 54.351377 
382.000000	 52.081608 
381.000000	 50.257802 
380.000000	 49.051284 
379.000000	 48.534417 
378.000000	 48.697924 
377.000000	 49.424910 
376.000000	 50.496101 
375.000000	 51.654458 
374.000000	 52.625393 
373.000000	 53.226161 
372.000000	 53.348064 
371.000000	 53.077387 
370.000000	 52.647614 

