PE IR       SPECTRUM    SPECTRUM    ASCII       PEDS        1.60        
  -1
BZ6BA6~1.ASC
17/04/07
19:15:46.00
17/04/07
19:15:46.00
tln
$BZ1503107-1_t0073$<tbV0>[-2.6,2.6,8.0,0.0,27,1,0]
370.000000
64









2002,4.07    
MIRTGS : RIGHTBACK : INTERNAL 2
MIR : ON : INTERNAL 2
OPTKBR

0.200000
8
8.000000
FILLER
RATIO
SPECTRUM
UNLOCKED 256

DOUBLE
64
COMBINED
1
0
0


1.000000
RATIO


1
0
TRUE
51149
0
LEFT NOT FITTED RIGHT NOT FITTED 0
NONE
NONE
15600
12.000000
4.427000
51148
TRUE
1 0 8 72 0 0 0 0 

15798.010000






#HDR
-1
-1
#GR
CM-1
%T
0.00002384185791015625
0.0
5000.000000
-1.000000
4631
8
89.796876
54.386615
#DATA
5000.000000	65.580654 
4999.000000	65.575575 
4998.000000	65.525102 
4997.000000	65.432810 
4996.000000	65.307164 
4995.000000	65.161609 
4994.000000	65.010309 
4993.000000	64.867258 
4992.000000	64.741897 
4991.000000	64.638543 
4990.000000	64.555358 
4989.000000	64.486598 
4988.000000	64.424347 
4987.000000	64.361214 
4986.000000	64.293026 
4985.000000	64.219999 
4984.000000	64.146757 
4983.000000	64.081048 
4982.000000	64.031124 
4981.000000	64.003348 
4980.000000	64.001321 
4979.000000	64.025068 
4978.000000	64.070677 
4977.000000	64.131927 
4976.000000	64.201426 
4975.000000	64.272546 
4974.000000	64.339947 
4973.000000	64.400458 
4972.000000	64.452815 
4971.000000	64.497613 
4970.000000	64.535212 
4969.000000	64.566636 
4968.000000	64.592599 
4967.000000	64.614105 
4966.000000	64.632320 
4965.000000	64.649105 
4964.000000	64.667105 
4963.000000	64.689445 
4962.000000	64.719605 
4961.000000	64.759278 
4960.000000	64.807653 
4959.000000	64.861035 
4958.000000	64.913511 
4957.000000	64.956593 
4956.000000	64.981341 
4955.000000	64.980578 
4954.000000	64.951300 
4953.000000	64.896011 
4952.000000	64.823007 
4951.000000	64.745664 
4950.000000	64.679121 
4949.000000	64.637017 
4948.000000	64.627599 
4947.000000	64.652514 
4946.000000	64.705348 
4945.000000	64.773821 
4944.000000	64.841699 
4943.000000	64.893126 
4942.000000	64.915060 
4941.000000	64.900183 
4940.000000	64.847707 
4939.000000	64.762473 
4938.000000	64.654350 
4937.000000	64.535546 
4936.000000	64.418959 
4935.000000	64.315748 
4934.000000	64.234733 
4933.000000	64.181780 
4932.000000	64.159107 
4931.000000	64.165830 
4930.000000	64.197444 
4929.000000	64.246964 
4928.000000	64.305496 
4927.000000	64.363837 
4926.000000	64.414405 
4925.000000	64.452981 
4924.000000	64.479112 
4923.000000	64.496111 
4922.000000	64.509749 
4921.000000	64.526605 
4920.000000	64.551758 
4919.000000	64.587688 
4918.000000	64.633798 
4917.000000	64.686369 
4916.000000	64.740729 
4915.000000	64.791393 
4914.000000	64.834141 
4913.000000	64.865660 
4912.000000	64.884734 
4911.000000	64.891290 
4910.000000	64.886045 
4909.000000	64.870047 
4908.000000	64.844441 
4907.000000	64.811110 
4906.000000	64.772844 
4905.000000	64.733839 
4904.000000	64.699935 
4903.000000	64.677071 
4902.000000	64.670205 
4901.000000	64.682030 
4900.000000	64.712119 
4899.000000	64.756679 
4898.000000	64.808940 
4897.000000	64.860320 
4896.000000	64.901804 
4895.000000	64.925813 
4894.000000	64.927506 
4893.000000	64.905095 
4892.000000	64.860796 
4891.000000	64.800524 
4890.000000	64.733028 
4889.000000	64.668130 
4888.000000	64.614963 
4887.000000	64.580655 
4886.000000	64.568448 
4885.000000	64.577841 
4884.000000	64.604020 
4883.000000	64.639520 
4882.000000	64.675331 
4881.000000	64.702868 
4880.000000	64.716339 
4879.000000	64.713525 
4878.000000	64.696359 
4877.000000	64.669632 
4876.000000	64.639711 
4875.000000	64.612531 
4874.000000	64.592361 
4873.000000	64.581060 
4872.000000	64.578056 
4871.000000	64.580941 
4870.000000	64.586949 
4869.000000	64.593291 
4868.000000	64.597725 
4867.000000	64.598560 
4866.000000	64.594197 
4865.000000	64.583992 
4864.000000	64.567542 
4863.000000	64.545893 
4862.000000	64.521169 
4861.000000	64.496994 
4860.000000	64.478826 
4859.000000	64.471840 
4858.000000	64.480519 
4857.000000	64.505887 
4856.000000	64.545011 
4855.000000	64.590907 
4854.000000	64.633679 
4853.000000	64.663338 
4852.000000	64.672040 
4851.000000	64.656877 
4850.000000	64.620685 
4849.000000	64.571833 
4848.000000	64.521884 
4847.000000	64.482855 
4846.000000	64.464116 
4845.000000	64.469933 
4844.000000	64.498853 
4843.000000	64.545083 
4842.000000	64.600110 
4841.000000	64.655923 
4840.000000	64.706110 
4839.000000	64.747762 
4838.000000	64.780187 
4837.000000	64.803504 
4836.000000	64.817380 
4835.000000	64.819478 
4834.000000	64.806699 
4833.000000	64.775800 
4832.000000	64.725542 
4831.000000	64.658927 
4830.000000	64.582610 
4829.000000	64.506721 
4828.000000	64.442157 
4827.000000	64.397907 
4826.000000	64.378857 
4825.000000	64.384579 
4824.000000	64.409899 
4823.000000	64.446163 
4822.000000	64.484930 
4821.000000	64.519977 
4820.000000	64.549183 
4819.000000	64.574265 
4818.000000	64.599108 
4817.000000	64.627695 
4816.000000	64.661574 
4815.000000	64.699077 
4814.000000	64.735484 
4813.000000	64.764618 
4812.000000	64.781737 
4811.000000	64.784836 
4810.000000	64.776730 
4809.000000	64.763450 
4808.000000	64.753174 
4807.000000	64.752936 
4806.000000	64.766526 
4805.000000	64.792943 
4804.000000	64.826464 
4803.000000	64.857840 
4802.000000	64.876842 
4801.000000	64.875292 
4800.000000	64.849925 
4799.000000	64.802694 
4798.000000	64.740204 
4797.000000	64.672350 
4796.000000	64.609670 
4795.000000	64.561176 
4794.000000	64.532375 
4793.000000	64.524865 
4792.000000	64.536738 
4791.000000	64.563775 
4790.000000	64.600467 
4789.000000	64.641094 
4788.000000	64.680409 
4787.000000	64.714169 
4786.000000	64.739346 
4785.000000	64.753150 
4784.000000	64.754056 
4783.000000	64.741277 
4782.000000	64.716124 
4781.000000	64.681386 
4780.000000	64.642119 
4779.000000	64.605021 
4778.000000	64.577364 
4777.000000	64.565801 
4776.000000	64.575004 
4775.000000	64.606523 
4774.000000	64.658665 
4773.000000	64.726495 
4772.000000	64.803290 
4771.000000	64.881467 
4770.000000	64.954137 
4769.000000	65.015864 
4768.000000	65.063142 
4767.000000	65.094399 
4766.000000	65.109372 
4765.000000	65.108609 
4764.000000	65.092682 
4763.000000	65.062141 
4762.000000	65.018105 
4761.000000	64.962601 
4760.000000	64.899182 
4759.000000	64.832711 
4758.000000	64.769291 
4757.000000	64.715242 
4756.000000	64.676022 
4755.000000	64.655232 
4754.000000	64.653778 
4753.000000	64.670181 
4752.000000	64.700341 
4751.000000	64.739274 
4750.000000	64.781832 
4749.000000	64.823818 
4748.000000	64.862060 
4747.000000	64.894628 
4746.000000	64.920353 
4745.000000	64.938282 
4744.000000	64.947366 
4743.000000	64.946198 
4742.000000	64.933276 
4741.000000	64.908170 
4740.000000	64.872074 
4739.000000	64.828014 
4738.000000	64.780688 
4737.000000	64.735460 
4736.000000	64.697432 
4735.000000	64.669919 
4734.000000	64.654541 
4733.000000	64.650774 
4732.000000	64.657163 
4731.000000	64.671540 
4730.000000	64.692664 
4729.000000	64.719820 
4728.000000	64.753699 
4727.000000	64.795470 
4726.000000	64.846277 
4725.000000	64.906454 
4724.000000	64.974689 
4723.000000	65.047860 
4722.000000	65.120339 
4721.000000	65.185523 
4720.000000	65.235614 
4719.000000	65.263652 
4718.000000	65.264201 
4717.000000	65.235280 
4716.000000	65.178632 
4715.000000	65.100073 
4714.000000	65.009212 
4713.000000	64.918041 
4712.000000	64.838957 
4711.000000	64.782333 
4710.000000	64.754366 
4709.000000	64.755845 
4708.000000	64.781928 
4707.000000	64.823532 
4706.000000	64.869546 
4705.000000	64.909625 
4704.000000	64.936566 
4703.000000	64.947509 
4702.000000	64.943718 
4701.000000	64.929318 
4700.000000	64.909386 
4699.000000	64.887881 
4698.000000	64.866280 
4697.000000	64.843225 
4696.000000	64.815592 
4695.000000	64.779591 
4694.000000	64.732885 
4693.000000	64.675688 
4692.000000	64.611554 
4691.000000	64.546418 
4690.000000	64.487051 
4689.000000	64.439225 
4688.000000	64.405822 
4687.000000	64.386367 
4686.000000	64.377093 
4685.000000	64.372372 
4684.000000	64.366579 
4683.000000	64.355564 
4682.000000	64.338159 
4681.000000	64.316225 
4680.000000	64.294409 
4679.000000	64.278244 
4678.000000	64.272809 
4677.000000	64.281034 
4676.000000	64.303278 
4675.000000	64.336562 
4674.000000	64.376187 
4673.000000	64.416646 
4672.000000	64.453673 
4671.000000	64.484953 
4670.000000	64.510869 
4669.000000	64.534163 
4668.000000	64.558601 
4667.000000	64.587283 
4666.000000	64.621973 
4665.000000	64.662289 
4664.000000	64.705991 
4663.000000	64.749455 
4662.000000	64.789128 
4661.000000	64.822530 
4660.000000	64.848184 
4659.000000	64.865565 
4658.000000	64.874935 
4657.000000	64.876699 
4656.000000	64.870953 
4655.000000	64.857482 
4654.000000	64.836263 
4653.000000	64.808249 
4652.000000	64.776372 
4651.000000	64.745497 
4650.000000	64.721965 
4649.000000	64.712190 
4648.000000	64.721417 
4647.000000	64.752411 
4646.000000	64.804029 
4645.000000	64.871621 
4644.000000	64.947795 
4643.000000	65.024065 
4642.000000	65.092515 
4641.000000	65.147542 
4640.000000	65.186715 
4639.000000	65.210819 
4638.000000	65.222644 
4637.000000	65.226626 
4636.000000	65.227508 
4635.000000	65.229177 
4634.000000	65.233731 
4633.000000	65.241575 
4632.000000	65.251660 
4631.000000	65.261650 
4630.000000	65.268564 
4629.000000	65.269279 
4628.000000	65.261101 
4627.000000	65.241765 
4626.000000	65.210032 
4625.000000	65.165638 
4624.000000	65.110206 
4623.000000	65.046930 
4622.000000	64.981102 
4621.000000	64.919281 
4620.000000	64.868879 
4619.000000	64.836645 
4618.000000	64.827227 
4617.000000	64.842510 
4616.000000	64.880180 
4615.000000	64.934182 
4614.000000	64.995026 
4613.000000	65.051507 
4612.000000	65.092682 
4611.000000	65.109920 
4610.000000	65.098619 
4609.000000	65.058636 
4608.000000	64.994573 
4607.000000	64.914584 
4606.000000	64.828372 
4605.000000	64.745211 
4604.000000	64.672660 
4603.000000	64.615464 
4602.000000	64.575529 
4601.000000	64.552259 
4600.000000	64.543795 
4599.000000	64.547610 
4598.000000	64.561605 
4597.000000	64.583992 
4596.000000	64.612579 
4595.000000	64.644980 
4594.000000	64.677309 
4593.000000	64.705681 
4592.000000	64.725089 
4591.000000	64.732360 
4590.000000	64.726090 
4589.000000	64.708733 
4588.000000	64.685702 
4587.000000	64.665889 
4586.000000	64.659500 
4585.000000	64.676284 
4584.000000	64.722609 
4583.000000	64.800500 
4582.000000	64.906692 
4581.000000	65.033054 
4580.000000	65.168094 
4579.000000	65.298914 
4578.000000	65.413475 
4577.000000	65.502762 
4576.000000	65.561699 
4575.000000	65.589022 
4574.000000	65.586471 
4573.000000	65.558338 
4572.000000	65.509915 
4571.000000	65.446782 
4570.000000	65.373682 
4569.000000	65.296006 
4568.000000	65.217995 
4567.000000	65.144109 
4566.000000	65.077376 
4565.000000	65.020251 
4564.000000	64.972782 
4563.000000	64.933276 
4562.000000	64.897727 
4561.000000	64.860296 
4560.000000	64.815330 
4559.000000	64.758491 
4558.000000	64.688920 
4557.000000	64.608907 
4556.000000	64.525580 
4555.000000	64.449071 
4554.000000	64.390683 
4553.000000	64.359903 
4552.000000	64.362144 
4551.000000	64.397144 
4550.000000	64.458084 
4549.000000	64.533042 
4548.000000	64.607787 
4547.000000	64.669251 
4546.000000	64.707946 
4545.000000	64.720320 
4544.000000	64.709258 
4543.000000	64.683127 
4542.000000	64.653182 
4541.000000	64.630818 
4540.000000	64.624381 
4539.000000	64.636993 
4538.000000	64.667606 
4537.000000	64.709854 
4536.000000	64.754247 
4535.000000	64.790225 
4534.000000	64.809346 
4533.000000	64.806532 
4532.000000	64.780831 
4531.000000	64.735555 
4530.000000	64.677238 
4529.000000	64.613580 
4528.000000	64.551496 
4527.000000	64.496374 
4526.000000	64.451384 
4525.000000	64.417982 
4524.000000	64.396643 
4523.000000	64.387488 
4522.000000	64.391016 
4521.000000	64.406943 
4520.000000	64.434599 
4519.000000	64.471721 
4518.000000	64.515471 
4517.000000	64.562463 
4516.000000	64.610099 
4515.000000	64.656567 
4514.000000	64.701509 
4513.000000	64.746308 
4512.000000	64.792799 
4511.000000	64.842295 
4510.000000	64.894604 
4509.000000	64.947676 
4508.000000	64.998197 
4507.000000	65.042233 
4506.000000	65.076684 
4505.000000	65.100598 
4504.000000	65.115118 
4503.000000	65.123844 
4502.000000	65.130662 
4501.000000	65.139031 
4500.000000	65.149855 
4499.000000	65.161299 
4498.000000	65.169668 
4497.000000	65.170693 
4496.000000	65.161705 
4495.000000	65.142822 
4494.000000	65.117454 
4493.000000	65.091419 
4492.000000	65.071225 
4491.000000	65.061616 
4490.000000	65.064167 
4489.000000	65.076136 
4488.000000	65.090942 
4487.000000	65.099978 
4486.000000	65.094804 
4485.000000	65.069794 
4484.000000	65.023708 
4483.000000	64.960646 
4482.000000	64.889454 
4481.000000	64.821219 
4480.000000	64.766335 
4479.000000	64.731550 
4478.000000	64.718127 
4477.000000	64.721536 
4476.000000	64.732551 
4475.000000	64.740061 
4474.000000	64.734387 
4473.000000	64.709615 
4472.000000	64.665031 
4471.000000	64.604091 
4470.000000	64.533114 
4469.000000	64.458894 
4468.000000	64.387154 
4467.000000	64.321780 
4466.000000	64.264726 
4465.000000	64.218354 
4464.000000	64.185476 
4463.000000	64.167022 
4462.000000	64.163255 
4461.000000	64.175438 
4460.000000	64.203763 
4459.000000	64.245891 
4458.000000	64.297223 
4457.000000	64.347171 
4456.000000	64.384984 
4455.000000	64.406061 
4454.000000	64.408779 
4453.000000	64.391160 
4452.000000	64.355492 
4451.000000	64.308118 
4450.000000	64.258384 
4449.000000	64.217281 
4448.000000	64.194464 
4447.000000	64.194607 
4446.000000	64.220356 
4445.000000	64.274477 
4444.000000	64.348769 
4443.000000	64.426350 
4442.000000	64.490556 
4441.000000	64.533090 
4440.000000	64.556241 
4439.000000	64.578723 
4438.000000	64.640688 
4437.000000	64.791798 
4436.000000	65.084433 
4435.000000	65.543437 
4434.000000	66.167783 
4433.000000	66.896605 
4432.000000	67.621207 
4431.000000	68.186378 
4430.000000	68.421936 
4429.000000	68.183493 
4428.000000	67.392468 
4427.000000	66.067028 
4426.000000	64.324092 
4425.000000	62.373948 
4424.000000	60.472416 
4423.000000	58.888912 
4422.000000	57.838201 
4421.000000	57.474994 
4420.000000	57.866835 
4419.000000	58.994030 
4418.000000	60.758018 
4417.000000	62.990093 
4416.000000	65.479040 
4415.000000	67.990899 
4414.000000	70.304727 
4413.000000	72.256636 
4412.000000	73.755335 
4411.000000	74.797797 
4410.000000	75.440478 
4409.000000	75.772571 
4408.000000	75.872254 
4407.000000	75.791978 
4406.000000	75.537490 
4405.000000	75.104093 
4404.000000	74.467754 
4403.000000	73.647689 
4402.000000	72.675228 
4401.000000	71.614599 
4400.000000	70.534920 
4399.000000	69.497871 
4398.000000	68.550920 
4397.000000	67.720246 
4396.000000	67.016148 
4395.000000	66.439557 
4394.000000	65.983891 
4393.000000	65.637564 
4392.000000	65.389704 
4391.000000	65.228700 
4390.000000	65.143442 
4389.000000	65.120077 
4388.000000	65.142250 
4387.000000	65.189790 
4386.000000	65.245580 
4385.000000	65.296387 
4384.000000	65.325474 
4383.000000	65.317440 
4382.000000	65.267443 
4381.000000	65.179228 
4380.000000	65.056276 
4379.000000	64.906668 
4378.000000	64.744234 
4377.000000	64.586186 
4376.000000	64.452409 
4375.000000	64.360356 
4374.000000	64.320254 
4373.000000	64.334630 
4372.000000	64.398097 
4371.000000	64.498305 
4370.000000	64.615130 
4369.000000	64.730668 
4368.000000	64.834427 
4367.000000	64.921998 
4366.000000	64.992785 
4365.000000	65.052223 
4364.000000	65.108704 
4363.000000	65.167975 
4362.000000	65.230131 
4361.000000	65.290760 
4360.000000	65.341591 
4359.000000	65.373516 
4358.000000	65.378999 
4357.000000	65.355038 
4356.000000	65.303468 
4355.000000	65.231251 
4354.000000	65.147995 
4353.000000	65.062880 
4352.000000	64.983105 
4351.000000	64.912700 
4350.000000	64.853262 
4349.000000	64.804482 
4348.000000	64.766669 
4347.000000	64.742350 
4346.000000	64.735794 
4345.000000	64.751601 
4344.000000	64.792895 
4343.000000	64.858937 
4342.000000	64.944362 
4341.000000	65.038895 
4340.000000	65.129113 
4339.000000	65.200972 
4338.000000	65.242433 
4337.000000	65.246105 
4336.000000	65.208315 
4335.000000	65.128993 
4334.000000	65.009999 
4333.000000	64.854407 
4332.000000	64.664793 
4331.000000	64.444470 
4330.000000	64.199876 
4329.000000	63.941502 
4328.000000	63.685488 
4327.000000	63.450479 
4326.000000	63.257122 
4325.000000	63.120484 
4324.000000	63.045001 
4323.000000	63.022208 
4322.000000	63.030338 
4321.000000	63.041090 
4320.000000	63.023972 
4319.000000	62.958121 
4318.000000	62.835717 
4317.000000	62.668108 
4316.000000	62.480783 
4315.000000	62.309861 
4314.000000	62.189841 
4313.000000	62.148666 
4312.000000	62.199187 
4311.000000	62.338089 
4310.000000	62.546706 
4309.000000	62.797212 
4308.000000	63.059568 
4307.000000	63.308095 
4306.000000	63.526678 
4305.000000	63.709282 
4304.000000	63.859486 
4303.000000	63.986468 
4302.000000	64.101696 
4301.000000	64.214515 
4300.000000	64.330053 
4299.000000	64.451193 
4298.000000	64.576435 
4297.000000	64.702916 
4296.000000	64.824938 
4295.000000	64.938926 
4294.000000	65.040230 
4293.000000	65.124654 
4292.000000	65.186953 
4291.000000	65.223288 
4290.000000	65.229463 
4289.000000	65.202808 
4288.000000	65.142154 
4287.000000	65.050053 
4286.000000	64.932489 
4285.000000	64.799118 
4284.000000	64.662623 
4283.000000	64.537119 
4282.000000	64.436364 
4281.000000	64.371466 
4280.000000	64.349269 
4279.000000	64.371037 
4278.000000	64.432859 
4277.000000	64.526152 
4276.000000	64.637565 
4275.000000	64.751553 
4274.000000	64.853334 
4273.000000	64.931130 
4272.000000	64.976334 
4271.000000	64.985632 
4270.000000	64.961338 
4269.000000	64.910650 
4268.000000	64.843654 
4267.000000	64.771533 
4266.000000	64.705371 
4265.000000	64.653325 
4264.000000	64.620304 
4263.000000	64.607071 
4262.000000	64.611744 
4261.000000	64.629817 
4260.000000	64.655876 
4259.000000	64.684367 
4258.000000	64.710903 
4257.000000	64.732480 
4256.000000	64.747595 
4255.000000	64.756250 
4254.000000	64.759278 
4253.000000	64.758658 
4252.000000	64.757061 
4251.000000	64.757275 
4250.000000	64.761662 
4249.000000	64.772391 
4248.000000	64.790534 
4247.000000	64.815449 
4246.000000	64.844775 
4245.000000	64.874267 
4244.000000	64.898967 
4243.000000	64.914417 
4242.000000	64.917588 
4241.000000	64.907503 
4240.000000	64.885473 
4239.000000	64.854764 
4238.000000	64.819598 
4237.000000	64.784669 
4236.000000	64.753484 
4235.000000	64.727807 
4234.000000	64.707779 
4233.000000	64.692497 
4232.000000	64.680361 
4231.000000	64.670228 
4230.000000	64.661669 
4229.000000	64.655184 
4228.000000	64.652276 
4227.000000	64.654874 
4226.000000	64.664626 
4225.000000	64.682507 
4224.000000	64.708280 
4223.000000	64.740395 
4222.000000	64.776372 
4221.000000	64.813041 
4220.000000	64.846754 
4219.000000	64.874029 
4218.000000	64.891791 
4217.000000	64.898514 
4216.000000	64.894199 
4215.000000	64.881134 
4214.000000	64.863371 
4213.000000	64.846158 
4212.000000	64.835309 
4211.000000	64.835262 
4210.000000	64.848828 
4209.000000	64.875268 
4208.000000	64.910507 
4207.000000	64.947533 
4206.000000	64.977979 
4205.000000	64.993977 
4204.000000	64.989900 
4203.000000	64.964580 
4202.000000	64.921426 
4201.000000	64.868593 
4200.000000	64.817380 
4199.000000	64.779853 
4198.000000	64.765930 
4197.000000	64.781570 
4196.000000	64.826941 
4195.000000	64.896392 
4194.000000	64.979505 
4193.000000	65.063428 
4192.000000	65.135574 
4191.000000	65.185642 
4190.000000	65.207982 
4189.000000	65.202355 
4188.000000	65.174126 
4187.000000	65.131711 
4186.000000	65.085530 
4185.000000	65.045881 
4184.000000	65.020561 
4183.000000	65.014576 
4182.000000	65.028452 
4181.000000	65.059232 
4180.000000	65.100789 
4179.000000	65.145850 
4178.000000	65.186643 
4177.000000	65.216326 
4176.000000	65.230011 
4175.000000	65.225076 
4174.000000	65.201878 
4173.000000	65.163111 
4172.000000	65.113425 
4171.000000	65.057897 
4170.000000	65.001535 
4169.000000	64.947915 
4168.000000	64.898896 
4167.000000	64.854383 
4166.000000	64.812588 
4165.000000	64.770913 
4164.000000	64.726758 
4163.000000	64.678859 
4162.000000	64.627289 
4161.000000	64.574456 
4160.000000	64.523625 
4159.000000	64.479684 
4158.000000	64.447236 
4157.000000	64.430880 
4156.000000	64.433193 
4155.000000	64.455103 
4154.000000	64.494943 
4153.000000	64.548897 
4152.000000	64.611625 
4151.000000	64.676260 
4150.000000	64.735507 
4149.000000	64.782238 
4148.000000	64.810729 
4147.000000	64.817190 
4146.000000	64.800381 
4145.000000	64.761900 
4144.000000	64.705801 
4143.000000	64.638638 
4142.000000	64.568448 
4141.000000	64.503550 
4140.000000	64.451551 
4139.000000	64.418125 
4138.000000	64.406609 
4137.000000	64.417505 
4136.000000	64.448833 
4135.000000	64.496207 
4134.000000	64.553904 
4133.000000	64.615583 
4132.000000	64.675617 
4131.000000	64.728808 
4130.000000	64.771962 
4129.000000	64.803314 
4128.000000	64.823412 
4127.000000	64.834117 
4126.000000	64.838933 
4125.000000	64.842247 
4124.000000	64.848208 
4123.000000	64.860105 
4122.000000	64.879083 
4121.000000	64.904189 
4120.000000	64.931440 
4119.000000	64.954900 
4118.000000	64.967155 
4117.000000	64.961242 
4116.000000	64.931654 
4115.000000	64.876174 
4114.000000	64.796638 
4113.000000	64.699482 
4112.000000	64.594674 
4111.000000	64.494395 
4110.000000	64.411091 
4109.000000	64.354896 
4108.000000	64.331436 
4107.000000	64.341235 
4106.000000	64.379167 
4105.000000	64.436745 
4104.000000	64.503598 
4103.000000	64.570069 
4102.000000	64.628672 
4101.000000	64.675664 
4100.000000	64.710474 
4099.000000	64.735364 
4098.000000	64.753365 
4097.000000	64.767742 
4096.000000	64.780712 
4095.000000	64.793348 
4094.000000	64.805817 
4093.000000	64.817714 
4092.000000	64.828729 
4091.000000	64.839148 
4090.000000	64.849972 
4089.000000	64.862275 
4088.000000	64.877080 
4087.000000	64.894652 
4086.000000	64.914393 
4085.000000	64.934849 
4084.000000	64.953756 
4083.000000	64.969229 
4082.000000	64.979553 
4081.000000	64.983725 
4080.000000	64.981460 
4079.000000	64.973616 
4078.000000	64.961838 
4077.000000	64.948344 
4076.000000	64.935398 
4075.000000	64.925575 
4074.000000	64.920592 
4073.000000	64.921569 
4072.000000	64.928197 
4071.000000	64.938879 
4070.000000	64.951157 
4069.000000	64.962387 
4068.000000	64.970231 
4067.000000	64.972925 
4066.000000	64.970159 
4065.000000	64.962911 
4064.000000	64.953351 
4063.000000	64.944267 
4062.000000	64.938569 
4061.000000	64.938521 
4060.000000	64.945268 
4059.000000	64.958715 
4058.000000	64.977359 
4057.000000	64.998793 
4056.000000	65.020036 
4055.000000	65.038228 
4054.000000	65.051007 
4053.000000	65.056896 
4052.000000	65.055370 
4051.000000	65.046858 
4050.000000	65.032839 
4049.000000	65.015268 
4048.000000	64.996457 
4047.000000	64.978122 
4046.000000	64.961409 
4045.000000	64.946556 
4044.000000	64.933156 
4043.000000	64.920401 
4042.000000	64.907765 
4041.000000	64.895224 
4040.000000	64.883708 
4039.000000	64.875102 
4038.000000	64.871907 
4037.000000	64.876580 
4036.000000	64.890837 
4035.000000	64.915347 
4034.000000	64.949178 
4033.000000	64.989876 
4032.000000	65.033388 
4031.000000	65.074777 
4030.000000	65.108895 
4029.000000	65.130996 
4028.000000	65.137648 
4027.000000	65.127539 
4026.000000	65.101790 
4025.000000	65.063381 
4024.000000	65.017271 
4023.000000	64.969635 
4022.000000	64.926767 
4021.000000	64.894413 
4020.000000	64.876461 
4019.000000	64.874792 
4018.000000	64.888787 
4017.000000	64.915966 
4016.000000	64.951896 
4015.000000	64.991021 
4014.000000	65.027880 
4013.000000	65.057849 
4012.000000	65.078091 
4011.000000	65.087556 
4010.000000	65.087366 
4009.000000	65.080046 
4008.000000	65.068960 
4007.000000	65.056967 
4006.000000	65.046215 
4005.000000	65.036940 
4004.000000	65.027499 
4003.000000	65.014410 
4002.000000	64.993786 
4001.000000	64.962029 
4000.000000	64.917135 
3999.000000	64.859580 
3998.000000	64.792346 
3997.000000	64.720892 
3996.000000	64.652299 
3995.000000	64.594292 
3994.000000	64.553356 
3993.000000	64.534425 
3992.000000	64.539957 
3991.000000	64.569640 
3990.000000	64.620447 
3989.000000	64.687252 
3988.000000	64.763331 
3987.000000	64.841318 
3986.000000	64.913773 
3985.000000	64.974832 
3984.000000	65.020775 
3983.000000	65.050673 
3982.000000	65.066242 
3981.000000	65.071821 
3980.000000	65.073251 
3979.000000	65.077137 
3978.000000	65.088987 
3977.000000	65.112471 
3976.000000	65.147781 
3975.000000	65.192699 
3974.000000	65.241980 
3973.000000	65.289068 
3972.000000	65.326738 
3971.000000	65.349411 
3970.000000	65.353655 
3969.000000	65.339136 
3968.000000	65.308260 
3967.000000	65.265989 
3966.000000	65.217947 
3965.000000	65.169596 
3964.000000	65.124702 
3963.000000	65.085363 
3962.000000	65.051174 
3961.000000	65.020132 
3960.000000	64.989376 
3959.000000	64.956450 
3958.000000	64.920592 
3957.000000	64.883375 
3956.000000	64.848256 
3955.000000	64.819812 
3954.000000	64.803004 
3953.000000	64.801883 
3952.000000	64.817953 
3951.000000	64.849829 
3950.000000	64.893364 
3949.000000	64.942431 
3948.000000	64.990043 
3947.000000	65.029335 
3946.000000	65.054678 
3945.000000	65.062713 
3944.000000	65.052628 
3943.000000	65.026521 
3942.000000	64.988374 
3941.000000	64.943909 
3940.000000	64.899539 
3939.000000	64.861273 
3938.000000	64.834046 
3937.000000	64.820361 
3936.000000	64.820790 
3935.000000	64.832997 
3934.000000	64.852595 
3933.000000	64.873862 
3932.000000	64.891147 
3931.000000	64.899659 
3930.000000	64.896464 
3929.000000	64.881157 
3928.000000	64.856028 
3927.000000	64.824962 
3926.000000	64.792847 
3925.000000	64.764237 
3924.000000	64.742755 
3923.000000	64.730620 
3922.000000	64.728665 
3921.000000	64.736652 
3920.000000	64.753842 
3919.000000	64.779329 
3918.000000	64.812517 
3917.000000	64.852595 
3916.000000	64.898729 
3915.000000	64.949631 
3914.000000	65.003204 
3913.000000	65.056419 
3912.000000	65.105390 
3911.000000	65.146040 
3910.000000	65.174984 
3909.000000	65.190243 
3908.000000	65.191841 
3907.000000	65.181899 
3906.000000	65.164494 
3905.000000	65.145015 
3904.000000	65.128755 
3903.000000	65.119886 
3902.000000	65.120387 
3901.000000	65.129876 
3900.000000	65.145468 
3899.000000	65.162777 
3898.000000	65.176987 
3897.000000	65.184187 
3896.000000	65.182471 
3895.000000	65.172743 
3894.000000	65.158033 
3893.000000	65.142798 
3892.000000	65.131545 
3891.000000	65.127682 
3890.000000	65.132188 
3889.000000	65.143823 
3888.000000	65.159606 
3887.000000	65.175557 
3886.000000	65.188002 
3885.000000	65.194320 
3884.000000	65.194177 
3883.000000	65.188884 
3882.000000	65.180730 
3881.000000	65.172553 
3880.000000	65.166831 
3879.000000	65.165138 
3878.000000	65.167474 
3877.000000	65.172934 
3876.000000	65.179967 
3875.000000	65.186882 
3874.000000	65.192151 
3873.000000	65.194368 
3872.000000	65.192365 
3871.000000	65.185141 
3870.000000	65.171957 
3869.000000	65.152359 
3868.000000	65.126633 
3867.000000	65.095996 
3866.000000	65.062665 
3865.000000	65.029740 
3864.000000	65.000367 
3863.000000	64.977502 
3862.000000	64.962697 
3861.000000	64.955973 
3860.000000	64.955568 
3859.000000	64.958381 
3858.000000	64.960503 
3857.000000	64.958357 
3856.000000	64.949345 
3855.000000	64.932680 
3854.000000	64.909291 
3853.000000	64.881348 
3852.000000	64.851808 
3851.000000	64.823484 
3850.000000	64.798474 
3849.000000	64.777708 
3848.000000	64.761304 
3847.000000	64.748811 
3846.000000	64.739751 
3845.000000	64.734053 
3844.000000	64.732217 
3843.000000	64.735484 
3842.000000	64.745306 
3841.000000	64.762926 
3840.000000	64.788484 
3839.000000	64.820981 
3838.000000	64.857816 
3837.000000	64.895272 
3836.000000	64.929389 
3835.000000	64.956569 
3834.000000	64.974093 
3833.000000	64.981198 
3832.000000	64.979147 
3831.000000	64.970874 
3830.000000	64.960122 
3829.000000	64.950513 
3828.000000	64.945244 
3827.000000	64.946055 
3826.000000	64.952921 
3825.000000	64.964461 
3824.000000	64.978408 
3823.000000	64.992570 
3822.000000	65.005350 
3821.000000	65.016126 
3820.000000	65.025091 
3819.000000	65.032792 
3818.000000	65.039753 
3817.000000	65.045928 
3816.000000	65.050482 
3815.000000	65.052223 
3814.000000	65.049958 
3813.000000	65.043210 
3812.000000	65.032720 
3811.000000	65.020656 
3810.000000	65.010643 
3809.000000	65.006542 
3808.000000	65.012216 
3807.000000	65.030217 
3806.000000	65.061545 
3805.000000	65.105009 
3804.000000	65.157508 
3803.000000	65.215086 
3802.000000	65.272974 
3801.000000	65.326666 
3800.000000	65.371847 
3799.000000	65.404963 
3798.000000	65.423011 
3797.000000	65.424084 
3796.000000	65.407109 
3795.000000	65.372490 
3794.000000	65.322208 
3793.000000	65.260076 
3792.000000	65.191459 
3791.000000	65.122723 
3790.000000	65.060353 
3789.000000	65.009856 
3788.000000	64.974856 
3787.000000	64.956665 
3786.000000	64.953899 
3785.000000	64.963221 
3784.000000	64.980077 
3783.000000	64.999818 
3782.000000	65.018439 
3781.000000	65.033173 
3780.000000	65.042471 
3779.000000	65.046072 
3778.000000	65.044188 
3777.000000	65.037679 
3776.000000	65.027475 
3775.000000	65.014863 
3774.000000	65.001130 
3773.000000	64.987945 
3772.000000	64.977097 
3771.000000	64.970207 
3770.000000	64.968204 
3769.000000	64.971280 
3768.000000	64.978885 
3767.000000	64.989495 
3766.000000	65.000867 
3765.000000	65.010881 
3764.000000	65.017843 
3763.000000	65.021324 
3762.000000	65.022063 
3761.000000	65.021729 
3760.000000	65.022349 
3759.000000	65.025854 
3758.000000	65.033555 
3757.000000	65.046024 
3756.000000	65.062713 
3755.000000	65.082478 
3754.000000	65.103816 
3753.000000	65.125465 
3752.000000	65.146470 
3751.000000	65.166592 
3750.000000	65.185952 
3749.000000	65.205001 
3748.000000	65.223693 
3747.000000	65.241956 
3746.000000	65.258240 
3745.000000	65.269827 
3744.000000	65.273237 
3743.000000	65.265345 
3742.000000	65.244221 
3741.000000	65.210056 
3740.000000	65.165710 
3739.000000	65.116500 
3738.000000	65.069437 
3737.000000	65.031599 
3736.000000	65.008687 
3735.000000	65.003085 
3734.000000	65.013074 
3733.000000	65.032744 
3732.000000	65.053200 
3731.000000	65.064597 
3730.000000	65.058302 
3729.000000	65.029621 
3728.000000	64.978361 
3727.000000	64.910006 
3726.000000	64.833998 
3725.000000	64.763021 
3724.000000	64.709043 
3723.000000	64.682626 
3722.000000	64.690375 
3721.000000	64.733934 
3720.000000	64.809989 
3719.000000	64.910125 
3718.000000	65.022969 
3717.000000	65.135145 
3716.000000	65.233564 
3715.000000	65.307497 
3714.000000	65.350365 
3713.000000	65.360379 
3712.000000	65.340590 
3711.000000	65.298652 
3710.000000	65.244889 
3709.000000	65.190935 
3708.000000	65.146899 
3707.000000	65.120267 
3706.000000	65.114068 
3705.000000	65.127658 
3704.000000	65.156459 
3703.000000	65.193629 
3702.000000	65.231394 
3701.000000	65.263152 
3700.000000	65.284228 
3699.000000	65.292263 
3698.000000	65.287470 
3697.000000	65.271973 
3696.000000	65.249156 
3695.000000	65.222883 
3694.000000	65.196371 
3693.000000	65.172386 
3692.000000	65.151619 
3691.000000	65.133452 
3690.000000	65.115404 
3689.000000	65.094065 
3688.000000	65.065908 
3687.000000	65.028548 
3686.000000	64.980864 
3685.000000	64.923620 
3684.000000	64.859652 
3683.000000	64.793992 
3682.000000	64.732050 
3681.000000	64.679455 
3680.000000	64.640736 
3679.000000	64.619326 
3678.000000	64.616537 
3677.000000	64.632487 
3676.000000	64.665913 
3675.000000	64.715075 
3674.000000	64.777636 
3673.000000	64.850974 
3672.000000	64.931774 
3671.000000	65.016031 
3670.000000	65.098762 
3669.000000	65.174221 
3668.000000	65.236449 
3667.000000	65.279841 
3666.000000	65.300488 
3665.000000	65.296173 
3664.000000	65.267133 
3663.000000	65.215945 
3662.000000	65.147638 
3661.000000	65.068650 
3660.000000	64.986062 
3659.000000	64.907002 
3658.000000	64.837956 
3657.000000	64.784264 
3656.000000	64.749431 
3655.000000	64.735054 
3654.000000	64.740633 
3653.000000	64.763164 
3652.000000	64.797997 
3651.000000	64.838767 
3650.000000	64.879083 
3649.000000	64.912915 
3648.000000	64.936423 
3647.000000	64.947986 
3646.000000	64.948940 
3645.000000	64.942741 
3644.000000	64.934325 
3643.000000	64.928555 
3642.000000	64.929318 
3641.000000	64.938807 
3640.000000	64.956808 
3639.000000	64.981150 
3638.000000	65.008354 
3637.000000	65.034794 
3636.000000	65.057325 
3635.000000	65.073943 
3634.000000	65.084028 
3633.000000	65.088129 
3632.000000	65.087413 
3631.000000	65.083169 
3630.000000	65.076303 
3629.000000	65.067148 
3628.000000	65.055775 
3627.000000	65.042114 
3626.000000	65.026092 
3625.000000	65.008091 
3624.000000	64.989018 
3623.000000	64.970564 
3622.000000	64.954853 
3621.000000	64.944171 
3620.000000	64.940381 
3619.000000	64.944791 
3618.000000	64.957976 
3617.000000	64.979481 
3616.000000	65.007734 
3615.000000	65.040230 
3614.000000	65.073871 
3613.000000	65.105438 
3612.000000	65.131926 
3611.000000	65.151143 
3610.000000	65.161752 
3609.000000	65.163588 
3608.000000	65.157318 
3607.000000	65.144324 
3606.000000	65.125989 
3605.000000	65.103507 
3604.000000	65.077853 
3603.000000	65.049791 
3602.000000	65.020132 
3601.000000	64.990091 
3600.000000	64.961290 
3599.000000	64.935708 
3598.000000	64.915323 
3597.000000	64.901852 
3596.000000	64.895987 
3595.000000	64.897179 
3594.000000	64.903831 
3593.000000	64.913344 
3592.000000	64.923048 
3591.000000	64.930534 
3590.000000	64.934659 
3589.000000	64.935541 
3588.000000	64.934659 
3587.000000	64.934301 
3586.000000	64.936971 
3585.000000	64.944219 
3584.000000	64.956665 
3583.000000	64.973640 
3582.000000	64.993453 
3581.000000	65.013813 
3580.000000	65.032553 
3579.000000	65.048193 
3578.000000	65.060257 
3577.000000	65.069150 
3576.000000	65.075564 
3575.000000	65.079998 
3574.000000	65.082740 
3573.000000	65.083503 
3572.000000	65.081286 
3571.000000	65.075111 
3570.000000	65.064883 
3569.000000	65.051293 
3568.000000	65.036249 
3567.000000	65.022110 
3566.000000	65.011906 
3565.000000	65.007615 
3564.000000	65.009784 
3563.000000	65.016937 
3562.000000	65.025758 
3561.000000	65.031766 
3560.000000	65.030431 
3559.000000	65.018463 
3558.000000	64.994645 
3557.000000	64.960479 
3556.000000	64.919924 
3555.000000	64.878749 
3554.000000	64.843177 
3553.000000	64.818930 
3552.000000	64.809870 
3551.000000	64.817547 
3550.000000	64.840888 
3549.000000	64.876866 
3548.000000	64.921283 
3547.000000	64.969515 
3546.000000	65.017557 
3545.000000	65.062785 
3544.000000	65.104103 
3543.000000	65.141487 
3542.000000	65.175437 
3541.000000	65.206098 
3540.000000	65.232896 
3539.000000	65.254497 
3538.000000	65.268826 
3537.000000	65.274190 
3536.000000	65.269446 
3535.000000	65.255188 
3534.000000	65.233397 
3533.000000	65.207576 
3532.000000	65.181446 
3531.000000	65.158677 
3530.000000	65.141558 
3529.000000	65.130805 
3528.000000	65.125441 
3527.000000	65.123128 
3526.000000	65.120935 
3525.000000	65.116190 
3524.000000	65.107131 
3523.000000	65.093302 
3522.000000	65.075159 
3521.000000	65.054011 
3520.000000	65.031409 
3519.000000	65.008711 
3518.000000	64.986991 
3517.000000	64.966821 
3516.000000	64.948725 
3515.000000	64.933180 
3514.000000	64.920973 
3513.000000	64.912962 
3512.000000	64.909911 
3511.000000	64.912056 
3510.000000	64.919090 
3509.000000	64.929771 
3508.000000	64.942145 
3507.000000	64.953470 
3506.000000	64.960741 
3505.000000	64.961147 
3504.000000	64.952802 
3503.000000	64.934921 
3502.000000	64.908027 
3501.000000	64.874005 
3500.000000	64.835810 
3499.000000	64.796876 
3498.000000	64.760661 
3497.000000	64.730477 
3496.000000	64.708948 
3495.000000	64.697861 
3494.000000	64.698147 
3493.000000	64.709591 
3492.000000	64.731049 
3491.000000	64.760184 
3490.000000	64.794063 
3489.000000	64.829015 
3488.000000	64.861583 
3487.000000	64.888548 
3486.000000	64.908170 
3485.000000	64.919924 
3484.000000	64.925169 
3483.000000	64.926648 
3482.000000	64.927816 
3481.000000	64.932203 
3480.000000	64.942121 
3479.000000	64.958214 
3478.000000	64.979267 
3477.000000	65.002584 
3476.000000	65.024852 
3475.000000	65.043258 
3474.000000	65.056276 
3473.000000	65.064191 
3472.000000	65.069007 
3471.000000	65.073752 
3470.000000	65.081310 
3469.000000	65.093398 
3468.000000	65.109825 
3467.000000	65.128397 
3466.000000	65.145635 
3465.000000	65.157580 
3464.000000	65.161132 
3463.000000	65.154767 
3462.000000	65.139317 
3461.000000	65.117287 
3460.000000	65.092182 
3459.000000	65.067338 
3458.000000	65.045022 
3457.000000	65.026259 
3456.000000	65.010929 
3455.000000	64.998221 
3454.000000	64.987492 
3453.000000	64.978504 
3452.000000	64.971923 
3451.000000	64.968681 
3450.000000	64.969515 
3449.000000	64.974141 
3448.000000	64.980983 
3447.000000	64.987087 
3446.000000	64.988517 
3445.000000	64.981532 
3444.000000	64.963364 
3443.000000	64.933204 
3442.000000	64.892435 
3441.000000	64.844465 
3440.000000	64.793968 
3439.000000	64.745903 
3438.000000	64.704871 
3437.000000	64.674162 
3436.000000	64.655661 
3435.000000	64.649677 
3434.000000	64.655518 
3433.000000	64.671421 
3432.000000	64.695215 
3431.000000	64.724063 
3430.000000	64.755368 
3429.000000	64.786267 
3428.000000	64.814448 
3427.000000	64.837789 
3426.000000	64.854645 
3425.000000	64.864063 
3424.000000	64.865660 
3423.000000	64.859962 
3422.000000	64.848136 
3421.000000	64.832043 
3420.000000	64.813947 
3419.000000	64.796400 
3418.000000	64.782094 
3417.000000	64.773511 
3416.000000	64.772725 
3415.000000	64.781045 
3414.000000	64.798808 
3413.000000	64.825057 
3412.000000	64.857721 
3411.000000	64.893746 
3410.000000	64.929318 
3409.000000	64.960336 
3408.000000	64.983439 
3407.000000	64.996218 
3406.000000	64.997315 
3405.000000	64.986777 
3404.000000	64.966177 
3403.000000	64.938068 
3402.000000	64.905810 
3401.000000	64.872932 
3400.000000	64.842987 
3399.000000	64.818572 
3398.000000	64.801406 
3397.000000	64.791822 
3396.000000	64.788937 
3395.000000	64.790892 
3394.000000	64.795136 
3393.000000	64.799046 
3392.000000	64.800453 
3391.000000	64.798212 
3390.000000	64.792227 
3389.000000	64.783835 
3388.000000	64.775323 
3387.000000	64.769864 
3386.000000	64.770913 
3385.000000	64.781260 
3384.000000	64.802646 
3383.000000	64.835453 
3382.000000	64.878320 
3381.000000	64.928269 
3380.000000	64.981198 
3379.000000	65.032577 
3378.000000	65.078353 
3377.000000	65.115332 
3376.000000	65.141963 
3375.000000	65.158247 
3374.000000	65.165829 
3373.000000	65.167546 
3372.000000	65.166425 
3371.000000	65.165138 
3370.000000	65.165376 
3369.000000	65.168094 
3368.000000	65.173149 
3367.000000	65.179729 
3366.000000	65.186786 
3365.000000	65.193653 
3364.000000	65.199780 
3363.000000	65.204787 
3362.000000	65.208339 
3361.000000	65.209817 
3360.000000	65.207982 
3359.000000	65.201163 
3358.000000	65.187644 
3357.000000	65.166020 
3356.000000	65.135955 
3355.000000	65.098500 
3354.000000	65.056157 
3353.000000	65.012598 
3352.000000	64.972209 
3351.000000	64.939284 
3350.000000	64.916753 
3349.000000	64.906215 
3348.000000	64.907813 
3347.000000	64.920186 
3346.000000	64.940619 
3345.000000	64.965915 
3344.000000	64.993000 
3343.000000	65.019226 
3342.000000	65.042376 
3341.000000	65.061140 
3340.000000	65.074706 
3339.000000	65.083026 
3338.000000	65.086722 
3337.000000	65.086913 
3336.000000	65.085196 
3335.000000	65.083503 
3334.000000	65.083527 
3333.000000	65.086436 
3332.000000	65.092229 
3331.000000	65.099906 
3330.000000	65.107274 
3329.000000	65.111851 
3328.000000	65.111041 
3327.000000	65.103268 
3326.000000	65.087890 
3325.000000	65.065598 
3324.000000	65.037679 
3323.000000	65.006160 
3322.000000	64.972901 
3321.000000	64.939403 
3320.000000	64.906716 
3319.000000	64.875388 
3318.000000	64.846277 
3317.000000	64.820456 
3316.000000	64.799547 
3315.000000	64.785408 
3314.000000	64.780068 
3313.000000	64.784979 
3312.000000	64.800548 
3311.000000	64.825534 
3310.000000	64.857435 
3309.000000	64.892554 
3308.000000	64.926958 
3307.000000	64.957046 
3306.000000	64.979958 
3305.000000	64.994287 
3304.000000	64.999914 
3303.000000	64.997839 
3302.000000	64.989972 
3301.000000	64.978313 
3300.000000	64.964866 
3299.000000	64.951109 
3298.000000	64.938163 
3297.000000	64.926457 
3296.000000	64.916372 
3295.000000	64.907813 
3294.000000	64.900755 
3293.000000	64.895009 
3292.000000	64.890193 
3291.000000	64.885902 
3290.000000	64.881205 
3289.000000	64.875364 
3288.000000	64.867544 
3287.000000	64.857697 
3286.000000	64.846658 
3285.000000	64.836215 
3284.000000	64.828801 
3283.000000	64.827108 
3282.000000	64.833498 
3281.000000	64.848971 
3280.000000	64.872789 
3279.000000	64.902496 
3278.000000	64.934015 
3277.000000	64.963221 
3276.000000	64.986443 
3275.000000	64.999938 
3274.000000	65.001058 
3273.000000	64.989280 
3272.000000	64.966177 
3271.000000	64.934992 
3270.000000	64.899778 
3269.000000	64.865016 
3268.000000	64.833998 
3267.000000	64.808797 
3266.000000	64.789533 
3265.000000	64.774823 
3264.000000	64.762187 
3263.000000	64.749050 
3262.000000	64.733266 
3261.000000	64.714050 
3260.000000	64.691233 
3259.000000	64.665126 
3258.000000	64.635491 
3257.000000	64.601254 
3256.000000	64.561033 
3255.000000	64.514350 
3254.000000	64.463376 
3253.000000	64.414453 
3252.000000	64.380931 
3251.000000	64.381217 
3250.000000	64.435935 
3249.000000	64.561486 
3248.000000	64.764833 
3247.000000	65.037941 
3246.000000	65.356421 
3245.000000	65.682601 
3244.000000	65.972828 
3243.000000	66.186666 
3242.000000	66.296410 
3241.000000	66.293358 
3240.000000	66.190123 
3239.000000	66.016793 
3238.000000	65.815114 
3237.000000	65.626740 
3236.000000	65.485191 
3235.000000	65.407657 
3234.000000	65.395069 
3233.000000	65.431737 
3232.000000	65.493655 
3231.000000	65.554118 
3230.000000	65.592312 
3229.000000	65.595674 
3228.000000	65.562081 
3227.000000	65.497255 
3226.000000	65.411543 
3225.000000	65.316915 
3224.000000	65.223240 
3223.000000	65.137648 
3222.000000	65.063166 
3221.000000	65.000081 
3220.000000	64.946293 
3219.000000	64.899086 
3218.000000	64.856171 
3217.000000	64.816451 
3216.000000	64.780592 
3215.000000	64.749145 
3214.000000	64.723753 
3213.000000	64.706206 
3212.000000	64.698362 
3211.000000	64.700007 
3210.000000	64.710187 
3209.000000	64.727210 
3208.000000	64.748883 
3207.000000	64.772629 
3206.000000	64.796233 
3205.000000	64.817357 
3204.000000	64.835166 
3203.000000	64.850306 
3202.000000	64.864277 
3201.000000	64.878773 
3200.000000	64.895200 
3199.000000	64.914083 
3198.000000	64.935255 
3197.000000	64.957642 
3196.000000	64.979863 
3195.000000	65.000510 
3194.000000	65.018177 
3193.000000	65.031838 
3192.000000	65.041589 
3191.000000	65.047979 
3190.000000	65.051674 
3189.000000	65.053367 
3188.000000	65.053629 
3187.000000	65.052700 
3186.000000	65.050411 
3185.000000	65.046525 
3184.000000	65.040946 
3183.000000	65.034270 
3182.000000	65.028023 
3181.000000	65.024209 
3180.000000	65.025162 
3179.000000	65.032625 
3178.000000	65.047144 
3177.000000	65.067553 
3176.000000	65.090990 
3175.000000	65.113377 
3174.000000	65.130400 
3173.000000	65.138339 
3172.000000	65.135312 
3171.000000	65.121626 
3170.000000	65.099978 
3169.000000	65.074753 
3168.000000	65.050935 
3167.000000	65.033316 
3166.000000	65.025186 
3165.000000	65.027832 
3164.000000	65.040016 
3163.000000	65.058875 
3162.000000	65.079903 
3161.000000	65.098428 
3160.000000	65.110206 
3159.000000	65.112590 
3158.000000	65.104651 
3157.000000	65.087127 
3156.000000	65.062260 
3155.000000	65.033102 
3154.000000	65.003132 
3153.000000	64.975595 
3152.000000	64.953470 
3151.000000	64.939117 
3150.000000	64.934158 
3149.000000	64.939451 
3148.000000	64.954566 
3147.000000	64.977908 
3146.000000	65.006494 
3145.000000	65.036320 
3144.000000	65.063095 
3143.000000	65.083074 
3142.000000	65.093588 
3141.000000	65.093421 
3140.000000	65.083098 
3139.000000	65.064454 
3138.000000	65.040206 
3137.000000	65.013051 
3136.000000	64.985251 
3135.000000	64.958357 
3134.000000	64.933085 
3133.000000	64.909815 
3132.000000	64.888834 
3131.000000	64.870715 
3130.000000	64.856433 
3129.000000	64.847302 
3128.000000	64.844608 
3127.000000	64.849400 
3126.000000	64.861631 
3125.000000	64.880490 
3124.000000	64.904212 
3123.000000	64.930653 
3122.000000	64.957642 
3121.000000	64.982986 
3120.000000	65.004849 
3119.000000	65.021872 
3118.000000	65.033030 
3117.000000	65.037846 
3116.000000	65.036082 
3115.000000	65.028071 
3114.000000	65.014338 
3113.000000	64.996123 
3112.000000	64.974832 
3111.000000	64.952325 
3110.000000	64.930152 
3109.000000	64.909887 
3108.000000	64.892315 
3107.000000	64.877700 
3106.000000	64.865612 
3105.000000	64.855241 
3104.000000	64.845657 
3103.000000	64.836192 
3102.000000	64.826655 
3101.000000	64.817094 
3100.000000	64.808082 
3099.000000	64.800500 
3098.000000	64.795422 
3097.000000	64.793467 
3096.000000	64.795041 
3095.000000	64.800095 
3094.000000	64.807987 
3093.000000	64.817547 
3092.000000	64.827179 
3091.000000	64.835238 
3090.000000	64.840340 
3089.000000	64.841747 
3088.000000	64.839458 
3087.000000	64.834213 
3086.000000	64.827275 
3085.000000	64.819931 
3084.000000	64.813256 
3083.000000	64.807534 
3082.000000	64.802026 
3081.000000	64.795327 
3080.000000	64.785528 
3079.000000	64.771413 
3078.000000	64.752697 
3077.000000	64.731097 
3076.000000	64.709663 
3075.000000	64.692997 
3074.000000	64.685964 
3073.000000	64.692950 
3072.000000	64.716196 
3071.000000	64.755535 
3070.000000	64.808011 
3069.000000	64.868259 
3068.000000	64.929699 
3067.000000	64.985656 
3066.000000	65.030670 
3065.000000	65.061354 
3064.000000	65.076971 
3063.000000	65.079236 
3062.000000	65.071582 
3061.000000	65.058398 
3060.000000	65.043854 
3059.000000	65.031433 
3058.000000	65.022993 
3057.000000	65.019392 
3056.000000	65.019869 
3055.000000	65.023016 
3054.000000	65.026807 
3053.000000	65.029358 
3052.000000	65.028977 
3051.000000	65.024495 
3050.000000	65.015602 
3049.000000	65.002393 
3048.000000	64.986062 
3047.000000	64.968252 
3046.000000	64.951086 
3045.000000	64.936780 
3044.000000	64.927077 
3043.000000	64.923143 
3042.000000	64.924860 
3041.000000	64.931058 
3040.000000	64.939522 
3039.000000	64.947581 
3038.000000	64.952492 
3037.000000	64.952063 
3036.000000	64.945340 
3035.000000	64.932680 
3034.000000	64.915490 
3033.000000	64.895963 
3032.000000	64.876651 
3031.000000	64.859676 
3030.000000	64.846444 
3029.000000	64.837098 
3028.000000	64.830899 
3027.000000	64.826345 
3026.000000	64.821887 
3025.000000	64.816308 
3024.000000	64.809060 
3023.000000	64.800572 
3022.000000	64.791965 
3021.000000	64.784765 
3020.000000	64.780306 
3019.000000	64.779257 
3018.000000	64.781332 
3017.000000	64.785408 
3016.000000	64.789676 
3015.000000	64.792299 
3014.000000	64.791989 
3013.000000	64.788389 
3012.000000	64.782118 
3011.000000	64.774966 
3010.000000	64.769196 
3009.000000	64.766812 
3008.000000	64.768958 
3007.000000	64.775657 
3006.000000	64.785599 
3005.000000	64.796423 
3004.000000	64.805269 
3003.000000	64.809608 
3002.000000	64.808058 
3001.000000	64.800524 
3000.000000	64.788508 
2999.000000	64.774513 
2998.000000	64.761829 
2997.000000	64.753341 
2996.000000	64.750885 
2995.000000	64.755034 
2994.000000	64.764547 
2993.000000	64.776873 
2992.000000	64.788651 
2991.000000	64.796519 
2990.000000	64.798140 
2989.000000	64.792895 
2988.000000	64.782190 
2987.000000	64.768838 
2986.000000	64.757061 
2985.000000	64.751076 
2984.000000	64.754509 
2983.000000	64.769196 
2982.000000	64.795398 
2981.000000	64.831519 
2980.000000	64.874386 
2979.000000	64.919829 
2978.000000	64.963459 
2977.000000	65.001177 
2976.000000	65.029478 
2975.000000	65.046358 
2974.000000	65.051126 
2973.000000	65.044760 
2972.000000	65.029668 
2971.000000	65.009307 
2970.000000	64.987850 
2969.000000	64.968943 
2968.000000	64.955925 
2967.000000	64.950013 
2966.000000	64.950728 
2965.000000	64.955401 
2964.000000	64.960217 
2963.000000	64.960741 
2962.000000	64.953446 
2961.000000	64.936518 
2960.000000	64.910316 
2959.000000	64.877295 
2958.000000	64.841389 
2957.000000	64.806723 
2956.000000	64.776587 
2955.000000	64.752745 
2954.000000	64.735031 
2953.000000	64.721727 
2952.000000	64.710283 
2951.000000	64.698243 
2950.000000	64.684367 
2949.000000	64.668774 
2948.000000	64.653110 
2947.000000	64.640116 
2946.000000	64.632511 
2945.000000	64.632034 
2944.000000	64.638829 
2943.000000	64.651036 
2942.000000	64.665484 
2941.000000	64.678287 
2940.000000	64.685893 
2939.000000	64.686083 
2938.000000	64.678502 
2937.000000	64.664864 
2936.000000	64.648461 
2935.000000	64.633011 
2934.000000	64.621949 
2933.000000	64.617204 
2932.000000	64.618873 
2931.000000	64.625144 
2930.000000	64.633035 
2929.000000	64.639329 
2928.000000	64.641690 
2927.000000	64.639282 
2926.000000	64.633250 
2925.000000	64.626145 
2924.000000	64.621138 
2923.000000	64.620876 
2922.000000	64.626741 
2921.000000	64.638590 
2920.000000	64.654731 
2919.000000	64.672803 
2918.000000	64.690399 
2917.000000	64.706039 
2916.000000	64.719438 
2915.000000	64.731383 
2914.000000	64.743375 
2913.000000	64.756989 
2912.000000	64.772820 
2911.000000	64.790415 
2910.000000	64.808082 
2909.000000	64.823365 
2908.000000	64.833664 
2907.000000	64.837074 
2906.000000	64.833235 
2905.000000	64.823031 
2904.000000	64.808845 
2903.000000	64.793562 
2902.000000	64.780139 
2901.000000	64.770674 
2900.000000	64.765977 
2899.000000	64.765548 
2898.000000	64.767694 
2897.000000	64.770245 
2896.000000	64.771151 
2895.000000	64.768958 
2894.000000	64.763188 
2893.000000	64.754462 
2892.000000	64.744353 
2891.000000	64.734864 
2890.000000	64.727973 
2889.000000	64.725208 
2888.000000	64.727449 
2887.000000	64.734649 
2886.000000	64.746141 
2885.000000	64.760828 
2884.000000	64.777374 
2883.000000	64.794421 
2882.000000	64.810991 
2881.000000	64.826440 
2880.000000	64.840388 
2879.000000	64.852619 
2878.000000	64.862942 
2877.000000	64.870882 
2876.000000	64.875626 
2875.000000	64.876198 
2874.000000	64.871406 
2873.000000	64.860296 
2872.000000	64.842486 
2871.000000	64.818358 
2870.000000	64.789080 
2869.000000	64.756679 
2868.000000	64.723753 
2867.000000	64.693450 
2866.000000	64.668846 
2865.000000	64.652705 
2864.000000	64.646649 
2863.000000	64.651179 
2862.000000	64.665412 
2861.000000	64.687395 
2860.000000	64.713859 
2859.000000	64.741539 
2858.000000	64.767217 
2857.000000	64.788603 
2856.000000	64.804482 
2855.000000	64.815044 
2854.000000	64.821290 
2853.000000	64.824986 
2852.000000	64.827871 
2851.000000	64.831566 
2850.000000	64.837241 
2849.000000	64.845418 
2848.000000	64.856195 
2847.000000	64.869165 
2846.000000	64.883446 
2845.000000	64.898037 
2844.000000	64.911508 
2843.000000	64.922070 
2842.000000	64.927601 
2841.000000	64.926004 
2840.000000	64.915490 
2839.000000	64.895129 
2838.000000	64.865088 
2837.000000	64.827156 
2836.000000	64.784526 
2835.000000	64.741230 
2834.000000	64.701819 
2833.000000	64.670395 
2832.000000	64.650011 
2831.000000	64.642238 
2830.000000	64.646744 
2829.000000	64.661574 
2828.000000	64.683675 
2827.000000	64.709305 
2826.000000	64.735007 
2825.000000	64.757776 
2824.000000	64.775919 
2823.000000	64.788961 
2822.000000	64.797711 
2821.000000	64.803743 
2820.000000	64.808893 
2819.000000	64.814829 
2818.000000	64.822816 
2817.000000	64.833140 
2816.000000	64.845418 
2815.000000	64.858508 
2814.000000	64.871144 
2813.000000	64.881825 
2812.000000	64.889264 
2811.000000	64.892578 
2810.000000	64.891505 
2809.000000	64.886379 
2808.000000	64.877867 
2807.000000	64.867019 
2806.000000	64.855170 
2805.000000	64.843678 
2804.000000	64.833664 
2803.000000	64.826011 
2802.000000	64.821434 
2801.000000	64.820051 
2800.000000	64.821577 
2799.000000	64.825415 
2798.000000	64.830780 
2797.000000	64.836931 
2796.000000	64.843177 
2795.000000	64.849114 
2794.000000	64.854288 
2793.000000	64.858269 
2792.000000	64.860630 
2791.000000	64.860677 
2790.000000	64.857959 
2789.000000	64.852643 
2788.000000	64.845728 
2787.000000	64.838981 
2786.000000	64.834642 
2785.000000	64.834904 
2784.000000	64.841389 
2783.000000	64.854359 
2782.000000	64.872717 
2781.000000	64.894199 
2780.000000	64.915585 
2779.000000	64.933776 
2778.000000	64.946103 
2777.000000	64.951205 
2776.000000	64.949154 
2775.000000	64.941358 
2774.000000	64.930343 
2773.000000	64.919066 
2772.000000	64.910435 
2771.000000	64.906692 
2770.000000	64.909267 
2769.000000	64.918375 
2768.000000	64.933085 
2767.000000	64.951467 
2766.000000	64.970946 
2765.000000	64.988303 
2764.000000	65.000438 
2763.000000	65.004801 
2762.000000	64.999842 
2761.000000	64.985442 
2760.000000	64.962959 
2759.000000	64.935207 
2758.000000	64.905834 
2757.000000	64.878630 
2756.000000	64.857053 
2755.000000	64.843201 
2754.000000	64.837884 
2753.000000	64.840364 
2752.000000	64.848804 
2751.000000	64.860820 
2750.000000	64.873957 
2749.000000	64.886188 
2748.000000	64.896059 
2747.000000	64.902877 
2746.000000	64.906501 
2745.000000	64.907097 
2744.000000	64.904713 
2743.000000	64.899539 
2742.000000	64.892053 
2741.000000	64.883160 
2740.000000	64.874029 
2739.000000	64.866232 
2738.000000	64.861536 
2737.000000	64.861297 
2736.000000	64.866161 
2735.000000	64.875912 
2734.000000	64.889407 
2733.000000	64.904642 
2732.000000	64.919185 
2731.000000	64.930844 
2730.000000	64.938354 
2729.000000	64.941430 
2728.000000	64.941167 
2727.000000	64.939594 
2726.000000	64.939212 
2725.000000	64.942407 
2724.000000	64.950609 
2723.000000	64.963936 
2722.000000	64.980769 
2721.000000	64.998459 
2720.000000	65.013384 
2719.000000	65.021896 
2718.000000	65.020895 
2717.000000	65.008831 
2716.000000	64.985823 
2715.000000	64.953899 
2714.000000	64.916467 
2713.000000	64.877557 
2712.000000	64.841032 
2711.000000	64.809751 
2710.000000	64.785170 
2709.000000	64.767289 
2708.000000	64.754843 
2707.000000	64.746069 
2706.000000	64.739060 
2705.000000	64.732456 
2704.000000	64.725661 
2703.000000	64.719009 
2702.000000	64.713048 
2701.000000	64.708662 
2700.000000	64.706373 
2699.000000	64.706730 
2698.000000	64.709663 
2697.000000	64.715147 
2696.000000	64.723443 
2695.000000	64.735007 
2694.000000	64.750480 
2693.000000	64.770197 
2692.000000	64.794039 
2691.000000	64.820933 
2690.000000	64.848923 
2689.000000	64.875817 
2688.000000	64.899468 
2687.000000	64.918541 
2686.000000	64.932608 
2685.000000	64.942359 
2684.000000	64.949059 
2683.000000	64.954328 
2682.000000	64.959239 
2681.000000	64.964032 
2680.000000	64.967989 
2679.000000	64.969968 
2678.000000	64.968657 
2677.000000	64.963531 
2676.000000	64.954733 
2675.000000	64.943623 
2674.000000	64.932012 
2673.000000	64.921712 
2672.000000	64.913988 
2671.000000	64.909005 
2670.000000	64.906048 
2669.000000	64.903855 
2668.000000	64.901185 
2667.000000	64.897346 
2666.000000	64.892363 
2665.000000	64.886951 
2664.000000	64.881944 
2663.000000	64.878010 
2662.000000	64.875268 
2661.000000	64.873337 
2660.000000	64.871311 
2659.000000	64.867997 
2658.000000	64.862608 
2657.000000	64.854860 
2656.000000	64.845180 
2655.000000	64.834380 
2654.000000	64.823460 
2653.000000	64.813184 
2652.000000	64.803862 
2651.000000	64.795184 
2650.000000	64.786386 
2649.000000	64.776778 
2648.000000	64.765930 
2647.000000	64.754223 
2646.000000	64.742493 
2645.000000	64.732003 
2644.000000	64.724183 
2643.000000	64.719986 
2642.000000	64.719724 
2641.000000	64.722967 
2640.000000	64.728474 
2639.000000	64.734911 
2638.000000	64.741039 
2637.000000	64.746117 
2636.000000	64.749932 
2635.000000	64.752912 
2634.000000	64.755654 
2633.000000	64.758634 
2632.000000	64.761900 
2631.000000	64.765143 
2630.000000	64.767765 
2629.000000	64.769196 
2628.000000	64.769077 
2627.000000	64.767646 
2626.000000	64.765834 
2625.000000	64.764809 
2624.000000	64.765954 
2623.000000	64.770388 
2622.000000	64.778494 
2621.000000	64.790010 
2620.000000	64.803767 
2619.000000	64.818239 
2618.000000	64.831376 
2617.000000	64.841485 
2616.000000	64.847040 
2615.000000	64.847087 
2614.000000	64.841175 
2613.000000	64.829492 
2612.000000	64.812731 
2611.000000	64.791822 
2610.000000	64.767813 
2609.000000	64.742279 
2608.000000	64.716672 
2607.000000	64.692163 
2606.000000	64.669704 
2605.000000	64.649796 
2604.000000	64.632487 
2603.000000	64.617323 
2602.000000	64.603352 
2601.000000	64.589667 
2600.000000	64.575576 
2599.000000	64.561080 
2598.000000	64.546442 
2597.000000	64.532637 
2596.000000	64.520645 
2595.000000	64.511513 
2594.000000	64.505696 
2593.000000	64.503383 
2592.000000	64.504051 
2591.000000	64.507317 
2590.000000	64.512491 
2589.000000	64.519596 
2588.000000	64.528894 
2587.000000	64.541363 
2586.000000	64.557957 
2585.000000	64.579820 
2584.000000	64.607739 
2583.000000	64.642047 
2582.000000	64.682197 
2581.000000	64.726734 
2580.000000	64.773082 
2579.000000	64.818072 
2578.000000	64.858269 
2577.000000	64.890050 
2576.000000	64.910054 
2575.000000	64.915990 
2574.000000	64.906978 
2573.000000	64.883637 
2572.000000	64.848184 
2571.000000	64.804577 
2570.000000	64.757752 
2569.000000	64.713311 
2568.000000	64.676165 
2567.000000	64.650464 
2566.000000	64.638233 
2565.000000	64.639353 
2564.000000	64.651393 
2563.000000	64.670252 
2562.000000	64.690756 
2561.000000	64.707970 
2560.000000	64.717912 
2559.000000	64.718222 
2558.000000	64.708805 
2557.000000	64.691567 
2556.000000	64.669990 
2555.000000	64.648175 
2554.000000	64.630222 
2553.000000	64.619445 
2552.000000	64.617872 
2551.000000	64.625859 
2550.000000	64.642548 
2549.000000	64.665842 
2548.000000	64.692735 
2547.000000	64.719891 
2546.000000	64.744138 
2545.000000	64.762878 
2544.000000	64.774155 
2543.000000	64.777278 
2542.000000	64.772534 
2541.000000	64.761447 
2540.000000	64.746546 
2539.000000	64.730501 
2538.000000	64.715933 
2537.000000	64.704585 
2536.000000	64.697313 
2535.000000	64.693689 
2534.000000	64.692354 
2533.000000	64.691448 
2532.000000	64.689207 
2531.000000	64.684867 
2530.000000	64.678668 
2529.000000	64.672160 
2528.000000	64.667558 
2527.000000	64.667320 
2526.000000	64.673280 
2525.000000	64.686179 
2524.000000	64.705014 
2523.000000	64.727354 
2522.000000	64.749836 
2521.000000	64.768791 
2520.000000	64.781165 
2519.000000	64.785456 
2518.000000	64.781713 
2517.000000	64.771533 
2516.000000	64.757633 
2515.000000	64.743065 
2514.000000	64.730501 
2513.000000	64.721703 
2512.000000	64.717292 
2511.000000	64.716839 
2510.000000	64.719247 
2509.000000	64.723563 
2508.000000	64.728903 
2507.000000	64.734721 
2506.000000	64.740848 
2505.000000	64.747309 
2504.000000	64.753842 
2503.000000	64.759635 
2502.000000	64.763402 
2501.000000	64.763522 
2500.000000	64.758372 
2499.000000	64.746713 
2498.000000	64.727997 
2497.000000	64.702773 
2496.000000	64.672493 
2495.000000	64.639401 
2494.000000	64.605975 
2493.000000	64.574790 
2492.000000	64.548110 
2491.000000	64.527606 
2490.000000	64.514183 
2489.000000	64.507985 
2488.000000	64.508509 
2487.000000	64.514780 
2486.000000	64.525032 
2485.000000	64.537739 
2484.000000	64.551138 
2483.000000	64.564156 
2482.000000	64.576101 
2481.000000	64.586853 
2480.000000	64.596605 
2479.000000	64.606165 
2478.000000	64.616274 
2477.000000	64.628005 
2476.000000	64.642357 
2475.000000	64.660286 
2474.000000	64.682292 
2473.000000	64.708375 
2472.000000	64.737749 
2471.000000	64.769005 
2470.000000	64.800024 
2469.000000	64.828109 
2468.000000	64.850616 
2467.000000	64.865326 
2466.000000	64.870858 
2465.000000	64.866948 
2464.000000	64.854121 
2463.000000	64.834260 
2462.000000	64.809918 
2461.000000	64.783549 
2460.000000	64.757347 
2459.000000	64.733266 
2458.000000	64.712858 
2457.000000	64.697718 
2456.000000	64.689016 
2455.000000	64.687871 
2454.000000	64.694333 
2453.000000	64.707732 
2452.000000	64.725780 
2451.000000	64.744663 
2450.000000	64.759802 
2449.000000	64.766693 
2448.000000	64.761924 
2447.000000	64.744067 
2446.000000	64.714407 
2445.000000	64.676713 
2444.000000	64.636707 
2443.000000	64.600658 
2442.000000	64.574241 
2441.000000	64.561533 
2440.000000	64.564299 
2439.000000	64.581966 
2438.000000	64.612507 
2437.000000	64.653158 
2436.000000	64.700984 
2435.000000	64.753270 
2434.000000	64.807343 
2433.000000	64.860486 
2432.000000	64.909315 
2431.000000	64.950060 
2430.000000	64.978408 
2429.000000	64.990568 
2428.000000	64.984464 
2427.000000	64.959931 
2426.000000	64.919543 
2425.000000	64.867877 
2424.000000	64.811372 
2423.000000	64.756441 
2422.000000	64.708471 
2421.000000	64.670681 
2420.000000	64.643788 
2419.000000	64.626216 
2418.000000	64.614915 
2417.000000	64.606404 
2416.000000	64.597773 
2415.000000	64.587140 
2414.000000	64.574003 
2413.000000	64.558720 
2412.000000	64.542293 
2411.000000	64.525628 
2410.000000	64.509510 
2409.000000	64.494276 
2408.000000	64.480471 
2407.000000	64.468860 
2406.000000	64.460706 
2405.000000	64.457583 
2404.000000	64.461088 
2403.000000	64.472484 
2402.000000	64.491987 
2401.000000	64.518237 
2400.000000	64.548707 
2399.000000	64.580082 
2398.000000	64.608931 
2397.000000	64.632391 
2396.000000	64.648747 
2395.000000	64.657688 
2394.000000	64.660191 
2393.000000	64.658260 
2392.000000	64.653658 
2391.000000	64.647483 
2390.000000	64.640069 
2389.000000	64.630961 
2388.000000	64.619398 
2387.000000	64.604544 
2386.000000	64.586281 
2385.000000	64.565563 
2384.000000	64.544272 
2383.000000	64.525055 
2382.000000	64.510416 
2381.000000	64.502668 
2380.000000	64.503073 
2379.000000	64.511919 
2378.000000	64.528298 
2377.000000	64.550375 
2376.000000	64.575552 
2375.000000	64.600944 
2374.000000	64.623761 
2373.000000	64.641547 
2372.000000	64.652442 
2371.000000	64.655733 
2370.000000	64.651751 
2369.000000	64.642119 
2368.000000	64.629602 
2367.000000	64.617609 
2366.000000	64.609599 
2365.000000	64.608120 
2364.000000	64.614319 
2363.000000	64.627265 
2362.000000	64.644360 
2361.000000	64.661812 
2360.000000	64.675545 
2359.000000	64.682173 
2358.000000	64.679789 
2357.000000	64.668416 
2356.000000	64.649796 
2355.000000	64.626741 
2354.000000	64.602637 
2353.000000	64.580345 
2352.000000	64.562034 
2351.000000	64.548873 
2350.000000	64.541411 
2349.000000	64.539837 
2348.000000	64.544248 
2347.000000	64.555215 
2346.000000	64.573240 
2345.000000	64.598393 
2344.000000	64.629864 
2343.000000	64.665579 
2342.000000	64.702558 
2341.000000	64.737033 
2340.000000	64.765334 
2339.000000	64.784622 
2338.000000	64.793348 
2337.000000	64.791774 
2336.000000	64.781451 
2335.000000	64.765000 
2334.000000	64.745116 
2333.000000	64.723992 
2332.000000	64.702963 
2331.000000	64.682412 
2330.000000	64.662098 
2329.000000	64.641618 
2328.000000	64.621067 
2327.000000	64.600992 
2326.000000	64.582586 
2325.000000	64.567589 
2324.000000	64.557504 
2323.000000	64.553666 
2322.000000	64.556646 
2321.000000	64.566612 
2320.000000	64.582896 
2319.000000	64.604496 
2318.000000	64.630031 
2317.000000	64.657974 
2316.000000	64.686560 
2315.000000	64.713835 
2314.000000	64.737725 
2313.000000	64.756202 
2312.000000	64.767336 
2311.000000	64.769673 
2310.000000	64.762520 
2309.000000	64.746260 
2308.000000	64.722275 
2307.000000	64.692783 
2306.000000	64.660453 
2305.000000	64.628267 
2304.000000	64.598894 
2303.000000	64.574480 
2302.000000	64.556312 
2301.000000	64.545083 
2300.000000	64.540672 
2299.000000	64.542245 
2298.000000	64.548516 
2297.000000	64.557695 
2296.000000	64.567947 
2295.000000	64.577388 
2294.000000	64.584636 
2293.000000	64.588594 
2292.000000	64.588952 
2291.000000	64.586043 
2290.000000	64.580631 
2289.000000	64.573884 
2288.000000	64.567041 
2287.000000	64.561176 
2286.000000	64.556956 
2285.000000	64.554715 
2284.000000	64.554381 
2283.000000	64.555931 
2282.000000	64.559364 
2281.000000	64.564824 
2280.000000	64.572620 
2279.000000	64.583063 
2278.000000	64.596152 
2277.000000	64.611411 
2276.000000	64.627790 
2275.000000	64.643812 
2274.000000	64.657735 
2273.000000	64.667892 
2272.000000	64.672851 
2271.000000	64.671921 
2270.000000	64.665222 
2269.000000	64.653778 
2268.000000	64.639282 
2267.000000	64.623737 
2266.000000	64.609193 
2265.000000	64.597177 
2264.000000	64.588618 
2263.000000	64.583563 
2262.000000	64.581441 
2261.000000	64.581370 
2260.000000	64.582467 
2259.000000	64.584159 
2258.000000	64.586234 
2257.000000	64.588618 
2256.000000	64.591383 
2255.000000	64.594244 
2254.000000	64.596533 
2253.000000	64.597129 
2252.000000	64.594531 
2251.000000	64.587426 
2250.000000	64.574956 
2249.000000	64.557409 
2248.000000	64.535999 
2247.000000	64.512991 
2246.000000	64.491081 
2245.000000	64.472699 
2244.000000	64.459443 
2243.000000	64.451766 
2242.000000	64.449095 
2241.000000	64.450001 
2240.000000	64.452743 
2239.000000	64.455962 
2238.000000	64.458727 
2237.000000	64.460825 
2236.000000	64.462447 
2235.000000	64.463973 
2234.000000	64.465856 
2233.000000	64.468264 
2232.000000	64.471268 
2231.000000	64.474749 
2230.000000	64.478826 
2229.000000	64.483809 
2228.000000	64.490151 
2227.000000	64.498376 
2226.000000	64.508724 
2225.000000	64.521002 
2224.000000	64.534425 
2223.000000	64.547586 
2222.000000	64.559030 
2221.000000	64.567422 
2220.000000	64.572048 
2219.000000	64.573025 
2218.000000	64.571213 
2217.000000	64.567971 
2216.000000	64.564824 
2215.000000	64.563083 
2214.000000	64.563536 
2213.000000	64.566278 
2212.000000	64.570927 
2211.000000	64.576721 
2210.000000	64.582777 
2209.000000	64.588284 
2208.000000	64.592504 
2207.000000	64.594769 
2206.000000	64.594483 
2205.000000	64.591002 
2204.000000	64.584016 
2203.000000	64.573073 
2202.000000	64.557909 
2201.000000	64.539122 
2200.000000	64.518141 
2199.000000	64.497017 
2198.000000	64.478111 
2197.000000	64.463329 
2196.000000	64.453744 
2195.000000	64.450383 
2194.000000	64.453434 
2193.000000	64.461088 
2192.000000	64.470505 
2191.000000	64.479756 
2190.000000	64.487481 
2189.000000	64.492845 
2188.000000	64.495730 
2187.000000	64.496469 
2186.000000	64.495444 
2185.000000	64.492797 
2184.000000	64.488434 
2183.000000	64.481782 
2182.000000	64.472532 
2181.000000	64.461064 
2180.000000	64.449143 
2179.000000	64.439272 
2178.000000	64.436244 
2177.000000	64.445805 
2176.000000	64.475035 
2175.000000	64.529943 
2174.000000	64.614224 
2173.000000	64.726305 
2172.000000	64.856767 
2171.000000	64.987087 
2170.000000	65.091967 
2169.000000	65.142560 
2168.000000	65.111327 
2167.000000	64.979052 
2166.000000	64.740538 
2165.000000	64.408302 
2164.000000	64.011740 
2163.000000	63.593626 
2162.000000	63.202571 
2161.000000	62.884306 
2160.000000	62.672472 
2159.000000	62.583422 
2158.000000	62.613177 
2157.000000	62.741112 
2156.000000	62.934994 
2155.000000	63.159823 
2154.000000	63.383269 
2153.000000	63.582944 
2152.000000	63.746619 
2151.000000	63.872838 
2150.000000	63.965487 
2149.000000	64.032602 
2148.000000	64.081263 
2147.000000	64.117074 
2146.000000	64.142775 
2145.000000	64.159750 
2144.000000	64.168739 
2143.000000	64.172172 
2142.000000	64.173889 
2141.000000	64.179086 
2140.000000	64.192724 
2139.000000	64.218306 
2138.000000	64.256811 
2137.000000	64.306354 
2136.000000	64.362645 
2135.000000	64.420628 
2134.000000	64.475274 
2133.000000	64.522051 
2132.000000	64.558148 
2131.000000	64.583420 
2130.000000	64.599108 
2129.000000	64.606523 
2128.000000	64.607119 
2127.000000	64.602661 
2126.000000	64.594078 
2125.000000	64.581823 
2124.000000	64.565610 
2123.000000	64.544892 
2122.000000	64.520072 
2121.000000	64.493227 
2120.000000	64.466929 
2119.000000	64.443898 
2118.000000	64.426970 
2117.000000	64.418292 
2116.000000	64.418435 
2115.000000	64.426517 
2114.000000	64.440655 
2113.000000	64.458322 
2112.000000	64.476704 
2111.000000	64.493584 
2110.000000	64.507579 
2109.000000	64.518284 
2108.000000	64.525771 
2107.000000	64.530563 
2106.000000	64.533114 
2105.000000	64.533758 
2104.000000	64.532470 
2103.000000	64.529156 
2102.000000	64.524173 
2101.000000	64.518165 
2100.000000	64.512181 
2099.000000	64.507293 
2098.000000	64.504599 
2097.000000	64.504742 
2096.000000	64.507603 
2095.000000	64.512491 
2094.000000	64.518260 
2093.000000	64.523744 
2092.000000	64.528083 
2091.000000	64.530920 
2090.000000	64.532423 
2089.000000	64.533090 
2088.000000	64.533495 
2087.000000	64.534068 
2086.000000	64.534831 
2085.000000	64.535331 
2084.000000	64.534854 
2083.000000	64.532923 
2082.000000	64.529180 
2081.000000	64.523792 
2080.000000	64.517188 
2079.000000	64.510393 
2078.000000	64.504265 
2077.000000	64.499306 
2076.000000	64.495563 
2075.000000	64.492750 
2074.000000	64.490318 
2073.000000	64.487600 
2072.000000	64.484143 
2071.000000	64.479660 
2070.000000	64.474320 
2069.000000	64.468574 
2068.000000	64.463114 
2067.000000	64.458703 
2066.000000	64.456152 
2065.000000	64.455962 
2064.000000	64.458250 
2063.000000	64.462494 
2062.000000	64.467716 
2061.000000	64.472508 
2060.000000	64.475560 
2059.000000	64.475655 
2058.000000	64.472103 
2057.000000	64.464712 
2056.000000	64.453721 
2055.000000	64.439678 
2054.000000	64.423465 
2053.000000	64.405775 
2052.000000	64.387154 
2051.000000	64.368009 
2050.000000	64.348554 
2049.000000	64.329195 
2048.000000	64.310336 
2047.000000	64.292812 
2046.000000	64.277553 
2045.000000	64.265966 
2044.000000	64.259529 
2043.000000	64.259552 
2042.000000	64.266777 
2041.000000	64.281249 
2040.000000	64.302158 
2039.000000	64.327859 
2038.000000	64.355993 
2037.000000	64.383840 
2036.000000	64.408731 
2035.000000	64.428496 
2034.000000	64.441871 
2033.000000	64.448618 
2032.000000	64.449524 
2031.000000	64.446306 
2030.000000	64.440989 
2029.000000	64.435791 
2028.000000	64.432382 
2027.000000	64.431858 
2026.000000	64.434361 
2025.000000	64.439511 
2024.000000	64.446139 
2023.000000	64.453029 
2022.000000	64.458799 
2021.000000	64.462208 
2020.000000	64.462184 
2019.000000	64.458012 
2018.000000	64.449405 
2017.000000	64.436388 
2016.000000	64.419651 
2015.000000	64.400267 
2014.000000	64.379858 
2013.000000	64.360189 
2012.000000	64.343142 
2011.000000	64.330315 
2010.000000	64.322829 
2009.000000	64.321088 
2008.000000	64.324569 
2007.000000	64.332008 
2006.000000	64.341807 
2005.000000	64.352297 
2004.000000	64.362096 
2003.000000	64.370298 
2002.000000	64.376711 
2001.000000	64.381814 
2000.000000	64.386439 
1999.000000	64.391350 
1998.000000	64.397239 
1997.000000	64.403939 
1996.000000	64.410805 
1995.000000	64.416623 
1994.000000	64.419674 
1993.000000	64.418458 
1992.000000	64.411926 
1991.000000	64.400148 
1990.000000	64.384341 
1989.000000	64.366674 
1988.000000	64.350056 
1987.000000	64.337205 
1986.000000	64.329862 
1985.000000	64.328336 
1984.000000	64.331412 
1983.000000	64.336466 
1982.000000	64.340257 
1981.000000	64.339637 
1980.000000	64.332580 
1979.000000	64.318823 
1978.000000	64.299964 
1977.000000	64.279079 
1976.000000	64.260125 
1975.000000	64.246726 
1974.000000	64.241623 
1973.000000	64.245843 
1972.000000	64.258575 
1971.000000	64.277648 
1970.000000	64.300036 
1969.000000	64.322543 
1968.000000	64.342236 
1967.000000	64.357161 
1966.000000	64.366364 
1965.000000	64.369678 
1964.000000	64.367818 
1963.000000	64.361929 
1962.000000	64.353394 
1961.000000	64.343738 
1960.000000	64.334321 
1959.000000	64.326024 
1958.000000	64.319562 
1957.000000	64.315152 
1956.000000	64.312410 
1955.000000	64.310503 
1954.000000	64.308524 
1953.000000	64.305758 
1952.000000	64.301753 
1951.000000	64.296960 
1950.000000	64.292287 
1949.000000	64.289093 
1948.000000	64.288544 
1947.000000	64.291477 
1946.000000	64.297747 
1945.000000	64.306569 
1944.000000	64.316439 
1943.000000	64.325761 
1942.000000	64.333224 
1941.000000	64.338088 
1940.000000	64.340424 
1939.000000	64.341020 
1938.000000	64.340758 
1937.000000	64.340734 
1936.000000	64.341735 
1935.000000	64.344263 
1934.000000	64.348220 
1933.000000	64.353346 
1932.000000	64.359354 
1931.000000	64.366078 
1930.000000	64.373517 
1929.000000	64.381647 
1928.000000	64.390420 
1927.000000	64.399480 
1926.000000	64.408326 
1925.000000	64.416456 
1924.000000	64.423537 
1923.000000	64.429688 
1922.000000	64.435172 
1921.000000	64.440655 
1920.000000	64.446687 
1919.000000	64.453482 
1918.000000	64.460587 
1917.000000	64.467000 
1916.000000	64.471364 
1915.000000	64.472150 
1914.000000	64.468264 
1913.000000	64.459204 
1912.000000	64.445376 
1911.000000	64.428162 
1910.000000	64.409542 
1909.000000	64.391756 
1908.000000	64.376711 
1907.000000	64.365625 
1906.000000	64.358711 
1905.000000	64.355301 
1904.000000	64.354062 
1903.000000	64.353251 
1902.000000	64.351344 
1901.000000	64.347124 
1900.000000	64.340043 
1899.000000	64.330196 
1898.000000	64.318251 
1897.000000	64.305210 
1896.000000	64.292073 
1895.000000	64.279747 
1894.000000	64.268708 
1893.000000	64.259147 
1892.000000	64.250874 
1891.000000	64.243650 
1890.000000	64.237451 
1889.000000	64.232373 
1888.000000	64.228868 
1887.000000	64.227342 
1886.000000	64.228177 
1885.000000	64.231300 
1884.000000	64.236140 
1883.000000	64.241647 
1882.000000	64.246439 
1881.000000	64.249062 
1880.000000	64.248275 
1879.000000	64.243483 
1878.000000	64.234805 
1877.000000	64.223098 
1876.000000	64.209890 
1875.000000	64.197015 
1874.000000	64.186286 
1873.000000	64.179158 
1872.000000	64.176487 
1871.000000	64.178466 
1870.000000	64.184594 
1869.000000	64.193892 
1868.000000	64.204931 
1867.000000	64.216184 
1866.000000	64.226388 
1865.000000	64.234447 
1864.000000	64.240121 
1863.000000	64.243555 
1862.000000	64.245867 
1861.000000	64.248561 
1860.000000	64.253330 
1859.000000	64.261674 
1858.000000	64.274334 
1857.000000	64.291334 
1856.000000	64.311456 
1855.000000	64.332628 
1854.000000	64.352250 
1853.000000	64.367771 
1852.000000	64.377164 
1851.000000	64.379382 
1850.000000	64.374613 
1849.000000	64.364171 
1848.000000	64.350032 
1847.000000	64.334511 
1846.000000	64.319682 
1845.000000	64.306855 
1844.000000	64.296603 
1843.000000	64.288854 
1842.000000	64.283061 
1841.000000	64.278507 
1840.000000	64.274358 
1839.000000	64.270019 
1838.000000	64.264965 
1837.000000	64.258933 
1836.000000	64.251804 
1835.000000	64.243721 
1834.000000	64.234781 
1833.000000	64.225459 
1832.000000	64.216232 
1831.000000	64.207887 
1830.000000	64.201092 
1829.000000	64.196705 
1828.000000	64.195322 
1827.000000	64.197182 
1826.000000	64.202070 
1825.000000	64.209365 
1824.000000	64.218187 
1823.000000	64.227366 
1822.000000	64.235639 
1821.000000	64.241933 
1820.000000	64.245319 
1819.000000	64.245223 
1818.000000	64.241576 
1817.000000	64.234828 
1816.000000	64.225745 
1815.000000	64.215564 
1814.000000	64.205837 
1813.000000	64.197921 
1812.000000	64.193201 
1811.000000	64.192557 
1810.000000	64.196515 
1809.000000	64.205050 
1808.000000	64.217662 
1807.000000	64.233469 
1806.000000	64.251089 
1805.000000	64.268922 
1804.000000	64.285182 
1803.000000	64.298176 
1802.000000	64.306569 
1801.000000	64.309406 
1800.000000	64.306449 
1799.000000	64.298176 
1798.000000	64.285993 
1797.000000	64.271950 
1796.000000	64.258503 
1795.000000	64.248204 
1794.000000	64.243316 
1793.000000	64.245319 
1792.000000	64.254546 
1791.000000	64.270114 
1790.000000	64.289975 
1789.000000	64.310932 
1788.000000	64.329242 
1787.000000	64.341306 
1786.000000	64.344120 
1785.000000	64.336323 
1784.000000	64.317846 
1783.000000	64.290738 
1782.000000	64.258384 
1781.000000	64.225196 
1780.000000	64.195942 
1779.000000	64.174461 
1778.000000	64.163541 
1777.000000	64.163827 
1776.000000	64.174032 
1775.000000	64.191055 
1774.000000	64.210748 
1773.000000	64.228558 
1772.000000	64.240384 
1771.000000	64.243626 
1770.000000	64.237570 
1769.000000	64.223504 
1768.000000	64.204096 
1767.000000	64.183068 
1766.000000	64.164209 
1765.000000	64.150571 
1764.000000	64.143705 
1763.000000	64.143490 
1762.000000	64.147901 
1761.000000	64.153909 
1760.000000	64.158034 
1759.000000	64.157009 
1758.000000	64.148736 
1757.000000	64.132428 
1756.000000	64.109206 
1755.000000	64.081406 
1754.000000	64.052319 
1753.000000	64.025425 
1752.000000	64.003539 
1751.000000	63.988351 
1750.000000	63.980293 
1749.000000	63.978505 
1748.000000	63.981080 
1747.000000	63.985514 
1746.000000	63.989424 
1745.000000	63.990950 
1744.000000	63.989257 
1743.000000	63.984489 
1742.000000	63.977694 
1741.000000	63.970351 
1740.000000	63.964247 
1739.000000	63.961052 
1738.000000	63.961935 
1737.000000	63.967490 
1736.000000	63.977646 
1735.000000	63.991808 
1734.000000	64.008951 
1733.000000	64.027738 
1732.000000	64.046764 
1731.000000	64.064431 
1730.000000	64.079141 
1729.000000	64.089560 
1728.000000	64.094614 
1727.000000	64.093780 
1726.000000	64.087271 
1725.000000	64.076232 
1724.000000	64.062571 
1723.000000	64.048767 
1722.000000	64.037752 
1721.000000	64.031815 
1720.000000	64.032220 
1719.000000	64.038896 
1718.000000	64.050412 
1717.000000	64.064121 
1716.000000	64.076733 
1715.000000	64.085030 
1714.000000	64.086675 
1713.000000	64.080500 
1712.000000	64.066648 
1711.000000	64.046573 
1710.000000	64.022517 
1709.000000	63.996887 
1708.000000	63.971710 
1707.000000	63.948559 
1706.000000	63.928127 
1705.000000	63.910460 
1704.000000	63.895416 
1703.000000	63.882541 
1702.000000	63.871884 
1701.000000	63.863635 
1700.000000	63.858795 
1699.000000	63.858222 
1698.000000	63.862895 
1697.000000	63.873386 
1696.000000	63.889837 
1695.000000	63.911604 
1694.000000	63.937449 
1693.000000	63.965582 
1692.000000	63.993930 
1691.000000	64.020609 
1690.000000	64.043927 
1689.000000	64.062738 
1688.000000	64.076519 
1687.000000	64.085555 
1686.000000	64.090847 
1685.000000	64.093661 
1684.000000	64.095568 
1683.000000	64.097785 
1682.000000	64.101004 
1681.000000	64.104986 
1680.000000	64.108943 
1679.000000	64.111280 
1678.000000	64.110326 
1677.000000	64.104342 
1676.000000	64.092540 
1675.000000	64.074707 
1674.000000	64.051485 
1673.000000	64.024305 
1672.000000	63.994908 
1671.000000	63.965463 
1670.000000	63.938188 
1669.000000	63.915228 
1668.000000	63.898181 
1667.000000	63.888406 
1666.000000	63.886618 
1665.000000	63.892960 
1664.000000	63.906598 
1663.000000	63.925909 
1662.000000	63.948607 
1661.000000	63.971877 
1660.000000	63.993024 
1659.000000	64.009881 
1658.000000	64.021229 
1657.000000	64.027047 
1656.000000	64.028382 
1655.000000	64.026880 
1654.000000	64.024281 
1653.000000	64.022111 
1652.000000	64.020967 
1651.000000	64.020729 
1650.000000	64.020323 
1649.000000	64.018607 
1648.000000	64.014363 
1647.000000	64.006781 
1646.000000	63.995385 
1645.000000	63.980269 
1644.000000	63.961839 
1643.000000	63.940525 
1642.000000	63.917016 
1641.000000	63.891816 
1640.000000	63.866162 
1639.000000	63.841652 
1638.000000	63.820791 
1637.000000	63.806509 
1636.000000	63.802123 
1635.000000	63.810300 
1634.000000	63.832354 
1633.000000	63.867473 
1632.000000	63.912773 
1631.000000	63.963508 
1630.000000	64.013743 
1629.000000	64.057707 
1628.000000	64.090847 
1627.000000	64.111185 
1626.000000	64.119315 
1625.000000	64.118361 
1624.000000	64.113283 
1623.000000	64.109396 
1622.000000	64.111137 
1621.000000	64.120531 
1620.000000	64.137053 
1619.000000	64.157342 
1618.000000	64.176750 
1617.000000	64.190053 
1616.000000	64.193391 
1615.000000	64.184761 
1614.000000	64.165115 
1613.000000	64.137434 
1612.000000	64.105892 
1611.000000	64.074611 
1610.000000	64.046764 
1609.000000	64.023780 
1608.000000	64.005279 
1607.000000	63.989806 
1606.000000	63.975524 
1605.000000	63.961195 
1604.000000	63.946676 
1603.000000	63.932776 
1602.000000	63.920998 
1601.000000	63.912773 
1600.000000	63.908815 
1599.000000	63.908195 
1598.000000	63.908767 
1597.000000	63.907909 
1596.000000	63.903236 
1595.000000	63.893198 
1594.000000	63.878011 
1593.000000	63.859391 
1592.000000	63.840603 
1591.000000	63.825178 
1590.000000	63.816428 
1589.000000	63.816452 
1588.000000	63.825774 
1587.000000	63.843178 
1586.000000	63.865995 
1585.000000	63.890767 
1584.000000	63.913774 
1583.000000	63.931989 
1582.000000	63.943672 
1581.000000	63.948440 
1580.000000	63.947486 
1579.000000	63.942885 
1578.000000	63.936901 
1577.000000	63.931322 
1576.000000	63.927173 
1575.000000	63.924336 
1574.000000	63.921761 
1573.000000	63.917613 
1572.000000	63.910293 
1571.000000	63.898730 
1570.000000	63.882589 
1569.000000	63.862681 
1568.000000	63.840675 
1567.000000	63.818931 
1566.000000	63.800096 
1565.000000	63.786530 
1564.000000	63.779902 
1563.000000	63.780832 
1562.000000	63.789057 
1561.000000	63.803219 
1560.000000	63.821411 
1559.000000	63.841271 
1558.000000	63.860511 
1557.000000	63.877153 
1556.000000	63.889718 
1555.000000	63.897418 
1554.000000	63.900160 
1553.000000	63.898372 
1552.000000	63.892936 
1551.000000	63.885188 
1550.000000	63.876938 
1549.000000	63.870120 
1548.000000	63.866734 
1547.000000	63.868641 
1546.000000	63.877201 
1545.000000	63.893008 
1544.000000	63.915443 
1543.000000	63.942718 
1542.000000	63.971614 
1541.000000	63.998436 
1540.000000	64.019393 
1539.000000	64.031410 
1538.000000	64.033102 
1537.000000	64.024925 
1536.000000	64.009070 
1535.000000	63.988900 
1534.000000	63.968181 
1533.000000	63.950133 
1532.000000	63.936901 
1531.000000	63.929343 
1530.000000	63.926792 
1529.000000	63.927531 
1528.000000	63.929200 
1527.000000	63.929748 
1526.000000	63.927507 
1525.000000	63.921713 
1524.000000	63.912487 
1523.000000	63.900947 
1522.000000	63.888669 
1521.000000	63.877582 
1520.000000	63.869142 
1519.000000	63.864302 
1518.000000	63.863396 
1517.000000	63.866090 
1516.000000	63.871574 
1515.000000	63.878941 
1514.000000	63.887286 
1513.000000	63.895821 
1512.000000	63.904237 
1511.000000	63.912296 
1510.000000	63.919734 
1509.000000	63.925957 
1508.000000	63.930130 
1507.000000	63.930869 
1506.000000	63.926529 
1505.000000	63.915371 
1504.000000	63.896131 
1503.000000	63.868403 
1502.000000	63.833045 
1501.000000	63.792705 
1500.000000	63.751578 
1499.000000	63.715052 
1498.000000	63.688564 
1497.000000	63.676691 
1496.000000	63.682198 
1495.000000	63.705086 
1494.000000	63.742685 
1493.000000	63.790369 
1492.000000	63.842415 
1491.000000	63.893151 
1490.000000	63.937830 
1489.000000	63.973093 
1488.000000	63.997387 
1487.000000	64.010524 
1486.000000	64.013910 
1485.000000	64.009833 
1484.000000	64.000868 
1483.000000	63.990139 
1482.000000	63.979911 
1481.000000	63.971638 
1480.000000	63.965249 
1479.000000	63.960194 
1478.000000	63.954997 
1477.000000	63.948178 
1476.000000	63.938474 
1475.000000	63.925385 
1474.000000	63.909053 
1473.000000	63.890171 
1472.000000	63.869428 
1471.000000	63.847589 
1470.000000	63.824868 
1469.000000	63.801312 
1468.000000	63.776755 
1467.000000	63.751268 
1466.000000	63.725543 
1465.000000	63.700962 
1464.000000	63.679242 
1463.000000	63.662433 
1462.000000	63.651561 
1461.000000	63.647294 
1460.000000	63.648653 
1459.000000	63.654708 
1458.000000	63.664603 
1457.000000	63.678336 
1456.000000	63.696861 
1455.000000	63.721537 
1454.000000	63.753414 
1453.000000	63.792133 
1452.000000	63.835382 
1451.000000	63.878846 
1450.000000	63.916993 
1449.000000	63.944315 
1448.000000	63.956713 
1447.000000	63.952398 
1446.000000	63.932371 
1445.000000	63.900256 
1444.000000	63.861560 
1443.000000	63.822174 
1442.000000	63.787126 
1441.000000	63.759851 
1440.000000	63.741683 
1439.000000	63.732266 
1438.000000	63.730168 
1437.000000	63.733839 
1436.000000	63.742136 
1435.000000	63.754630 
1434.000000	63.771414 
1433.000000	63.792490 
1432.000000	63.817453 
1431.000000	63.844776 
1430.000000	63.871812 
1429.000000	63.895273 
1428.000000	63.911581 
1427.000000	63.917613 
1426.000000	63.911557 
1425.000000	63.893461 
1424.000000	63.865447 
1423.000000	63.831663 
1422.000000	63.797640 
1421.000000	63.769102 
1420.000000	63.751125 
1419.000000	63.747167 
1418.000000	63.758039 
1417.000000	63.781833 
1416.000000	63.814330 
1415.000000	63.849663 
1414.000000	63.881468 
1413.000000	63.903927 
1412.000000	63.913035 
1411.000000	63.907289 
1410.000000	63.887619 
1409.000000	63.857507 
1408.000000	63.821911 
1407.000000	63.786625 
1406.000000	63.756847 
1405.000000	63.736677 
1404.000000	63.728523 
1403.000000	63.733077 
1402.000000	63.749194 
1401.000000	63.774633 
1400.000000	63.806533 
1399.000000	63.841819 
1398.000000	63.877487 
1397.000000	63.910675 
1396.000000	63.938879 
1395.000000	63.959884 
1394.000000	63.971829 
1393.000000	63.973569 
1392.000000	63.964748 
1391.000000	63.946151 
1390.000000	63.919639 
1389.000000	63.888001 
1388.000000	63.854312 
1387.000000	63.821768 
1386.000000	63.792753 
1385.000000	63.768672 
1384.000000	63.749551 
1383.000000	63.734388 
1382.000000	63.721466 
1381.000000	63.709139 
1380.000000	63.696312 
1379.000000	63.682436 
1378.000000	63.667917 
1377.000000	63.653612 
1376.000000	63.640832 
1375.000000	63.630485 
1374.000000	63.623428 
1373.000000	63.619875 
1372.000000	63.619875 
1371.000000	63.623332 
1370.000000	63.630175 
1369.000000	63.640093 
1368.000000	63.652610 
1367.000000	63.666892 
1366.000000	63.681769 
1365.000000	63.695740 
1364.000000	63.707184 
1363.000000	63.714647 
1362.000000	63.717389 
1361.000000	63.715434 
1360.000000	63.709950 
1359.000000	63.702702 
1358.000000	63.695240 
1357.000000	63.688445 
1356.000000	63.682651 
1355.000000	63.677215 
1354.000000	63.670682 
1353.000000	63.661527 
1352.000000	63.648867 
1351.000000	63.632965 
1350.000000	63.615322 
1349.000000	63.598728 
1348.000000	63.586211 
1347.000000	63.580870 
1346.000000	63.584899 
1345.000000	63.599276 
1344.000000	63.623356 
1343.000000	63.654875 
1342.000000	63.690733 
1341.000000	63.727116 
1340.000000	63.760447 
1339.000000	63.787555 
1338.000000	63.806247 
1337.000000	63.815402 
1336.000000	63.815164 
1335.000000	63.807106 
1334.000000	63.794088 
1333.000000	63.780117 
1332.000000	63.769578 
1331.000000	63.766765 
1330.000000	63.774728 
1329.000000	63.794875 
1328.000000	63.825869 
1327.000000	63.864350 
1326.000000	63.904547 
1325.000000	63.939929 
1324.000000	63.963937 
1323.000000	63.971471 
1322.000000	63.960170 
1321.000000	63.930487 
1320.000000	63.886094 
1319.000000	63.832855 
1318.000000	63.777804 
1317.000000	63.727998 
1316.000000	63.688826 
1315.000000	63.663363 
1314.000000	63.651990 
1313.000000	63.652753 
1312.000000	63.662195 
1311.000000	63.676261 
1310.000000	63.691163 
1309.000000	63.703989 
1308.000000	63.713407 
1307.000000	63.719153 
1306.000000	63.721776 
1305.000000	63.721823 
1304.000000	63.719677 
1303.000000	63.715076 
1302.000000	63.707304 
1301.000000	63.695168 
1300.000000	63.677358 
1299.000000	63.653016 
1298.000000	63.622188 
1297.000000	63.586258 
1296.000000	63.547635 
1295.000000	63.509988 
1294.000000	63.477134 
1293.000000	63.452863 
1292.000000	63.439893 
1291.000000	63.439464 
1290.000000	63.450932 
1289.000000	63.472151 
1288.000000	63.499617 
1287.000000	63.529419 
1286.000000	63.557887 
1285.000000	63.582205 
1284.000000	63.600420 
1283.000000	63.611865 
1282.000000	63.616824 
1281.000000	63.615965 
1280.000000	63.610124 
1279.000000	63.600063 
1278.000000	63.586401 
1277.000000	63.570284 
1276.000000	63.553309 
1275.000000	63.537812 
1274.000000	63.526391 
1273.000000	63.521599 
1272.000000	63.525295 
1271.000000	63.537955 
1270.000000	63.558673 
1269.000000	63.585352 
1268.000000	63.614964 
1267.000000	63.644266 
1266.000000	63.670301 
1265.000000	63.690757 
1264.000000	63.704609 
1263.000000	63.711786 
1262.000000	63.713192 
1261.000000	63.710069 
1260.000000	63.704013 
1259.000000	63.696622 
1258.000000	63.689184 
1257.000000	63.682556 
1256.000000	63.676929 
1255.000000	63.672018 
1254.000000	63.667082 
1253.000000	63.661074 
1252.000000	63.652729 
1251.000000	63.641214 
1250.000000	63.626480 
1249.000000	63.609290 
1248.000000	63.591408 
1247.000000	63.574719 
1246.000000	63.561034 
1245.000000	63.551115 
1244.000000	63.544559 
1243.000000	63.539767 
1242.000000	63.534283 
1241.000000	63.525867 
1240.000000	63.512992 
1239.000000	63.495802 
1238.000000	63.476133 
1237.000000	63.457298 
1236.000000	63.443279 
1235.000000	63.437676 
1234.000000	63.442802 
1233.000000	63.459038 
1232.000000	63.484573 
1231.000000	63.515806 
1230.000000	63.548302 
1229.000000	63.577842 
1228.000000	63.601255 
1227.000000	63.616704 
1226.000000	63.623642 
1225.000000	63.622736 
1224.000000	63.615274 
1223.000000	63.602733 
1222.000000	63.586473 
1221.000000	63.567662 
1220.000000	63.547110 
1219.000000	63.525819 
1218.000000	63.504838 
1217.000000	63.485550 
1216.000000	63.469576 
1215.000000	63.458561 
1214.000000	63.454103 
1213.000000	63.456988 
1212.000000	63.467431 
1211.000000	63.484644 
1210.000000	63.507032 
1209.000000	63.532257 
1208.000000	63.557958 
1207.000000	63.581991 
1206.000000	63.603091 
1205.000000	63.620805 
1204.000000	63.635897 
1203.000000	63.649773 
1202.000000	63.664150 
1201.000000	63.680195 
1200.000000	63.698053 
1199.000000	63.716363 
1198.000000	63.732314 
1197.000000	63.742184 
1196.000000	63.742589 
1195.000000	63.731455 
1194.000000	63.708686 
1193.000000	63.676524 
1192.000000	63.639545 
1191.000000	63.603568 
1190.000000	63.574481 
1189.000000	63.556766 
1188.000000	63.552308 
1187.000000	63.559961 
1186.000000	63.576102 
1185.000000	63.595247 
1184.000000	63.611650 
1183.000000	63.620519 
1182.000000	63.619351 
1181.000000	63.608360 
1180.000000	63.589930 
1179.000000	63.568162 
1178.000000	63.547372 
1177.000000	63.531565 
1176.000000	63.523268 
1175.000000	63.523268 
1174.000000	63.530397 
1173.000000	63.541793 
1172.000000	63.553452 
1171.000000	63.560891 
1170.000000	63.560009 
1169.000000	63.547801 
1168.000000	63.523125 
1167.000000	63.486886 
1166.000000	63.442111 
1165.000000	63.393282 
1164.000000	63.346028 
1163.000000	63.305974 
1162.000000	63.278126 
1161.000000	63.266086 
1160.000000	63.271522 
1159.000000	63.294196 
1158.000000	63.331604 
1157.000000	63.379049 
1156.000000	63.430619 
1155.000000	63.479852 
1154.000000	63.521170 
1153.000000	63.550639 
1152.000000	63.566637 
1151.000000	63.569855 
1150.000000	63.563036 
1149.000000	63.549876 
1148.000000	63.534379 
1147.000000	63.519906 
1146.000000	63.508844 
1145.000000	63.502383 
1144.000000	63.500905 
1143.000000	63.504123 
1142.000000	63.511061 
1141.000000	63.520503 
1140.000000	63.530945 
1139.000000	63.540887 
1138.000000	63.549184 
1137.000000	63.555407 
1136.000000	63.559556 
1135.000000	63.562440 
1134.000000	63.565230 
1133.000000	63.569331 
1132.000000	63.575935 
1131.000000	63.585686 
1130.000000	63.598608 
1129.000000	63.613867 
1128.000000	63.629937 
1127.000000	63.644671 
1126.000000	63.656067 
1125.000000	63.662266 
1124.000000	63.662099 
1123.000000	63.655161 
1122.000000	63.641810 
1121.000000	63.622951 
1120.000000	63.599705 
1119.000000	63.573694 
1118.000000	63.546776 
1117.000000	63.521742 
1116.000000	63.501596 
1115.000000	63.486671 
1114.000000	63.475275 
1113.000000	63.466691 
1112.000000	63.460087 
1111.000000	63.454079 
1110.000000	63.447332 
1109.000000	63.438296 
1108.000000	63.425660 
1107.000000	63.409972 
1106.000000	63.391613 
1105.000000	63.369321 
1104.000000	63.341784 
1103.000000	63.308238 
1102.000000	63.269591 
1101.000000	63.228726 
1100.000000	63.191103 
1099.000000	63.164901 
1098.000000	63.156390 
1097.000000	63.168811 
1096.000000	63.197112 
1095.000000	63.229036 
1094.000000	63.247251 
1093.000000	63.236141 
1092.000000	63.192820 
1091.000000	63.132834 
1090.000000	63.093113 
1089.000000	63.124251 
1088.000000	63.281393 
1087.000000	63.603019 
1086.000000	64.099812 
1085.000000	64.738607 
1084.000000	65.444731 
1083.000000	66.110515 
1082.000000	66.619157 
1081.000000	66.870236 
1080.000000	66.805958 
1079.000000	66.425466 
1078.000000	65.789055 
1077.000000	65.002632 
1076.000000	64.194393 
1075.000000	63.484930 
1074.000000	62.962937 
1073.000000	62.668585 
1072.000000	62.593626 
1071.000000	62.688684 
1070.000000	62.884974 
1069.000000	63.109946 
1068.000000	63.306879 
1067.000000	63.441538 
1066.000000	63.504886 
1065.000000	63.508486 
1064.000000	63.475799 
1063.000000	63.431501 
1062.000000	63.393807 
1061.000000	63.373112 
1060.000000	63.369584 
1059.000000	63.379621 
1058.000000	63.395309 
1057.000000	63.410186 
1056.000000	63.418459 
1055.000000	63.415527 
1054.000000	63.398981 
1053.000000	63.368320 
1052.000000	63.325595 
1051.000000	63.273477 
1050.000000	63.216686 
1049.000000	63.161730 
1048.000000	63.115167 
1047.000000	63.082361 
1046.000000	63.066577 
1045.000000	63.067507 
1044.000000	63.083553 
1043.000000	63.113093 
1042.000000	63.152050 
1041.000000	63.194036 
1040.000000	63.232731 
1039.000000	63.262891 
1038.000000	63.281655 
1037.000000	63.289022 
1036.000000	63.286995 
1035.000000	63.279151 
1034.000000	63.270330 
1033.000000	63.265299 
1032.000000	63.267660 
1031.000000	63.278985 
1030.000000	63.298583 
1029.000000	63.323616 
1028.000000	63.350272 
1027.000000	63.374471 
1026.000000	63.393378 
1025.000000	63.405489 
1024.000000	63.411068 
1023.000000	63.411784 
1022.000000	63.409638 
1021.000000	63.406801 
1020.000000	63.404941 
1019.000000	63.405203 
1018.000000	63.408064 
1017.000000	63.413548 
1016.000000	63.421845 
1015.000000	63.432383 
1014.000000	63.443875 
1013.000000	63.454127 
1012.000000	63.460445 
1011.000000	63.460135 
1010.000000	63.451147 
1009.000000	63.432860 
1008.000000	63.406252 
1007.000000	63.373970 
1006.000000	63.339614 
1005.000000	63.306617 
1004.000000	63.277673 
1003.000000	63.253593 
1002.000000	63.233923 
1001.000000	63.216757 
1000.000000	63.200402 
999.000000	 63.183927 
998.000000	 63.168287 
997.000000	 63.156008 
996.000000	 63.150882 
995.000000	 63.156509 
994.000000	 63.175177 
993.000000	 63.206434 
992.000000	 63.247179 
991.000000	 63.292002 
990.000000	 63.334751 
989.000000	 63.369846 
988.000000	 63.393783 
987.000000	 63.405990 
986.000000	 63.408660 
985.000000	 63.406085 
984.000000	 63.403034 
983.000000	 63.403630 
982.000000	 63.409996 
981.000000	 63.421726 
980.000000	 63.436603 
979.000000	 63.451027 
978.000000	 63.461756 
977.000000	 63.466358 
976.000000	 63.464069 
975.000000	 63.455653 
974.000000	 63.443160 
973.000000	 63.429284 
972.000000	 63.416028 
971.000000	 63.404846 
970.000000	 63.396263 
969.000000	 63.390183 
968.000000	 63.386297 
967.000000	 63.384437 
966.000000	 63.384938 
965.000000	 63.388276 
964.000000	 63.395047 
963.000000	 63.405227 
962.000000	 63.417983 
961.000000	 63.431835 
960.000000	 63.444662 
959.000000	 63.454151 
958.000000	 63.457989 
957.000000	 63.454437 
956.000000	 63.442683 
955.000000	 63.422679 
954.000000	 63.395452 
953.000000	 63.362956 
952.000000	 63.328194 
951.000000	 63.294816 
950.000000	 63.266706 
949.000000	 63.247680 
948.000000	 63.240671 
947.000000	 63.247084 
946.000000	 63.266277 
945.000000	 63.295698 
944.000000	 63.330936 
943.000000	 63.366556 
942.000000	 63.396906 
941.000000	 63.417506 
940.000000	 63.425660 
939.000000	 63.421154 
938.000000	 63.405704 
937.000000	 63.382101 
936.000000	 63.353657 
935.000000	 63.323307 
934.000000	 63.293004 
933.000000	 63.263678 
932.000000	 63.235616 
931.000000	 63.208889 
930.000000	 63.183641 
929.000000	 63.160419 
928.000000	 63.140034 
927.000000	 63.123416 
926.000000	 63.111209 
925.000000	 63.103532 
924.000000	 63.099765 
923.000000	 63.098526 
922.000000	 63.097953 
921.000000	 63.096261 
920.000000	 63.091993 
919.000000	 63.084912 
918.000000	 63.075208 
917.000000	 63.064432 
916.000000	 63.054585 
915.000000	 63.048529 
914.000000	 63.049364 
913.000000	 63.059902 
912.000000	 63.081860 
911.000000	 63.115739 
910.000000	 63.160610 
909.000000	 63.213682 
908.000000	 63.270664 
907.000000	 63.326740 
906.000000	 63.377356 
905.000000	 63.419032 
904.000000	 63.450050 
903.000000	 63.470363 
902.000000	 63.481354 
901.000000	 63.485574 
900.000000	 63.485813 
899.000000	 63.484334 
898.000000	 63.482189 
897.000000	 63.479948 
896.000000	 63.477587 
895.000000	 63.475441 
894.000000	 63.473963 
893.000000	 63.474655 
892.000000	 63.478827 
891.000000	 63.487672 
890.000000	 63.500833 
889.000000	 63.516473 
888.000000	 63.530874 
887.000000	 63.539338 
886.000000	 63.536834 
885.000000	 63.519477 
884.000000	 63.485288 
883.000000	 63.435006 
882.000000	 63.371872 
881.000000	 63.301181 
880.000000	 63.229584 
879.000000	 63.164138 
878.000000	 63.111209 
877.000000	 63.075566 
876.000000	 63.060760 
875.000000	 63.068580 
874.000000	 63.099026 
873.000000	 63.149976 
872.000000	 63.217186 
871.000000	 63.294553 
870.000000	 63.373994 
869.000000	 63.446927 
868.000000	 63.505005 
867.000000	 63.542056 
866.000000	 63.555073 
865.000000	 63.544654 
864.000000	 63.515043 
863.000000	 63.472890 
862.000000	 63.426661 
861.000000	 63.384389 
860.000000	 63.352560 
859.000000	 63.334751 
858.000000	 63.331961 
857.000000	 63.341975 
856.000000	 63.360595 
855.000000	 63.382315 
854.000000	 63.401842 
853.000000	 63.414764 
852.000000	 63.418364 
851.000000	 63.412070 
850.000000	 63.397192 
849.000000	 63.376522 
848.000000	 63.353610 
847.000000	 63.332343 
846.000000	 63.315963 
845.000000	 63.306713 
844.000000	 63.305211 
843.000000	 63.310527 
842.000000	 63.320755 
841.000000	 63.334131 
840.000000	 63.349485 
839.000000	 63.366246 
838.000000	 63.385009 
837.000000	 63.407397 
836.000000	 63.435244 
835.000000	 63.469433 
834.000000	 63.509273 
833.000000	 63.552474 
832.000000	 63.594913 
831.000000	 63.631725 
830.000000	 63.657855 
829.000000	 63.669514 
828.000000	 63.665080 
827.000000	 63.645958 
826.000000	 63.616228 
825.000000	 63.581919 
824.000000	 63.549971 
823.000000	 63.526582 
822.000000	 63.516283 
821.000000	 63.520669 
820.000000	 63.538527 
819.000000	 63.565635 
818.000000	 63.595962 
817.000000	 63.622641 
816.000000	 63.639235 
815.000000	 63.640809 
814.000000	 63.624811 
813.000000	 63.591265 
812.000000	 63.542532 
811.000000	 63.482856 
810.000000	 63.417673 
809.000000	 63.352465 
808.000000	 63.292264 
807.000000	 63.240766 
806.000000	 63.200187 
805.000000	 63.170862 
804.000000	 63.151669 
803.000000	 63.140320 
802.000000	 63.134074 
801.000000	 63.130140 
800.000000	 63.126039 
799.000000	 63.120293 
798.000000	 63.112211 
797.000000	 63.102030 
796.000000	 63.090276 
795.000000	 63.078308 
794.000000	 63.067507 
793.000000	 63.059043 
792.000000	 63.053202 
791.000000	 63.048934 
790.000000	 63.044118 
789.000000	 63.035869 
788.000000	 63.021636 
787.000000	 62.999963 
786.000000	 62.971258 
785.000000	 62.938165 
784.000000	 62.904810 
783.000000	 62.875795 
782.000000	 62.855172 
781.000000	 62.845134 
780.000000	 62.846231 
779.000000	 62.857270 
778.000000	 62.876176 
777.000000	 62.900876 
776.000000	 62.929558 
775.000000	 62.961149 
774.000000	 62.994575 
773.000000	 63.028526 
772.000000	 63.060164 
771.000000	 63.084959 
770.000000	 63.097167 
769.000000	 63.091111 
768.000000	 63.063097 
767.000000	 63.012742 
766.000000	 62.944030 
765.000000	 62.865114 
764.000000	 62.786722 
763.000000	 62.720227 
762.000000	 62.675070 
761.000000	 62.656903 
760.000000	 62.666893 
759.000000	 62.701249 
758.000000	 62.753391 
757.000000	 62.814140 
756.000000	 62.873649 
755.000000	 62.922883 
754.000000	 62.954616 
753.000000	 62.964630 
752.000000	 62.951183 
751.000000	 62.916183 
750.000000	 62.864136 
749.000000	 62.802195 
748.000000	 62.738847 
747.000000	 62.682938 
746.000000	 62.642288 
745.000000	 62.621998 
744.000000	 62.623786 
743.000000	 62.644815 
742.000000	 62.678551 
741.000000	 62.716221 
740.000000	 62.748980 
739.000000	 62.769174 
738.000000	 62.772440 
737.000000	 62.758612 
736.000000	 62.732005 
735.000000	 62.699294 
734.000000	 62.668991 
733.000000	 62.649559 
732.000000	 62.647938 
731.000000	 62.668251 
730.000000	 62.710881 
729.000000	 62.772846 
728.000000	 62.848281 
727.000000	 62.929344 
726.000000	 63.008022 
725.000000	 63.077640 
724.000000	 63.133358 
723.000000	 63.173031 
722.000000	 63.196468 
721.000000	 63.204932 
720.000000	 63.200354 
719.000000	 63.185405 
718.000000	 63.161587 
717.000000	 63.129091 
716.000000	 63.087463 
715.000000	 63.036394 
714.000000	 62.975049 
713.000000	 62.902808 
712.000000	 62.819743 
711.000000	 62.726521 
710.000000	 62.624025 
709.000000	 62.513566 
708.000000	 62.397122 
707.000000	 62.277650 
706.000000	 62.159037 
705.000000	 62.046504 
704.000000	 61.945700 
703.000000	 61.862182 
702.000000	 61.799168 
701.000000	 61.758375 
700.000000	 61.737394 
699.000000	 61.733412 
698.000000	 61.742568 
697.000000	 61.763501 
696.000000	 61.795449 
695.000000	 61.841607 
694.000000	 61.906933 
693.000000	 61.996793 
692.000000	 62.113928 
691.000000	 62.256717 
690.000000	 62.417697 
689.000000	 62.584638 
688.000000	 62.742519 
687.000000	 62.876820 
686.000000	 62.976789 
685.000000	 63.038396 
684.000000	 63.065171 
683.000000	 63.067078 
682.000000	 63.058018 
681.000000	 63.052678 
680.000000	 63.062834 
679.000000	 63.095998 
678.000000	 63.152599 
677.000000	 63.229084 
676.000000	 63.315868 
675.000000	 63.401150 
674.000000	 63.470983 
673.000000	 63.513016 
672.000000	 63.517618 
671.000000	 63.479614 
670.000000	 63.399934 
669.000000	 63.284730 
668.000000	 63.146924 
667.000000	 63.004255 
666.000000	 62.876915 
665.000000	 62.783765 
664.000000	 62.738680 
663.000000	 62.747931 
662.000000	 62.807941 
661.000000	 62.905907 
660.000000	 63.021826 
659.000000	 63.132762 
658.000000	 63.216638 
657.000000	 63.256764 
656.000000	 63.245415 
655.000000	 63.184881 
654.000000	 63.085484 
653.000000	 62.963342 
652.000000	 62.836241 
651.000000	 62.719798 
650.000000	 62.626218 
649.000000	 62.560343 
648.000000	 62.521624 
647.000000	 62.502241 
646.000000	 62.492609 
645.000000	 62.480211 
644.000000	 62.452507 
643.000000	 62.399578 
642.000000	 62.314820 
641.000000	 62.199497 
640.000000	 62.061524 
639.000000	 61.917281 
638.000000	 61.787867 
637.000000	 61.695408 
636.000000	 61.657595 
635.000000	 61.683630 
634.000000	 61.771631 
633.000000	 61.906623 
632.000000	 62.063789 
631.000000	 62.213134 
630.000000	 62.327289 
629.000000	 62.387943 
628.000000	 62.391090 
627.000000	 62.346315 
626.000000	 62.275552 
625.000000	 62.206530 
624.000000	 62.166762 
623.000000	 62.175679 
622.000000	 62.241268 
621.000000	 62.359714 
620.000000	 62.516450 
619.000000	 62.692594 
618.000000	 62.867212 
617.000000	 63.021707 
616.000000	 63.143801 
615.000000	 63.227820 
614.000000	 63.276553 
613.000000	 63.297867 
612.000000	 63.304877 
611.000000	 63.312053 
610.000000	 63.333129 
609.000000	 63.378095 
608.000000	 63.451170 
607.000000	 63.549757 
606.000000	 63.663434 
605.000000	 63.775706 
604.000000	 63.866496 
603.000000	 63.916420 
602.000000	 63.911080 
601.000000	 63.844251 
600.000000	 63.720011 
599.000000	 63.551235 
598.000000	 63.357234 
597.000000	 63.159704 
596.000000	 62.977552 
595.000000	 62.825226 
594.000000	 62.711262 
593.000000	 62.638783 
592.000000	 62.606811 
591.000000	 62.612056 
590.000000	 62.650370 
589.000000	 62.717390 
588.000000	 62.806940 
587.000000	 62.912654 
586.000000	 63.027167 
585.000000	 63.141369 
584.000000	 63.244152 
583.000000	 63.324046 
582.000000	 63.370871 
581.000000	 63.377404 
580.000000	 63.341021 
579.000000	 63.264513 
578.000000	 63.156175 
577.000000	 63.028955 
576.000000	 62.898612 
575.000000	 62.781953 
574.000000	 62.693548 
573.000000	 62.643909 
572.000000	 62.636947 
571.000000	 62.669587 
570.000000	 62.732124 
569.000000	 62.810134 
568.000000	 62.887549 
567.000000	 62.949514 
566.000000	 62.985467 
565.000000	 62.991070 
564.000000	 62.967705 
563.000000	 62.920093 
562.000000	 62.855553 
561.000000	 62.781262 
560.000000	 62.704324 
559.000000	 62.630867 
558.000000	 62.566280 
557.000000	 62.515544 
556.000000	 62.483334 
555.000000	 62.473797 
554.000000	 62.488818 
553.000000	 62.527060 
552.000000	 62.583541 
551.000000	 62.649989 
550.000000	 62.715506 
549.000000	 62.768673 
548.000000	 62.799549 
547.000000	 62.802052 
546.000000	 62.775802 
545.000000	 62.726140 
544.000000	 62.661790 
543.000000	 62.593746 
542.000000	 62.533283 
541.000000	 62.489223 
540.000000	 62.466716 
539.000000	 62.466311 
538.000000	 62.485504 
537.000000	 62.518239 
536.000000	 62.557053 
535.000000	 62.593626 
534.000000	 62.619996 
533.000000	 62.630200 
532.000000	 62.620997 
531.000000	 62.592315 
530.000000	 62.547254 
529.000000	 62.490510 
528.000000	 62.427234 
527.000000	 62.363338 
526.000000	 62.304663 
525.000000	 62.256789 
524.000000	 62.224864 
523.000000	 62.213206 
522.000000	 62.225008 
521.000000	 62.261915 
520.000000	 62.323784 
519.000000	 62.407469 
518.000000	 62.507724 
517.000000	 62.617421 
516.000000	 62.728953 
515.000000	 62.835264 
514.000000	 62.930512 
513.000000	 63.011312 
512.000000	 63.075327 
511.000000	 63.121986 
510.000000	 63.150095 
509.000000	 63.157749 
508.000000	 63.143038 
507.000000	 63.104271 
506.000000	 63.044118 
505.000000	 62.971115 
504.000000	 62.899518 
503.000000	 62.847852 
502.000000	 62.833738 
501.000000	 62.869715 
500.000000	 62.957954 
499.000000	 63.088893 
498.000000	 63.241648 
497.000000	 63.388490 
496.000000	 63.501214 
495.000000	 63.558268 
494.000000	 63.550066 
493.000000	 63.481402 
492.000000	 63.370513 
491.000000	 63.243842 
490.000000	 63.129138 
489.000000	 63.048386 
488.000000	 63.014006 
487.000000	 63.024973 
486.000000	 63.070988 
485.000000	 63.132548 
484.000000	 63.188910 
483.000000	 63.219904 
482.000000	 63.211131 
481.000000	 63.155698 
480.000000	 63.053154 
479.000000	 62.912034 
478.000000	 62.746524 
477.000000	 62.576365 
476.000000	 62.423181 
475.000000	 62.306618 
474.000000	 62.240719 
473.000000	 62.230467 
472.000000	 62.271261 
471.000000	 62.348651 
470.000000	 62.442541 
469.000000	 62.530374 
468.000000	 62.593841 
467.000000	 62.624239 
466.000000	 62.625288 
465.000000	 62.609505 
464.000000	 62.595415 
463.000000	 62.604403 
462.000000	 62.651634 
461.000000	 62.740516 
460.000000	 62.860083 
459.000000	 62.987613 
458.000000	 63.094449 
457.000000	 63.154125 
456.000000	 63.150525 
455.000000	 63.081502 
454.000000	 62.962484 
453.000000	 62.823724 
452.000000	 62.701344 
451.000000	 62.625741 
450.000000	 62.617206 
449.000000	 62.681508 
448.000000	 62.807035 
447.000000	 62.967729 
446.000000	 63.133049 
445.000000	 63.275504 
444.000000	 63.374185 
443.000000	 63.416409 
442.000000	 63.397192 
441.000000	 63.314676 
440.000000	 63.165712 
439.000000	 62.944173 
438.000000	 62.642025 
437.000000	 62.254095 
436.000000	 61.783623 
435.000000	 61.248517 
434.000000	 60.681962 
433.000000	 60.133242 
432.000000	 59.657573 
431.000000	 59.312295 
430.000000	 59.138178 
429.000000	 59.162592 
428.000000	 59.384059 
427.000000	 59.787464 
426.000000	 60.340189 
425.000000	 61.009049 
424.000000	 61.761093 
423.000000	 62.569403 
422.000000	 63.408493 
421.000000	 64.252376 
420.000000	 65.070366 
419.000000	 65.817642 
418.000000	 66.437005 
417.000000	 66.876506 
416.000000	 67.100095 
415.000000	 67.097735 
414.000000	 66.890001 
413.000000	 66.530823 
412.000000	 66.093325 
411.000000	 65.665268 
410.000000	 65.321969 
409.000000	 65.104246 
408.000000	 65.015149 
407.000000	 65.028786 
406.000000	 65.103268 
405.000000	 65.187692 
404.000000	 65.252971 
403.000000	 65.308022 
402.000000	 65.393185 
401.000000	 65.554404 
400.000000	 65.838027 
399.000000	 66.283178 
398.000000	 66.878867 
397.000000	 67.558884 
396.000000	 68.201899 
395.000000	 68.663525 
394.000000	 68.784189 
393.000000	 68.437361 
392.000000	 67.525529 
391.000000	 66.010165 
390.000000	 63.967871 
389.000000	 61.594223 
388.000000	 59.154915 
387.000000	 56.956815 
386.000000	 55.290389 
385.000000	 54.386615 
384.000000	 54.402971 
383.000000	 55.389833 
382.000000	 57.219004 
381.000000	 59.665131 
380.000000	 62.455749 
379.000000	 65.347123 
378.000000	 68.123435 
377.000000	 70.693397 
376.000000	 72.996187 
375.000000	 75.115752 
374.000000	 77.264332 
373.000000	 79.683947 
372.000000	 82.572484 
371.000000	 85.977077 
370.000000	 89.796876 

