PE IR       SPECTRUM    SPECTRUM    ASCII       PEDS        1.60        
  -1
BZ6133~1.ASC
17/04/07
15:37:34.00
17/04/07
15:37:34.00
tln
$BZ1503107-1_t0029$<tbV0>[-2.6,-7.8,8.0,0.0,27,1,0]
370.000000
64









2002,4.07    
MIRTGS : RIGHTBACK : INTERNAL 2
MIR : ON : INTERNAL 2
OPTKBR

0.200000
8
8.000000
FILLER
RATIO
SPECTRUM
UNLOCKED 256

DOUBLE
64
COMBINED
1
0
0


1.000000
RATIO


1
0
TRUE
51149
0
LEFT NOT FITTED RIGHT NOT FITTED 0
NONE
NONE
15600
12.000000
4.427000
51148
TRUE
1 0 8 72 0 0 0 0 

15798.010000






#HDR
-1
-1
#GR
CM-1
%T
0.00002384185791015625
0.0
5000.000000
-1.000000
4631
8
77.146792
49.019885
#DATA
5000.000000	65.952181 
4999.000000	65.882205 
4998.000000	65.783786 
4997.000000	65.667057 
4996.000000	65.538978 
4995.000000	65.405344 
4994.000000	65.268921 
4993.000000	65.132737 
4992.000000	64.999628 
4991.000000	64.874267 
4990.000000	64.762425 
4989.000000	64.670062 
4988.000000	64.602684 
4987.000000	64.563417 
4986.000000	64.552378 
4985.000000	64.566087 
4984.000000	64.598178 
4983.000000	64.640092 
4982.000000	64.682865 
4981.000000	64.718770 
4980.000000	64.742136 
4979.000000	64.750361 
4978.000000	64.743995 
4977.000000	64.726138 
4976.000000	64.701104 
4975.000000	64.673447 
4974.000000	64.646840 
4973.000000	64.623188 
4972.000000	64.603829 
4971.000000	64.588594 
4970.000000	64.577126 
4969.000000	64.567971 
4968.000000	64.559674 
4967.000000	64.550018 
4966.000000	64.536809 
4965.000000	64.517784 
4964.000000	64.490461 
4963.000000	64.453697 
4962.000000	64.408040 
4961.000000	64.356446 
4960.000000	64.303588 
4959.000000	64.256954 
4958.000000	64.225435 
4957.000000	64.218544 
4956.000000	64.244174 
4955.000000	64.307498 
4954.000000	64.409017 
4953.000000	64.543533 
4952.000000	64.700269 
4951.000000	64.863896 
4950.000000	65.017342 
4949.000000	65.144681 
4948.000000	65.234231 
4947.000000	65.280318 
4946.000000	65.284466 
4945.000000	65.254998 
4944.000000	65.204119 
4943.000000	65.146040 
4942.000000	65.092396 
4941.000000	65.051174 
4940.000000	65.024542 
4939.000000	65.010452 
4938.000000	65.003776 
4937.000000	64.999580 
4936.000000	64.994549 
4935.000000	64.988470 
4934.000000	64.984035 
4933.000000	64.985585 
4932.000000	64.997386 
4931.000000	65.021324 
4930.000000	65.057182 
4929.000000	65.101981 
4928.000000	65.151739 
4927.000000	65.201926 
4926.000000	65.248942 
4925.000000	65.289759 
4924.000000	65.322446 
4923.000000	65.344905 
4922.000000	65.354490 
4921.000000	65.347695 
4920.000000	65.320420 
4919.000000	65.269398 
4918.000000	65.194582 
4917.000000	65.099358 
4916.000000	64.991688 
4915.000000	64.882135 
4914.000000	64.782452 
4913.000000	64.702558 
4912.000000	64.648365 
4911.000000	64.620208 
4910.000000	64.612793 
4909.000000	64.617085 
4908.000000	64.622616 
4907.000000	64.620637 
4906.000000	64.606285 
4905.000000	64.579868 
4904.000000	64.546036 
4903.000000	64.512991 
4902.000000	64.489650 
4901.000000	64.483237 
4900.000000	64.497184 
4899.000000	64.530825 
4898.000000	64.579463 
4897.000000	64.635992 
4896.000000	64.692640 
4895.000000	64.742493 
4894.000000	64.781284 
4893.000000	64.807319 
4892.000000	64.822220 
4891.000000	64.829778 
4890.000000	64.835095 
4889.000000	64.843440 
4888.000000	64.858460 
4887.000000	64.881515 
4886.000000	64.910960 
4885.000000	64.943480 
4884.000000	64.973855 
4883.000000	64.996981 
4882.000000	65.008449 
4881.000000	65.006160 
4880.000000	64.990139 
4879.000000	64.962410 
4878.000000	64.926648 
4877.000000	64.887261 
4876.000000	64.848613 
4875.000000	64.814400 
4874.000000	64.787554 
4873.000000	64.770126 
4872.000000	64.763307 
4871.000000	64.767336 
4870.000000	64.781832 
4869.000000	64.805722 
4868.000000	64.836668 
4867.000000	64.871764 
4866.000000	64.907121 
4865.000000	64.939141 
4864.000000	64.965415 
4863.000000	64.984846 
4862.000000	64.998221 
4861.000000	65.007042 
4860.000000	65.013337 
4859.000000	65.017914 
4858.000000	65.020322 
4857.000000	65.017843 
4856.000000	65.006470 
4855.000000	64.982056 
4854.000000	64.941787 
4853.000000	64.885973 
4852.000000	64.818739 
4851.000000	64.747762 
4850.000000	64.682888 
4849.000000	64.634323 
4848.000000	64.610600 
4847.000000	64.616203 
4846.000000	64.650487 
4845.000000	64.708065 
4844.000000	64.779996 
4843.000000	64.855384 
4842.000000	64.924120 
4841.000000	64.978647 
4840.000000	65.015435 
4839.000000	65.034437 
4838.000000	65.039229 
4837.000000	65.035271 
4836.000000	65.028953 
4835.000000	65.026068 
4834.000000	65.030384 
4833.000000	65.044116 
4832.000000	65.066695 
4831.000000	65.096449 
4830.000000	65.129756 
4829.000000	65.162634 
4828.000000	65.190291 
4827.000000	65.208458 
4826.000000	65.213394 
4825.000000	65.202403 
4824.000000	65.174698 
4823.000000	65.131568 
4822.000000	65.075826 
4821.000000	65.011382 
4820.000000	64.942955 
4819.000000	64.875078 
4818.000000	64.810752 
4817.000000	64.751148 
4816.000000	64.695549 
4815.000000	64.642453 
4814.000000	64.590191 
4813.000000	64.538407 
4812.000000	64.488172 
4811.000000	64.442825 
4810.000000	64.407205 
4809.000000	64.386701 
4808.000000	64.385032 
4807.000000	64.403295 
4806.000000	64.438891 
4805.000000	64.485621 
4804.000000	64.534425 
4803.000000	64.575815 
4802.000000	64.601540 
4801.000000	64.607143 
4800.000000	64.592432 
4799.000000	64.562916 
4798.000000	64.527964 
4797.000000	64.499425 
4796.000000	64.488482 
4795.000000	64.503598 
4794.000000	64.548277 
4793.000000	64.620685 
4792.000000	64.713954 
4791.000000	64.816999 
4790.000000	64.916968 
4789.000000	65.001845 
4788.000000	65.063142 
4787.000000	65.096259 
4786.000000	65.101814 
4785.000000	65.085053 
4784.000000	65.054893 
4783.000000	65.021920 
4782.000000	64.995861 
4781.000000	64.984726 
4780.000000	64.991760 
4779.000000	65.016627 
4778.000000	65.053749 
4777.000000	65.094971 
4776.000000	65.129971 
4775.000000	65.149068 
4774.000000	65.144824 
4773.000000	65.113377 
4772.000000	65.056014 
4771.000000	64.978456 
4770.000000	64.890432 
4769.000000	64.803361 
4768.000000	64.729118 
4767.000000	64.677643 
4766.000000	64.655876 
4765.000000	64.666628 
4764.000000	64.709019 
4763.000000	64.778566 
4762.000000	64.868187 
4761.000000	64.968991 
4760.000000	65.071558 
4759.000000	65.166425 
4758.000000	65.244436 
4757.000000	65.297770 
4756.000000	65.321135 
4755.000000	65.312075 
4754.000000	65.271735 
4753.000000	65.204429 
4752.000000	65.117621 
4751.000000	65.020418 
4750.000000	64.923214 
4749.000000	64.835238 
4748.000000	64.763593 
4747.000000	64.712142 
4746.000000	64.681625 
4745.000000	64.669919 
4744.000000	64.673018 
4743.000000	64.686441 
4742.000000	64.706158 
4741.000000	64.729309 
4740.000000	64.754199 
4739.000000	64.780330 
4738.000000	64.807653 
4737.000000	64.835810 
4736.000000	64.863348 
4735.000000	64.887976 
4734.000000	64.906525 
4733.000000	64.915847 
4732.000000	64.913296 
4731.000000	64.897394 
4730.000000	64.868712 
4729.000000	64.830398 
4728.000000	64.787602 
4727.000000	64.746212 
4726.000000	64.712214 
4725.000000	64.690423 
4724.000000	64.683675 
4723.000000	64.692139 
4722.000000	64.713859 
4721.000000	64.744877 
4720.000000	64.781141 
4719.000000	64.819025 
4718.000000	64.856672 
4717.000000	64.893651 
4716.000000	64.931535 
4715.000000	64.972925 
4714.000000	65.020155 
4713.000000	65.074086 
4712.000000	65.133523 
4711.000000	65.194678 
4710.000000	65.252137 
4709.000000	65.299153 
4708.000000	65.329480 
4707.000000	65.338087 
4706.000000	65.322184 
4705.000000	65.281820 
4704.000000	65.220046 
4703.000000	65.142416 
4702.000000	65.056610 
4701.000000	64.970922 
4700.000000	64.893627 
4699.000000	64.831018 
4698.000000	64.787173 
4697.000000	64.763045 
4696.000000	64.756488 
4695.000000	64.763593 
4694.000000	64.779591 
4693.000000	64.800262 
4692.000000	64.822268 
4691.000000	64.844346 
4690.000000	64.866709 
4689.000000	64.890122 
4688.000000	64.914751 
4687.000000	64.939308 
4686.000000	64.960908 
4685.000000	64.975285 
4684.000000	64.977884 
4683.000000	64.965605 
4682.000000	64.938092 
4681.000000	64.898586 
4680.000000	64.853286 
4679.000000	64.810013 
4678.000000	64.776349 
4677.000000	64.757895 
4676.000000	64.756679 
4675.000000	64.771056 
4674.000000	64.795899 
4673.000000	64.824581 
4672.000000	64.850044 
4671.000000	64.866781 
4670.000000	64.871191 
4669.000000	64.862275 
4668.000000	64.841079 
4667.000000	64.809489 
4666.000000	64.770078 
4665.000000	64.725112 
4664.000000	64.677071 
4663.000000	64.628386 
4662.000000	64.581871 
4661.000000	64.540886 
4660.000000	64.508771 
4659.000000	64.488410 
4658.000000	64.481425 
4657.000000	64.488053 
4656.000000	64.507198 
4655.000000	64.537215 
4654.000000	64.576196 
4653.000000	64.622640 
4652.000000	64.675855 
4651.000000	64.735150 
4650.000000	64.799809 
4649.000000	64.867353 
4648.000000	64.933109 
4647.000000	64.990162 
4646.000000	65.030717 
4645.000000	65.047216 
4644.000000	65.034556 
4643.000000	64.991521 
4642.000000	64.922165 
4641.000000	64.835095 
4640.000000	64.742302 
4639.000000	64.656519 
4638.000000	64.588785 
4637.000000	64.546203 
4636.000000	64.530849 
4635.000000	64.539718 
4634.000000	64.566206 
4633.000000	64.601945 
4632.000000	64.638924 
4631.000000	64.671111 
4630.000000	64.695429 
4629.000000	64.711403 
4628.000000	64.721035 
4627.000000	64.727330 
4626.000000	64.733767 
4625.000000	64.743518 
4624.000000	64.759039 
4623.000000	64.782190 
4622.000000	64.813494 
4621.000000	64.852976 
4620.000000	64.898991 
4619.000000	64.948344 
4618.000000	64.996480 
4617.000000	65.038561 
4616.000000	65.070128 
4615.000000	65.087985 
4614.000000	65.091252 
4613.000000	65.081906 
4612.000000	65.064215 
4611.000000	65.044236 
4610.000000	65.027165 
4609.000000	65.016245 
4608.000000	65.011644 
4607.000000	65.011143 
4606.000000	65.010523 
4605.000000	65.005350 
4604.000000	64.993000 
4603.000000	64.973831 
4602.000000	64.951872 
4601.000000	64.933490 
4600.000000	64.925575 
4599.000000	64.932942 
4598.000000	64.956951 
4597.000000	64.993762 
4596.000000	65.035319 
4595.000000	65.070462 
4594.000000	65.087842 
4593.000000	65.078496 
4592.000000	65.038156 
4591.000000	64.968919 
4590.000000	64.878010 
4589.000000	64.777851 
4588.000000	64.682149 
4587.000000	64.604711 
4586.000000	64.556789 
4585.000000	64.545607 
4584.000000	64.573192 
4583.000000	64.636445 
4582.000000	64.727807 
4581.000000	64.836215 
4580.000000	64.949059 
4579.000000	65.053510 
4578.000000	65.138435 
4577.000000	65.196037 
4576.000000	65.222573 
4575.000000	65.218830 
4574.000000	65.189433 
4573.000000	65.142416 
4572.000000	65.087056 
4571.000000	65.032839 
4570.000000	64.986944 
4569.000000	64.954233 
4568.000000	64.936256 
4567.000000	64.931797 
4566.000000	64.937615 
4565.000000	64.949846 
4564.000000	64.964866 
4563.000000	64.979839 
4562.000000	64.993596 
4561.000000	65.005493 
4560.000000	65.016078 
4559.000000	65.025877 
4558.000000	65.035581 
4557.000000	65.045332 
4556.000000	65.055012 
4555.000000	65.064144 
4554.000000	65.072441 
4553.000000	65.079760 
4552.000000	65.086412 
4551.000000	65.093231 
4550.000000	65.100932 
4549.000000	65.109944 
4548.000000	65.120387 
4547.000000	65.131711 
4546.000000	65.142893 
4545.000000	65.152287 
4544.000000	65.158104 
4543.000000	65.158867 
4542.000000	65.154051 
4541.000000	65.144276 
4540.000000	65.131068 
4539.000000	65.116786 
4538.000000	65.104603 
4537.000000	65.097403 
4536.000000	65.097069 
4535.000000	65.103769 
4534.000000	65.115618 
4533.000000	65.128946 
4532.000000	65.139317 
4531.000000	65.141868 
4530.000000	65.132451 
4529.000000	65.108752 
4528.000000	65.071034 
4527.000000	65.022182 
4526.000000	64.966940 
4525.000000	64.911913 
4524.000000	64.864206 
4523.000000	64.830350 
4522.000000	64.815258 
4521.000000	64.821243 
4520.000000	64.848208 
4519.000000	64.893913 
4518.000000	64.954733 
4517.000000	65.026378 
4516.000000	65.104913 
4515.000000	65.186929 
4514.000000	65.269589 
4513.000000	65.350341 
4512.000000	65.425682 
4511.000000	65.491867 
4510.000000	65.543532 
4509.000000	65.575599 
4508.000000	65.582680 
4507.000000	65.561532 
4506.000000	65.510797 
4505.000000	65.433192 
4504.000000	65.333962 
4503.000000	65.221142 
4502.000000	65.103721 
4501.000000	64.990806 
4500.000000	64.890241 
4499.000000	64.807796 
4498.000000	64.747834 
4497.000000	64.713335 
4496.000000	64.706349 
4495.000000	64.727830 
4494.000000	64.777231 
4493.000000	64.852142 
4492.000000	64.947557 
4491.000000	65.056443 
4490.000000	65.169930 
4489.000000	65.278434 
4488.000000	65.373826 
4487.000000	65.449595 
4486.000000	65.502214 
4485.000000	65.530061 
4484.000000	65.533995 
4483.000000	65.515017 
4482.000000	65.474915 
4481.000000	65.414214 
4480.000000	65.333938 
4479.000000	65.234708 
4478.000000	65.118455 
4477.000000	64.988589 
4476.000000	64.851403 
4475.000000	64.715027 
4474.000000	64.588761 
4473.000000	64.481711 
4472.000000	64.401316 
4471.000000	64.351105 
4470.000000	64.329886 
4469.000000	64.334011 
4468.000000	64.358687 
4467.000000	64.398550 
4466.000000	64.449572 
4465.000000	64.509916 
4464.000000	64.580488 
4463.000000	64.662289 
4462.000000	64.755940 
4461.000000	64.861655 
4460.000000	64.976549 
4459.000000	65.091967 
4458.000000	65.196871 
4457.000000	65.276789 
4456.000000	65.321135 
4455.000000	65.335631 
4454.000000	65.330648 
4453.000000	65.311670 
4452.000000	65.285229 
4451.000000	65.261602 
4450.000000	65.246725 
4449.000000	65.240502 
4448.000000	65.240502 
4447.000000	65.241074 
4446.000000	65.245652 
4445.000000	65.268516 
4444.000000	65.330791 
4443.000000	65.453672 
4442.000000	65.653991 
4441.000000	65.937995 
4440.000000	66.281557 
4439.000000	66.642570 
4438.000000	66.970419 
4437.000000	67.229294 
4436.000000	67.428660 
4435.000000	67.608118 
4434.000000	67.857432 
4433.000000	68.238401 
4432.000000	68.771719 
4431.000000	69.370126 
4430.000000	69.855785 
4429.000000	69.970607 
4428.000000	69.439506 
4427.000000	68.053865 
4426.000000	65.738081 
4425.000000	62.613892 
4424.000000	58.992695 
4423.000000	55.339860 
4422.000000	52.172231 
4421.000000	49.960851 
4420.000000	49.019885 
4419.000000	49.449539 
4418.000000	51.112604 
4417.000000	53.695130 
4416.000000	56.782150 
4415.000000	59.951734 
4414.000000	62.857341 
4413.000000	65.262126 
4412.000000	67.063856 
4411.000000	68.252301 
4410.000000	68.894600 
4409.000000	69.100308 
4408.000000	68.988275 
4407.000000	68.691492 
4406.000000	68.310618 
4405.000000	67.935562 
4404.000000	67.607736 
4403.000000	67.353701 
4402.000000	67.163228 
4401.000000	67.018055 
4400.000000	66.888165 
4399.000000	66.753315 
4398.000000	66.599297 
4397.000000	66.418790 
4396.000000	66.215014 
4395.000000	65.996170 
4394.000000	65.776634 
4393.000000	65.568780 
4392.000000	65.389370 
4391.000000	65.257477 
4390.000000	65.183258 
4389.000000	65.165114 
4388.000000	65.195703 
4387.000000	65.262746 
4386.000000	65.353107 
4385.000000	65.454864 
4384.000000	65.549635 
4383.000000	65.618085 
4382.000000	65.652418 
4381.000000	65.653467 
4380.000000	65.620946 
4379.000000	65.558028 
4378.000000	65.474462 
4377.000000	65.381979 
4376.000000	65.293765 
4375.000000	65.219807 
4374.000000	65.165400 
4373.000000	65.130114 
4372.000000	65.110278 
4371.000000	65.098714 
4370.000000	65.086674 
4369.000000	65.067696 
4368.000000	65.039563 
4367.000000	65.004324 
4366.000000	64.966797 
4365.000000	64.933848 
4364.000000	64.911675 
4363.000000	64.903998 
4362.000000	64.910554 
4361.000000	64.928054 
4360.000000	64.950776 
4359.000000	64.971971 
4358.000000	64.985227 
4357.000000	64.986348 
4356.000000	64.973568 
4355.000000	64.947605 
4354.000000	64.911055 
4353.000000	64.866995 
4352.000000	64.818811 
4351.000000	64.769601 
4350.000000	64.722156 
4349.000000	64.679169 
4348.000000	64.643239 
4347.000000	64.616370 
4346.000000	64.600539 
4345.000000	64.597296 
4344.000000	64.607644 
4343.000000	64.631271 
4342.000000	64.666843 
4341.000000	64.712047 
4340.000000	64.763236 
4339.000000	64.815521 
4338.000000	64.863300 
4337.000000	64.901041 
4336.000000	64.923548 
4335.000000	64.927077 
4334.000000	64.910268 
4333.000000	64.874577 
4332.000000	64.824461 
4331.000000	64.766502 
4330.000000	64.708971 
4329.000000	64.659881 
4328.000000	64.625549 
4327.000000	64.609456 
4326.000000	64.611721 
4325.000000	64.629650 
4324.000000	64.659237 
4323.000000	64.696455 
4322.000000	64.738035 
4321.000000	64.782309 
4320.000000	64.828348 
4319.000000	64.875721 
4318.000000	64.923262 
4317.000000	64.969158 
4316.000000	65.010476 
4315.000000	65.044164 
4314.000000	65.067911 
4313.000000	65.080952 
4312.000000	65.084600 
4311.000000	65.081906 
4310.000000	65.077257 
4309.000000	65.075016 
4308.000000	65.078616 
4307.000000	65.089488 
4306.000000	65.106701 
4305.000000	65.127897 
4304.000000	65.149545 
4303.000000	65.168666 
4302.000000	65.182900 
4301.000000	65.191149 
4300.000000	65.193200 
4299.000000	65.189528 
4298.000000	65.180969 
4297.000000	65.167951 
4296.000000	65.151023 
4295.000000	65.130805 
4294.000000	65.107965 
4293.000000	65.083861 
4292.000000	65.060210 
4291.000000	65.038824 
4290.000000	65.021467 
4289.000000	65.009593 
4288.000000	65.003609 
4287.000000	65.002489 
4286.000000	65.004086 
4285.000000	65.005373 
4284.000000	65.003108 
4283.000000	64.994430 
4282.000000	64.977979 
4281.000000	64.954328 
4280.000000	64.926099 
4279.000000	64.897394 
4278.000000	64.873242 
4277.000000	64.858293 
4276.000000	64.855933 
4275.000000	64.867329 
4274.000000	64.890980 
4273.000000	64.923095 
4272.000000	64.958310 
4271.000000	64.990925 
4270.000000	65.016078 
4269.000000	65.030884 
4268.000000	65.034747 
4267.000000	65.029096 
4266.000000	65.016436 
4265.000000	64.999675 
4264.000000	64.981269 
4263.000000	64.962530 
4262.000000	64.943718 
4261.000000	64.924097 
4260.000000	64.903259 
4259.000000	64.880895 
4258.000000	64.857530 
4257.000000	64.834427 
4256.000000	64.813327 
4255.000000	64.795851 
4254.000000	64.783096 
4253.000000	64.775300 
4252.000000	64.771914 
4251.000000	64.771914 
4250.000000	64.774417 
4249.000000	64.778876 
4248.000000	64.785647 
4247.000000	64.795351 
4246.000000	64.809131 
4245.000000	64.827632 
4244.000000	64.851236 
4243.000000	64.879417 
4242.000000	64.910817 
4241.000000	64.943718 
4240.000000	64.975976 
4239.000000	65.005707 
4238.000000	65.031194 
4237.000000	65.051317 
4236.000000	65.065598 
4235.000000	65.074133 
4234.000000	65.077710 
4233.000000	65.077543 
4232.000000	65.074944 
4231.000000	65.071058 
4230.000000	65.066838 
4229.000000	65.062999 
4228.000000	65.059971 
4227.000000	65.057802 
4226.000000	65.056443 
4225.000000	65.055799 
4224.000000	65.055727 
4223.000000	65.056204 
4222.000000	65.057110 
4221.000000	65.058469 
4220.000000	65.060329 
4219.000000	65.062904 
4218.000000	65.066218 
4217.000000	65.070414 
4216.000000	65.075683 
4215.000000	65.082144 
4214.000000	65.089511 
4213.000000	65.097284 
4212.000000	65.104866 
4211.000000	65.111327 
4210.000000	65.115571 
4209.000000	65.116763 
4208.000000	65.114736 
4207.000000	65.109968 
4206.000000	65.103411 
4205.000000	65.096545 
4204.000000	65.090847 
4203.000000	65.087509 
4202.000000	65.087175 
4201.000000	65.089654 
4200.000000	65.093827 
4199.000000	65.098190 
4198.000000	65.101146 
4197.000000	65.101313 
4196.000000	65.097784 
4195.000000	65.090274 
4194.000000	65.079259 
4193.000000	65.065836 
4192.000000	65.051317 
4191.000000	65.037012 
4190.000000	65.023684 
4189.000000	65.011596 
4188.000000	65.000128 
4187.000000	64.988374 
4186.000000	64.975047 
4185.000000	64.958786 
4184.000000	64.938902 
4183.000000	64.915037 
4182.000000	64.888119 
4181.000000	64.859867 
4180.000000	64.833378 
4179.000000	64.811897 
4178.000000	64.799118 
4177.000000	64.798188 
4176.000000	64.811539 
4175.000000	64.840292 
4174.000000	64.884066 
4173.000000	64.940643 
4172.000000	65.006065 
4171.000000	65.074920 
4170.000000	65.140318 
4169.000000	65.194797 
4168.000000	65.231394 
4167.000000	65.245103 
4166.000000	65.233755 
4165.000000	65.198969 
4164.000000	65.146374 
4163.000000	65.084290 
4162.000000	65.022778 
4161.000000	64.970731 
4160.000000	64.934992 
4159.000000	64.918112 
4158.000000	64.918518 
4157.000000	64.931058 
4156.000000	64.948487 
4155.000000	64.964056 
4154.000000	64.973211 
4153.000000	64.975047 
4152.000000	64.972043 
4151.000000	64.969229 
4150.000000	64.972186 
4149.000000	64.985346 
4148.000000	65.010285 
4147.000000	65.045404 
4146.000000	65.086483 
4145.000000	65.127944 
4144.000000	65.164422 
4143.000000	65.192270 
4142.000000	65.210223 
4141.000000	65.219116 
4140.000000	65.221261 
4139.000000	65.219497 
4138.000000	65.216159 
4137.000000	65.212297 
4136.000000	65.207386 
4135.000000	65.200424 
4134.000000	65.189957 
4133.000000	65.175604 
4132.000000	65.157580 
4131.000000	65.136766 
4130.000000	65.114378 
4129.000000	65.091562 
4128.000000	65.069293 
4127.000000	65.047788 
4126.000000	65.027260 
4125.000000	65.008091 
4124.000000	64.991164 
4123.000000	64.977955 
4122.000000	64.970064 
4121.000000	64.968657 
4120.000000	64.974141 
4119.000000	64.985680 
4118.000000	65.000915 
4117.000000	65.016222 
4116.000000	65.027451 
4115.000000	65.031123 
4114.000000	65.024757 
4113.000000	65.007805 
4112.000000	64.981937 
4111.000000	64.950966 
4110.000000	64.919519 
4109.000000	64.892625 
4108.000000	64.874243 
4107.000000	64.866948 
4106.000000	64.871358 
4105.000000	64.886355 
4104.000000	64.909267 
4103.000000	64.936566 
4102.000000	64.964842 
4101.000000	64.991331 
4100.000000	65.014219 
4099.000000	65.032839 
4098.000000	65.047287 
4097.000000	65.057897 
4096.000000	65.064644 
4095.000000	65.066909 
4094.000000	65.063714 
4093.000000	65.053391 
4092.000000	65.034222 
4091.000000	65.005111 
4090.000000	64.966034 
4089.000000	64.918160 
4088.000000	64.863777 
4087.000000	64.806270 
4086.000000	64.749622 
4085.000000	64.697933 
4084.000000	64.655160 
4083.000000	64.624238 
4082.000000	64.607286 
4081.000000	64.605021 
4080.000000	64.617276 
4079.000000	64.642262 
4078.000000	64.677309 
4077.000000	64.718794 
4076.000000	64.762973 
4075.000000	64.805674 
4074.000000	64.843869 
4073.000000	64.875221 
4072.000000	64.899063 
4071.000000	64.915871 
4070.000000	64.927220 
4069.000000	64.935493 
4068.000000	64.943027 
4067.000000	64.951682 
4066.000000	64.962506 
4065.000000	64.975643 
4064.000000	64.990615 
4063.000000	65.006446 
4062.000000	65.022110 
4061.000000	65.036749 
4060.000000	65.049910 
4059.000000	65.061426 
4058.000000	65.071296 
4057.000000	65.079259 
4056.000000	65.085124 
4055.000000	65.088319 
4054.000000	65.088057 
4053.000000	65.083551 
4052.000000	65.074491 
4051.000000	65.061235 
4050.000000	65.044808 
4049.000000	65.026926 
4048.000000	65.009641 
4047.000000	64.994812 
4046.000000	64.984154 
4045.000000	64.978480 
4044.000000	64.977526 
4043.000000	64.979982 
4042.000000	64.984107 
4041.000000	64.987969 
4040.000000	64.989852 
4039.000000	64.988803 
4038.000000	64.984703 
4037.000000	64.978480 
4036.000000	64.971685 
4035.000000	64.965987 
4034.000000	64.962816 
4033.000000	64.963054 
4032.000000	64.966797 
4031.000000	64.973592 
4030.000000	64.982581 
4029.000000	64.992856 
4028.000000	65.003395 
4027.000000	65.013504 
4026.000000	65.022253 
4025.000000	65.028762 
4024.000000	65.031862 
4023.000000	65.029859 
4022.000000	65.021085 
4021.000000	65.004062 
4020.000000	64.978194 
4019.000000	64.944028 
4018.000000	64.903712 
4017.000000	64.860892 
4016.000000	64.820480 
4015.000000	64.787721 
4014.000000	64.767456 
4013.000000	64.763283 
4012.000000	64.776873 
4011.000000	64.807796 
4010.000000	64.853405 
4009.000000	64.909076 
4008.000000	64.969110 
4007.000000	65.027308 
4006.000000	65.077829 
4005.000000	65.116143 
4004.000000	65.139365 
4003.000000	65.147089 
4002.000000	65.140938 
4001.000000	65.124487 
4000.000000	65.102529 
3999.000000	65.080118 
3998.000000	65.062093 
3997.000000	65.051674 
3996.000000	65.050482 
3995.000000	65.058135 
3994.000000	65.072607 
3993.000000	65.090870 
3992.000000	65.109944 
3991.000000	65.127301 
3990.000000	65.141439 
3989.000000	65.151906 
3988.000000	65.158939 
3987.000000	65.163159 
3986.000000	65.165042 
3985.000000	65.164637 
3984.000000	65.161347 
3983.000000	65.154552 
3982.000000	65.143823 
3981.000000	65.129041 
3980.000000	65.110683 
3979.000000	65.089941 
3978.000000	65.068459 
3977.000000	65.048003 
3976.000000	65.030264 
3975.000000	65.016126 
3974.000000	65.005922 
3973.000000	64.999485 
3972.000000	64.996123 
3971.000000	64.994883 
3970.000000	64.994716 
3969.000000	64.994430 
3968.000000	64.993166 
3967.000000	64.989948 
3966.000000	64.984226 
3965.000000	64.975714 
3964.000000	64.964795 
3963.000000	64.952349 
3962.000000	64.939641 
3961.000000	64.928150 
3960.000000	64.919281 
3959.000000	64.914298 
3958.000000	64.914107 
3957.000000	64.919114 
3956.000000	64.929485 
3955.000000	64.944982 
3954.000000	64.964866 
3953.000000	64.987921 
3952.000000	65.012550 
3951.000000	65.036821 
3950.000000	65.058708 
3949.000000	65.076184 
3948.000000	65.087699 
3947.000000	65.092182 
3946.000000	65.089130 
3945.000000	65.078520 
3944.000000	65.061354 
3943.000000	65.039086 
3942.000000	65.013313 
3941.000000	64.985775 
3940.000000	64.958429 
3939.000000	64.933395 
3938.000000	64.912772 
3937.000000	64.898896 
3936.000000	64.893865 
3935.000000	64.899539 
3934.000000	64.917039 
3933.000000	64.946627 
3932.000000	64.987397 
3931.000000	65.037441 
3930.000000	65.093922 
3929.000000	65.153145 
3928.000000	65.210962 
3927.000000	65.263080 
3926.000000	65.305590 
3925.000000	65.335178 
3924.000000	65.349578 
3923.000000	65.348410 
3922.000000	65.333366 
3921.000000	65.308094 
3920.000000	65.278029 
3919.000000	65.250110 
3918.000000	65.231108 
3917.000000	65.226817 
3916.000000	65.240263 
3915.000000	65.271282 
3914.000000	65.316081 
3913.000000	65.368032 
3912.000000	65.419220 
3911.000000	65.462112 
3910.000000	65.491271 
3909.000000	65.504550 
3908.000000	65.502905 
3907.000000	65.490007 
3906.000000	65.470552 
3905.000000	65.448856 
3904.000000	65.427446 
3903.000000	65.406632 
3902.000000	65.384483 
3901.000000	65.357995 
3900.000000	65.324568 
3899.000000	65.282917 
3898.000000	65.233969 
3897.000000	65.180492 
3896.000000	65.127086 
3895.000000	65.078830 
3894.000000	65.039682 
3893.000000	65.012168 
3892.000000	64.996957 
3891.000000	64.993166 
3890.000000	64.998722 
3889.000000	65.011215 
3888.000000	65.028262 
3887.000000	65.047860 
3886.000000	65.068244 
3885.000000	65.088152 
3884.000000	65.106177 
3883.000000	65.121340 
3882.000000	65.132474 
3881.000000	65.139174 
3880.000000	65.141630 
3879.000000	65.140938 
3878.000000	65.138888 
3877.000000	65.137457 
3876.000000	65.138649 
3875.000000	65.143728 
3874.000000	65.152907 
3873.000000	65.165066 
3872.000000	65.177893 
3871.000000	65.188837 
3870.000000	65.195584 
3869.000000	65.196609 
3868.000000	65.191888 
3867.000000	65.182638 
3866.000000	65.171170 
3865.000000	65.160274 
3864.000000	65.152549 
3863.000000	65.149927 
3862.000000	65.153169 
3861.000000	65.161728 
3860.000000	65.174198 
3859.000000	65.188670 
3858.000000	65.203428 
3857.000000	65.217137 
3856.000000	65.229105 
3855.000000	65.239000 
3854.000000	65.247130 
3853.000000	65.253877 
3852.000000	65.259695 
3851.000000	65.264773 
3850.000000	65.269422 
3849.000000	65.274000 
3848.000000	65.278959 
3847.000000	65.284848 
3846.000000	65.291857 
3845.000000	65.299677 
3844.000000	65.307140 
3843.000000	65.312266 
3842.000000	65.312409 
3841.000000	65.304994 
3840.000000	65.288114 
3839.000000	65.261363 
3838.000000	65.226244 
3837.000000	65.186381 
3836.000000	65.146994 
3835.000000	65.113759 
3834.000000	65.091490 
3833.000000	65.082955 
3832.000000	65.088486 
3831.000000	65.105438 
3830.000000	65.128588 
3829.000000	65.151476 
3828.000000	65.168023 
3827.000000	65.173912 
3826.000000	65.167522 
3825.000000	65.150260 
3824.000000	65.125894 
3823.000000	65.099787 
3822.000000	65.077447 
3821.000000	65.062999 
3820.000000	65.058016 
3819.000000	65.061473 
3818.000000	65.069961 
3817.000000	65.078616 
3816.000000	65.082669 
3815.000000	65.078544 
3814.000000	65.065288 
3813.000000	65.044403 
3812.000000	65.020227 
3811.000000	64.998364 
3810.000000	64.985060 
3809.000000	64.985489 
3808.000000	65.003085 
3807.000000	65.038895 
3806.000000	65.091323 
3805.000000	65.156817 
3804.000000	65.229988 
3803.000000	65.304493 
3802.000000	65.373563 
3801.000000	65.431237 
3800.000000	65.472412 
3799.000000	65.493583 
3798.000000	65.493083 
3797.000000	65.471220 
3796.000000	65.430092 
3795.000000	65.373277 
3794.000000	65.305447 
3793.000000	65.231800 
3792.000000	65.157437 
3791.000000	65.087127 
3790.000000	65.024662 
3789.000000	64.973211 
3788.000000	64.935111 
3787.000000	64.912104 
3786.000000	64.904904 
3785.000000	64.913511 
3784.000000	64.936709 
3783.000000	64.972615 
3782.000000	65.017461 
3781.000000	65.067124 
3780.000000	65.116786 
3779.000000	65.162420 
3778.000000	65.200448 
3777.000000	65.229296 
3776.000000	65.248942 
3775.000000	65.261125 
3774.000000	65.268659 
3773.000000	65.274810 
3772.000000	65.282630 
3771.000000	65.293979 
3770.000000	65.309214 
3769.000000	65.327143 
3768.000000	65.345335 
3767.000000	65.360498 
3766.000000	65.369462 
3765.000000	65.369486 
3764.000000	65.358972 
3763.000000	65.337800 
3762.000000	65.307450 
3761.000000	65.270495 
3760.000000	65.230274 
3759.000000	65.190577 
3758.000000	65.154814 
3757.000000	65.125274 
3756.000000	65.103006 
3755.000000	65.087652 
3754.000000	65.078020 
3753.000000	65.072059 
3752.000000	65.068006 
3751.000000	65.064263 
3750.000000	65.060353 
3749.000000	65.056610 
3748.000000	65.054154 
3747.000000	65.054130 
3746.000000	65.057706 
3745.000000	65.065336 
3744.000000	65.076613 
3743.000000	65.090394 
3742.000000	65.105009 
3741.000000	65.118598 
3740.000000	65.129756 
3739.000000	65.137720 
3738.000000	65.142488 
3737.000000	65.144610 
3736.000000	65.144968 
3735.000000	65.144777 
3734.000000	65.145134 
3733.000000	65.147161 
3732.000000	65.151643 
3731.000000	65.158939 
3730.000000	65.169000 
3729.000000	65.181541 
3728.000000	65.195941 
3727.000000	65.211653 
3726.000000	65.228104 
3725.000000	65.244960 
3724.000000	65.262365 
3723.000000	65.280556 
3722.000000	65.299797 
3721.000000	65.320229 
3720.000000	65.341591 
3719.000000	65.363216 
3718.000000	65.384078 
3717.000000	65.403127 
3716.000000	65.419411 
3715.000000	65.432357 
3714.000000	65.441966 
3713.000000	65.448546 
3712.000000	65.452551 
3711.000000	65.454077 
3710.000000	65.452456 
3709.000000	65.446400 
3708.000000	65.434002 
3707.000000	65.413594 
3706.000000	65.384268 
3705.000000	65.346574 
3704.000000	65.302681 
3703.000000	65.256142 
3702.000000	65.211224 
3701.000000	65.172052 
3700.000000	65.141868 
3699.000000	65.122127 
3698.000000	65.112423 
3697.000000	65.110588 
3696.000000	65.113329 
3695.000000	65.117073 
3694.000000	65.118718 
3693.000000	65.116238 
3692.000000	65.109205 
3691.000000	65.098619 
3690.000000	65.086555 
3689.000000	65.075278 
3688.000000	65.066742 
3687.000000	65.062069 
3686.000000	65.061497 
3685.000000	65.064263 
3684.000000	65.069055 
3683.000000	65.074682 
3682.000000	65.080189 
3681.000000	65.085268 
3680.000000	65.090107 
3679.000000	65.095400 
3678.000000	65.101885 
3677.000000	65.110349 
3676.000000	65.121197 
3675.000000	65.134501 
3674.000000	65.150189 
3673.000000	65.167975 
3672.000000	65.187621 
3671.000000	65.208601 
3670.000000	65.230441 
3669.000000	65.252137 
3668.000000	65.272378 
3667.000000	65.289306 
3666.000000	65.301108 
3665.000000	65.306401 
3664.000000	65.304923 
3663.000000	65.297698 
3662.000000	65.287137 
3661.000000	65.276479 
3660.000000	65.269112 
3659.000000	65.267777 
3658.000000	65.273833 
3657.000000	65.286993 
3656.000000	65.305233 
3655.000000	65.325427 
3654.000000	65.344166 
3653.000000	65.358614 
3652.000000	65.366864 
3651.000000	65.368556 
3650.000000	65.364503 
3649.000000	65.356421 
3648.000000	65.346145 
3647.000000	65.335130 
3646.000000	65.323972 
3645.000000	65.312314 
3644.000000	65.298962 
3643.000000	65.282630 
3642.000000	65.262079 
3641.000000	65.236878 
3640.000000	65.207576 
3639.000000	65.175747 
3638.000000	65.143918 
3637.000000	65.114974 
3636.000000	65.091943 
3635.000000	65.077114 
3634.000000	65.071845 
3633.000000	65.076351 
3632.000000	65.089488 
3631.000000	65.109014 
3630.000000	65.132045 
3629.000000	65.155625 
3628.000000	65.176963 
3627.000000	65.194082 
3626.000000	65.205931 
3625.000000	65.212440 
3624.000000	65.214419 
3623.000000	65.213203 
3622.000000	65.210390 
3621.000000	65.207505 
3620.000000	65.205717 
3619.000000	65.205717 
3618.000000	65.207934 
3617.000000	65.212321 
3616.000000	65.218853 
3615.000000	65.227460 
3614.000000	65.238213 
3613.000000	65.251111 
3612.000000	65.265965 
3611.000000	65.282320 
3610.000000	65.299320 
3609.000000	65.315580 
3608.000000	65.329408 
3607.000000	65.338969 
3606.000000	65.342473 
3605.000000	65.338802 
3604.000000	65.327644 
3603.000000	65.309524 
3602.000000	65.285992 
3601.000000	65.259170 
3600.000000	65.231633 
3599.000000	65.206003 
3598.000000	65.184688 
3597.000000	65.169477 
3596.000000	65.161418 
3595.000000	65.160918 
3594.000000	65.167498 
3593.000000	65.179944 
3592.000000	65.196108 
3591.000000	65.213274 
3590.000000	65.228128 
3589.000000	65.237402 
3588.000000	65.238094 
3587.000000	65.228033 
3586.000000	65.206432 
3585.000000	65.174174 
3584.000000	65.133786 
3583.000000	65.089011 
3582.000000	65.044140 
3581.000000	65.003442 
3580.000000	64.970326 
3579.000000	64.946985 
3578.000000	64.933848 
3577.000000	64.930129 
3576.000000	64.934206 
3575.000000	64.944291 
3574.000000	64.958858 
3573.000000	64.976787 
3572.000000	64.997386 
3571.000000	65.020298 
3570.000000	65.044760 
3569.000000	65.069627 
3568.000000	65.093088 
3567.000000	65.113043 
3566.000000	65.127348 
3565.000000	65.134811 
3564.000000	65.135335 
3563.000000	65.130281 
3562.000000	65.122270 
3561.000000	65.114569 
3560.000000	65.110588 
3559.000000	65.112662 
3558.000000	65.121865 
3557.000000	65.137386 
3556.000000	65.156936 
3555.000000	65.177178 
3554.000000	65.194678 
3553.000000	65.206265 
3552.000000	65.209770 
3551.000000	65.204501 
3550.000000	65.191149 
3549.000000	65.171241 
3548.000000	65.146970 
3547.000000	65.120863 
3546.000000	65.095233 
3545.000000	65.072083 
3544.000000	65.052652 
3543.000000	65.037751 
3542.000000	65.027475 
3541.000000	65.021705 
3540.000000	65.019559 
3539.000000	65.019869 
3538.000000	65.021061 
3537.000000	65.021491 
3536.000000	65.019607 
3535.000000	65.014004 
3534.000000	65.004110 
3533.000000	64.990019 
3532.000000	64.973020 
3531.000000	64.954924 
3530.000000	64.938235 
3529.000000	64.925503 
3528.000000	64.919042 
3527.000000	64.920473 
3526.000000	64.930462 
3525.000000	64.948654 
3524.000000	64.973759 
3523.000000	65.003895 
3522.000000	65.036916 
3521.000000	65.070724 
3520.000000	65.103483 
3519.000000	65.133523 
3518.000000	65.159535 
3517.000000	65.180420 
3516.000000	65.195441 
3515.000000	65.204334 
3514.000000	65.207171 
3513.000000	65.204620 
3512.000000	65.198135 
3511.000000	65.189409 
3510.000000	65.180253 
3509.000000	65.172004 
3508.000000	65.165495 
3507.000000	65.160799 
3506.000000	65.157151 
3505.000000	65.153455 
3504.000000	65.148782 
3503.000000	65.142631 
3502.000000	65.135264 
3501.000000	65.127801 
3500.000000	65.121841 
3499.000000	65.118813 
3498.000000	65.119385 
3497.000000	65.123105 
3496.000000	65.128326 
3495.000000	65.132594 
3494.000000	65.133213 
3493.000000	65.127944 
3492.000000	65.115737 
3491.000000	65.097141 
3490.000000	65.074276 
3489.000000	65.050148 
3488.000000	65.028238 
3487.000000	65.011763 
3486.000000	65.002870 
3485.000000	65.002417 
3484.000000	65.009737 
3483.000000	65.023446 
3482.000000	65.041470 
3481.000000	65.061640 
3480.000000	65.082097 
3479.000000	65.101385 
3478.000000	65.118741 
3477.000000	65.133571 
3476.000000	65.145802 
3475.000000	65.155649 
3474.000000	65.163469 
3473.000000	65.169596 
3472.000000	65.174031 
3471.000000	65.176463 
3470.000000	65.176200 
3469.000000	65.172433 
3468.000000	65.164303 
3467.000000	65.151262 
3466.000000	65.133619 
3465.000000	65.112638 
3464.000000	65.090513 
3463.000000	65.069866 
3462.000000	65.053462 
3461.000000	65.043520 
3460.000000	65.041089 
3459.000000	65.045785 
3458.000000	65.055942 
3457.000000	65.068769 
3456.000000	65.081310 
3455.000000	65.090727 
3454.000000	65.095233 
3453.000000	65.093946 
3452.000000	65.086817 
3451.000000	65.074419 
3450.000000	65.057373 
3449.000000	65.036535 
3448.000000	65.012955 
3447.000000	64.987683 
3446.000000	64.962100 
3445.000000	64.937949 
3444.000000	64.917445 
3443.000000	64.902758 
3442.000000	64.895868 
3441.000000	64.898157 
3440.000000	64.910244 
3439.000000	64.931416 
3438.000000	64.960026 
3437.000000	64.993286 
3436.000000	65.027832 
3435.000000	65.060162 
3434.000000	65.087389 
3433.000000	65.107035 
3432.000000	65.118122 
3431.000000	65.120792 
3430.000000	65.116882 
3429.000000	65.109157 
3428.000000	65.100884 
3427.000000	65.095543 
3426.000000	65.095472 
3425.000000	65.101385 
3424.000000	65.111947 
3423.000000	65.124297 
3422.000000	65.134572 
3421.000000	65.138936 
3420.000000	65.134668 
3419.000000	65.120959 
3418.000000	65.098953 
3417.000000	65.071368 
3416.000000	65.042018 
3415.000000	65.014719 
3414.000000	64.992666 
3413.000000	64.977836 
3412.000000	64.970922 
3411.000000	64.971613 
3410.000000	64.979124 
3409.000000	64.992666 
3408.000000	65.011453 
3407.000000	65.034937 
3406.000000	65.062451 
3405.000000	65.093255 
3404.000000	65.125584 
3403.000000	65.157556 
3402.000000	65.187406 
3401.000000	65.213942 
3400.000000	65.236687 
3399.000000	65.255951 
3398.000000	65.272855 
3397.000000	65.288639 
3396.000000	65.304327 
3395.000000	65.320277 
3394.000000	65.336275 
3393.000000	65.351486 
3392.000000	65.365028 
3391.000000	65.375852 
3390.000000	65.383172 
3389.000000	65.386557 
3388.000000	65.386128 
3387.000000	65.381765 
3386.000000	65.373086 
3385.000000	65.359759 
3384.000000	65.341353 
3383.000000	65.317726 
3382.000000	65.289020 
3381.000000	65.256381 
3380.000000	65.221428 
3379.000000	65.186214 
3378.000000	65.152764 
3377.000000	65.122389 
3376.000000	65.095734 
3375.000000	65.072941 
3374.000000	65.053510 
3373.000000	65.036535 
3372.000000	65.020966 
3371.000000	65.005922 
3370.000000	64.990997 
3369.000000	64.975690 
3368.000000	64.960408 
3367.000000	64.945936 
3366.000000	64.933967 
3365.000000	64.926457 
3364.000000	64.926171 
3363.000000	64.936065 
3362.000000	64.958810 
3361.000000	64.995741 
3360.000000	65.046644 
3359.000000	65.109014 
3358.000000	65.178251 
3357.000000	65.247917 
3356.000000	65.310859 
3355.000000	65.360164 
3354.000000	65.390801 
3353.000000	65.400004 
3352.000000	65.387630 
3351.000000	65.356087 
3350.000000	65.310001 
3349.000000	65.255117 
3348.000000	65.197730 
3347.000000	65.143728 
3346.000000	65.098237 
3345.000000	65.064525 
3344.000000	65.044283 
3343.000000	65.037035 
3342.000000	65.040826 
3341.000000	65.052223 
3340.000000	65.066981 
3339.000000	65.080690 
3338.000000	65.089631 
3337.000000	65.091323 
3336.000000	65.084862 
3335.000000	65.071010 
3334.000000	65.052032 
3333.000000	65.031480 
3332.000000	65.013432 
3331.000000	65.001702 
3330.000000	64.999198 
3329.000000	65.007591 
3328.000000	65.026783 
3327.000000	65.055155 
3326.000000	65.089178 
3325.000000	65.124416 
3324.000000	65.155601 
3323.000000	65.177464 
3322.000000	65.185594 
3321.000000	65.177106 
3320.000000	65.151309 
3319.000000	65.110015 
3318.000000	65.057682 
3317.000000	65.000391 
3316.000000	64.945363 
3315.000000	64.900040 
3314.000000	64.869999 
3313.000000	64.858293 
3312.000000	64.864611 
3311.000000	64.885687 
3310.000000	64.915657 
3309.000000	64.947485 
3308.000000	64.974331 
3307.000000	64.991211 
3306.000000	64.995598 
3305.000000	64.988112 
3304.000000	64.971780 
3303.000000	64.951491 
3302.000000	64.932680 
3301.000000	64.920115 
3300.000000	64.916944 
3299.000000	64.923858 
3298.000000	64.939498 
3297.000000	64.960169 
3296.000000	64.981579 
3295.000000	64.999365 
3294.000000	65.010213 
3293.000000	65.012836 
3292.000000	65.007638 
3291.000000	64.996910 
3290.000000	64.983797 
3289.000000	64.972066 
3288.000000	64.964771 
3287.000000	64.964199 
3286.000000	64.971327 
3285.000000	64.986348 
3284.000000	65.008735 
3283.000000	65.037441 
3282.000000	65.070891 
3281.000000	65.107321 
3280.000000	65.144610 
3279.000000	65.180206 
3278.000000	65.211176 
3277.000000	65.234351 
3276.000000	65.246820 
3275.000000	65.246701 
3274.000000	65.233492 
3273.000000	65.208578 
3272.000000	65.174913 
3271.000000	65.136718 
3270.000000	65.098476 
3269.000000	65.064454 
3268.000000	65.037727 
3267.000000	65.019512 
3266.000000	65.009260 
3265.000000	65.005016 
3264.000000	65.003871 
3263.000000	65.002846 
3262.000000	64.999818 
3261.000000	64.993476 
3260.000000	64.984130 
3259.000000	64.973115 
3258.000000	64.962911 
3257.000000	64.956021 
3256.000000	64.954590 
3255.000000	64.959669 
3254.000000	64.971232 
3253.000000	64.987897 
3252.000000	65.007185 
3251.000000	65.025997 
3250.000000	65.041208 
3249.000000	65.050435 
3248.000000	65.052509 
3247.000000	65.047955 
3246.000000	65.038561 
3245.000000	65.027284 
3244.000000	65.017247 
3243.000000	65.011119 
3242.000000	65.010523 
3241.000000	65.015482 
3240.000000	65.024399 
3239.000000	65.034627 
3238.000000	65.043187 
3237.000000	65.047383 
3236.000000	65.045356 
3235.000000	65.036773 
3234.000000	65.022826 
3233.000000	65.006113 
3232.000000	64.989733 
3231.000000	64.976978 
3230.000000	64.970493 
3229.000000	64.972019 
3228.000000	64.982056 
3227.000000	64.999866 
3226.000000	65.023660 
3225.000000	65.051078 
3224.000000	65.079617 
3223.000000	65.106892 
3222.000000	65.130853 
3221.000000	65.150165 
3220.000000	65.164256 
3219.000000	65.173101 
3218.000000	65.177202 
3217.000000	65.177249 
3216.000000	65.173768 
3215.000000	65.167427 
3214.000000	65.158438 
3213.000000	65.146994 
3212.000000	65.133452 
3211.000000	65.118527 
3210.000000	65.103387 
3209.000000	65.089583 
3208.000000	65.078949 
3207.000000	65.073466 
3206.000000	65.074539 
3205.000000	65.082716 
3204.000000	65.097236 
3203.000000	65.116000 
3202.000000	65.135598 
3201.000000	65.151834 
3200.000000	65.160369 
3199.000000	65.157818 
3198.000000	65.142321 
3197.000000	65.114474 
3196.000000	65.077018 
3195.000000	65.034770 
3194.000000	64.993929 
3193.000000	64.960598 
3192.000000	64.939904 
3191.000000	64.934539 
3190.000000	64.944529 
3189.000000	64.967226 
3188.000000	64.997720 
3187.000000	65.030217 
3186.000000	65.059018 
3185.000000	65.080189 
3184.000000	65.091753 
3183.000000	65.094590 
3182.000000	65.091204 
3181.000000	65.085482 
3180.000000	65.081262 
3179.000000	65.081429 
3178.000000	65.087151 
3177.000000	65.097618 
3176.000000	65.110683 
3175.000000	65.123367 
3174.000000	65.132808 
3173.000000	65.136885 
3172.000000	65.134763 
3171.000000	65.126657 
3170.000000	65.113806 
3169.000000	65.097618 
3168.000000	65.079689 
3167.000000	65.061259 
3166.000000	65.043425 
3165.000000	65.027046 
3164.000000	65.013051 
3163.000000	65.002274 
3162.000000	64.995718 
3161.000000	64.994311 
3160.000000	64.998912 
3159.000000	65.009832 
3158.000000	65.026831 
3157.000000	65.048956 
3156.000000	65.074610 
3155.000000	65.101647 
3154.000000	65.127491 
3153.000000	65.149521 
3152.000000	65.165352 
3151.000000	65.173149 
3150.000000	65.172147 
3149.000000	65.162682 
3148.000000	65.146493 
3147.000000	65.126490 
3146.000000	65.106344 
3145.000000	65.089654 
3144.000000	65.079236 
3143.000000	65.076279 
3142.000000	65.079855 
3141.000000	65.087223 
3140.000000	65.094375 
3139.000000	65.097236 
3138.000000	65.092468 
3137.000000	65.078759 
3136.000000	65.057182 
3135.000000	65.031123 
3134.000000	65.005445 
3133.000000	64.985322 
3132.000000	64.974737 
3131.000000	64.975881 
3130.000000	64.988327 
3129.000000	65.009641 
3128.000000	65.036058 
3127.000000	65.063500 
3126.000000	65.088653 
3125.000000	65.109395 
3124.000000	65.124988 
3123.000000	65.135574 
3122.000000	65.141677 
3121.000000	65.144062 
3120.000000	65.143203 
3119.000000	65.139460 
3118.000000	65.132951 
3117.000000	65.123748 
3116.000000	65.111851 
3115.000000	65.097475 
3114.000000	65.081000 
3113.000000	65.062737 
3112.000000	65.042853 
3111.000000	65.021562 
3110.000000	64.999532 
3109.000000	64.977598 
3108.000000	64.957356 
3107.000000	64.940738 
3106.000000	64.929890 
3105.000000	64.926600 
3104.000000	64.931821 
3103.000000	64.945149 
3102.000000	64.965057 
3101.000000	64.988827 
3100.000000	65.012979 
3099.000000	65.034198 
3098.000000	65.049600 
3097.000000	65.057134 
3096.000000	65.055966 
3095.000000	65.046334 
3094.000000	65.029501 
3093.000000	65.007376 
3092.000000	64.982533 
3091.000000	64.957857 
3090.000000	64.936137 
3089.000000	64.920020 
3088.000000	64.911627 
3087.000000	64.912629 
3086.000000	64.923524 
3085.000000	64.944148 
3084.000000	64.973115 
3083.000000	65.008354 
3082.000000	65.047311 
3081.000000	65.087246 
3080.000000	65.125632 
3079.000000	65.160107 
3078.000000	65.188765 
3077.000000	65.209937 
3076.000000	65.222573 
3075.000000	65.225934 
3074.000000	65.220093 
3073.000000	65.206003 
3072.000000	65.185642 
3071.000000	65.161871 
3070.000000	65.138268 
3069.000000	65.118408 
3068.000000	65.105652 
3067.000000	65.102434 
3066.000000	65.109968 
3065.000000	65.127849 
3064.000000	65.154099 
3063.000000	65.185451 
3062.000000	65.217876 
3061.000000	65.247201 
3060.000000	65.269827 
3059.000000	65.282702 
3058.000000	65.284132 
3057.000000	65.273809 
3056.000000	65.252876 
3055.000000	65.223741 
3054.000000	65.189552 
3053.000000	65.153956 
3052.000000	65.120410 
3051.000000	65.092062 
3050.000000	65.071034 
3049.000000	65.058207 
3048.000000	65.053415 
3047.000000	65.055799 
3046.000000	65.063691 
3045.000000	65.075135 
3044.000000	65.088057 
3043.000000	65.100622 
3042.000000	65.111184 
3041.000000	65.118384 
3040.000000	65.121436 
3039.000000	65.119981 
3038.000000	65.114474 
3037.000000	65.106034 
3036.000000	65.096735 
3035.000000	65.089082 
3034.000000	65.085911 
3033.000000	65.089583 
3032.000000	65.101552 
3031.000000	65.121603 
3030.000000	65.147948 
3029.000000	65.176939 
3028.000000	65.203976 
3027.000000	65.224218 
3026.000000	65.233731 
3025.000000	65.230107 
3024.000000	65.213346 
3023.000000	65.185570 
3022.000000	65.150928 
3021.000000	65.114402 
3020.000000	65.080595 
3019.000000	65.052890 
3018.000000	65.032911 
3017.000000	65.020322 
3016.000000	65.013289 
3015.000000	65.009093 
3014.000000	65.005064 
3013.000000	64.999294 
3012.000000	64.991140 
3011.000000	64.981031 
3010.000000	64.970183 
3009.000000	64.960241 
3008.000000	64.952731 
3007.000000	64.948558 
3006.000000	64.947795 
3005.000000	64.949798 
3004.000000	64.953422 
3003.000000	64.957308 
3002.000000	64.960312 
3001.000000	64.961814 
3000.000000	64.961886 
2999.000000	64.961028 
2998.000000	64.960241 
2997.000000	64.960694 
2996.000000	64.963531 
2995.000000	64.969468 
2994.000000	64.978671 
2993.000000	64.990353 
2992.000000	65.003275 
2991.000000	65.015792 
2990.000000	65.026021 
2989.000000	65.032267 
2988.000000	65.033459 
2987.000000	65.029597 
2986.000000	65.021324 
2985.000000	65.009784 
2984.000000	64.996600 
2983.000000	64.983296 
2982.000000	64.970970 
2981.000000	64.960002 
2980.000000	64.950084 
2979.000000	64.940333 
2978.000000	64.929175 
2977.000000	64.914965 
2976.000000	64.896321 
2975.000000	64.872765 
2974.000000	64.844632 
2973.000000	64.813756 
2972.000000	64.782619 
2971.000000	64.754366 
2970.000000	64.732241 
2969.000000	64.718866 
2968.000000	64.715528 
2967.000000	64.722394 
2966.000000	64.738249 
2965.000000	64.761042 
2964.000000	64.788055 
2963.000000	64.816665 
2962.000000	64.844536 
2961.000000	64.870119 
2960.000000	64.892601 
2959.000000	64.911603 
2958.000000	64.927005 
2957.000000	64.938712 
2956.000000	64.946770 
2955.000000	64.951443 
2954.000000	64.953303 
2953.000000	64.953398 
2952.000000	64.953017 
2951.000000	64.953541 
2950.000000	64.955925 
2949.000000	64.960503 
2948.000000	64.966773 
2947.000000	64.973568 
2946.000000	64.979147 
2945.000000	64.981865 
2944.000000	64.980268 
2943.000000	64.973497 
2942.000000	64.961552 
2941.000000	64.945173 
2940.000000	64.926099 
2939.000000	64.906573 
2938.000000	64.889287 
2937.000000	64.876914 
2936.000000	64.871907 
2935.000000	64.876031 
2934.000000	64.890027 
2933.000000	64.913344 
2932.000000	64.944171 
2931.000000	64.979600 
2930.000000	65.015721 
2929.000000	65.048408 
2928.000000	65.074014 
2927.000000	65.090012 
2926.000000	65.095329 
2925.000000	65.090608 
2924.000000	65.077757 
2923.000000	65.059566 
2922.000000	65.039181 
2921.000000	65.019440 
2920.000000	65.002632 
2919.000000	64.990019 
2918.000000	64.982342 
2917.000000	64.979290 
2916.000000	64.979958 
2915.000000	64.982795 
2914.000000	64.986038 
2913.000000	64.988183 
2912.000000	64.987993 
2911.000000	64.984941 
2910.000000	64.978981 
2909.000000	64.970779 
2908.000000	64.961290 
2907.000000	64.951634 
2906.000000	64.942717 
2905.000000	64.935183 
2904.000000	64.929199 
2903.000000	64.924478 
2902.000000	64.920496 
2901.000000	64.916706 
2900.000000	64.912676 
2899.000000	64.908194 
2898.000000	64.903402 
2897.000000	64.898586 
2896.000000	64.894270 
2895.000000	64.890933 
2894.000000	64.889073 
2893.000000	64.889168 
2892.000000	64.891648 
2891.000000	64.896893 
2890.000000	64.904880 
2889.000000	64.915299 
2888.000000	64.927077 
2887.000000	64.938783 
2886.000000	64.948582 
2885.000000	64.954566 
2884.000000	64.955353 
2883.000000	64.950275 
2882.000000	64.939737 
2881.000000	64.925217 
2880.000000	64.909124 
2879.000000	64.894294 
2878.000000	64.883470 
2877.000000	64.878916 
2876.000000	64.881944 
2875.000000	64.892745 
2874.000000	64.910531 
2873.000000	64.933633 
2872.000000	64.960050 
2871.000000	64.987659 
2870.000000	65.014505 
2869.000000	65.038967 
2868.000000	65.059781 
2867.000000	65.076160 
2866.000000	65.087389 
2865.000000	65.093231 
2864.000000	65.093827 
2863.000000	65.089583 
2862.000000	65.081405 
2861.000000	65.070271 
2860.000000	65.057635 
2859.000000	65.044713 
2858.000000	65.032649 
2857.000000	65.022087 
2856.000000	65.013194 
2855.000000	65.005636 
2854.000000	64.998841 
2853.000000	64.992070 
2852.000000	64.984726 
2851.000000	64.976525 
2850.000000	64.967656 
2849.000000	64.958643 
2848.000000	64.950299 
2847.000000	64.943313 
2846.000000	64.938426 
2845.000000	64.935898 
2844.000000	64.935803 
2843.000000	64.937806 
2842.000000	64.941620 
2841.000000	64.946770 
2840.000000	64.953064 
2839.000000	64.960503 
2838.000000	64.969277 
2837.000000	64.979600 
2836.000000	64.991497 
2835.000000	65.004634 
2834.000000	65.018486 
2833.000000	65.032100 
2832.000000	65.044307 
2831.000000	65.054011 
2830.000000	65.060043 
2829.000000	65.061807 
2828.000000	65.058994 
2827.000000	65.051579 
2826.000000	65.039896 
2825.000000	65.024805 
2824.000000	65.007162 
2823.000000	64.988040 
2822.000000	64.968657 
2821.000000	64.950346 
2820.000000	64.934444 
2819.000000	64.922261 
2818.000000	64.914751 
2817.000000	64.912629 
2816.000000	64.916133 
2815.000000	64.925122 
2814.000000	64.938926 
2813.000000	64.956569 
2812.000000	64.976763 
2811.000000	64.998269 
2810.000000	65.019726 
2809.000000	65.039992 
2808.000000	65.058135 
2807.000000	65.073466 
2806.000000	65.085530 
2805.000000	65.094208 
2804.000000	65.099763 
2803.000000	65.102767 
2802.000000	65.104007 
2801.000000	65.104484 
2800.000000	65.105223 
2799.000000	65.107107 
2798.000000	65.110754 
2797.000000	65.116405 
2796.000000	65.123915 
2795.000000	65.132832 
2794.000000	65.142440 
2793.000000	65.151667 
2792.000000	65.159463 
2791.000000	65.164756 
2790.000000	65.166592 
2789.000000	65.164375 
2788.000000	65.157842 
2787.000000	65.147399 
2786.000000	65.133833 
2785.000000	65.118360 
2784.000000	65.102362 
2783.000000	65.087342 
2782.000000	65.074777 
2781.000000	65.066003 
2780.000000	65.062141 
2779.000000	65.063691 
2778.000000	65.070343 
2777.000000	65.081214 
2776.000000	65.094685 
2775.000000	65.108537 
2774.000000	65.120601 
2773.000000	65.129160 
2772.000000	65.133213 
2771.000000	65.132856 
2770.000000	65.129184 
2769.000000	65.123867 
2768.000000	65.118789 
2767.000000	65.115284 
2766.000000	65.113902 
2765.000000	65.114283 
2764.000000	65.115356 
2763.000000	65.115642 
2762.000000	65.114021 
2761.000000	65.110063 
2760.000000	65.104413 
2759.000000	65.098476 
2758.000000	65.093994 
2757.000000	65.092372 
2756.000000	65.094399 
2755.000000	65.099787 
2754.000000	65.107226 
2753.000000	65.114927 
2752.000000	65.121054 
2751.000000	65.124297 
2750.000000	65.124249 
2749.000000	65.121579 
2748.000000	65.117597 
2747.000000	65.113949 
2746.000000	65.111947 
2745.000000	65.112042 
2744.000000	65.113782 
2743.000000	65.115690 
2742.000000	65.115761 
2741.000000	65.112018 
2740.000000	65.103006 
2739.000000	65.088105 
2738.000000	65.067911 
2737.000000	65.043973 
2736.000000	65.018725 
2735.000000	64.994907 
2734.000000	64.975094 
2733.000000	64.961361 
2732.000000	64.954996 
2731.000000	64.956140 
2730.000000	64.964032 
2729.000000	64.976954 
2728.000000	64.992737 
2727.000000	65.008902 
2726.000000	65.023255 
2725.000000	65.034198 
2724.000000	65.040826 
2723.000000	65.042924 
2722.000000	65.041112 
2721.000000	65.036273 
2720.000000	65.029692 
2719.000000	65.022420 
2718.000000	65.015172 
2717.000000	65.008354 
2716.000000	65.001988 
2715.000000	64.996099 
2714.000000	64.990687 
2713.000000	64.985871 
2712.000000	64.982295 
2711.000000	64.980983 
2710.000000	64.982748 
2709.000000	64.988255 
2708.000000	64.997649 
2707.000000	65.010309 
2706.000000	65.025091 
2705.000000	65.040445 
2704.000000	65.054678 
2703.000000	65.066576 
2702.000000	65.075635 
2701.000000	65.082216 
2700.000000	65.087175 
2699.000000	65.091657 
2698.000000	65.096735 
2697.000000	65.102982 
2696.000000	65.110421 
2695.000000	65.118479 
2694.000000	65.126228 
2693.000000	65.132570 
2692.000000	65.136623 
2691.000000	65.137696 
2690.000000	65.135717 
2689.000000	65.130543 
2688.000000	65.121960 
2687.000000	65.109634 
2686.000000	65.093159 
2685.000000	65.072250 
2684.000000	65.047144 
2683.000000	65.018820 
2682.000000	64.989042 
2681.000000	64.960265 
2680.000000	64.935326 
2679.000000	64.916682 
2678.000000	64.906001 
2677.000000	64.903998 
2676.000000	64.909982 
2675.000000	64.922094 
2674.000000	64.937639 
2673.000000	64.953732 
2672.000000	64.967679 
2671.000000	64.977526 
2670.000000	64.982604 
2669.000000	64.983391 
2668.000000	64.981746 
2667.000000	64.980149 
2666.000000	64.981436 
2665.000000	64.988255 
2664.000000	65.002179 
2663.000000	65.023517 
2662.000000	65.050768 
2661.000000	65.080904 
2660.000000	65.109658 
2659.000000	65.132522 
2658.000000	65.145492 
2657.000000	65.145850 
2656.000000	65.132999 
2655.000000	65.108489 
2654.000000	65.075564 
2653.000000	65.038371 
2652.000000	65.001320 
2651.000000	64.968109 
2650.000000	64.941239 
2649.000000	64.921760 
2648.000000	64.909410 
2647.000000	64.903116 
2646.000000	64.901447 
2645.000000	64.903068 
2644.000000	64.906907 
2643.000000	64.912247 
2642.000000	64.918589 
2641.000000	64.925646 
2640.000000	64.932584 
2639.000000	64.938807 
2638.000000	64.943552 
2637.000000	64.946508 
2636.000000	64.947724 
2635.000000	64.947938 
2634.000000	64.948415 
2633.000000	64.950656 
2632.000000	64.955997 
2631.000000	64.965248 
2630.000000	64.978384 
2629.000000	64.994406 
2628.000000	65.011501 
2627.000000	65.027332 
2626.000000	65.039491 
2625.000000	65.046048 
2624.000000	65.045785 
2623.000000	65.038537 
2622.000000	65.025186 
2621.000000	65.007448 
2620.000000	64.987611 
2619.000000	64.967870 
2618.000000	64.950180 
2617.000000	64.936017 
2616.000000	64.926242 
2615.000000	64.921116 
2614.000000	64.920234 
2613.000000	64.922928 
2612.000000	64.927983 
2611.000000	64.933991 
2610.000000	64.939522 
2609.000000	64.943146 
2608.000000	64.944124 
2607.000000	64.942431 
2606.000000	64.938926 
2605.000000	64.935135 
2604.000000	64.932966 
2603.000000	64.934158 
2602.000000	64.939737 
2601.000000	64.949703 
2600.000000	64.962935 
2599.000000	64.977312 
2598.000000	64.990234 
2597.000000	64.999127 
2596.000000	65.002036 
2595.000000	64.998149 
2594.000000	64.987850 
2593.000000	64.972567 
2592.000000	64.954566 
2591.000000	64.936304 
2590.000000	64.919996 
2589.000000	64.907479 
2588.000000	64.899992 
2587.000000	64.898085 
2586.000000	64.901661 
2585.000000	64.909982 
2584.000000	64.921712 
2583.000000	64.934945 
2582.000000	64.947557 
2581.000000	64.957666 
2580.000000	64.963912 
2579.000000	64.965748 
2578.000000	64.963507 
2577.000000	64.958310 
2576.000000	64.951872 
2575.000000	64.945960 
2574.000000	64.941954 
2573.000000	64.940619 
2572.000000	64.942026 
2571.000000	64.945745 
2570.000000	64.950966 
2569.000000	64.957141 
2568.000000	64.963603 
2567.000000	64.970207 
2566.000000	64.976596 
2565.000000	64.982175 
2564.000000	64.986038 
2563.000000	64.986824 
2562.000000	64.983153 
2561.000000	64.974141 
2560.000000	64.959836 
2559.000000	64.941501 
2558.000000	64.921283 
2557.000000	64.901947 
2556.000000	64.886069 
2555.000000	64.875578 
2554.000000	64.871263 
2553.000000	64.872717 
2552.000000	64.878606 
2551.000000	64.887166 
2550.000000	64.896726 
2549.000000	64.906215 
2548.000000	64.915108 
2547.000000	64.923548 
2546.000000	64.931964 
2545.000000	64.940619 
2544.000000	64.949297 
2543.000000	64.957451 
2542.000000	64.964270 
2541.000000	64.969038 
2540.000000	64.971446 
2539.000000	64.971780 
2538.000000	64.970922 
2537.000000	64.970135 
2536.000000	64.970350 
2535.000000	64.972305 
2534.000000	64.976334 
2533.000000	64.982128 
2532.000000	64.989089 
2531.000000	64.996409 
2530.000000	65.003514 
2529.000000	65.010070 
2528.000000	65.016245 
2527.000000	65.022373 
2526.000000	65.029048 
2525.000000	65.036725 
2524.000000	65.045404 
2523.000000	65.054583 
2522.000000	65.063381 
2521.000000	65.070629 
2520.000000	65.075230 
2519.000000	65.076613 
2518.000000	65.074682 
2517.000000	65.070295 
2516.000000	65.064597 
2515.000000	65.058994 
2514.000000	65.054535 
2513.000000	65.051794 
2512.000000	65.050530 
2511.000000	65.049672 
2510.000000	65.047836 
2509.000000	65.043544 
2508.000000	65.035963 
2507.000000	65.025138 
2506.000000	65.012240 
2505.000000	64.999222 
2504.000000	64.988517 
2503.000000	64.982199 
2502.000000	64.981412 
2501.000000	64.985918 
2500.000000	64.993929 
2499.000000	65.002560 
2498.000000	65.008234 
2497.000000	65.007805 
2496.000000	64.999198 
2495.000000	64.982008 
2494.000000	64.957666 
2493.000000	64.929342 
2492.000000	64.901018 
2491.000000	64.877009 
2490.000000	64.860820 
2489.000000	64.854431 
2488.000000	64.858245 
2487.000000	64.871168 
2486.000000	64.890670 
2485.000000	64.913630 
2484.000000	64.937114 
2483.000000	64.958620 
2482.000000	64.976572 
2481.000000	64.990234 
2480.000000	64.999580 
2479.000000	65.005064 
2478.000000	65.007185 
2477.000000	65.006208 
2476.000000	65.002131 
2475.000000	64.994859 
2474.000000	64.984321 
2473.000000	64.970612 
2472.000000	64.954328 
2471.000000	64.936542 
2470.000000	64.918875 
2469.000000	64.903092 
2468.000000	64.890766 
2467.000000	64.882969 
2466.000000	64.879965 
2465.000000	64.881181 
2464.000000	64.885163 
2463.000000	64.890050 
2462.000000	64.893698 
2461.000000	64.894294 
2460.000000	64.890885 
2459.000000	64.883208 
2458.000000	64.872145 
2457.000000	64.859151 
2456.000000	64.846205 
2455.000000	64.835166 
2454.000000	64.827656 
2453.000000	64.824438 
2452.000000	64.825797 
2451.000000	64.831113 
2450.000000	64.839363 
2449.000000	64.849472 
2448.000000	64.860582 
2447.000000	64.872193 
2446.000000	64.884209 
2445.000000	64.896774 
2444.000000	64.910340 
2443.000000	64.925122 
2442.000000	64.941096 
2441.000000	64.957761 
2440.000000	64.974284 
2439.000000	64.989447 
2438.000000	65.001773 
2437.000000	65.009832 
2436.000000	65.012502 
2435.000000	65.009117 
2434.000000	64.999842 
2433.000000	64.985585 
2432.000000	64.968037 
2431.000000	64.949178 
2430.000000	64.931225 
2429.000000	64.916038 
2428.000000	64.904999 
2427.000000	64.898681 
2426.000000	64.896845 
2425.000000	64.898586 
2424.000000	64.902806 
2423.000000	64.908266 
2422.000000	64.914011 
2421.000000	64.919471 
2420.000000	64.924502 
2419.000000	64.929389 
2418.000000	64.934730 
2417.000000	64.941024 
2416.000000	64.948487 
2415.000000	64.957118 
2414.000000	64.966487 
2413.000000	64.975905 
2412.000000	64.984369 
2411.000000	64.990830 
2410.000000	64.994215 
2409.000000	64.993548 
2408.000000	64.988327 
2407.000000	64.978480 
2406.000000	64.964842 
2405.000000	64.948606 
2404.000000	64.931631 
2403.000000	64.915943 
2402.000000	64.903569 
2401.000000	64.896297 
2400.000000	64.895224 
2399.000000	64.900970 
2398.000000	64.913272 
2397.000000	64.931225 
2396.000000	64.953351 
2395.000000	64.977788 
2394.000000	65.002489 
2393.000000	65.025424 
2392.000000	65.044856 
2391.000000	65.059494 
2390.000000	65.068721 
2389.000000	65.072607 
2388.000000	65.071749 
2387.000000	65.066957 
2386.000000	65.059375 
2385.000000	65.049791 
2384.000000	65.038776 
2383.000000	65.026068 
2382.000000	65.011119 
2381.000000	64.993214 
2380.000000	64.971780 
2379.000000	64.946746 
2378.000000	64.918899 
2377.000000	64.889669 
2376.000000	64.861035 
2375.000000	64.835095 
2374.000000	64.813733 
2373.000000	64.797949 
2372.000000	64.787697 
2371.000000	64.782047 
2370.000000	64.779210 
2369.000000	64.777159 
2368.000000	64.774084 
2367.000000	64.769077 
2366.000000	64.761948 
2365.000000	64.753770 
2364.000000	64.746332 
2363.000000	64.741873 
2362.000000	64.742374 
2361.000000	64.749145 
2360.000000	64.762520 
2359.000000	64.781856 
2358.000000	64.805555 
2357.000000	64.831519 
2356.000000	64.857578 
2355.000000	64.882016 
2354.000000	64.903879 
2353.000000	64.922809 
2352.000000	64.939093 
2351.000000	64.953589 
2350.000000	64.967203 
2349.000000	64.980578 
2348.000000	64.993810 
2347.000000	65.006589 
2346.000000	65.017867 
2345.000000	65.026283 
2344.000000	65.030145 
2343.000000	65.028214 
2342.000000	65.019774 
2341.000000	65.004920 
2340.000000	64.984989 
2339.000000	64.962077 
2338.000000	64.939069 
2337.000000	64.919137 
2336.000000	64.904928 
2335.000000	64.898395 
2334.000000	64.900135 
2333.000000	64.909553 
2332.000000	64.924693 
2331.000000	64.943003 
2330.000000	64.961791 
2329.000000	64.978957 
2328.000000	64.993047 
2327.000000	65.003776 
2326.000000	65.011668 
2325.000000	65.017724 
2324.000000	65.022873 
2323.000000	65.027594 
2322.000000	65.032100 
2321.000000	65.035867 
2320.000000	65.038204 
2319.000000	65.038323 
2318.000000	65.035700 
2317.000000	65.030145 
2316.000000	65.021944 
2315.000000	65.011811 
2314.000000	65.000653 
2313.000000	64.989376 
2312.000000	64.978837 
2311.000000	64.969706 
2310.000000	64.962363 
2309.000000	64.957118 
2308.000000	64.954042 
2307.000000	64.952921 
2306.000000	64.953207 
2305.000000	64.954042 
2304.000000	64.954447 
2303.000000	64.953327 
2302.000000	64.949750 
2301.000000	64.943194 
2300.000000	64.933562 
2299.000000	64.921307 
2298.000000	64.907479 
2297.000000	64.893174 
2296.000000	64.879822 
2295.000000	64.868807 
2294.000000	64.861416 
2293.000000	64.858412 
2292.000000	64.860177 
2291.000000	64.866375 
2290.000000	64.876008 
2289.000000	64.887642 
2288.000000	64.899301 
2287.000000	64.908838 
2286.000000	64.914536 
2285.000000	64.915108 
2284.000000	64.910197 
2283.000000	64.900302 
2282.000000	64.886927 
2281.000000	64.872193 
2280.000000	64.858222 
2279.000000	64.846944 
2278.000000	64.839506 
2277.000000	64.836192 
2276.000000	64.836478 
2275.000000	64.839100 
2274.000000	64.842534 
2273.000000	64.845228 
2272.000000	64.846086 
2271.000000	64.844560 
2270.000000	64.840650 
2269.000000	64.834976 
2268.000000	64.828610 
2267.000000	64.822888 
2266.000000	64.819192 
2265.000000	64.818572 
2264.000000	64.821720 
2263.000000	64.828610 
2262.000000	64.838814 
2261.000000	64.851212 
2260.000000	64.864230 
2259.000000	64.876174 
2258.000000	64.885520 
2257.000000	64.891076 
2256.000000	64.892315 
2255.000000	64.889478 
2254.000000	64.883494 
2253.000000	64.875912 
2252.000000	64.868354 
2251.000000	64.862537 
2250.000000	64.859414 
2249.000000	64.859271 
2248.000000	64.861416 
2247.000000	64.864563 
2246.000000	64.867162 
2245.000000	64.867663 
2244.000000	64.865112 
2243.000000	64.859223 
2242.000000	64.850759 
2241.000000	64.841175 
2240.000000	64.832568 
2239.000000	64.826798 
2238.000000	64.825415 
2237.000000	64.829206 
2236.000000	64.837908 
2235.000000	64.850473 
2234.000000	64.865207 
2233.000000	64.880204 
2232.000000	64.893603 
2231.000000	64.904069 
2230.000000	64.910721 
2229.000000	64.913153 
2228.000000	64.911460 
2227.000000	64.906048 
2226.000000	64.897584 
2225.000000	64.886999 
2224.000000	64.875459 
2223.000000	64.864206 
2222.000000	64.854431 
2221.000000	64.846873 
2220.000000	64.842033 
2219.000000	64.839768 
2218.000000	64.839315 
2217.000000	64.839434 
2216.000000	64.838600 
2215.000000	64.835453 
2214.000000	64.829254 
2213.000000	64.820075 
2212.000000	64.808702 
2211.000000	64.796710 
2210.000000	64.786052 
2209.000000	64.778733 
2208.000000	64.776158 
2207.000000	64.779138 
2206.000000	64.787530 
2205.000000	64.800524 
2204.000000	64.816761 
2203.000000	64.834690 
2202.000000	64.853048 
2201.000000	64.870762 
2200.000000	64.887213 
2199.000000	64.902257 
2198.000000	64.916014 
2197.000000	64.928674 
2196.000000	64.940166 
2195.000000	64.950156 
2194.000000	64.957880 
2193.000000	64.962458 
2192.000000	64.962673 
2191.000000	64.957618 
2190.000000	64.946460 
2189.000000	64.929080 
2188.000000	64.906001 
2187.000000	64.878273 
2186.000000	64.847755 
2185.000000	64.816737 
2184.000000	64.787912 
2183.000000	64.763927 
2182.000000	64.747214 
2181.000000	64.739489 
2180.000000	64.741277 
2179.000000	64.751887 
2178.000000	64.769196 
2177.000000	64.789962 
2176.000000	64.810371 
2175.000000	64.826726 
2174.000000	64.835929 
2173.000000	64.836287 
2172.000000	64.827680 
2171.000000	64.811730 
2170.000000	64.791297 
2169.000000	64.769864 
2168.000000	64.750885 
2167.000000	64.737153 
2166.000000	64.730429 
2165.000000	64.731097 
2164.000000	64.738512 
2163.000000	64.751076 
2162.000000	64.766883 
2161.000000	64.783906 
2160.000000	64.800405 
2159.000000	64.815258 
2158.000000	64.827537 
2157.000000	64.836978 
2156.000000	64.843583 
2155.000000	64.847636 
2154.000000	64.849686 
2153.000000	64.850354 
2152.000000	64.850187 
2151.000000	64.849472 
2150.000000	64.848446 
2149.000000	64.846968 
2148.000000	64.844560 
2147.000000	64.840555 
2146.000000	64.834427 
2145.000000	64.825892 
2144.000000	64.815044 
2143.000000	64.802527 
2142.000000	64.789581 
2141.000000	64.777898 
2140.000000	64.769196 
2139.000000	64.765071 
2138.000000	64.766383 
2137.000000	64.773011 
2136.000000	64.783859 
2135.000000	64.796972 
2134.000000	64.809870 
2133.000000	64.820051 
2132.000000	64.825558 
2131.000000	64.825224 
2130.000000	64.818882 
2129.000000	64.807391 
2128.000000	64.792370 
2127.000000	64.775681 
2126.000000	64.759421 
2125.000000	64.745378 
2124.000000	64.734983 
2123.000000	64.729118 
2122.000000	64.728260 
2121.000000	64.732241 
2120.000000	64.740467 
2119.000000	64.752030 
2118.000000	64.765501 
2117.000000	64.779281 
2116.000000	64.791631 
2115.000000	64.800977 
2114.000000	64.806103 
2113.000000	64.806222 
2112.000000	64.801406 
2111.000000	64.792370 
2110.000000	64.780235 
2109.000000	64.766430 
2108.000000	64.752554 
2107.000000	64.740037 
2106.000000	64.730024 
2105.000000	64.723277 
2104.000000	64.720273 
2103.000000	64.720988 
2102.000000	64.724969 
2101.000000	64.731383 
2100.000000	64.739012 
2099.000000	64.746689 
2098.000000	64.753222 
2097.000000	64.757990 
2096.000000	64.760828 
2095.000000	64.762210 
2094.000000	64.762997 
2093.000000	64.764404 
2092.000000	64.767408 
2091.000000	64.772653 
2090.000000	64.780187 
2089.000000	64.789223 
2088.000000	64.798545 
2087.000000	64.806628 
2086.000000	64.811968 
2085.000000	64.813637 
2084.000000	64.811372 
2083.000000	64.805722 
2082.000000	64.798140 
2081.000000	64.790391 
2080.000000	64.784479 
2079.000000	64.781999 
2078.000000	64.783906 
2077.000000	64.790511 
2076.000000	64.801263 
2075.000000	64.814949 
2074.000000	64.829945 
2073.000000	64.844608 
2072.000000	64.857339 
2071.000000	64.867043 
2070.000000	64.872908 
2069.000000	64.874553 
2068.000000	64.871764 
2067.000000	64.864611 
2066.000000	64.853239 
2065.000000	64.838075 
2064.000000	64.820027 
2063.000000	64.800453 
2062.000000	64.781212 
2061.000000	64.764475 
2060.000000	64.752054 
2059.000000	64.745378 
2058.000000	64.744901 
2057.000000	64.750170 
2056.000000	64.760184 
2055.000000	64.773464 
2054.000000	64.788579 
2053.000000	64.804244 
2052.000000	64.819669 
2051.000000	64.834332 
2050.000000	64.847779 
2049.000000	64.859366 
2048.000000	64.868116 
2047.000000	64.872717 
2046.000000	64.871835 
2045.000000	64.864468 
2044.000000	64.850354 
2043.000000	64.830136 
2042.000000	64.805555 
2041.000000	64.779019 
2040.000000	64.753317 
2039.000000	64.730906 
2038.000000	64.713716 
2037.000000	64.702773 
2036.000000	64.698195 
2035.000000	64.699506 
2034.000000	64.705705 
2033.000000	64.715504 
2032.000000	64.727640 
2031.000000	64.740562 
2030.000000	64.753007 
2029.000000	64.763736 
2028.000000	64.771795 
2027.000000	64.776444 
2026.000000	64.777421 
2025.000000	64.774942 
2024.000000	64.769673 
2023.000000	64.762711 
2022.000000	64.755201 
2021.000000	64.748239 
2020.000000	64.742565 
2019.000000	64.738512 
2018.000000	64.735817 
2017.000000	64.733934 
2016.000000	64.732384 
2015.000000	64.730858 
2014.000000	64.729428 
2013.000000	64.728617 
2012.000000	64.729356 
2011.000000	64.732670 
2010.000000	64.739322 
2009.000000	64.749407 
2008.000000	64.762473 
2007.000000	64.776992 
2006.000000	64.790892 
2005.000000	64.801549 
2004.000000	64.806509 
2003.000000	64.803719 
2002.000000	64.792084 
2001.000000	64.771604 
2000.000000	64.743566 
1999.000000	64.710330 
1998.000000	64.674973 
1997.000000	64.641070 
1996.000000	64.611816 
1995.000000	64.590001 
1994.000000	64.577436 
1993.000000	64.574861 
1992.000000	64.581799 
1991.000000	64.596867 
1990.000000	64.618110 
1989.000000	64.643263 
1988.000000	64.669942 
1987.000000	64.695978 
1986.000000	64.719676 
1985.000000	64.739847 
1984.000000	64.755749 
1983.000000	64.767098 
1982.000000	64.773988 
1981.000000	64.776873 
1980.000000	64.776515 
1979.000000	64.774084 
1978.000000	64.770913 
1977.000000	64.768457 
1976.000000	64.768075 
1975.000000	64.770770 
1974.000000	64.777088 
1973.000000	64.786839 
1972.000000	64.799046 
1971.000000	64.812278 
1970.000000	64.824700 
1969.000000	64.834570 
1968.000000	64.840245 
1967.000000	64.840579 
1966.000000	64.835119 
1965.000000	64.824414 
1964.000000	64.809751 
1963.000000	64.793014 
1962.000000	64.776420 
1961.000000	64.762377 
1960.000000	64.752960 
1959.000000	64.749765 
1958.000000	64.753556 
1957.000000	64.763998 
1956.000000	64.779806 
1955.000000	64.798998 
1954.000000	64.818906 
1953.000000	64.836716 
1952.000000	64.849925 
1951.000000	64.856815 
1950.000000	64.856433 
1949.000000	64.848852 
1948.000000	64.834809 
1947.000000	64.815878 
1946.000000	64.793920 
1945.000000	64.770936 
1944.000000	64.749026 
1943.000000	64.730215 
1942.000000	64.716362 
1941.000000	64.708852 
1940.000000	64.708566 
1939.000000	64.715290 
1938.000000	64.727902 
1937.000000	64.744448 
1936.000000	64.762163 
1935.000000	64.778184 
1934.000000	64.789843 
1933.000000	64.795374 
1932.000000	64.793968 
1931.000000	64.786267 
1930.000000	64.773797 
1929.000000	64.758515 
1928.000000	64.742207 
1927.000000	64.726161 
1926.000000	64.710903 
1925.000000	64.696168 
1924.000000	64.681315 
1923.000000	64.665818 
1922.000000	64.649534 
1921.000000	64.633059 
1920.000000	64.617848 
1919.000000	64.605498 
1918.000000	64.597964 
1917.000000	64.596533 
1916.000000	64.601898 
1915.000000	64.613580 
1914.000000	64.630246 
1913.000000	64.649653 
1912.000000	64.669251 
1911.000000	64.686584 
1910.000000	64.700031 
1909.000000	64.708876 
1908.000000	64.713549 
1907.000000	64.715290 
1906.000000	64.715695 
1905.000000	64.716315 
1904.000000	64.718198 
1903.000000	64.721560 
1902.000000	64.725947 
1901.000000	64.730334 
1900.000000	64.733862 
1899.000000	64.735770 
1898.000000	64.735794 
1897.000000	64.734196 
1896.000000	64.731597 
1895.000000	64.728808 
1894.000000	64.726662 
1893.000000	64.725518 
1892.000000	64.725565 
1891.000000	64.726591 
1890.000000	64.728307 
1889.000000	64.730381 
1888.000000	64.732694 
1887.000000	64.735102 
1886.000000	64.737534 
1885.000000	64.739537 
1884.000000	64.740538 
1883.000000	64.739704 
1882.000000	64.736199 
1881.000000	64.729356 
1880.000000	64.718985 
1879.000000	64.705634 
1878.000000	64.690637 
1877.000000	64.675951 
1876.000000	64.663696 
1875.000000	64.655828 
1874.000000	64.653396 
1873.000000	64.656448 
1872.000000	64.663863 
1871.000000	64.673352 
1870.000000	64.682006 
1869.000000	64.686703 
1868.000000	64.684963 
1867.000000	64.675521 
1866.000000	64.658713 
1865.000000	64.636325 
1864.000000	64.611339 
1863.000000	64.587450 
1862.000000	64.568376 
1861.000000	64.557123 
1860.000000	64.555335 
1859.000000	64.563202 
1858.000000	64.579319 
1857.000000	64.601159 
1856.000000	64.625692 
1855.000000	64.649915 
1854.000000	64.671301 
1853.000000	64.688396 
1852.000000	64.700818 
1851.000000	64.709234 
1850.000000	64.715051 
1849.000000	64.719796 
1848.000000	64.724969 
1847.000000	64.731359 
1846.000000	64.739203 
1845.000000	64.747834 
1844.000000	64.756011 
1843.000000	64.761996 
1842.000000	64.764165 
1841.000000	64.761185 
1840.000000	64.752221 
1839.000000	64.737367 
1838.000000	64.717411 
1837.000000	64.694118 
1836.000000	64.669680 
1835.000000	64.646601 
1834.000000	64.627361 
1833.000000	64.613842 
1832.000000	64.607000 
1831.000000	64.606833 
1830.000000	64.612293 
1829.000000	64.621567 
1828.000000	64.632248 
1827.000000	64.641952 
1826.000000	64.648652 
1825.000000	64.651203 
1824.000000	64.649605 
1823.000000	64.644694 
1822.000000	64.637804 
1821.000000	64.630818 
1820.000000	64.625382 
1819.000000	64.622759 
1818.000000	64.623451 
1817.000000	64.627265 
1816.000000	64.633584 
1815.000000	64.641475 
1814.000000	64.650034 
1813.000000	64.658784 
1812.000000	64.667534 
1811.000000	64.676666 
1810.000000	64.686608 
1809.000000	64.697790 
1808.000000	64.710354 
1807.000000	64.724278 
1806.000000	64.738988 
1805.000000	64.753603 
1804.000000	64.767074 
1803.000000	64.778375 
1802.000000	64.786505 
1801.000000	64.790701 
1800.000000	64.790368 
1799.000000	64.785194 
1798.000000	64.775133 
1797.000000	64.760661 
1796.000000	64.742445 
1795.000000	64.721512 
1794.000000	64.699172 
1793.000000	64.676904 
1792.000000	64.656019 
1791.000000	64.637422 
1790.000000	64.621448 
1789.000000	64.607977 
1788.000000	64.596319 
1787.000000	64.585733 
1786.000000	64.575767 
1785.000000	64.566683 
1784.000000	64.559245 
1783.000000	64.554643 
1782.000000	64.554452 
1781.000000	64.559745 
1780.000000	64.570569 
1779.000000	64.585995 
1778.000000	64.603996 
1777.000000	64.621877 
1776.000000	64.636611 
1775.000000	64.645624 
1774.000000	64.647579 
1773.000000	64.642333 
1772.000000	64.630985 
1771.000000	64.615535 
1770.000000	64.598345 
1769.000000	64.581418 
1768.000000	64.565825 
1767.000000	64.551687 
1766.000000	64.538311 
1765.000000	64.524531 
1764.000000	64.509224 
1763.000000	64.491939 
1762.000000	64.473032 
1761.000000	64.453959 
1760.000000	64.436960 
1759.000000	64.424204 
1758.000000	64.417481 
1757.000000	64.417600 
1756.000000	64.423966 
1755.000000	64.434361 
1754.000000	64.445257 
1753.000000	64.452815 
1752.000000	64.453291 
1751.000000	64.443993 
1750.000000	64.423727 
1749.000000	64.393258 
1748.000000	64.354753 
1747.000000	64.311170 
1746.000000	64.265608 
1745.000000	64.220762 
1744.000000	64.178156 
1743.000000	64.138126 
1742.000000	64.100146 
1741.000000	64.063334 
1740.000000	64.026904 
1739.000000	63.990879 
1738.000000	63.956212 
1737.000000	63.925194 
1736.000000	63.900566 
1735.000000	63.885354 
1734.000000	63.881826 
1733.000000	63.891410 
1732.000000	63.913846 
1731.000000	63.947463 
1730.000000	63.989257 
1729.000000	64.035463 
1728.000000	64.081811 
1727.000000	64.124679 
1726.000000	64.161133 
1725.000000	64.189791 
1724.000000	64.210629 
1723.000000	64.225077 
1722.000000	64.235472 
1721.000000	64.244484 
1720.000000	64.254474 
1719.000000	64.267063 
1718.000000	64.282870 
1717.000000	64.301490 
1716.000000	64.321756 
1715.000000	64.342164 
1714.000000	64.361476 
1713.000000	64.378905 
1712.000000	64.394259 
1711.000000	64.407992 
1710.000000	64.421105 
1709.000000	64.434552 
1708.000000	64.449214 
1707.000000	64.465737 
1706.000000	64.484357 
1705.000000	64.504766 
1704.000000	64.526343 
1703.000000	64.548444 
1702.000000	64.570116 
1701.000000	64.590215 
1700.000000	64.607429 
1699.000000	64.620447 
1698.000000	64.628386 
1697.000000	64.631128 
1696.000000	64.629268 
1695.000000	64.624118 
1694.000000	64.617228 
1693.000000	64.610314 
1692.000000	64.604306 
1691.000000	64.599156 
1690.000000	64.593791 
1689.000000	64.586520 
1688.000000	64.575386 
1687.000000	64.558935 
1686.000000	64.536762 
1685.000000	64.509987 
1684.000000	64.480972 
1683.000000	64.452981 
1682.000000	64.429664 
1681.000000	64.414501 
1680.000000	64.409446 
1679.000000	64.415264 
1678.000000	64.431166 
1677.000000	64.455389 
1676.000000	64.485239 
1675.000000	64.517569 
1674.000000	64.549469 
1673.000000	64.578318 
1672.000000	64.601945 
1671.000000	64.618945 
1670.000000	64.628624 
1669.000000	64.631080 
1668.000000	64.627122 
1667.000000	64.617991 
1666.000000	64.605331 
1665.000000	64.590716 
1664.000000	64.575552 
1663.000000	64.560842 
1662.000000	64.547181 
1661.000000	64.534783 
1660.000000	64.523553 
1659.000000	64.513087 
1658.000000	64.502906 
1657.000000	64.492607 
1656.000000	64.481711 
1655.000000	64.469766 
1654.000000	64.456248 
1653.000000	64.440703 
1652.000000	64.422941 
1651.000000	64.402961 
1650.000000	64.381575 
1649.000000	64.360070 
1648.000000	64.340424 
1647.000000	64.324903 
1646.000000	64.315772 
1645.000000	64.314675 
1644.000000	64.322376 
1643.000000	64.338421 
1642.000000	64.361119 
1641.000000	64.387726 
1640.000000	64.414954 
1639.000000	64.439344 
1638.000000	64.457988 
1637.000000	64.468979 
1636.000000	64.471578 
1635.000000	64.466261 
1634.000000	64.454603 
1633.000000	64.438915 
1632.000000	64.421725 
1631.000000	64.405345 
1630.000000	64.391517 
1629.000000	64.381027 
1628.000000	64.373874 
1627.000000	64.369177 
1626.000000	64.365553 
1625.000000	64.361429 
1624.000000	64.355540 
1623.000000	64.347267 
1622.000000	64.336776 
1621.000000	64.325094 
1620.000000	64.313554 
1619.000000	64.303922 
1618.000000	64.297628 
1617.000000	64.295697 
1616.000000	64.298343 
1615.000000	64.305233 
1614.000000	64.315462 
1613.000000	64.327979 
1612.000000	64.341974 
1611.000000	64.356899 
1610.000000	64.372515 
1609.000000	64.388728 
1608.000000	64.405202 
1607.000000	64.421153 
1606.000000	64.435148 
1605.000000	64.445257 
1604.000000	64.449644 
1603.000000	64.446783 
1602.000000	64.436268 
1601.000000	64.418721 
1600.000000	64.396047 
1599.000000	64.371299 
1598.000000	64.348006 
1597.000000	64.329814 
1596.000000	64.319586 
1595.000000	64.319181 
1594.000000	64.328598 
1593.000000	64.346313 
1592.000000	64.369368 
1591.000000	64.393854 
1590.000000	64.415907 
1589.000000	64.432287 
1588.000000	64.441132 
1587.000000	64.441871 
1586.000000	64.435243 
1585.000000	64.423012 
1584.000000	64.407229 
1583.000000	64.389634 
1582.000000	64.371633 
1581.000000	64.354467 
1580.000000	64.338970 
1579.000000	64.325881 
1578.000000	64.315819 
1577.000000	64.309549 
1576.000000	64.307665 
1575.000000	64.310526 
1574.000000	64.318227 
1573.000000	64.330649 
1572.000000	64.347243 
1571.000000	64.367341 
1570.000000	64.390015 
1569.000000	64.414334 
1568.000000	64.439439 
1567.000000	64.464306 
1566.000000	64.487838 
1565.000000	64.508700 
1564.000000	64.525699 
1563.000000	64.537310 
1562.000000	64.542245 
1561.000000	64.539194 
1560.000000	64.527630 
1559.000000	64.507412 
1558.000000	64.479303 
1557.000000	64.444589 
1556.000000	64.405226 
1555.000000	64.363646 
1554.000000	64.322447 
1553.000000	64.284229 
1552.000000	64.251446 
1551.000000	64.226078 
1550.000000	64.209437 
1549.000000	64.202141 
1548.000000	64.204025 
1547.000000	64.213848 
1546.000000	64.229726 
1545.000000	64.249038 
1544.000000	64.269018 
1543.000000	64.287042 
1542.000000	64.301252 
1541.000000	64.310598 
1540.000000	64.315032 
1539.000000	64.315319 
1538.000000	64.312887 
1537.000000	64.309239 
1536.000000	64.305806 
1535.000000	64.303898 
1534.000000	64.304280 
1533.000000	64.307212 
1532.000000	64.312338 
1531.000000	64.318728 
1530.000000	64.325189 
1529.000000	64.330458 
1528.000000	64.333581 
1527.000000	64.334201 
1526.000000	64.332890 
1525.000000	64.331078 
1524.000000	64.330482 
1523.000000	64.332842 
1522.000000	64.339566 
1521.000000	64.351344 
1520.000000	64.367914 
1519.000000	64.388108 
1518.000000	64.410448 
1517.000000	64.433073 
1516.000000	64.454603 
1515.000000	64.473938 
1514.000000	64.490509 
1513.000000	64.503955 
1512.000000	64.514064 
1511.000000	64.520263 
1510.000000	64.521932 
1509.000000	64.518141 
1508.000000	64.508390 
1507.000000	64.492464 
1506.000000	64.471268 
1505.000000	64.446234 
1504.000000	64.419531 
1503.000000	64.393568 
1502.000000	64.370489 
1501.000000	64.351987 
1500.000000	64.338994 
1499.000000	64.331722 
1498.000000	64.329695 
1497.000000	64.332079 
1496.000000	64.337921 
1495.000000	64.346146 
1494.000000	64.355635 
1493.000000	64.365458 
1492.000000	64.374828 
1491.000000	64.382719 
1490.000000	64.388155 
1489.000000	64.390349 
1488.000000	64.388728 
1487.000000	64.383125 
1486.000000	64.374017 
1485.000000	64.362454 
1484.000000	64.349937 
1483.000000	64.338159 
1482.000000	64.328598 
1481.000000	64.322257 
1480.000000	64.319515 
1479.000000	64.319825 
1478.000000	64.322161 
1477.000000	64.325165 
1476.000000	64.327549 
1475.000000	64.328503 
1474.000000	64.327716 
1473.000000	64.325237 
1472.000000	64.321494 
1471.000000	64.317202 
1470.000000	64.312529 
1469.000000	64.307188 
1468.000000	64.300465 
1467.000000	64.291644 
1466.000000	64.279961 
1465.000000	64.265179 
1464.000000	64.247751 
1463.000000	64.229249 
1462.000000	64.211893 
1461.000000	64.198541 
1460.000000	64.191675 
1459.000000	64.193034 
1458.000000	64.203047 
1457.000000	64.220404 
1456.000000	64.242458 
1455.000000	64.265418 
1454.000000	64.285254 
1453.000000	64.298605 
1452.000000	64.303326 
1451.000000	64.299368 
1450.000000	64.288473 
1449.000000	64.274191 
1448.000000	64.260888 
1447.000000	64.253187 
1446.000000	64.254832 
1445.000000	64.268040 
1444.000000	64.293098 
1443.000000	64.328169 
1442.000000	64.369726 
1441.000000	64.413261 
1440.000000	64.453792 
1439.000000	64.486813 
1438.000000	64.508676 
1437.000000	64.517378 
1436.000000	64.512515 
1435.000000	64.495372 
1434.000000	64.468574 
1433.000000	64.435768 
1432.000000	64.400935 
1431.000000	64.367961 
1430.000000	64.339804 
1429.000000	64.318704 
1428.000000	64.305400 
1427.000000	64.299631 
1426.000000	64.300155 
1425.000000	64.304971 
1424.000000	64.311814 
1423.000000	64.318704 
1422.000000	64.323878 
1421.000000	64.325881 
1420.000000	64.324045 
1419.000000	64.318394 
1418.000000	64.309549 
1417.000000	64.298582 
1416.000000	64.286971 
1415.000000	64.276456 
1414.000000	64.268708 
1413.000000	64.265155 
1412.000000	64.266800 
1411.000000	64.273905 
1410.000000	64.285993 
1409.000000	64.301753 
1408.000000	64.319443 
1407.000000	64.337038 
1406.000000	64.352703 
1405.000000	64.364862 
1404.000000	64.372444 
1403.000000	64.374876 
1402.000000	64.372348 
1401.000000	64.365029 
1400.000000	64.353203 
1399.000000	64.336919 
1398.000000	64.316368 
1397.000000	64.291477 
1396.000000	64.262509 
1395.000000	64.230012 
1394.000000	64.195132 
1393.000000	64.159560 
1392.000000	64.125418 
1391.000000	64.094948 
1390.000000	64.070343 
1389.000000	64.053392 
1388.000000	64.045238 
1387.000000	64.046263 
1386.000000	64.056062 
1385.000000	64.073514 
1384.000000	64.097023 
1383.000000	64.124464 
1382.000000	64.153909 
1381.000000	64.183568 
1380.000000	64.212012 
1379.000000	64.238572 
1378.000000	64.262628 
1377.000000	64.283752 
1376.000000	64.301371 
1375.000000	64.314889 
1374.000000	64.323329 
1373.000000	64.325642 
1372.000000	64.320969 
1371.000000	64.309000 
1370.000000	64.290285 
1369.000000	64.266133 
1368.000000	64.238810 
1367.000000	64.211249 
1366.000000	64.186525 
1365.000000	64.167284 
1364.000000	64.155483 
1363.000000	64.151859 
1362.000000	64.155769 
1361.000000	64.165282 
1360.000000	64.177656 
1359.000000	64.189815 
1358.000000	64.198732 
1357.000000	64.202189 
1356.000000	64.198827 
1355.000000	64.188861 
1354.000000	64.173674 
1353.000000	64.155983 
1352.000000	64.138913 
1351.000000	64.125728 
1350.000000	64.119291 
1349.000000	64.121270 
1348.000000	64.132189 
1347.000000	64.151048 
1346.000000	64.175581 
1345.000000	64.202666 
1344.000000	64.228749 
1343.000000	64.250469 
1342.000000	64.265084 
1341.000000	64.270973 
1340.000000	64.267611 
1339.000000	64.255809 
1338.000000	64.237284 
1337.000000	64.214658 
1336.000000	64.190912 
1335.000000	64.168930 
1334.000000	64.151000 
1333.000000	64.138746 
1332.000000	64.132881 
1331.000000	64.132833 
1330.000000	64.137077 
1329.000000	64.143347 
1328.000000	64.149284 
1327.000000	64.152765 
1326.000000	64.152574 
1325.000000	64.148688 
1324.000000	64.142036 
1323.000000	64.134693 
1322.000000	64.128899 
1321.000000	64.126729 
1320.000000	64.129233 
1319.000000	64.136242 
1318.000000	64.146113 
1317.000000	64.156293 
1316.000000	64.163923 
1315.000000	64.166688 
1314.000000	64.163422 
1313.000000	64.154553 
1312.000000	64.142012 
1311.000000	64.128947 
1310.000000	64.118838 
1309.000000	64.114618 
1308.000000	64.118051 
1307.000000	64.129209 
1306.000000	64.146780 
1305.000000	64.168214 
1304.000000	64.190435 
1303.000000	64.210462 
1302.000000	64.226078 
1301.000000	64.236140 
1300.000000	64.240336 
1299.000000	64.239311 
1298.000000	64.234089 
1297.000000	64.225840 
1296.000000	64.215612 
1295.000000	64.204406 
1294.000000	64.193081 
1293.000000	64.182281 
1292.000000	64.172816 
1291.000000	64.165139 
1290.000000	64.159703 
1289.000000	64.156413 
1288.000000	64.154958 
1287.000000	64.154577 
1286.000000	64.154219 
1285.000000	64.152956 
1284.000000	64.150285 
1283.000000	64.146208 
1282.000000	64.141345 
1281.000000	64.136767 
1280.000000	64.133667 
1279.000000	64.133024 
1278.000000	64.135336 
1277.000000	64.140391 
1276.000000	64.147233 
1275.000000	64.154553 
1274.000000	64.160943 
1273.000000	64.165258 
1272.000000	64.166831 
1271.000000	64.165663 
1270.000000	64.162182 
1269.000000	64.157366 
1268.000000	64.151978 
1267.000000	64.146780 
1266.000000	64.141798 
1265.000000	64.136600 
1264.000000	64.130187 
1263.000000	64.121532 
1262.000000	64.109611 
1261.000000	64.093971 
1260.000000	64.074754 
1259.000000	64.052867 
1258.000000	64.029836 
1257.000000	64.007425 
1256.000000	63.987469 
1255.000000	63.971376 
1254.000000	63.960242 
1253.000000	63.954567 
1252.000000	63.954544 
1251.000000	63.959932 
1250.000000	63.970208 
1249.000000	63.984632 
1248.000000	64.002156 
1247.000000	64.021563 
1246.000000	64.041209 
1245.000000	64.059185 
1244.000000	64.073562 
1243.000000	64.082336 
1242.000000	64.084124 
1241.000000	64.078092 
1240.000000	64.064407 
1239.000000	64.044046 
1238.000000	64.019036 
1237.000000	63.991761 
1236.000000	63.965010 
1235.000000	63.941168 
1234.000000	63.921904 
1233.000000	63.907957 
1232.000000	63.899278 
1231.000000	63.895153 
1230.000000	63.894534 
1229.000000	63.896441 
1228.000000	63.900160 
1227.000000	63.905405 
1226.000000	63.912177 
1225.000000	63.920760 
1224.000000	63.931465 
1223.000000	63.944339 
1222.000000	63.959312 
1221.000000	63.976001 
1220.000000	63.993787 
1219.000000	64.012098 
1218.000000	64.030146 
1217.000000	64.047217 
1216.000000	64.062333 
1215.000000	64.074468 
1214.000000	64.082455 
1213.000000	64.085316 
1212.000000	64.082455 
1211.000000	64.074087 
1210.000000	64.061236 
1209.000000	64.045810 
1208.000000	64.030027 
1207.000000	64.016127 
1206.000000	64.005589 
1205.000000	63.998937 
1204.000000	63.995766 
1203.000000	63.994908 
1202.000000	63.994956 
1201.000000	63.994693 
1200.000000	63.993620 
1199.000000	63.991832 
1198.000000	63.989901 
1197.000000	63.988661 
1196.000000	63.988661 
1195.000000	63.989949 
1194.000000	63.991761 
1193.000000	63.993024 
1192.000000	63.992500 
1191.000000	63.989329 
1190.000000	63.983440 
1189.000000	63.975667 
1188.000000	63.967895 
1187.000000	63.962244 
1186.000000	63.960599 
1185.000000	63.963913 
1184.000000	63.971853 
1183.000000	63.982629 
1182.000000	63.993406 
1181.000000	64.000773 
1180.000000	64.001727 
1179.000000	63.994193 
1178.000000	63.977789 
1177.000000	63.953614 
1176.000000	63.923978 
1175.000000	63.891911 
1174.000000	63.860702 
1173.000000	63.833022 
1172.000000	63.810539 
1171.000000	63.794040 
1170.000000	63.783597 
1169.000000	63.778901 
1168.000000	63.779401 
1167.000000	63.784551 
1166.000000	63.793826 
1165.000000	63.806319 
1164.000000	63.820815 
1163.000000	63.835501 
1162.000000	63.848328 
1161.000000	63.857340 
1160.000000	63.861083 
1159.000000	63.858938 
1158.000000	63.851380 
1157.000000	63.839840 
1156.000000	63.826441 
1155.000000	63.813591 
1154.000000	63.803625 
1153.000000	63.798379 
1152.000000	63.799095 
1151.000000	63.806366 
1150.000000	63.820171 
1149.000000	63.839864 
1148.000000	63.864302 
1147.000000	63.891983 
1146.000000	63.920927 
1145.000000	63.948869 
1144.000000	63.973522 
1143.000000	63.993096 
1142.000000	64.006304 
1141.000000	64.012694 
1140.000000	64.013075 
1139.000000	64.008927 
1138.000000	64.002060 
1137.000000	63.994002 
1136.000000	63.985943 
1135.000000	63.977980 
1134.000000	63.969564 
1133.000000	63.959598 
1132.000000	63.946986 
1131.000000	63.931417 
1130.000000	63.913321 
1129.000000	63.894295 
1128.000000	63.876628 
1127.000000	63.862895 
1126.000000	63.855385 
1125.000000	63.855504 
1124.000000	63.863396 
1123.000000	63.877797 
1122.000000	63.896250 
1121.000000	63.915777 
1120.000000	63.933420 
1119.000000	63.946819 
1118.000000	63.954830 
1117.000000	63.957476 
1116.000000	63.955998 
1115.000000	63.952422 
1114.000000	63.949370 
1113.000000	63.949179 
1112.000000	63.953566 
1111.000000	63.963508 
1110.000000	63.978695 
1109.000000	63.998198 
1108.000000	64.019823 
1107.000000	64.041113 
1106.000000	64.059042 
1105.000000	64.070987 
1104.000000	64.074826 
1103.000000	64.069390 
1102.000000	64.054799 
1101.000000	64.032483 
1100.000000	64.005088 
1099.000000	63.976144 
1098.000000	63.949465 
1097.000000	63.928723 
1096.000000	63.916683 
1095.000000	63.914966 
1094.000000	63.923597 
1093.000000	63.941001 
1092.000000	63.964462 
1091.000000	63.990497 
1090.000000	64.015412 
1089.000000	64.035940 
1088.000000	64.049649 
1087.000000	64.055514 
1086.000000	64.053964 
1085.000000	64.046573 
1084.000000	64.035820 
1083.000000	64.024496 
1082.000000	64.015460 
1081.000000	64.010500 
1080.000000	64.010381 
1079.000000	64.014458 
1078.000000	64.021039 
1077.000000	64.027762 
1076.000000	64.032459 
1075.000000	64.033389 
1074.000000	64.029860 
1073.000000	64.022064 
1072.000000	64.010930 
1071.000000	63.997483 
1070.000000	63.982701 
1069.000000	63.967108 
1068.000000	63.950848 
1067.000000	63.933777 
1066.000000	63.916063 
1065.000000	63.898301 
1064.000000	63.881921 
1063.000000	63.868951 
1062.000000	63.861823 
1061.000000	63.862848 
1060.000000	63.873577 
1059.000000	63.894462 
1058.000000	63.924288 
1057.000000	63.960433 
1056.000000	63.999247 
1055.000000	64.036583 
1054.000000	64.068651 
1053.000000	64.092445 
1052.000000	64.106273 
1051.000000	64.110183 
1050.000000	64.105510 
1049.000000	64.094591 
1048.000000	64.079904 
1047.000000	64.064168 
1046.000000	64.049124 
1045.000000	64.035892 
1044.000000	64.024496 
1043.000000	64.014387 
1042.000000	64.004778 
1041.000000	63.994956 
1040.000000	63.984560 
1039.000000	63.973665 
1038.000000	63.962960 
1037.000000	63.953542 
1036.000000	63.946533 
1035.000000	63.942861 
1034.000000	63.943099 
1033.000000	63.947582 
1032.000000	63.956093 
1031.000000	63.968253 
1030.000000	63.983511 
1029.000000	64.001536 
1028.000000	64.021849 
1027.000000	64.044308 
1026.000000	64.068841 
1025.000000	64.095234 
1024.000000	64.123034 
1023.000000	64.151549 
1022.000000	64.179825 
1021.000000	64.206457 
1020.000000	64.230060 
1019.000000	64.248919 
1018.000000	64.261579 
1017.000000	64.266681 
1016.000000	64.263510 
1015.000000	64.251470 
1014.000000	64.230585 
1013.000000	64.201378 
1012.000000	64.165139 
1011.000000	64.123773 
1010.000000	64.079594 
1009.000000	64.035534 
1008.000000	63.994503 
1007.000000	63.959431 
1006.000000	63.932847 
1005.000000	63.916373 
1004.000000	63.910531 
1003.000000	63.914847 
1002.000000	63.927865 
1001.000000	63.947129 
1000.000000	63.969969 
999.000000	 63.993835 
998.000000	 64.016771 
997.000000	 64.037227 
996.000000	 64.054369 
995.000000	 64.067912 
994.000000	 64.077949 
993.000000	 64.084672 
992.000000	 64.088416 
991.000000	 64.089608 
990.000000	 64.088892 
989.000000	 64.087104 
988.000000	 64.085388 
987.000000	 64.084935 
986.000000	 64.086556 
985.000000	 64.090633 
984.000000	 64.096546 
983.000000	 64.102721 
982.000000	 64.106941 
981.000000	 64.106726 
980.000000	 64.100074 
979.000000	 64.085745 
978.000000	 64.064049 
977.000000	 64.036464 
976.000000	 64.005446 
975.000000	 63.973951 
974.000000	 63.944530 
973.000000	 63.919281 
972.000000	 63.899135 
971.000000	 63.884687 
970.000000	 63.875579 
969.000000	 63.871741 
968.000000	 63.873195 
967.000000	 63.880348 
966.000000	 63.893437 
965.000000	 63.912487 
964.000000	 63.936543 
963.000000	 63.963866 
962.000000	 63.991570 
961.000000	 64.016699 
960.000000	 64.036607 
959.000000	 64.049911 
958.000000	 64.056849 
957.000000	 64.058899 
956.000000	 64.058542 
955.000000	 64.058232 
954.000000	 64.059925 
953.000000	 64.064502 
952.000000	 64.071178 
951.000000	 64.078307 
950.000000	 64.083337 
949.000000	 64.083790 
948.000000	 64.077901 
947.000000	 64.064955 
946.000000	 64.045739 
945.000000	 64.022207 
944.000000	 63.997173 
943.000000	 63.973832 
942.000000	 63.954973 
941.000000	 63.942456 
940.000000	 63.936901 
939.000000	 63.937950 
938.000000	 63.944339 
937.000000	 63.954377 
936.000000	 63.966774 
935.000000	 63.980507 
934.000000	 63.995790 
933.000000	 64.013552 
932.000000	 64.035105 
931.000000	 64.061450 
930.000000	 64.092779 
929.000000	 64.127802 
928.000000	 64.163780 
927.000000	 64.196777 
926.000000	 64.222621 
925.000000	 64.237618 
924.000000	 64.239835 
923.000000	 64.229297 
922.000000	 64.208054 
921.000000	 64.179778 
920.000000	 64.148807 
919.000000	 64.119458 
918.000000	 64.095449 
917.000000	 64.079117 
916.000000	 64.071369 
915.000000	 64.071607 
914.000000	 64.078068 
913.000000	 64.088487 
912.000000	 64.100551 
911.000000	 64.112305 
910.000000	 64.122247 
909.000000	 64.129495 
908.000000	 64.133667 
907.000000	 64.134550 
906.000000	 64.131832 
905.000000	 64.125132 
904.000000	 64.114069 
903.000000	 64.098858 
902.000000	 64.080405 
901.000000	 64.060640 
900.000000	 64.042139 
899.000000	 64.027881 
898.000000	 64.020085 
897.000000	 64.019918 
896.000000	 64.026522 
895.000000	 64.037084 
894.000000	 64.047336 
893.000000	 64.052176 
892.000000	 64.047360 
891.000000	 64.030551 
890.000000	 64.002799 
889.000000	 63.967967 
888.000000	 63.932561 
887.000000	 63.903832 
886.000000	 63.888502 
885.000000	 63.890933 
884.000000	 63.912034 
883.000000	 63.949036 
882.000000	 63.996148 
881.000000	 64.045953 
880.000000	 64.090991 
879.000000	 64.125609 
878.000000	 64.146924 
877.000000	 64.155244 
876.000000	 64.153766 
875.000000	 64.147448 
874.000000	 64.141654 
873.000000	 64.140605 
872.000000	 64.146423 
871.000000	 64.158344 
870.000000	 64.173483 
869.000000	 64.187121 
868.000000	 64.194154 
867.000000	 64.190340 
866.000000	 64.173173 
865.000000	 64.143109 
864.000000	 64.103341 
863.000000	 64.059591 
862.000000	 64.018535 
861.000000	 63.986682 
860.000000	 63.968873 
859.000000	 63.967108 
858.000000	 63.980531 
857.000000	 64.005255 
856.000000	 64.035487 
855.000000	 64.064764 
854.000000	 64.087557 
853.000000	 64.099979 
852.000000	 64.100527 
851.000000	 64.089965 
850.000000	 64.070630 
849.000000	 64.046192 
848.000000	 64.020729 
847.000000	 63.997840 
846.000000	 63.980078 
845.000000	 63.968682 
844.000000	 63.963270 
843.000000	 63.962554 
842.000000	 63.964295 
841.000000	 63.965749 
840.000000	 63.964414 
839.000000	 63.957858 
838.000000	 63.945055 
837.000000	 63.925671 
836.000000	 63.901495 
835.000000	 63.875055 
834.000000	 63.850498 
833.000000	 63.832592 
832.000000	 63.826155 
831.000000	 63.835167 
830.000000	 63.861131 
829.000000	 63.902378 
828.000000	 63.954091 
827.000000	 64.009189 
826.000000	 64.059400 
825.000000	 64.096999 
824.000000	 64.116621 
823.000000	 64.116621 
822.000000	 64.099192 
821.000000	 64.070129 
820.000000	 64.037227 
819.000000	 64.008355 
818.000000	 63.990044 
817.000000	 63.985753 
816.000000	 63.995766 
815.000000	 64.016795 
814.000000	 64.043569 
813.000000	 64.069557 
812.000000	 64.088797 
811.000000	 64.097046 
810.000000	 64.092254 
809.000000	 64.075493 
808.000000	 64.049577 
807.000000	 64.019417 
806.000000	 63.990449 
805.000000	 63.968420 
804.000000	 63.958001 
803.000000	 63.962459 
802.000000	 63.983249 
801.000000	 64.019536 
800.000000	 64.068531 
799.000000	 64.125370 
798.000000	 64.183926 
797.000000	 64.237427 
796.000000	 64.279532 
795.000000	 64.305448 
794.000000	 64.312696 
793.000000	 64.301419 
792.000000	 64.274024 
791.000000	 64.234709 
790.000000	 64.188218 
789.000000	 64.139175 
788.000000	 64.090991 
787.000000	 64.046049 
786.000000	 64.005422 
785.000000	 63.969588 
784.000000	 63.938832 
783.000000	 63.913774 
782.000000	 63.895368 
781.000000	 63.884377 
780.000000	 63.881421 
779.000000	 63.885998 
778.000000	 63.896679 
777.000000	 63.910436 
776.000000	 63.924026 
775.000000	 63.934135 
774.000000	 63.938665 
773.000000	 63.936924 
772.000000	 63.929843 
771.000000	 63.919663 
770.000000	 63.909196 
769.000000	 63.901042 
768.000000	 63.896942 
767.000000	 63.897252 
766.000000	 63.900899 
765.000000	 63.905358 
764.000000	 63.907432 
763.000000	 63.903713 
762.000000	 63.891386 
761.000000	 63.868951 
760.000000	 63.836336 
759.000000	 63.795232 
758.000000	 63.749051 
757.000000	 63.702368 
756.000000	 63.659906 
755.000000	 63.625693 
754.000000	 63.602685 
753.000000	 63.591837 
752.000000	 63.592123 
751.000000	 63.600659 
750.000000	 63.613271 
749.000000	 63.625907 
748.000000	 63.635587 
747.000000	 63.641238 
746.000000	 63.643264 
745.000000	 63.643836 
744.000000	 63.646078 
743.000000	 63.652539 
742.000000	 63.664412 
741.000000	 63.681268 
740.000000	 63.701200 
739.000000	 63.721394 
738.000000	 63.739061 
737.000000	 63.752079 
736.000000	 63.759875 
735.000000	 63.763976 
734.000000	 63.767480 
733.000000	 63.774061 
732.000000	 63.786745 
731.000000	 63.807630 
730.000000	 63.836169 
729.000000	 63.869690 
728.000000	 63.902902 
727.000000	 63.930273 
726.000000	 63.945603 
725.000000	 63.943743 
724.000000	 63.921260 
723.000000	 63.877987 
722.000000	 63.816165 
721.000000	 63.740324 
720.000000	 63.655853 
719.000000	 63.568043 
718.000000	 63.481450 
717.000000	 63.400053 
716.000000	 63.326048 
715.000000	 63.260459 
714.000000	 63.204669 
713.000000	 63.161206 
712.000000	 63.133978 
711.000000	 63.127803 
710.000000	 63.147401 
709.000000	 63.195967 
708.000000	 63.273215 
707.000000	 63.375115 
706.000000	 63.492727 
705.000000	 63.614678 
704.000000	 63.728213 
703.000000	 63.822960 
702.000000	 63.892650 
701.000000	 63.937139 
700.000000	 63.962650 
699.000000	 63.979029 
698.000000	 63.998556 
697.000000	 64.029526 
696.000000	 64.075851 
695.000000	 64.131164 
694.000000	 64.181375 
693.000000	 64.205646 
692.000000	 64.182829 
691.000000	 64.096999 
690.000000	 63.943219 
689.000000	 63.730621 
688.000000	 63.482093 
687.000000	 63.229131 
686.000000	 63.005685 
685.000000	 62.840747 
684.000000	 62.752842 
683.000000	 62.747335 
682.000000	 62.816238 
681.000000	 62.941646 
680.000000	 63.099908 
679.000000	 63.266086 
678.000000	 63.419389 
677.000000	 63.543629 
676.000000	 63.631534 
675.000000	 63.682246 
674.000000	 63.701581 
673.000000	 63.698053 
672.000000	 63.681125 
671.000000	 63.659715 
670.000000	 63.639307 
669.000000	 63.622522 
668.000000	 63.608217 
667.000000	 63.594126 
666.000000	 63.577151 
665.000000	 63.555502 
664.000000	 63.529515 
663.000000	 63.501811 
662.000000	 63.477087 
661.000000	 63.460898 
660.000000	 63.457798 
659.000000	 63.469886 
658.000000	 63.496160 
657.000000	 63.532757 
656.000000	 63.573217 
655.000000	 63.610672 
654.000000	 63.640284 
653.000000	 63.660240 
652.000000	 63.672280 
651.000000	 63.680529 
650.000000	 63.690447 
649.000000	 63.705945 
648.000000	 63.728713 
647.000000	 63.756060 
646.000000	 63.781023 
645.000000	 63.794112 
644.000000	 63.787102 
643.000000	 63.754343 
642.000000	 63.695335 
641.000000	 63.614892 
640.000000	 63.522386 
639.000000	 63.430166 
638.000000	 63.350796 
637.000000	 63.294410 
636.000000	 63.266205 
635.000000	 63.266754 
634.000000	 63.292169 
633.000000	 63.335347 
632.000000	 63.387942 
631.000000	 63.442134 
630.000000	 63.492178 
629.000000	 63.533902 
628.000000	 63.565111 
627.000000	 63.585066 
626.000000	 63.593602 
625.000000	 63.591456 
624.000000	 63.578557 
623.000000	 63.555169 
622.000000	 63.520407 
621.000000	 63.473153 
620.000000	 63.412165 
619.000000	 63.336491 
618.000000	 63.247609 
617.000000	 63.149881 
616.000000	 63.051867 
615.000000	 62.964797 
614.000000	 62.901997 
613.000000	 62.875938 
612.000000	 62.895584 
611.000000	 62.963771 
610.000000	 63.076066 
609.000000	 63.220739 
608.000000	 63.381624 
607.000000	 63.541078 
606.000000	 63.684225 
605.000000	 63.801598 
604.000000	 63.891267 
603.000000	 63.957452 
602.000000	 64.007806 
601.000000	 64.049625 
600.000000	 64.087319 
599.000000	 64.120125 
598.000000	 64.144086 
597.000000	 64.151835 
596.000000	 64.138031 
595.000000	 64.098525 
594.000000	 64.033937 
593.000000	 63.948202 
592.000000	 63.848280 
591.000000	 63.743185 
590.000000	 63.641619 
589.000000	 63.551783 
588.000000	 63.479924 
587.000000	 63.430404 
586.000000	 63.405275 
585.000000	 63.404893 
584.000000	 63.428139 
583.000000	 63.472366 
582.000000	 63.533592 
581.000000	 63.606715 
580.000000	 63.685607 
579.000000	 63.764405 
578.000000	 63.837933 
577.000000	 63.901686 
576.000000	 63.952088 
575.000000	 63.987565 
574.000000	 64.007830 
573.000000	 64.012861 
572.000000	 64.002871 
571.000000	 63.979673 
570.000000	 63.945508 
569.000000	 63.903760 
568.000000	 63.857936 
567.000000	 63.811945 
566.000000	 63.769173 
565.000000	 63.732147 
564.000000	 63.702797 
563.000000	 63.682031 
562.000000	 63.670945 
561.000000	 63.670396 
560.000000	 63.681912 
559.000000	 63.706707 
558.000000	 63.746094 
557.000000	 63.800811 
556.000000	 63.869333 
555.000000	 63.946843 
554.000000	 64.025831 
553.000000	 64.096879 
552.000000	 64.149498 
551.000000	 64.173769 
550.000000	 64.162707 
549.000000	 64.113068 
548.000000	 64.025878 
547.000000	 63.906240 
546.000000	 63.762187 
545.000000	 63.603830 
544.000000	 63.443017 
543.000000	 63.291144 
542.000000	 63.158440 
541.000000	 63.052010 
540.000000	 62.975358 
539.000000	 62.928485 
538.000000	 62.906789 
537.000000	 62.904715 
536.000000	 62.915706 
535.000000	 62.936162 
534.000000	 62.964057 
533.000000	 63.001871 
532.000000	 63.053607 
531.000000	 63.125181 
530.000000	 63.220524 
529.000000	 63.341617 
528.000000	 63.486361 
527.000000	 63.648724 
526.000000	 63.818907 
525.000000	 63.985562 
524.000000	 64.137077 
523.000000	 64.263367 
522.000000	 64.356660 
521.000000	 64.412188 
520.000000	 64.427757 
519.000000	 64.404058 
518.000000	 64.343833 
517.000000	 64.252972 
516.000000	 64.138793 
515.000000	 64.011907 
514.000000	 63.882827 
513.000000	 63.761138 
512.000000	 63.654160 
511.000000	 63.567256 
510.000000	 63.503265 
509.000000	 63.462352 
508.000000	 63.443136 
507.000000	 63.443064 
506.000000	 63.458728 
505.000000	 63.485860 
504.000000	 63.518762 
503.000000	 63.549923 
502.000000	 63.571786 
501.000000	 63.577556 
500.000000	 63.562917 
499.000000	 63.526511 
498.000000	 63.471484 
497.000000	 63.404273 
496.000000	 63.333296 
495.000000	 63.266539 
494.000000	 63.208937 
493.000000	 63.161754 
492.000000	 63.120985 
491.000000	 63.081073 
490.000000	 63.037490 
489.000000	 62.990355 
488.000000	 62.944602 
487.000000	 62.910270 
486.000000	 62.900424 
485.000000	 62.926149 
484.000000	 62.992715 
483.000000	 63.095784 
482.000000	 63.221168 
481.000000	 63.346648 
480.000000	 63.447165 
479.000000	 63.500165 
478.000000	 63.490843 
477.000000	 63.416743 
476.000000	 63.289093 
475.000000	 63.129591 
474.000000	 62.965202 
473.000000	 62.823343 
472.000000	 62.725591 
471.000000	 62.685108 
470.000000	 62.704277 
469.000000	 62.776041 
468.000000	 62.885069 
467.000000	 63.011574 
466.000000	 63.134002 
465.000000	 63.231635 
464.000000	 63.287496 
463.000000	 63.289761 
462.000000	 63.233399 
461.000000	 63.120341 
460.000000	 62.958908 
459.000000	 62.761759 
458.000000	 62.545013 
457.000000	 62.325501 
456.000000	 62.120389 
455.000000	 61.945676 
454.000000	 61.815571 
453.000000	 61.739754 
452.000000	 61.725449 
451.000000	 61.776328 
450.000000	 61.891365 
449.000000	 62.063026 
448.000000	 62.278079 
447.000000	 62.517976 
446.000000	 62.758827 
445.000000	 62.973713 
444.000000	 63.136315 
443.000000	 63.224935 
442.000000	 63.227462 
441.000000	 63.143777 
440.000000	 62.984228 
439.000000	 62.768769 
438.000000	 62.525105 
437.000000	 62.283253 
436.000000	 62.073945 
435.000000	 61.920118 
434.000000	 61.836051 
433.000000	 61.821126 
432.000000	 61.862730 
431.000000	 61.936354 
430.000000	 62.013173 
429.000000	 62.063312 
428.000000	 62.060356 
427.000000	 61.988234 
426.000000	 61.845612 
425.000000	 61.642217 
424.000000	 61.395573 
423.000000	 61.125755 
422.000000	 60.850191 
421.000000	 60.583233 
420.000000	 60.335230 
419.000000	 60.116314 
418.000000	 59.938406 
417.000000	 59.816932 
416.000000	 59.768962 
415.000000	 59.813117 
414.000000	 59.960627 
413.000000	 60.208463 
412.000000	 60.533189 
411.000000	 60.882759 
410.000000	 61.190772 
409.000000	 61.388754 
408.000000	 61.429214 
407.000000	 61.294698 
406.000000	 61.013913 
405.000000	 60.649561 
404.000000	 60.296082 
403.000000	 60.065245 
402.000000	 60.051321 
401.000000	 60.306739 
400.000000	 60.822987 
399.000000	 61.544227 
398.000000	 62.352848 
397.000000	 63.090944 
396.000000	 63.606286 
395.000000	 63.783454 
394.000000	 63.597607 
393.000000	 63.122797 
392.000000	 62.521481 
391.000000	 62.000489 
390.000000	 61.753106 
389.000000	 61.897158 
388.000000	 62.447023 
387.000000	 63.295507 
386.000000	 64.224171 
385.000000	 64.965677 
384.000000	 65.254426 
383.000000	 64.923810 
382.000000	 63.981771 
381.000000	 62.615728 
380.000000	 61.108946 
379.000000	 59.816193 
378.000000	 59.052157 
377.000000	 59.060144 
376.000000	 59.928727 
375.000000	 61.631464 
374.000000	 64.044475 
373.000000	 66.979813 
372.000000	 70.305943 
371.000000	 73.803949 
370.000000	 77.146792 

