PE IR       SPECTRUM    SPECTRUM    ASCII       PEDS        1.60        
  -1
BZCBFA~1.ASC
17/04/07
21:42:04.00
17/04/07
21:42:04.00
tln
$BZ1503107-1_t0103$<tbV0>[5.2,10.4,8.0,0.0,27,1,0]
370.000000
64









2002,4.07    
MIRTGS : RIGHTBACK : INTERNAL 2
MIR : ON : INTERNAL 2
OPTKBR

0.200000
8
8.000000
FILLER
RATIO
SPECTRUM
UNLOCKED 256

DOUBLE
64
COMBINED
1
0
0


1.000000
RATIO


1
0
TRUE
51149
0
LEFT NOT FITTED RIGHT NOT FITTED 0
NONE
NONE
15600
12.000000
4.427000
51148
TRUE
1 0 8 72 0 0 0 0 

15798.010000






#HDR
-1
-1
#GR
CM-1
%T
0.00002384185791015625
0.0
5000.000000
-1.000000
4631
8
78.889608
49.847006
#DATA
5000.000000	66.378951 
4999.000000	66.378331 
4998.000000	66.278719 
4997.000000	66.069507 
4996.000000	65.755081 
4995.000000	65.356111 
4994.000000	64.904260 
4993.000000	64.435982 
4992.000000	63.986849 
4991.000000	63.584828 
4990.000000	63.250255 
4989.000000	62.994074 
4988.000000	62.821841 
4987.000000	62.734937 
4986.000000	62.732815 
4985.000000	62.812519 
4984.000000	62.963318 
4983.000000	63.164329 
4982.000000	63.385176 
4981.000000	63.588452 
4980.000000	63.733410 
4979.000000	63.784313 
4978.000000	63.718175 
4977.000000	63.531208 
4976.000000	63.241696 
4975.000000	62.887406 
4974.000000	62.516164 
4973.000000	62.178325 
4972.000000	61.917042 
4971.000000	61.761307 
4970.000000	61.721968 
4969.000000	61.792206 
4968.000000	61.951255 
4967.000000	62.170577 
4966.000000	62.419414 
4965.000000	62.671494 
4964.000000	62.904334 
4963.000000	63.107180 
4962.000000	63.275027 
4961.000000	63.416600 
4960.000000	63.546800 
4959.000000	63.691663 
4958.000000	63.880729 
4957.000000	64.143633 
4956.000000	64.500617 
4955.000000	64.957261 
4954.000000	65.497136 
4953.000000	66.079115 
4952.000000	66.640353 
4951.000000	67.106175 
4950.000000	67.404437 
4949.000000	67.482399 
4948.000000	67.319774 
4947.000000	66.936874 
4946.000000	66.391539 
4945.000000	65.769195 
4944.000000	65.164637 
4943.000000	64.665985 
4942.000000	64.334559 
4941.000000	64.198398 
4940.000000	64.245343 
4939.000000	64.435887 
4938.000000	64.707589 
4937.000000	64.992165 
4936.000000	65.228652 
4935.000000	65.371441 
4934.000000	65.403079 
4933.000000	65.331912 
4932.000000	65.188384 
4931.000000	65.011787 
4930.000000	64.843034 
4929.000000	64.713072 
4928.000000	64.637494 
4927.000000	64.614176 
4926.000000	64.629483 
4925.000000	64.662837 
4924.000000	64.694023 
4923.000000	64.707970 
4922.000000	64.696979 
4921.000000	64.662194 
4920.000000	64.606785 
4919.000000	64.539241 
4918.000000	64.469218 
4917.000000	64.408802 
4916.000000	64.370322 
4915.000000	64.364624 
4914.000000	64.399981 
4913.000000	64.478492 
4912.000000	64.598488 
4911.000000	64.747929 
4910.000000	64.905166 
4909.000000	65.042495 
4908.000000	65.131258 
4907.000000	65.149283 
4906.000000	65.086340 
4905.000000	64.947938 
4904.000000	64.754509 
4903.000000	64.537906 
4902.000000	64.334368 
4901.000000	64.176201 
4900.000000	64.084911 
4899.000000	64.067792 
4898.000000	64.117312 
4897.000000	64.215898 
4896.000000	64.340305 
4895.000000	64.465832 
4894.000000	64.572691 
4893.000000	64.646935 
4892.000000	64.684915 
4891.000000	64.690208 
4890.000000	64.674234 
4889.000000	64.651107 
4888.000000	64.635014 
4887.000000	64.637041 
4886.000000	64.662098 
4885.000000	64.709758 
4884.000000	64.772605 
4883.000000	64.839744 
4882.000000	64.898037 
4881.000000	64.935564 
4880.000000	64.944696 
4879.000000	64.924097 
4878.000000	64.878726 
4877.000000	64.818215 
4876.000000	64.754915 
4875.000000	64.700794 
4874.000000	64.664816 
4873.000000	64.651393 
4872.000000	64.660382 
4871.000000	64.688014 
4870.000000	64.729380 
4869.000000	64.779734 
4868.000000	64.834690 
4867.000000	64.891123 
4866.000000	64.946269 
4865.000000	64.998149 
4864.000000	65.045070 
4863.000000	65.085482 
4862.000000	65.117454 
4861.000000	65.138888 
4860.000000	65.148711 
4859.000000	65.145540 
4858.000000	65.129375 
4857.000000	65.099954 
4856.000000	65.057563 
4855.000000	65.002703 
4854.000000	64.936757 
4853.000000	64.862465 
4852.000000	64.784336 
4851.000000	64.708518 
4850.000000	64.642262 
4849.000000	64.592289 
4848.000000	64.563488 
4847.000000	64.557766 
4846.000000	64.573645 
4845.000000	64.606809 
4844.000000	64.650678 
4843.000000	64.697980 
4842.000000	64.741921 
4841.000000	64.776563 
4840.000000	64.797997 
4839.000000	64.803481 
4838.000000	64.792752 
4837.000000	64.767169 
4836.000000	64.730358 
4835.000000	64.687585 
4834.000000	64.645195 
4833.000000	64.610004 
4832.000000	64.587521 
4831.000000	64.581346 
4830.000000	64.591765 
4829.000000	64.615702 
4828.000000	64.647960 
4827.000000	64.681768 
4826.000000	64.712214 
4825.000000	64.737367 
4824.000000	64.759635 
4823.000000	64.784789 
4822.000000	64.819622 
4821.000000	64.869141 
4820.000000	64.934110 
4819.000000	65.009975 
4818.000000	65.086865 
4817.000000	65.152072 
4816.000000	65.193676 
4815.000000	65.204167 
4814.000000	65.182614 
4813.000000	65.135478 
4812.000000	65.075588 
4811.000000	65.018987 
4810.000000	64.981222 
4809.000000	64.972996 
4808.000000	64.998102 
4807.000000	65.052056 
4806.000000	65.124320 
4805.000000	65.199995 
4804.000000	65.264368 
4803.000000	65.305352 
4802.000000	65.315866 
4801.000000	65.295028 
4800.000000	65.247106 
4799.000000	65.180754 
4798.000000	65.106463 
4797.000000	65.034580 
4796.000000	64.973473 
4795.000000	64.927959 
4794.000000	64.899539 
4793.000000	64.886307 
4792.000000	64.884757 
4791.000000	64.891338 
4790.000000	64.903998 
4789.000000	64.922118 
4788.000000	64.946508 
4787.000000	64.978671 
4786.000000	65.019512 
4785.000000	65.067434 
4784.000000	65.118265 
4783.000000	65.165567 
4782.000000	65.201807 
4781.000000	65.219998 
4780.000000	65.215587 
4779.000000	65.187549 
4778.000000	65.139055 
4777.000000	65.077376 
4776.000000	65.011811 
4775.000000	64.951848 
4774.000000	64.905405 
4773.000000	64.876914 
4772.000000	64.867711 
4771.000000	64.876437 
4770.000000	64.899587 
4769.000000	64.932560 
4768.000000	64.970040 
4767.000000	65.006685 
4766.000000	65.037202 
4765.000000	65.056824 
4764.000000	65.061235 
4763.000000	65.047264 
4762.000000	65.013766 
4761.000000	64.961934 
4760.000000	64.895200 
4759.000000	64.819192 
4758.000000	64.740753 
4757.000000	64.667391 
4756.000000	64.606022 
4755.000000	64.562249 
4754.000000	64.539241 
4753.000000	64.537596 
4752.000000	64.555764 
4751.000000	64.589905 
4750.000000	64.634394 
4749.000000	64.682531 
4748.000000	64.727163 
4747.000000	64.761877 
4746.000000	64.781451 
4745.000000	64.782953 
4744.000000	64.765810 
4743.000000	64.732837 
4742.000000	64.689540 
4741.000000	64.643001 
4740.000000	64.600419 
4739.000000	64.567852 
4738.000000	64.549088 
4737.000000	64.545154 
4736.000000	64.554357 
4735.000000	64.572739 
4734.000000	64.595413 
4733.000000	64.617633 
4732.000000	64.635729 
4731.000000	64.647746 
4730.000000	64.653444 
4729.000000	64.653110 
4728.000000	64.647674 
4727.000000	64.637994 
4726.000000	64.624643 
4725.000000	64.607405 
4724.000000	64.586424 
4723.000000	64.562606 
4722.000000	64.538097 
4721.000000	64.515805 
4720.000000	64.499711 
4719.000000	64.493751 
4718.000000	64.501309 
4717.000000	64.524364 
4716.000000	64.562654 
4715.000000	64.613389 
4714.000000	64.671301 
4713.000000	64.729475 
4712.000000	64.780306 
4711.000000	64.816856 
4710.000000	64.834094 
4709.000000	64.829921 
4708.000000	64.805626 
4707.000000	64.765787 
4706.000000	64.717316 
4705.000000	64.668321 
4704.000000	64.626622 
4703.000000	64.598393 
4702.000000	64.587378 
4701.000000	64.594411 
4700.000000	64.617729 
4699.000000	64.653778 
4698.000000	64.698219 
4697.000000	64.747047 
4696.000000	64.796471 
4695.000000	64.843845 
4694.000000	64.886975 
4693.000000	64.924240 
4692.000000	64.953923 
4691.000000	64.974784 
4690.000000	64.985918 
4689.000000	64.987277 
4688.000000	64.979910 
4687.000000	64.965772 
4686.000000	64.947366 
4685.000000	64.927411 
4684.000000	64.908170 
4683.000000	64.891052 
4682.000000	64.876484 
4681.000000	64.863991 
4680.000000	64.852905 
4679.000000	64.842891 
4678.000000	64.834213 
4677.000000	64.828109 
4676.000000	64.826059 
4675.000000	64.829063 
4674.000000	64.837098 
4673.000000	64.848804 
4672.000000	64.861392 
4671.000000	64.871025 
4670.000000	64.873743 
4669.000000	64.866781 
4668.000000	64.849138 
4667.000000	64.822030 
4666.000000	64.788627 
4665.000000	64.753413 
4664.000000	64.721393 
4663.000000	64.696931 
4662.000000	64.683222 
4661.000000	64.681625 
4660.000000	64.692115 
4659.000000	64.713239 
4658.000000	64.742875 
4657.000000	64.778614 
4656.000000	64.818096 
4655.000000	64.859342 
4654.000000	64.900541 
4653.000000	64.940142 
4652.000000	64.976692 
4651.000000	65.009021 
4650.000000	65.036225 
4649.000000	65.058064 
4648.000000	65.075039 
4647.000000	65.088200 
4646.000000	65.099143 
4645.000000	65.109491 
4644.000000	65.120553 
4643.000000	65.133333 
4642.000000	65.148234 
4641.000000	65.165901 
4640.000000	65.187525 
4639.000000	65.214729 
4638.000000	65.249300 
4637.000000	65.292382 
4636.000000	65.343928 
4635.000000	65.401697 
4634.000000	65.461421 
4633.000000	65.516901 
4632.000000	65.561461 
4631.000000	65.589284 
4630.000000	65.596723 
4629.000000	65.583324 
4628.000000	65.551567 
4627.000000	65.506768 
4626.000000	65.455174 
4625.000000	65.402817 
4624.000000	65.354037 
4623.000000	65.311026 
4622.000000	65.273833 
4621.000000	65.241646 
4620.000000	65.213060 
4619.000000	65.187382 
4618.000000	65.164041 
4617.000000	65.142774 
4616.000000	65.122938 
4615.000000	65.102505 
4614.000000	65.079331 
4613.000000	65.051221 
4612.000000	65.017223 
4611.000000	64.977645 
4610.000000	64.934945 
4609.000000	64.893174 
4608.000000	64.856910 
4607.000000	64.830112 
4606.000000	64.814925 
4605.000000	64.811325 
4604.000000	64.817047 
4603.000000	64.828419 
4602.000000	64.841485 
4601.000000	64.853167 
4600.000000	64.862298 
4599.000000	64.869666 
4598.000000	64.877176 
4597.000000	64.887094 
4596.000000	64.901018 
4595.000000	64.919137 
4594.000000	64.940452 
4593.000000	64.962410 
4592.000000	64.982724 
4591.000000	64.998531 
4590.000000	65.007758 
4589.000000	65.008425 
4588.000000	64.999246 
4587.000000	64.979386 
4586.000000	64.948821 
4585.000000	64.908528 
4584.000000	64.860463 
4583.000000	64.808034 
4582.000000	64.755558 
4581.000000	64.708447 
4580.000000	64.672327 
4579.000000	64.652490 
4578.000000	64.652872 
4577.000000	64.675688 
4576.000000	64.720964 
4575.000000	64.786458 
4574.000000	64.867973 
4573.000000	64.959692 
4572.000000	65.054726 
4571.000000	65.145850 
4570.000000	65.225791 
4569.000000	65.288209 
4568.000000	65.327978 
4567.000000	65.342521 
4566.000000	65.331101 
4565.000000	65.296053 
4564.000000	65.240979 
4563.000000	65.170955 
4562.000000	65.090942 
4561.000000	65.006041 
4560.000000	64.920830 
4559.000000	64.839553 
4558.000000	64.766311 
4557.000000	64.705300 
4556.000000	64.660835 
4555.000000	64.636874 
4554.000000	64.636206 
4553.000000	64.659523 
4552.000000	64.704799 
4551.000000	64.766836 
4550.000000	64.837765 
4549.000000	64.907884 
4548.000000	64.967632 
4547.000000	65.009069 
4546.000000	65.027451 
4545.000000	65.021896 
4544.000000	64.995050 
4543.000000	64.952254 
4542.000000	64.900302 
4541.000000	64.846134 
4540.000000	64.795970 
4539.000000	64.754462 
4538.000000	64.724516 
4537.000000	64.707303 
4536.000000	64.702677 
4535.000000	64.709568 
4534.000000	64.726018 
4533.000000	64.749646 
4532.000000	64.777731 
4531.000000	64.807510 
4530.000000	64.836049 
4529.000000	64.860796 
4528.000000	64.879631 
4527.000000	64.891052 
4526.000000	64.894270 
4525.000000	64.889073 
4524.000000	64.876079 
4523.000000	64.856314 
4522.000000	64.831542 
4521.000000	64.804863 
4520.000000	64.780402 
4519.000000	64.763045 
4518.000000	64.757204 
4517.000000	64.765954 
4516.000000	64.790296 
4515.000000	64.827847 
4514.000000	64.873886 
4513.000000	64.922595 
4512.000000	64.967894 
4511.000000	65.005683 
4510.000000	65.033411 
4509.000000	65.049982 
4508.000000	65.055465 
4507.000000	65.050864 
4506.000000	65.036869 
4505.000000	65.014243 
4504.000000	64.982724 
4503.000000	64.942526 
4502.000000	64.892959 
4501.000000	64.833331 
4500.000000	64.762997 
4499.000000	64.682149 
4498.000000	64.592194 
4497.000000	64.496111 
4496.000000	64.398431 
4495.000000	64.304852 
4494.000000	64.221549 
4493.000000	64.154076 
4492.000000	64.106678 
4491.000000	64.081335 
4490.000000	64.075350 
4489.000000	64.083290 
4488.000000	64.097404 
4487.000000	64.111375 
4486.000000	64.121770 
4485.000000	64.129495 
4484.000000	64.140057 
4483.000000	64.160466 
4482.000000	64.194416 
4481.000000	64.242410 
4480.000000	64.300942 
4479.000000	64.363384 
4478.000000	64.418268 
4477.000000	64.458155 
4476.000000	64.486622 
4475.000000	64.508271 
4474.000000	64.524960 
4473.000000	64.538693 
4472.000000	64.549922 
4471.000000	64.558625 
4470.000000	64.566779 
4469.000000	64.570403 
4468.000000	64.562535 
4467.000000	64.550924 
4466.000000	64.555072 
4465.000000	64.595699 
4464.000000	64.688849 
4463.000000	64.842963 
4462.000000	65.053868 
4461.000000	65.291070 
4460.000000	65.516829 
4459.000000	65.700364 
4458.000000	65.827608 
4457.000000	65.911507 
4456.000000	65.986537 
4455.000000	66.073656 
4454.000000	66.212391 
4453.000000	66.421151 
4452.000000	66.751909 
4451.000000	67.285895 
4450.000000	68.119955 
4449.000000	69.365239 
4448.000000	71.046996 
4447.000000	73.081707 
4446.000000	75.239610 
4445.000000	77.176332 
4444.000000	78.506255 
4443.000000	78.889608 
4442.000000	78.128314 
4441.000000	76.213455 
4440.000000	73.301649 
4439.000000	69.684290 
4438.000000	65.703296 
4437.000000	61.704111 
4436.000000	57.989859 
4435.000000	54.799747 
4434.000000	52.313351 
4433.000000	50.644564 
4432.000000	49.847006 
4431.000000	49.919009 
4430.000000	50.776457 
4429.000000	52.290558 
4428.000000	54.263401 
4427.000000	56.484794 
4426.000000	58.708572 
4425.000000	60.734462 
4424.000000	62.404680 
4423.000000	63.649034 
4422.000000	64.471197 
4421.000000	64.945363 
4420.000000	65.185165 
4419.000000	65.308785 
4418.000000	65.409994 
4417.000000	65.541243 
4416.000000	65.711379 
4415.000000	65.897321 
4414.000000	66.060686 
4413.000000	66.162657 
4412.000000	66.177821 
4411.000000	66.097640 
4410.000000	65.934252 
4409.000000	65.711331 
4408.000000	65.461421 
4407.000000	65.228176 
4406.000000	65.050983 
4405.000000	64.945840 
4404.000000	64.910697 
4403.000000	64.937925 
4402.000000	65.009975 
4401.000000	65.102720 
4400.000000	65.193319 
4399.000000	65.265417 
4398.000000	65.310502 
4397.000000	65.328526 
4396.000000	65.323591 
4395.000000	65.294861 
4394.000000	65.246033 
4393.000000	65.186810 
4392.000000	65.124797 
4391.000000	65.063619 
4390.000000	65.005993 
4389.000000	64.953947 
4388.000000	64.904737 
4387.000000	64.852285 
4386.000000	64.788913 
4385.000000	64.708685 
4384.000000	64.609360 
4383.000000	64.495491 
4382.000000	64.378762 
4381.000000	64.276671 
4380.000000	64.207887 
4379.000000	64.188003 
4378.000000	64.223957 
4377.000000	64.312720 
4376.000000	64.440488 
4375.000000	64.586973 
4374.000000	64.728760 
4373.000000	64.846301 
4372.000000	64.928364 
4371.000000	64.973521 
4370.000000	64.988851 
4369.000000	64.986872 
4368.000000	64.980435 
4367.000000	64.979743 
4366.000000	64.989662 
4365.000000	65.009474 
4364.000000	65.034556 
4363.000000	65.057396 
4362.000000	65.070772 
4361.000000	65.069556 
4360.000000	65.052604 
4359.000000	65.021872 
4358.000000	64.982175 
4357.000000	64.939951 
4356.000000	64.902043 
4355.000000	64.874386 
4354.000000	64.861106 
4353.000000	64.864993 
4352.000000	64.886188 
4351.000000	64.922523 
4350.000000	64.969325 
4349.000000	65.020012 
4348.000000	65.067410 
4347.000000	65.104746 
4346.000000	65.127301 
4345.000000	65.132784 
4344.000000	65.122294 
4343.000000	65.100216 
4342.000000	65.072965 
4341.000000	65.046930 
4340.000000	65.028357 
4339.000000	65.021991 
4338.000000	65.030169 
4337.000000	65.052652 
4336.000000	65.086650 
4335.000000	65.127682 
4334.000000	65.170288 
4333.000000	65.209341 
4332.000000	65.241479 
4331.000000	65.265488 
4330.000000	65.282416 
4329.000000	65.294718 
4328.000000	65.305662 
4327.000000	65.317535 
4326.000000	65.331482 
4325.000000	65.346097 
4324.000000	65.358114 
4323.000000	65.362334 
4322.000000	65.353870 
4321.000000	65.328526 
4320.000000	65.284609 
4319.000000	65.223217 
4318.000000	65.148282 
4317.000000	65.066003 
4316.000000	64.983868 
4315.000000	64.909243 
4314.000000	64.847898 
4313.000000	64.803266 
4312.000000	64.775991 
4311.000000	64.764070 
4310.000000	64.763736 
4309.000000	64.769768 
4308.000000	64.776706 
4307.000000	64.779710 
4306.000000	64.775514 
4305.000000	64.762759 
4304.000000	64.742517 
4303.000000	64.717411 
4302.000000	64.691352 
4301.000000	64.668679 
4300.000000	64.653110 
4299.000000	64.647006 
4298.000000	64.650607 
4297.000000	64.662361 
4296.000000	64.678907 
4295.000000	64.696049 
4294.000000	64.709687 
4293.000000	64.716124 
4292.000000	64.713501 
4291.000000	64.701676 
4290.000000	64.682936 
4289.000000	64.660906 
4288.000000	64.640474 
4287.000000	64.626717 
4286.000000	64.624214 
4285.000000	64.635610 
4284.000000	64.661741 
4283.000000	64.701557 
4282.000000	64.751863 
4281.000000	64.807915 
4280.000000	64.864230 
4279.000000	64.915418 
4278.000000	64.956498 
4277.000000	64.983868 
4276.000000	64.995503 
4275.000000	64.991402 
4274.000000	64.973402 
4273.000000	64.945030 
4272.000000	64.911079 
4271.000000	64.876842 
4270.000000	64.847350 
4269.000000	64.826679 
4268.000000	64.817452 
4267.000000	64.820384 
4266.000000	64.834594 
4265.000000	64.857792 
4264.000000	64.886808 
4263.000000	64.918494 
4262.000000	64.950203 
4261.000000	64.980077 
4260.000000	65.007019 
4259.000000	65.030407 
4258.000000	65.049767 
4257.000000	65.064430 
4256.000000	65.073251 
4255.000000	65.075230 
4254.000000	65.069770 
4253.000000	65.057134 
4252.000000	65.038537 
4251.000000	65.016603 
4250.000000	64.994668 
4249.000000	64.976072 
4248.000000	64.963293 
4247.000000	64.957475 
4246.000000	64.958095 
4245.000000	64.962935 
4244.000000	64.969110 
4243.000000	64.973473 
4242.000000	64.973974 
4241.000000	64.970254 
4240.000000	64.963817 
4239.000000	64.957356 
4238.000000	64.954233 
4237.000000	64.957332 
4236.000000	64.968037 
4235.000000	64.985632 
4234.000000	65.007138 
4233.000000	65.027904 
4232.000000	65.042424 
4231.000000	65.045714 
4230.000000	65.033984 
4229.000000	65.005707 
4228.000000	64.961552 
4227.000000	64.904260 
4226.000000	64.838171 
4225.000000	64.768576 
4224.000000	64.700984 
4223.000000	64.640474 
4222.000000	64.591431 
4221.000000	64.557147 
4220.000000	64.539527 
4219.000000	64.539217 
4218.000000	64.555096 
4217.000000	64.585208 
4216.000000	64.626145 
4215.000000	64.674329 
4214.000000	64.725613 
4213.000000	64.776062 
4212.000000	64.821743 
4211.000000	64.859366 
4210.000000	64.886379 
4209.000000	64.901447 
4208.000000	64.904260 
4207.000000	64.896011 
4206.000000	64.879226 
4205.000000	64.857864 
4204.000000	64.836573 
4203.000000	64.820265 
4202.000000	64.813280 
4201.000000	64.818620 
4200.000000	64.837527 
4199.000000	64.869141 
4198.000000	64.910316 
4197.000000	64.956521 
4196.000000	65.002560 
4195.000000	65.043401 
4194.000000	65.074872 
4193.000000	65.093922 
4192.000000	65.099334 
4191.000000	65.091681 
4190.000000	65.073633 
4189.000000	65.049481 
4188.000000	65.024852 
4187.000000	65.006136 
4186.000000	64.999103 
4185.000000	65.008211 
4184.000000	65.035343 
4183.000000	65.079569 
4182.000000	65.136909 
4181.000000	65.201354 
4180.000000	65.265393 
4179.000000	65.321469 
4178.000000	65.362977 
4177.000000	65.385556 
4176.000000	65.387129 
4175.000000	65.368056 
4174.000000	65.330672 
4173.000000	65.278720 
4172.000000	65.216779 
4171.000000	65.149855 
4170.000000	65.083098 
4169.000000	65.021371 
4168.000000	64.969158 
4167.000000	64.929890 
4166.000000	64.905643 
4165.000000	64.896821 
4164.000000	64.901685 
4163.000000	64.917016 
4162.000000	64.938664 
4161.000000	64.962887 
4160.000000	64.986157 
4159.000000	65.006613 
4158.000000	65.023636 
4157.000000	65.037727 
4156.000000	65.049791 
4155.000000	65.060257 
4154.000000	65.068650 
4153.000000	65.073561 
4152.000000	65.072941 
4151.000000	65.065050 
4150.000000	65.049362 
4149.000000	65.026783 
4148.000000	64.999890 
4147.000000	64.972066 
4146.000000	64.947032 
4145.000000	64.927434 
4144.000000	64.914631 
4143.000000	64.908313 
4142.000000	64.907050 
4141.000000	64.909076 
4140.000000	64.912962 
4139.000000	64.917588 
4138.000000	64.922428 
4137.000000	64.927268 
4136.000000	64.931893 
4135.000000	64.935278 
4134.000000	64.936232 
4133.000000	64.933276 
4132.000000	64.925360 
4131.000000	64.911937 
4130.000000	64.893722 
4129.000000	64.872646 
4128.000000	64.851188 
4127.000000	64.831972 
4126.000000	64.816761 
4125.000000	64.805889 
4124.000000	64.798378 
4123.000000	64.792060 
4122.000000	64.784669 
4121.000000	64.774775 
4120.000000	64.762425 
4119.000000	64.749598 
4118.000000	64.739656 
4117.000000	64.736533 
4116.000000	64.743185 
4115.000000	64.760589 
4114.000000	64.787149 
4113.000000	64.818906 
4112.000000	64.850425 
4111.000000	64.876437 
4110.000000	64.892911 
4109.000000	64.898610 
4108.000000	64.895272 
4107.000000	64.887428 
4106.000000	64.880728 
4105.000000	64.880776 
4104.000000	64.891266 
4103.000000	64.913296 
4102.000000	64.945149 
4101.000000	64.982485 
4100.000000	65.020179 
4099.000000	65.053153 
4098.000000	65.077972 
4097.000000	65.093183 
4096.000000	65.099573 
4095.000000	65.099668 
4094.000000	65.096902 
4093.000000	65.094900 
4092.000000	65.096497 
4091.000000	65.103530 
4090.000000	65.116333 
4089.000000	65.133666 
4088.000000	65.152883 
4087.000000	65.170288 
4086.000000	65.181779 
4085.000000	65.183448 
4084.000000	65.172386 
4083.000000	65.147328 
4082.000000	65.109133 
4081.000000	65.060853 
4080.000000	65.007376 
4079.000000	64.954423 
4078.000000	64.907574 
4077.000000	64.871096 
4076.000000	64.847087 
4075.000000	64.835238 
4074.000000	64.833211 
4073.000000	64.837265 
4072.000000	64.843583 
4071.000000	64.849042 
4070.000000	64.851951 
4069.000000	64.851951 
4068.000000	64.849877 
4067.000000	64.846897 
4066.000000	64.844369 
4065.000000	64.843225 
4064.000000	64.843988 
4063.000000	64.846444 
4062.000000	64.850068 
4061.000000	64.854145 
4060.000000	64.858102 
4059.000000	64.861369 
4058.000000	64.863419 
4057.000000	64.863681 
4056.000000	64.861416 
4055.000000	64.856052 
4054.000000	64.847183 
4053.000000	64.835143 
4052.000000	64.820837 
4051.000000	64.806199 
4050.000000	64.793467 
4049.000000	64.785289 
4048.000000	64.784193 
4047.000000	64.792227 
4046.000000	64.810252 
4045.000000	64.838147 
4044.000000	64.874649 
4043.000000	64.917278 
4042.000000	64.962673 
4041.000000	65.006875 
4040.000000	65.045785 
4039.000000	65.075993 
4038.000000	65.095400 
4037.000000	65.103173 
4036.000000	65.099930 
4035.000000	65.087556 
4034.000000	65.068745 
4033.000000	65.046501 
4032.000000	65.023469 
4031.000000	65.001797 
4030.000000	64.982485 
4029.000000	64.965939 
4028.000000	64.952063 
4027.000000	64.940476 
4026.000000	64.931273 
4025.000000	64.924740 
4024.000000	64.921784 
4023.000000	64.923405 
4022.000000	64.930605 
4021.000000	64.943838 
4020.000000	64.962816 
4019.000000	64.986419 
4018.000000	65.012502 
4017.000000	65.038347 
4016.000000	65.060281 
4015.000000	65.074634 
4014.000000	65.077877 
4013.000000	65.067386 
4012.000000	65.042185 
4011.000000	65.003418 
4010.000000	64.954447 
4009.000000	64.900517 
4008.000000	64.848089 
4007.000000	64.803791 
4006.000000	64.773201 
4005.000000	64.759516 
4004.000000	64.762926 
4003.000000	64.780831 
4002.000000	64.808058 
4001.000000	64.838719 
4000.000000	64.866971 
3999.000000	64.888882 
3998.000000	64.902710 
3997.000000	64.909315 
3996.000000	64.911222 
3995.000000	64.912009 
3994.000000	64.914536 
3993.000000	64.920616 
3992.000000	64.930462 
3991.000000	64.942455 
3990.000000	64.954280 
3989.000000	64.963054 
3988.000000	64.966511 
3987.000000	64.963364 
3986.000000	64.953732 
3985.000000	64.938974 
3984.000000	64.921617 
3983.000000	64.904618 
3982.000000	64.890909 
3981.000000	64.883351 
3980.000000	64.884042 
3979.000000	64.894056 
3978.000000	64.912986 
3977.000000	64.939093 
3976.000000	64.969348 
3975.000000	64.999651 
3974.000000	65.025544 
3973.000000	65.043044 
3972.000000	65.049552 
3971.000000	65.044188 
3970.000000	65.028071 
3969.000000	65.003848 
3968.000000	64.975309 
3967.000000	64.946460 
3966.000000	64.920878 
3965.000000	64.900732 
3964.000000	64.887213 
3963.000000	64.880728 
3962.000000	64.880919 
3961.000000	64.887285 
3960.000000	64.899063 
3959.000000	64.915609 
3958.000000	64.935278 
3957.000000	64.955377 
3956.000000	64.971756 
3955.000000	64.979267 
3954.000000	64.972519 
3953.000000	64.947175 
3952.000000	64.900755 
3951.000000	64.833903 
3950.000000	64.750742 
3949.000000	64.658427 
3948.000000	64.565587 
3947.000000	64.481663 
3946.000000	64.414834 
3945.000000	64.371633 
3944.000000	64.355158 
3943.000000	64.365839 
3942.000000	64.401435 
3941.000000	64.458370 
3940.000000	64.531397 
3939.000000	64.615511 
3938.000000	64.705348 
3937.000000	64.796590 
3936.000000	64.885020 
3935.000000	64.967560 
3934.000000	65.041685 
3933.000000	65.105962 
3932.000000	65.159773 
3931.000000	65.202760 
3930.000000	65.234518 
3929.000000	65.254473 
3928.000000	65.261507 
3927.000000	65.253949 
3926.000000	65.229678 
3925.000000	65.187430 
3924.000000	65.127277 
3923.000000	65.051531 
3922.000000	64.964675 
3921.000000	64.873504 
3920.000000	64.785957 
3919.000000	64.709711 
3918.000000	64.650940 
3917.000000	64.612889 
3916.000000	64.595890 
3915.000000	64.597082 
3914.000000	64.611744 
3913.000000	64.634275 
3912.000000	64.659619 
3911.000000	64.683842 
3910.000000	64.704895 
3909.000000	64.721822 
3908.000000	64.735436 
3907.000000	64.747142 
3906.000000	64.758467 
3905.000000	64.770030 
3904.000000	64.782381 
3903.000000	64.795684 
3902.000000	64.809989 
3901.000000	64.825105 
3900.000000	64.841270 
3899.000000	64.858555 
3898.000000	64.876985 
3897.000000	64.895868 
3896.000000	64.913702 
3895.000000	64.927911 
3894.000000	64.935708 
3893.000000	64.934277 
3892.000000	64.921259 
3891.000000	64.895939 
3890.000000	64.859938 
3889.000000	64.817285 
3888.000000	64.773774 
3887.000000	64.736223 
3886.000000	64.711689 
3885.000000	64.705133 
3884.000000	64.718317 
3883.000000	64.748668 
3882.000000	64.790058 
3881.000000	64.833641 
3880.000000	64.869761 
3879.000000	64.889907 
3878.000000	64.888429 
3877.000000	64.864110 
3876.000000	64.820384 
3875.000000	64.764332 
3874.000000	64.705300 
3873.000000	64.653062 
3872.000000	64.615988 
3871.000000	64.599561 
3870.000000	64.605545 
3869.000000	64.632296 
3868.000000	64.675402 
3867.000000	64.728808 
3866.000000	64.786386 
3865.000000	64.842605 
3864.000000	64.894175 
3863.000000	64.939332 
3862.000000	64.978194 
3861.000000	65.012168 
3860.000000	65.042877 
3859.000000	65.071940 
3858.000000	65.099358 
3857.000000	65.124273 
3856.000000	65.143704 
3855.000000	65.154433 
3854.000000	65.152382 
3853.000000	65.134620 
3852.000000	65.099573 
3851.000000	65.048098 
3850.000000	64.983487 
3849.000000	64.911413 
3848.000000	64.838933 
3847.000000	64.773607 
3846.000000	64.722394 
3845.000000	64.690613 
3844.000000	64.680981 
3843.000000	64.693427 
3842.000000	64.724922 
3841.000000	64.770412 
3840.000000	64.823579 
3839.000000	64.878225 
3838.000000	64.928913 
3837.000000	64.971804 
3836.000000	65.004706 
3835.000000	65.026760 
3834.000000	65.038084 
3833.000000	65.038871 
3832.000000	65.029311 
3831.000000	65.009069 
3830.000000	64.978265 
3829.000000	64.937329 
3828.000000	64.888072 
3827.000000	64.833664 
3826.000000	64.778637 
3825.000000	64.728260 
3824.000000	64.687705 
3823.000000	64.661002 
3822.000000	64.650154 
3821.000000	64.654684 
3820.000000	64.672017 
3819.000000	64.698100 
3818.000000	64.728617 
3817.000000	64.759802 
3816.000000	64.789295 
3815.000000	64.816021 
3814.000000	64.840269 
3813.000000	64.862751 
3812.000000	64.884495 
3811.000000	64.906072 
3810.000000	64.927411 
3809.000000	64.947962 
3808.000000	64.966821 
3807.000000	64.983344 
3806.000000	64.997029 
3805.000000	65.007996 
3804.000000	65.016770 
3803.000000	65.024256 
3802.000000	65.031313 
3801.000000	65.038847 
3800.000000	65.047383 
3799.000000	65.057158 
3798.000000	65.067768 
3797.000000	65.078687 
3796.000000	65.088486 
3795.000000	65.095281 
3794.000000	65.096783 
3793.000000	65.090966 
3792.000000	65.076375 
3791.000000	65.052604 
3790.000000	65.020895 
3789.000000	64.983868 
3788.000000	64.945292 
3787.000000	64.909338 
3786.000000	64.879655 
3785.000000	64.859056 
3784.000000	64.848923 
3783.000000	64.849305 
3782.000000	64.858913 
3781.000000	64.875984 
3780.000000	64.898633 
3779.000000	64.925312 
3778.000000	64.954710 
3777.000000	64.985871 
3776.000000	65.017676 
3775.000000	65.048861 
3774.000000	65.077519 
3773.000000	65.101718 
3772.000000	65.119576 
3771.000000	65.129756 
3770.000000	65.131616 
3769.000000	65.125155 
3768.000000	65.111136 
3767.000000	65.090560 
3766.000000	65.064787 
3765.000000	65.035200 
3764.000000	65.003418 
3763.000000	64.971303 
3762.000000	64.941263 
3761.000000	64.915966 
3760.000000	64.898037 
3759.000000	64.889574 
3758.000000	64.891791 
3757.000000	64.904141 
3756.000000	64.924836 
3755.000000	64.950513 
3754.000000	64.977645 
3753.000000	65.002942 
3752.000000	65.024328 
3751.000000	65.041303 
3750.000000	65.054512 
3749.000000	65.065288 
3748.000000	65.074563 
3747.000000	65.082287 
3746.000000	65.087223 
3745.000000	65.087246 
3744.000000	65.080046 
3743.000000	65.064311 
3742.000000	65.040421 
3741.000000	65.010881 
3740.000000	64.980077 
3739.000000	64.953279 
3738.000000	64.935350 
3737.000000	64.929437 
3736.000000	64.936089 
3735.000000	64.953064 
3734.000000	64.975666 
3733.000000	64.998149 
3732.000000	65.015029 
3731.000000	65.022683 
3730.000000	65.019822 
3729.000000	65.008187 
3728.000000	64.991283 
3727.000000	64.974045 
3726.000000	64.961004 
3725.000000	64.955592 
3724.000000	64.959287 
3723.000000	64.971351 
3722.000000	64.989566 
3721.000000	65.010595 
3720.000000	65.031218 
3719.000000	65.048861 
3718.000000	65.062308 
3717.000000	65.071463 
3716.000000	65.077233 
3715.000000	65.080952 
3714.000000	65.083742 
3713.000000	65.086460 
3712.000000	65.089249 
3711.000000	65.092039 
3710.000000	65.094542 
3709.000000	65.096735 
3708.000000	65.098953 
3707.000000	65.101742 
3706.000000	65.105795 
3705.000000	65.111422 
3704.000000	65.118455 
3703.000000	65.126204 
3702.000000	65.133357 
3701.000000	65.138363 
3700.000000	65.139746 
3699.000000	65.136909 
3698.000000	65.129923 
3697.000000	65.119910 
3696.000000	65.108609 
3695.000000	65.098261 
3694.000000	65.090751 
3693.000000	65.087294 
3692.000000	65.088295 
3691.000000	65.093326 
3690.000000	65.101194 
3689.000000	65.110135 
3688.000000	65.118408 
3687.000000	65.124654 
3686.000000	65.127873 
3685.000000	65.127587 
3684.000000	65.123844 
3683.000000	65.116906 
3682.000000	65.107464 
3681.000000	65.096044 
3680.000000	65.082931 
3679.000000	65.068101 
3678.000000	65.051603 
3677.000000	65.033459 
3676.000000	65.014028 
3675.000000	64.993977 
3674.000000	64.974355 
3673.000000	64.956259 
3672.000000	64.940476 
3671.000000	64.927101 
3670.000000	64.915347 
3669.000000	64.903712 
3668.000000	64.890146 
3667.000000	64.872717 
3666.000000	64.849877 
3665.000000	64.821290 
3664.000000	64.787936 
3663.000000	64.752364 
3662.000000	64.718008 
3661.000000	64.688682 
3660.000000	64.668035 
3659.000000	64.658761 
3658.000000	64.662194 
3657.000000	64.678573 
3656.000000	64.706993 
3655.000000	64.745569 
3654.000000	64.791941 
3653.000000	64.843034 
3652.000000	64.895963 
3651.000000	64.947605 
3650.000000	64.995551 
3649.000000	65.037679 
3648.000000	65.072703 
3647.000000	65.100407 
3646.000000	65.120863 
3645.000000	65.134382 
3644.000000	65.140748 
3643.000000	65.139913 
3642.000000	65.131282 
3641.000000	65.114641 
3640.000000	65.089941 
3639.000000	65.058398 
3638.000000	65.022015 
3637.000000	64.983773 
3636.000000	64.946794 
3635.000000	64.913916 
3634.000000	64.886736 
3633.000000	64.865398 
3632.000000	64.848542 
3631.000000	64.834046 
3630.000000	64.819812 
3629.000000	64.804863 
3628.000000	64.789867 
3627.000000	64.777064 
3626.000000	64.769554 
3625.000000	64.770698 
3624.000000	64.782381 
3623.000000	64.805126 
3622.000000	64.837622 
3621.000000	64.877343 
3620.000000	64.920735 
3619.000000	64.963889 
3618.000000	65.003514 
3617.000000	65.036916 
3616.000000	65.062046 
3615.000000	65.077638 
3614.000000	65.083074 
3613.000000	65.078425 
3612.000000	65.064525 
3611.000000	65.042829 
3610.000000	65.015625 
3609.000000	64.985704 
3608.000000	64.956355 
3607.000000	64.930486 
3606.000000	64.910340 
3605.000000	64.897036 
3604.000000	64.890694 
3603.000000	64.890456 
3602.000000	64.894890 
3601.000000	64.902806 
3600.000000	64.913272 
3599.000000	64.925622 
3598.000000	64.939308 
3597.000000	64.953756 
3596.000000	64.968132 
3595.000000	64.981126 
3594.000000	64.991188 
3593.000000	64.996838 
3592.000000	64.997100 
3591.000000	64.992165 
3590.000000	64.983034 
3589.000000	64.971613 
3588.000000	64.959955 
3587.000000	64.950180 
3586.000000	64.943528 
3585.000000	64.939951 
3584.000000	64.938330 
3583.000000	64.936661 
3582.000000	64.932680 
3581.000000	64.924597 
3580.000000	64.911699 
3579.000000	64.894795 
3578.000000	64.875912 
3577.000000	64.858198 
3576.000000	64.845323 
3575.000000	64.840722 
3574.000000	64.846873 
3573.000000	64.865040 
3572.000000	64.894914 
3571.000000	64.934468 
3570.000000	64.980340 
3569.000000	65.027904 
3568.000000	65.071916 
3567.000000	65.106987 
3566.000000	65.128350 
3565.000000	65.132427 
3564.000000	65.117764 
3563.000000	65.085244 
3562.000000	65.038323 
3561.000000	64.982581 
3560.000000	64.924812 
3559.000000	64.871859 
3558.000000	64.829754 
3557.000000	64.802122 
3556.000000	64.789915 
3555.000000	64.791297 
3554.000000	64.802336 
3553.000000	64.817714 
3552.000000	64.832115 
3551.000000	64.841246 
3550.000000	64.842796 
3549.000000	64.836716 
3548.000000	64.825010 
3547.000000	64.810919 
3546.000000	64.798164 
3545.000000	64.789962 
3544.000000	64.788341 
3543.000000	64.793848 
3542.000000	64.805650 
3541.000000	64.821815 
3540.000000	64.839911 
3539.000000	64.857792 
3538.000000	64.873862 
3537.000000	64.887309 
3536.000000	64.898276 
3535.000000	64.907193 
3534.000000	64.915013 
3533.000000	64.922499 
3532.000000	64.930176 
3531.000000	64.938235 
3530.000000	64.946341 
3529.000000	64.953708 
3528.000000	64.959383 
3527.000000	64.962601 
3526.000000	64.962744 
3525.000000	64.959430 
3524.000000	64.952898 
3523.000000	64.943861 
3522.000000	64.933252 
3521.000000	64.922142 
3520.000000	64.911532 
3519.000000	64.902353 
3518.000000	64.895439 
3517.000000	64.891552 
3516.000000	64.891123 
3515.000000	64.894223 
3514.000000	64.900732 
3513.000000	64.910244 
3512.000000	64.921879 
3511.000000	64.934587 
3510.000000	64.947199 
3509.000000	64.958620 
3508.000000	64.967894 
3507.000000	64.974379 
3506.000000	64.977908 
3505.000000	64.978480 
3504.000000	64.976263 
3503.000000	64.971613 
3502.000000	64.964914 
3501.000000	64.956688 
3500.000000	64.947557 
3499.000000	64.938831 
3498.000000	64.932298 
3497.000000	64.930224 
3496.000000	64.934587 
3495.000000	64.946961 
3494.000000	64.967513 
3493.000000	64.994692 
3492.000000	65.025401 
3491.000000	65.055084 
3490.000000	65.078878 
3489.000000	65.092325 
3488.000000	65.092897 
3487.000000	65.080642 
3486.000000	65.058183 
3485.000000	65.030503 
3484.000000	65.003585 
3483.000000	64.983439 
3482.000000	64.974546 
3481.000000	64.978885 
3480.000000	64.995574 
3479.000000	65.021467 
3478.000000	65.051579 
3477.000000	65.080547 
3476.000000	65.103697 
3475.000000	65.118026 
3474.000000	65.122556 
3473.000000	65.118098 
3472.000000	65.106987 
3471.000000	65.092206 
3470.000000	65.076875 
3469.000000	65.063118 
3468.000000	65.052151 
3467.000000	65.043902 
3466.000000	65.037488 
3465.000000	65.031433 
3464.000000	65.024018 
3463.000000	65.013718 
3462.000000	64.999389 
3461.000000	64.980769 
3460.000000	64.958357 
3459.000000	64.933633 
3458.000000	64.908313 
3457.000000	64.884543 
3456.000000	64.864253 
3455.000000	64.848923 
3454.000000	64.839124 
3453.000000	64.834666 
3452.000000	64.834427 
3451.000000	64.836835 
3450.000000	64.840149 
3449.000000	64.842653 
3448.000000	64.842915 
3447.000000	64.840006 
3446.000000	64.833545 
3445.000000	64.824032 
3444.000000	64.812707 
3443.000000	64.801335 
3442.000000	64.792156 
3441.000000	64.787483 
3440.000000	64.789462 
3439.000000	64.799666 
3438.000000	64.818739 
3437.000000	64.846110 
3436.000000	64.879846 
3435.000000	64.916753 
3434.000000	64.952945 
3433.000000	64.984250 
3432.000000	65.006947 
3431.000000	65.018415 
3430.000000	65.017771 
3429.000000	65.005826 
3428.000000	64.985251 
3427.000000	64.960074 
3426.000000	64.935040 
3425.000000	64.914608 
3424.000000	64.902353 
3423.000000	64.900422 
3422.000000	64.909076 
3421.000000	64.926695 
3420.000000	64.950370 
3419.000000	64.976525 
3418.000000	65.001821 
3417.000000	65.023708 
3416.000000	65.040898 
3415.000000	65.053272 
3414.000000	65.061616 
3413.000000	65.067005 
3412.000000	65.070199 
3411.000000	65.071177 
3410.000000	65.069270 
3409.000000	65.063118 
3408.000000	65.051555 
3407.000000	65.033555 
3406.000000	65.009498 
3405.000000	64.980745 
3404.000000	64.949750 
3403.000000	64.919447 
3402.000000	64.892745 
3401.000000	64.871811 
3400.000000	64.857554 
3399.000000	64.849781 
3398.000000	64.847278 
3397.000000	64.848566 
3396.000000	64.851903 
3395.000000	64.856410 
3394.000000	64.861845 
3393.000000	64.868831 
3392.000000	64.878153 
3391.000000	64.890813 
3390.000000	64.907383 
3389.000000	64.927697 
3388.000000	64.950656 
3387.000000	64.974498 
3386.000000	64.997005 
3385.000000	65.015840 
3384.000000	65.028905 
3383.000000	65.034651 
3382.000000	65.032362 
3381.000000	65.022230 
3380.000000	65.005517 
3379.000000	64.984273 
3378.000000	64.961194 
3377.000000	64.939403 
3376.000000	64.921808 
3375.000000	64.910745 
3374.000000	64.907336 
3373.000000	64.911675 
3372.000000	64.922356 
3371.000000	64.936876 
3370.000000	64.951992 
3369.000000	64.964461 
3368.000000	64.971709 
3367.000000	64.972186 
3366.000000	64.965724 
3365.000000	64.953351 
3364.000000	64.937186 
3363.000000	64.919590 
3362.000000	64.902901 
3361.000000	64.888906 
3360.000000	64.878845 
3359.000000	64.873290 
3358.000000	64.872217 
3357.000000	64.875125 
3356.000000	64.881348 
3355.000000	64.890074 
3354.000000	64.900135 
3353.000000	64.910459 
3352.000000	64.920020 
3351.000000	64.928102 
3350.000000	64.934515 
3349.000000	64.939308 
3348.000000	64.943075 
3347.000000	64.946413 
3346.000000	64.949870 
3345.000000	64.953517 
3344.000000	64.956784 
3343.000000	64.958643 
3342.000000	64.957952 
3341.000000	64.953827 
3340.000000	64.946126 
3339.000000	64.935636 
3338.000000	64.924097 
3337.000000	64.913725 
3336.000000	64.906454 
3335.000000	64.903330 
3334.000000	64.904236 
3333.000000	64.907407 
3332.000000	64.910078 
3331.000000	64.909243 
3330.000000	64.902591 
3329.000000	64.889192 
3328.000000	64.869952 
3327.000000	64.847493 
3326.000000	64.825558 
3325.000000	64.807963 
3324.000000	64.797711 
3323.000000	64.795994 
3322.000000	64.802026 
3321.000000	64.813375 
3320.000000	64.826512 
3319.000000	64.837670 
3318.000000	64.843893 
3317.000000	64.843392 
3316.000000	64.836096 
3315.000000	64.823198 
3314.000000	64.806890 
3313.000000	64.789485 
3312.000000	64.773392 
3311.000000	64.760446 
3310.000000	64.752244 
3309.000000	64.749956 
3308.000000	64.754605 
3307.000000	64.766764 
3306.000000	64.786243 
3305.000000	64.811921 
3304.000000	64.841580 
3303.000000	64.872241 
3302.000000	64.900326 
3301.000000	64.922499 
3300.000000	64.936494 
3299.000000	64.941048 
3298.000000	64.936375 
3297.000000	64.923644 
3296.000000	64.905095 
3295.000000	64.883017 
3294.000000	64.859628 
3293.000000	64.836764 
3292.000000	64.815998 
3291.000000	64.798450 
3290.000000	64.785146 
3289.000000	64.776849 
3288.000000	64.774107 
3287.000000	64.777112 
3286.000000	64.785432 
3285.000000	64.798069 
3284.000000	64.813327 
3283.000000	64.829492 
3282.000000	64.844942 
3281.000000	64.858698 
3280.000000	64.870524 
3279.000000	64.880704 
3278.000000	64.889836 
3277.000000	64.898252 
3276.000000	64.905953 
3275.000000	64.912438 
3274.000000	64.916658 
3273.000000	64.917659 
3272.000000	64.914822 
3271.000000	64.908337 
3270.000000	64.899015 
3269.000000	64.888596 
3268.000000	64.878988 
3267.000000	64.872026 
3266.000000	64.869022 
3265.000000	64.870381 
3264.000000	64.875745 
3263.000000	64.884352 
3262.000000	64.895224 
3261.000000	64.907598 
3260.000000	64.920973 
3259.000000	64.935111 
3258.000000	64.949774 
3257.000000	64.964342 
3256.000000	64.977836 
3255.000000	64.988994 
3254.000000	64.996266 
3253.000000	64.998292 
3252.000000	64.994311 
3251.000000	64.984464 
3250.000000	64.969754 
3249.000000	64.952039 
3248.000000	64.933872 
3247.000000	64.918041 
3246.000000	64.906930 
3245.000000	64.902019 
3244.000000	64.903831 
3243.000000	64.911675 
3242.000000	64.923906 
3241.000000	64.938187 
3240.000000	64.951992 
3239.000000	64.962935 
3238.000000	64.969110 
3237.000000	64.969515 
3236.000000	64.963912 
3235.000000	64.952969 
3234.000000	64.937806 
3233.000000	64.919900 
3232.000000	64.900851 
3231.000000	64.882111 
3230.000000	64.864921 
3229.000000	64.850354 
3228.000000	64.839386 
3227.000000	64.832639 
3226.000000	64.830255 
3225.000000	64.831757 
3224.000000	64.836049 
3223.000000	64.841222 
3222.000000	64.845085 
3221.000000	64.845228 
3220.000000	64.839935 
3219.000000	64.828324 
3218.000000	64.811015 
3217.000000	64.789772 
3216.000000	64.767479 
3215.000000	64.747428 
3214.000000	64.732503 
3213.000000	64.724540 
3212.000000	64.723873 
3211.000000	64.729213 
3210.000000	64.738106 
3209.000000	64.747476 
3208.000000	64.754390 
3207.000000	64.756727 
3206.000000	64.753603 
3205.000000	64.745306 
3204.000000	64.733242 
3203.000000	64.719271 
3202.000000	64.705538 
3201.000000	64.693784 
3200.000000	64.685416 
3199.000000	64.681267 
3198.000000	64.681696 
3197.000000	64.686536 
3196.000000	64.695429 
3195.000000	64.707612 
3194.000000	64.722204 
3193.000000	64.738035 
3192.000000	64.753746 
3191.000000	64.767956 
3190.000000	64.779281 
3189.000000	64.786624 
3188.000000	64.789438 
3187.000000	64.787936 
3186.000000	64.782738 
3185.000000	64.775204 
3184.000000	64.767003 
3183.000000	64.759993 
3182.000000	64.755940 
3181.000000	64.756059 
3180.000000	64.761137 
3179.000000	64.771342 
3178.000000	64.786124 
3177.000000	64.804315 
3176.000000	64.824271 
3175.000000	64.843940 
3174.000000	64.861154 
3173.000000	64.873766 
3172.000000	64.879918 
3171.000000	64.877986 
3170.000000	64.866995 
3169.000000	64.846706 
3168.000000	64.818120 
3167.000000	64.783287 
3166.000000	64.745330 
3165.000000	64.708209 
3164.000000	64.676141 
3163.000000	64.652872 
3162.000000	64.640927 
3161.000000	64.641308 
3160.000000	64.652967 
3159.000000	64.673209 
3158.000000	64.698147 
3157.000000	64.723253 
3156.000000	64.744687 
3155.000000	64.759778 
3154.000000	64.767622 
3153.000000	64.768815 
3152.000000	64.765334 
3151.000000	64.759612 
3150.000000	64.754080 
3149.000000	64.750504 
3148.000000	64.749622 
3147.000000	64.751362 
3146.000000	64.755105 
3145.000000	64.760017 
3144.000000	64.765310 
3143.000000	64.770674 
3142.000000	64.775943 
3141.000000	64.781332 
3140.000000	64.787054 
3139.000000	64.793372 
3138.000000	64.800381 
3137.000000	64.808082 
3136.000000	64.816594 
3135.000000	64.826011 
3134.000000	64.836621 
3133.000000	64.848470 
3132.000000	64.861154 
3131.000000	64.873838 
3130.000000	64.885258 
3129.000000	64.893913 
3128.000000	64.898443 
3127.000000	64.897942 
3126.000000	64.892387 
3125.000000	64.882564 
3124.000000	64.869952 
3123.000000	64.856338 
3122.000000	64.843463 
3121.000000	64.832639 
3120.000000	64.824366 
3119.000000	64.818739 
3118.000000	64.815068 
3117.000000	64.812588 
3116.000000	64.810419 
3115.000000	64.807772 
3114.000000	64.804172 
3113.000000	64.799094 
3112.000000	64.792323 
3111.000000	64.783477 
3110.000000	64.772534 
3109.000000	64.759922 
3108.000000	64.746665 
3107.000000	64.734292 
3106.000000	64.724516 
3105.000000	64.719080 
3104.000000	64.719152 
3103.000000	64.724922 
3102.000000	64.735913 
3101.000000	64.751076 
3100.000000	64.769148 
3099.000000	64.788913 
3098.000000	64.809441 
3097.000000	64.830350 
3096.000000	64.851212 
3095.000000	64.871382 
3094.000000	64.889645 
3093.000000	64.904117 
3092.000000	64.912581 
3091.000000	64.912819 
3090.000000	64.903450 
3089.000000	64.884328 
3088.000000	64.857220 
3087.000000	64.825344 
3086.000000	64.792752 
3085.000000	64.763665 
3084.000000	64.741206 
3083.000000	64.727067 
3082.000000	64.721131 
3081.000000	64.721846 
3080.000000	64.726853 
3079.000000	64.733719 
3078.000000	64.740443 
3077.000000	64.745903 
3076.000000	64.749908 
3075.000000	64.752864 
3074.000000	64.755368 
3073.000000	64.757752 
3072.000000	64.759778 
3071.000000	64.760661 
3070.000000	64.759516 
3069.000000	64.755582 
3068.000000	64.748787 
3067.000000	64.740014 
3066.000000	64.731121 
3065.000000	64.724469 
3064.000000	64.722323 
3063.000000	64.726281 
3062.000000	64.736700 
3061.000000	64.752507 
3060.000000	64.771342 
3059.000000	64.790081 
3058.000000	64.805817 
3057.000000	64.816284 
3056.000000	64.820861 
3055.000000	64.820384 
3054.000000	64.817094 
3053.000000	64.813876 
3052.000000	64.813351 
3051.000000	64.816975 
3050.000000	64.824438 
3049.000000	64.834141 
3048.000000	64.843177 
3047.000000	64.848613 
3046.000000	64.848017 
3045.000000	64.840507 
3044.000000	64.826703 
3043.000000	64.808607 
3042.000000	64.788818 
3041.000000	64.769816 
3040.000000	64.753293 
3039.000000	64.739871 
3038.000000	64.729070 
3037.000000	64.719772 
3036.000000	64.710998 
3035.000000	64.702296 
3034.000000	64.694023 
3033.000000	64.687156 
3032.000000	64.682841 
3031.000000	64.682102 
3030.000000	64.684867 
3029.000000	64.690542 
3028.000000	64.697694 
3027.000000	64.704942 
3026.000000	64.711284 
3025.000000	64.716529 
3024.000000	64.721393 
3023.000000	64.727377 
3022.000000	64.736056 
3021.000000	64.748573 
3020.000000	64.765191 
3019.000000	64.785003 
3018.000000	64.806127 
3017.000000	64.825844 
3016.000000	64.841485 
3015.000000	64.850735 
3014.000000	64.852190 
3013.000000	64.845442 
3012.000000	64.830923 
3011.000000	64.810061 
3010.000000	64.784812 
3009.000000	64.757418 
3008.000000	64.730238 
3007.000000	64.705801 
3006.000000	64.686346 
3005.000000	64.673662 
3004.000000	64.668726 
3003.000000	64.671635 
3002.000000	64.681386 
3001.000000	64.696097 
3000.000000	64.713287 
2999.000000	64.730191 
2998.000000	64.744353 
2997.000000	64.753794 
2996.000000	64.757466 
2995.000000	64.755010 
2994.000000	64.746713 
2993.000000	64.733171 
2992.000000	64.715266 
2991.000000	64.693713 
2990.000000	64.669537 
2989.000000	64.644217 
2988.000000	64.619469 
2987.000000	64.597558 
2986.000000	64.580702 
2985.000000	64.571142 
2984.000000	64.570212 
2983.000000	64.578032 
2982.000000	64.593434 
2981.000000	64.614081 
2980.000000	64.636898 
2979.000000	64.658761 
2978.000000	64.676856 
2977.000000	64.689064 
2976.000000	64.694690 
2975.000000	64.693975 
2974.000000	64.687848 
2973.000000	64.677524 
2972.000000	64.664196 
2971.000000	64.648795 
2970.000000	64.632225 
2969.000000	64.615130 
2968.000000	64.598441 
2967.000000	64.583039 
2966.000000	64.570140 
2965.000000	64.560747 
2964.000000	64.555430 
2963.000000	64.554071 
2962.000000	64.555644 
2961.000000	64.558315 
2960.000000	64.559960 
2959.000000	64.558672 
2958.000000	64.553165 
2957.000000	64.543437 
2956.000000	64.530897 
2955.000000	64.518284 
2954.000000	64.508914 
2953.000000	64.506077 
2952.000000	64.512109 
2951.000000	64.527726 
2950.000000	64.551734 
2949.000000	64.581203 
2948.000000	64.611911 
2947.000000	64.639258 
2946.000000	64.659070 
2945.000000	64.668560 
2944.000000	64.666509 
2943.000000	64.653444 
2942.000000	64.631438 
2941.000000	64.603495 
2940.000000	64.573073 
2939.000000	64.543247 
2938.000000	64.516568 
2937.000000	64.494919 
2936.000000	64.479589 
2935.000000	64.471507 
2934.000000	64.471244 
2933.000000	64.478993 
2932.000000	64.494419 
2931.000000	64.516425 
2930.000000	64.543151 
2929.000000	64.571833 
2928.000000	64.599561 
2927.000000	64.623785 
2926.000000	64.642715 
2925.000000	64.655923 
2924.000000	64.664077 
2923.000000	64.668941 
2922.000000	64.672851 
2921.000000	64.677929 
2920.000000	64.685630 
2919.000000	64.696407 
2918.000000	64.709591 
2917.000000	64.723420 
2916.000000	64.735841 
2915.000000	64.744567 
2914.000000	64.747881 
2913.000000	64.744758 
2912.000000	64.735174 
2911.000000	64.719891 
2910.000000	64.700317 
2909.000000	64.678072 
2908.000000	64.654588 
2907.000000	64.630866 
2906.000000	64.607763 
2905.000000	64.585971 
2904.000000	64.566254 
2903.000000	64.549517 
2902.000000	64.536762 
2901.000000	64.528870 
2900.000000	64.526367 
2899.000000	64.528989 
2898.000000	64.535760 
2897.000000	64.544892 
2896.000000	64.554452 
2895.000000	64.562439 
2894.000000	64.567589 
2893.000000	64.569568 
2892.000000	64.569067 
2891.000000	64.567565 
2890.000000	64.566779 
2889.000000	64.568471 
2888.000000	64.573621 
2887.000000	64.582371 
2886.000000	64.593672 
2885.000000	64.606118 
2884.000000	64.617776 
2883.000000	64.627170 
2882.000000	64.633202 
2881.000000	64.635634 
2880.000000	64.635014 
2879.000000	64.632344 
2878.000000	64.628696 
2877.000000	64.624786 
2876.000000	64.621043 
2875.000000	64.617657 
2874.000000	64.614725 
2873.000000	64.612460 
2872.000000	64.611482 
2871.000000	64.612698 
2870.000000	64.617156 
2869.000000	64.625597 
2868.000000	64.638185 
2867.000000	64.654064 
2866.000000	64.671516 
2865.000000	64.688038 
2864.000000	64.700937 
2863.000000	64.707756 
2862.000000	64.706993 
2861.000000	64.698243 
2860.000000	64.682435 
2859.000000	64.661478 
2858.000000	64.637827 
2857.000000	64.614105 
2856.000000	64.592552 
2855.000000	64.574956 
2854.000000	64.562678 
2853.000000	64.556360 
2852.000000	64.556312 
2851.000000	64.562249 
2850.000000	64.573240 
2849.000000	64.587783 
2848.000000	64.603829 
2847.000000	64.619088 
2846.000000	64.631438 
2845.000000	64.639306 
2844.000000	64.642071 
2843.000000	64.640235 
2842.000000	64.635181 
2841.000000	64.629077 
2840.000000	64.624214 
2839.000000	64.622759 
2838.000000	64.626145 
2837.000000	64.634752 
2836.000000	64.647912 
2835.000000	64.664220 
2834.000000	64.681649 
2833.000000	64.698266 
2832.000000	64.712309 
2831.000000	64.722609 
2830.000000	64.728760 
2829.000000	64.730978 
2828.000000	64.729976 
2827.000000	64.726638 
2826.000000	64.721870 
2825.000000	64.716625 
2824.000000	64.711475 
2823.000000	64.706659 
2822.000000	64.702248 
2821.000000	64.698362 
2820.000000	64.695215 
2819.000000	64.693212 
2818.000000	64.692974 
2817.000000	64.694833 
2816.000000	64.698839 
2815.000000	64.704203 
2814.000000	64.709424 
2813.000000	64.712429 
2812.000000	64.711117 
2811.000000	64.703702 
2810.000000	64.689493 
2809.000000	64.669132 
2808.000000	64.644408 
2807.000000	64.618086 
2806.000000	64.593410 
2805.000000	64.573454 
2804.000000	64.560246 
2803.000000	64.554834 
2802.000000	64.556813 
2801.000000	64.564847 
2800.000000	64.577126 
2799.000000	64.591789 
2798.000000	64.607214 
2797.000000	64.622235 
2796.000000	64.635944 
2795.000000	64.647722 
2794.000000	64.656925 
2793.000000	64.663076 
2792.000000	64.665699 
2791.000000	64.664697 
2790.000000	64.660477 
2789.000000	64.653944 
2788.000000	64.646553 
2787.000000	64.639902 
2786.000000	64.635825 
2785.000000	64.635777 
2784.000000	64.640712 
2783.000000	64.650869 
2782.000000	64.665389 
2781.000000	64.682793 
2780.000000	64.700889 
2779.000000	64.717221 
2778.000000	64.729571 
2777.000000	64.736270 
2776.000000	64.736723 
2775.000000	64.731383 
2774.000000	64.721894 
2773.000000	64.710688 
2772.000000	64.700579 
2771.000000	64.694166 
2770.000000	64.693236 
2769.000000	64.698195 
2768.000000	64.708018 
2767.000000	64.720487 
2766.000000	64.732694 
2765.000000	64.741706 
2764.000000	64.745450 
2763.000000	64.742970 
2762.000000	64.734601 
2761.000000	64.721965 
2760.000000	64.707350 
2759.000000	64.693284 
2758.000000	64.681935 
2757.000000	64.674639 
2756.000000	64.671897 
2755.000000	64.673018 
2754.000000	64.676737 
2753.000000	64.681220 
2752.000000	64.684700 
2751.000000	64.685702 
2750.000000	64.683270 
2749.000000	64.677381 
2748.000000	64.668464 
2747.000000	64.657640 
2746.000000	64.646506 
2745.000000	64.636707 
2744.000000	64.629721 
2743.000000	64.626502 
2742.000000	64.627170 
2741.000000	64.631295 
2740.000000	64.637827 
2739.000000	64.645504 
2738.000000	64.653229 
2737.000000	64.660286 
2736.000000	64.666318 
2735.000000	64.671492 
2734.000000	64.676165 
2733.000000	64.680552 
2732.000000	64.684605 
2731.000000	64.688158 
2730.000000	64.690828 
2729.000000	64.692234 
2728.000000	64.692163 
2727.000000	64.690542 
2726.000000	64.687490 
2725.000000	64.683389 
2724.000000	64.678621 
2723.000000	64.673542 
2722.000000	64.668560 
2721.000000	64.663887 
2720.000000	64.660024 
2719.000000	64.657664 
2718.000000	64.657735 
2717.000000	64.661264 
2716.000000	64.668917 
2715.000000	64.680862 
2714.000000	64.696502 
2713.000000	64.714264 
2712.000000	64.732050 
2711.000000	64.747357 
2710.000000	64.757990 
2709.000000	64.762425 
2708.000000	64.759850 
2707.000000	64.750623 
2706.000000	64.735770 
2705.000000	64.716935 
2704.000000	64.696192 
2703.000000	64.675474 
2702.000000	64.656424 
2701.000000	64.640021 
2700.000000	64.626741 
2699.000000	64.616274 
2698.000000	64.607763 
2697.000000	64.600038 
2696.000000	64.591741 
2695.000000	64.581990 
2694.000000	64.570045 
2693.000000	64.556193 
2692.000000	64.541220 
2691.000000	64.526748 
2690.000000	64.514541 
2689.000000	64.506363 
2688.000000	64.503502 
2687.000000	64.506649 
2686.000000	64.515542 
2685.000000	64.529585 
2684.000000	64.547777 
2683.000000	64.568972 
2682.000000	64.592123 
2681.000000	64.616155 
2680.000000	64.639806 
2679.000000	64.661622 
2678.000000	64.680099 
2677.000000	64.693808 
2676.000000	64.701581 
2675.000000	64.703059 
2674.000000	64.698624 
2673.000000	64.689445 
2672.000000	64.677262 
2671.000000	64.664196 
2670.000000	64.652299 
2669.000000	64.643096 
2668.000000	64.637470 
2667.000000	64.635562 
2666.000000	64.636754 
2665.000000	64.640164 
2664.000000	64.644479 
2663.000000	64.648485 
2662.000000	64.650964 
2661.000000	64.650940 
2660.000000	64.647555 
2659.000000	64.640426 
2658.000000	64.629983 
2657.000000	64.617347 
2656.000000	64.604449 
2655.000000	64.593577 
2654.000000	64.587140 
2653.000000	64.587140 
2652.000000	64.594292 
2651.000000	64.608168 
2650.000000	64.627122 
2649.000000	64.648628 
2648.000000	64.670038 
2647.000000	64.688682 
2646.000000	64.702653 
2645.000000	64.710903 
2644.000000	64.713311 
2643.000000	64.710330 
2642.000000	64.702939 
2641.000000	64.692139 
2640.000000	64.678812 
2639.000000	64.663743 
2638.000000	64.647579 
2637.000000	64.630913 
2636.000000	64.614725 
2635.000000	64.599728 
2634.000000	64.586734 
2633.000000	64.576125 
2632.000000	64.567875 
2631.000000	64.561414 
2630.000000	64.555668 
2629.000000	64.549422 
2628.000000	64.541554 
2627.000000	64.531207 
2626.000000	64.518332 
2625.000000	64.503550 
2624.000000	64.488530 
2623.000000	64.475464 
2622.000000	64.466953 
2621.000000	64.465236 
2620.000000	64.471602 
2619.000000	64.486122 
2618.000000	64.507317 
2617.000000	64.532208 
2616.000000	64.557075 
2615.000000	64.578056 
2614.000000	64.591836 
2613.000000	64.596700 
2612.000000	64.592432 
2611.000000	64.580368 
2610.000000	64.563035 
2609.000000	64.543318 
2608.000000	64.523887 
2607.000000	64.506626 
2606.000000	64.492368 
2605.000000	64.481186 
2604.000000	64.472579 
2603.000000	64.466023 
2602.000000	64.461326 
2601.000000	64.458823 
2600.000000	64.459180 
2599.000000	64.463162 
2598.000000	64.470982 
2597.000000	64.482188 
2596.000000	64.495277 
2595.000000	64.508390 
2594.000000	64.519143 
2593.000000	64.526033 
2592.000000	64.528322 
2591.000000	64.526700 
2590.000000	64.523148 
2589.000000	64.520287 
2588.000000	64.520740 
2587.000000	64.526152 
2586.000000	64.536929 
2585.000000	64.551782 
2584.000000	64.568138 
2583.000000	64.582872 
2582.000000	64.593076 
2581.000000	64.596939 
2580.000000	64.594149 
2579.000000	64.586067 
2578.000000	64.575338 
2577.000000	64.565205 
2576.000000	64.558434 
2575.000000	64.556837 
2574.000000	64.560794 
2573.000000	64.569258 
2572.000000	64.580106 
2571.000000	64.590811 
2570.000000	64.599108 
2569.000000	64.603590 
2568.000000	64.603900 
2567.000000	64.600586 
2566.000000	64.595103 
2565.000000	64.589262 
2564.000000	64.584612 
2563.000000	64.582300 
2562.000000	64.582610 
2561.000000	64.585304 
2560.000000	64.589452 
2559.000000	64.593982 
2558.000000	64.597892 
2557.000000	64.600634 
2556.000000	64.602112 
2555.000000	64.602756 
2554.000000	64.603185 
2553.000000	64.603996 
2552.000000	64.605307 
2551.000000	64.606809 
2550.000000	64.607715 
2549.000000	64.606976 
2548.000000	64.603495 
2547.000000	64.596509 
2546.000000	64.585971 
2545.000000	64.572572 
2544.000000	64.557623 
2543.000000	64.542698 
2542.000000	64.529418 
2541.000000	64.518737 
2540.000000	64.511013 
2539.000000	64.505696 
2538.000000	64.501905 
2537.000000	64.498662 
2536.000000	64.495110 
2535.000000	64.490890 
2534.000000	64.486265 
2533.000000	64.481854 
2532.000000	64.478492 
2531.000000	64.476990 
2530.000000	64.477777 
2529.000000	64.480805 
2528.000000	64.485573 
2527.000000	64.491319 
2526.000000	64.497208 
2525.000000	64.502525 
2524.000000	64.506864 
2523.000000	64.510107 
2522.000000	64.512300 
2521.000000	64.513564 
2520.000000	64.513897 
2519.000000	64.513134 
2518.000000	64.510774 
2517.000000	64.506387 
2516.000000	64.499664 
2515.000000	64.490485 
2514.000000	64.479231 
2513.000000	64.466571 
2512.000000	64.453625 
2511.000000	64.441585 
2510.000000	64.431905 
2509.000000	64.425611 
2508.000000	64.423561 
2507.000000	64.425969 
2506.000000	64.432644 
2505.000000	64.442944 
2504.000000	64.455986 
2503.000000	64.470744 
2502.000000	64.486193 
2501.000000	64.501333 
2500.000000	64.515256 
2499.000000	64.527082 
2498.000000	64.536190 
2497.000000	64.542198 
2496.000000	64.545345 
2495.000000	64.546370 
2494.000000	64.546489 
2493.000000	64.547348 
2492.000000	64.550352 
2491.000000	64.556312 
2490.000000	64.565277 
2489.000000	64.576196 
2488.000000	64.587283 
2487.000000	64.596199 
2486.000000	64.600849 
2485.000000	64.599800 
2484.000000	64.592742 
2483.000000	64.580416 
2482.000000	64.564657 
2481.000000	64.547824 
2480.000000	64.532136 
2479.000000	64.519405 
2478.000000	64.510416 
2477.000000	64.505052 
2476.000000	64.502453 
2475.000000	64.501428 
2474.000000	64.500737 
2473.000000	64.499640 
2472.000000	64.498043 
2471.000000	64.496302 
2470.000000	64.495134 
2469.000000	64.495515 
2468.000000	64.498257 
2467.000000	64.503812 
2466.000000	64.512109 
2465.000000	64.522743 
2464.000000	64.534807 
2463.000000	64.547228 
2462.000000	64.558720 
2461.000000	64.568066 
2460.000000	64.574265 
2459.000000	64.576673 
2458.000000	64.574980 
2457.000000	64.569544 
2456.000000	64.561176 
2455.000000	64.551115 
2454.000000	64.540839 
2453.000000	64.531826 
2452.000000	64.525079 
2451.000000	64.521145 
2450.000000	64.519810 
2449.000000	64.520168 
2448.000000	64.520955 
2447.000000	64.520812 
2446.000000	64.518666 
2445.000000	64.513969 
2444.000000	64.506864 
2443.000000	64.498090 
2442.000000	64.488840 
2441.000000	64.480328 
2440.000000	64.473438 
2439.000000	64.468646 
2438.000000	64.465951 
2437.000000	64.464831 
2436.000000	64.464688 
2435.000000	64.464640 
2434.000000	64.464116 
2433.000000	64.462471 
2432.000000	64.459323 
2431.000000	64.454531 
2430.000000	64.447975 
2429.000000	64.439797 
2428.000000	64.430284 
2427.000000	64.419913 
2426.000000	64.409399 
2425.000000	64.399600 
2424.000000	64.391493 
2423.000000	64.385962 
2422.000000	64.383745 
2421.000000	64.385318 
2420.000000	64.390659 
2419.000000	64.399361 
2418.000000	64.410686 
2417.000000	64.423584 
2416.000000	64.436912 
2415.000000	64.449310 
2414.000000	64.459443 
2413.000000	64.466333 
2412.000000	64.469242 
2411.000000	64.467930 
2410.000000	64.462685 
2409.000000	64.454507 
2408.000000	64.444613 
2407.000000	64.434409 
2406.000000	64.425063 
2405.000000	64.417457 
2404.000000	64.412045 
2403.000000	64.409041 
2402.000000	64.408278 
2401.000000	64.409565 
2400.000000	64.412784 
2399.000000	64.417600 
2398.000000	64.423727 
2397.000000	64.430689 
2396.000000	64.437747 
2395.000000	64.443874 
2394.000000	64.447975 
2393.000000	64.449119 
2392.000000	64.446735 
2391.000000	64.440917 
2390.000000	64.432501 
2389.000000	64.423084 
2388.000000	64.414620 
2387.000000	64.409112 
2386.000000	64.407944 
2385.000000	64.411830 
2384.000000	64.420628 
2383.000000	64.433288 
2382.000000	64.448237 
2381.000000	64.463376 
2380.000000	64.476752 
2379.000000	64.486742 
2378.000000	64.492273 
2377.000000	64.493131 
2376.000000	64.489865 
2375.000000	64.483904 
2374.000000	64.477014 
2373.000000	64.471077 
2372.000000	64.467787 
2371.000000	64.467978 
2370.000000	64.471817 
2369.000000	64.478516 
2368.000000	64.486837 
2367.000000	64.495110 
2366.000000	64.501833 
2365.000000	64.506125 
2364.000000	64.507961 
2363.000000	64.508032 
2362.000000	64.507460 
2361.000000	64.507293 
2360.000000	64.508056 
2359.000000	64.509558 
2358.000000	64.510583 
2357.000000	64.509391 
2356.000000	64.504003 
2355.000000	64.492964 
2354.000000	64.475965 
2353.000000	64.453935 
2352.000000	64.429092 
2351.000000	64.404201 
2350.000000	64.382600 
2349.000000	64.367198 
2348.000000	64.360141 
2347.000000	64.362144 
2346.000000	64.372539 
2345.000000	64.389657 
2344.000000	64.410829 
2343.000000	64.433121 
2342.000000	64.453554 
2341.000000	64.469695 
2340.000000	64.479804 
2339.000000	64.482903 
2338.000000	64.478921 
2337.000000	64.468598 
2336.000000	64.453387 
2335.000000	64.435315 
2334.000000	64.416933 
2333.000000	64.400863 
2332.000000	64.389753 
2331.000000	64.385676 
2330.000000	64.389872 
2329.000000	64.402318 
2328.000000	64.421844 
2327.000000	64.445900 
2326.000000	64.471030 
2325.000000	64.493274 
2324.000000	64.508891 
2323.000000	64.514923 
2322.000000	64.509701 
2321.000000	64.493203 
2320.000000	64.467072 
2319.000000	64.434313 
2318.000000	64.398574 
2317.000000	64.363670 
2316.000000	64.332866 
2315.000000	64.308428 
2314.000000	64.291572 
2313.000000	64.282345 
2312.000000	64.279842 
2311.000000	64.282727 
2310.000000	64.289450 
2309.000000	64.298605 
2308.000000	64.309072 
2307.000000	64.320182 
2306.000000	64.331531 
2305.000000	64.342999 
2304.000000	64.354610 
2303.000000	64.366173 
2302.000000	64.377498 
2301.000000	64.388227 
2300.000000	64.398002 
2299.000000	64.406585 
2298.000000	64.413738 
2297.000000	64.419603 
2296.000000	64.424204 
2295.000000	64.427781 
2294.000000	64.430165 
2293.000000	64.431118 
2292.000000	64.429974 
2291.000000	64.425778 
2290.000000	64.417505 
2289.000000	64.404463 
2288.000000	64.386463 
2287.000000	64.363980 
2286.000000	64.338445 
2285.000000	64.312124 
2284.000000	64.287877 
2283.000000	64.268589 
2282.000000	64.256644 
2281.000000	64.253711 
2280.000000	64.260268 
2279.000000	64.275527 
2278.000000	64.297509 
2277.000000	64.323234 
2276.000000	64.349341 
2275.000000	64.372587 
2274.000000	64.389920 
2273.000000	64.399361 
2272.000000	64.400196 
2271.000000	64.393162 
2270.000000	64.380121 
2269.000000	64.363861 
2268.000000	64.347648 
2267.000000	64.334583 
2266.000000	64.327263 
2265.000000	64.327192 
2264.000000	64.334750 
2263.000000	64.348912 
2262.000000	64.367842 
2261.000000	64.388847 
2260.000000	64.409112 
2259.000000	64.425969 
2258.000000	64.437317 
2257.000000	64.441943 
2256.000000	64.439487 
2255.000000	64.430546 
2254.000000	64.416527 
2253.000000	64.399099 
2252.000000	64.379906 
2251.000000	64.360356 
2250.000000	64.341664 
2249.000000	64.324259 
2248.000000	64.308238 
2247.000000	64.293336 
2246.000000	64.279365 
2245.000000	64.266371 
2244.000000	64.254784 
2243.000000	64.245414 
2242.000000	64.239215 
2241.000000	64.236974 
2240.000000	64.239144 
2239.000000	64.245367 
2238.000000	64.254641 
2237.000000	64.265441 
2236.000000	64.276123 
2235.000000	64.285135 
2234.000000	64.291334 
2233.000000	64.294242 
2232.000000	64.294242 
2231.000000	64.292168 
2230.000000	64.289307 
2229.000000	64.286899 
2228.000000	64.286065 
2227.000000	64.287376 
2226.000000	64.291024 
2225.000000	64.296650 
2224.000000	64.303517 
2223.000000	64.310836 
2222.000000	64.317607 
2221.000000	64.323115 
2220.000000	64.326763 
2219.000000	64.328408 
2218.000000	64.328217 
2217.000000	64.326548 
2216.000000	64.324212 
2215.000000	64.321780 
2214.000000	64.319491 
2213.000000	64.317274 
2212.000000	64.314627 
2211.000000	64.311003 
2210.000000	64.305782 
2209.000000	64.298796 
2208.000000	64.290237 
2207.000000	64.280986 
2206.000000	64.272212 
2205.000000	64.265298 
2204.000000	64.261293 
2203.000000	64.260864 
2202.000000	64.263916 
2201.000000	64.269685 
2200.000000	64.276981 
2199.000000	64.284372 
2198.000000	64.290523 
2197.000000	64.294433 
2196.000000	64.295697 
2195.000000	64.294314 
2194.000000	64.290904 
2193.000000	64.286088 
2192.000000	64.280629 
2191.000000	64.275383 
2190.000000	64.271116 
2189.000000	64.268326 
2188.000000	64.267253 
2187.000000	64.267945 
2186.000000	64.270043 
2185.000000	64.272856 
2184.000000	64.275479 
2183.000000	64.277029 
2182.000000	64.276790 
2181.000000	64.274263 
2180.000000	64.269495 
2179.000000	64.262914 
2178.000000	64.255475 
2177.000000	64.248371 
2176.000000	64.243006 
2175.000000	64.240622 
2174.000000	64.242124 
2173.000000	64.247965 
2172.000000	64.257931 
2171.000000	64.270949 
2170.000000	64.285516 
2169.000000	64.299583 
2168.000000	64.311099 
2167.000000	64.318084 
2166.000000	64.319205 
2165.000000	64.314007 
2164.000000	64.302897 
2163.000000	64.287328 
2162.000000	64.269590 
2161.000000	64.252090 
2160.000000	64.237284 
2159.000000	64.226841 
2158.000000	64.221429 
2157.000000	64.220643 
2156.000000	64.223146 
2155.000000	64.227032 
2154.000000	64.230132 
2153.000000	64.230871 
2152.000000	64.228463 
2151.000000	64.223408 
2150.000000	64.217042 
2149.000000	64.211511 
2148.000000	64.209198 
2147.000000	64.212131 
2146.000000	64.221405 
2145.000000	64.236903 
2144.000000	64.257311 
2143.000000	64.280128 
2142.000000	64.302468 
2141.000000	64.321327 
2140.000000	64.334392 
2139.000000	64.340448 
2138.000000	64.339447 
2137.000000	64.332556 
2136.000000	64.321660 
2135.000000	64.308953 
2134.000000	64.296436 
2133.000000	64.285373 
2132.000000	64.276194 
2131.000000	64.268684 
2130.000000	64.262056 
2129.000000	64.255356 
2128.000000	64.247870 
2127.000000	64.239335 
2126.000000	64.229893 
2125.000000	64.220213 
2124.000000	64.210891 
2123.000000	64.202427 
2122.000000	64.194893 
2121.000000	64.188075 
2120.000000	64.181542 
2119.000000	64.174866 
2118.000000	64.167881 
2117.000000	64.161157 
2116.000000	64.155673 
2115.000000	64.152789 
2114.000000	64.154076 
2113.000000	64.160585 
2112.000000	64.172601 
2111.000000	64.189410 
2110.000000	64.209628 
2109.000000	64.231157 
2108.000000	64.251756 
2107.000000	64.269328 
2106.000000	64.282393 
2105.000000	64.290237 
2104.000000	64.293003 
2103.000000	64.291405 
2102.000000	64.286303 
2101.000000	64.278674 
2100.000000	64.269471 
2099.000000	64.259481 
2098.000000	64.249229 
2097.000000	64.239311 
2096.000000	64.230275 
2095.000000	64.222621 
2094.000000	64.216756 
2093.000000	64.213013 
2092.000000	64.211392 
2091.000000	64.211606 
2090.000000	64.212989 
2089.000000	64.214801 
2088.000000	64.216065 
2087.000000	64.215803 
2086.000000	64.213132 
2085.000000	64.207124 
2084.000000	64.197301 
2083.000000	64.183306 
2082.000000	64.165282 
2081.000000	64.143657 
2080.000000	64.119482 
2079.000000	64.094352 
2078.000000	64.070320 
2077.000000	64.049363 
2076.000000	64.033412 
2075.000000	64.023923 
2074.000000	64.021730 
2073.000000	64.026522 
2072.000000	64.037346 
2071.000000	64.052700 
2070.000000	64.070796 
2069.000000	64.089822 
2068.000000	64.108324 
2067.000000	64.125227 
2066.000000	64.139842 
2065.000000	64.151859 
2064.000000	64.161348 
2063.000000	64.168691 
2062.000000	64.174413 
2061.000000	64.179182 
2060.000000	64.183878 
2059.000000	64.189314 
2058.000000	64.196157 
2057.000000	64.204668 
2056.000000	64.214873 
2055.000000	64.225935 
2054.000000	64.236569 
2053.000000	64.245343 
2052.000000	64.250707 
2051.000000	64.251565 
2050.000000	64.247369 
2049.000000	64.238452 
2048.000000	64.225840 
2047.000000	64.211058 
2046.000000	64.196038 
2045.000000	64.182567 
2044.000000	64.171957 
2043.000000	64.164924 
2042.000000	64.161491 
2041.000000	64.161133 
2040.000000	64.162731 
2039.000000	64.164876 
2038.000000	64.166235 
2037.000000	64.165592 
2036.000000	64.162349 
2035.000000	64.156222 
2034.000000	64.147496 
2033.000000	64.136910 
2032.000000	64.125442 
2031.000000	64.114165 
2030.000000	64.103984 
2029.000000	64.095544 
2028.000000	64.088988 
2027.000000	64.084005 
2026.000000	64.079928 
2025.000000	64.075875 
2024.000000	64.070773 
2023.000000	64.063787 
2022.000000	64.054584 
2021.000000	64.043211 
2020.000000	64.030361 
2019.000000	64.017009 
2018.000000	64.004540 
2017.000000	63.994336 
2016.000000	63.987803 
2015.000000	63.985967 
2014.000000	63.989448 
2013.000000	63.998365 
2012.000000	64.012289 
2011.000000	64.030241 
2010.000000	64.050650 
2009.000000	64.071679 
2008.000000	64.091181 
2007.000000	64.107322 
2006.000000	64.118671 
2005.000000	64.124584 
2004.000000	64.125394 
2003.000000	64.122295 
2002.000000	64.117121 
2001.000000	64.111948 
2000.000000	64.108681 
1999.000000	64.108490 
1998.000000	64.111614 
1997.000000	64.117145 
1996.000000	64.123606 
1995.000000	64.129137 
1994.000000	64.132189 
1993.000000	64.131879 
1992.000000	64.128232 
1991.000000	64.122176 
1990.000000	64.115166 
1989.000000	64.108681 
1988.000000	64.103913 
1987.000000	64.101505 
1986.000000	64.101433 
1985.000000	64.103174 
1984.000000	64.106082 
1983.000000	64.109611 
1982.000000	64.113497 
1981.000000	64.117717 
1980.000000	64.122557 
1979.000000	64.128136 
1978.000000	64.134335 
1977.000000	64.140605 
1976.000000	64.146041 
1975.000000	64.149832 
1974.000000	64.151096 
1973.000000	64.149689 
1972.000000	64.145612 
1971.000000	64.139246 
1970.000000	64.131116 
1969.000000	64.121508 
1968.000000	64.110589 
1967.000000	64.098191 
1966.000000	64.084196 
1965.000000	64.068651 
1964.000000	64.051961 
1963.000000	64.035081 
1962.000000	64.019441 
1961.000000	64.006423 
1960.000000	63.997125 
1959.000000	63.992047 
1958.000000	63.990879 
1957.000000	63.992476 
1956.000000	63.995218 
1955.000000	63.997459 
1954.000000	63.998031 
1953.000000	63.996386 
1952.000000	63.992762 
1951.000000	63.988256 
1950.000000	63.984107 
1949.000000	63.981652 
1948.000000	63.981914 
1947.000000	63.985371 
1946.000000	63.992023 
1945.000000	64.001226 
1944.000000	64.011907 
1943.000000	64.022731 
1942.000000	64.032435 
1941.000000	64.039778 
1940.000000	64.043927 
1939.000000	64.044404 
1938.000000	64.041352 
1937.000000	64.035367 
1936.000000	64.027500 
1935.000000	64.019012 
1934.000000	64.011335 
1933.000000	64.005589 
1932.000000	64.002227 
1931.000000	64.001250 
1930.000000	64.002060 
1929.000000	64.003753 
1928.000000	64.005303 
1927.000000	64.005970 
1926.000000	64.005303 
1925.000000	64.003181 
1924.000000	63.999795 
1923.000000	63.995289 
1922.000000	63.989949 
1921.000000	63.983941 
1920.000000	63.977622 
1919.000000	63.971543 
1918.000000	63.966417 
1917.000000	63.963294 
1916.000000	63.963222 
1915.000000	63.967108 
1914.000000	63.975310 
1913.000000	63.987565 
1912.000000	64.002799 
1911.000000	64.019083 
1910.000000	64.034414 
1909.000000	64.046835 
1908.000000	64.055109 
1907.000000	64.058780 
1906.000000	64.058494 
1905.000000	64.055395 
1904.000000	64.051055 
1903.000000	64.046812 
1902.000000	64.043545 
1901.000000	64.041447 
1900.000000	64.040040 
1899.000000	64.038515 
1898.000000	64.036083 
1897.000000	64.032435 
1896.000000	64.027547 
1895.000000	64.022016 
1894.000000	64.016747 
1893.000000	64.012646 
1892.000000	64.010381 
1891.000000	64.009952 
1890.000000	64.010739 
1889.000000	64.011693 
1888.000000	64.011502 
1887.000000	64.009118 
1886.000000	64.004015 
1885.000000	63.996410 
1884.000000	63.987159 
1883.000000	63.977789 
1882.000000	63.969993 
1881.000000	63.965439 
1880.000000	63.965058 
1879.000000	63.969039 
1878.000000	63.976716 
1877.000000	63.986682 
1876.000000	63.996958 
1875.000000	64.005517 
1874.000000	64.010667 
1873.000000	64.011311 
1872.000000	64.007115 
1871.000000	63.998389 
1870.000000	63.986110 
1869.000000	63.971590 
1868.000000	63.956522 
1867.000000	63.942432 
1866.000000	63.930726 
1865.000000	63.922524 
1864.000000	63.918447 
1863.000000	63.918638 
1862.000000	63.922595 
1861.000000	63.929200 
1860.000000	63.937020 
1859.000000	63.944411 
1858.000000	63.949871 
1857.000000	63.952159 
1856.000000	63.950681 
1855.000000	63.945531 
1854.000000	63.937377 
1853.000000	63.927173 
1852.000000	63.915967 
1851.000000	63.904595 
1850.000000	63.893532 
1849.000000	63.883018 
1848.000000	63.873219 
1847.000000	63.864517 
1846.000000	63.857507 
1845.000000	63.853216 
1844.000000	63.852691 
1843.000000	63.857054 
1842.000000	63.866686 
1841.000000	63.881254 
1840.000000	63.899493 
1839.000000	63.919544 
1838.000000	63.939094 
1837.000000	63.956022 
1836.000000	63.968491 
1835.000000	63.975429 
1834.000000	63.976693 
1833.000000	63.972997 
1832.000000	63.965582 
1831.000000	63.955998 
1830.000000	63.945746 
1829.000000	63.936114 
1828.000000	63.928055 
1827.000000	63.922214 
1826.000000	63.918900 
1825.000000	63.918209 
1824.000000	63.919973 
1823.000000	63.923835 
1822.000000	63.929247 
1821.000000	63.935613 
1820.000000	63.942050 
1819.000000	63.947677 
1818.000000	63.951396 
1817.000000	63.952302 
1816.000000	63.949704 
1815.000000	63.943171 
1814.000000	63.932847 
1813.000000	63.919520 
1812.000000	63.904619 
1811.000000	63.889884 
1810.000000	63.877367 
1809.000000	63.868713 
1808.000000	63.864946 
1807.000000	63.866066 
1806.000000	63.871049 
1805.000000	63.878154 
1804.000000	63.885283 
1803.000000	63.890266 
1802.000000	63.891625 
1801.000000	63.888812 
1800.000000	63.882422 
1799.000000	63.873934 
1798.000000	63.865208 
1797.000000	63.858008 
1796.000000	63.853526 
1795.000000	63.852071 
1794.000000	63.852882 
1793.000000	63.854384 
1792.000000	63.854742 
1791.000000	63.852190 
1790.000000	63.845705 
1789.000000	63.835191 
1788.000000	63.821434 
1787.000000	63.805842 
1786.000000	63.790345 
1785.000000	63.776659 
1784.000000	63.766098 
1783.000000	63.759183 
1782.000000	63.755750 
1781.000000	63.755178 
1780.000000	63.756513 
1779.000000	63.758921 
1778.000000	63.761734 
1777.000000	63.764858 
1776.000000	63.768434 
1775.000000	63.773036 
1774.000000	63.779211 
1773.000000	63.787412 
1772.000000	63.797760 
1771.000000	63.809990 
1770.000000	63.823413 
1769.000000	63.837051 
1768.000000	63.849735 
1767.000000	63.860464 
1766.000000	63.868403 
1765.000000	63.873028 
1764.000000	63.873934 
1763.000000	63.870930 
1762.000000	63.863849 
1761.000000	63.852596 
1760.000000	63.837170 
1759.000000	63.817882 
1758.000000	63.795208 
1757.000000	63.770508 
1756.000000	63.745355 
1755.000000	63.721561 
1754.000000	63.700962 
1753.000000	63.685083 
1752.000000	63.674855 
1751.000000	63.670182 
1750.000000	63.670325 
1749.000000	63.673877 
1748.000000	63.679170 
1747.000000	63.684463 
1746.000000	63.688397 
1745.000000	63.690066 
1744.000000	63.688850 
1743.000000	63.684487 
1742.000000	63.676786 
1741.000000	63.665604 
1740.000000	63.650870 
1739.000000	63.632631 
1738.000000	63.611388 
1737.000000	63.588309 
1736.000000	63.565206 
1735.000000	63.544344 
1734.000000	63.528180 
1733.000000	63.518857 
1732.000000	63.517832 
1731.000000	63.525533 
1730.000000	63.540983 
1729.000000	63.562273 
1728.000000	63.586592 
1727.000000	63.611173 
1726.000000	63.633561 
1725.000000	63.652229 
1724.000000	63.666605 
1723.000000	63.677191 
1722.000000	63.685154 
1721.000000	63.691806 
1720.000000	63.698244 
1719.000000	63.704967 
1718.000000	63.711953 
1717.000000	63.718724 
1716.000000	63.724589 
1715.000000	63.729071 
1714.000000	63.732028 
1713.000000	63.733744 
1712.000000	63.734722 
1711.000000	63.735556 
1710.000000	63.736391 
1709.000000	63.736748 
1708.000000	63.735413 
1707.000000	63.730788 
1706.000000	63.721442 
1705.000000	63.706326 
1704.000000	63.685512 
1703.000000	63.660430 
1702.000000	63.633847 
1701.000000	63.609027 
1700.000000	63.589596 
1699.000000	63.578438 
1698.000000	63.576984 
1697.000000	63.585090 
1696.000000	63.600778 
1695.000000	63.620710 
1694.000000	63.640666 
1693.000000	63.656592 
1692.000000	63.665151 
1691.000000	63.664412 
1690.000000	63.654160 
1689.000000	63.635849 
1688.000000	63.612222 
1687.000000	63.586664 
1686.000000	63.562488 
1685.000000	63.542318 
1684.000000	63.527679 
1683.000000	63.519096 
1682.000000	63.516163 
1681.000000	63.517856 
1680.000000	63.523054 
1679.000000	63.530874 
1678.000000	63.540387 
1677.000000	63.551115 
1676.000000	63.562345 
1675.000000	63.573551 
1674.000000	63.583946 
1673.000000	63.592815 
1672.000000	63.599443 
1671.000000	63.603591 
1670.000000	63.605690 
1669.000000	63.606715 
1668.000000	63.608169 
1667.000000	63.611769 
1666.000000	63.618874 
1665.000000	63.630175 
1664.000000	63.645291 
1663.000000	63.662838 
1662.000000	63.680720 
1661.000000	63.696503 
1660.000000	63.707923 
1659.000000	63.713526 
1658.000000	63.712763 
1657.000000	63.706398 
1656.000000	63.696217 
1655.000000	63.684678 
1654.000000	63.674235 
1653.000000	63.667225 
1652.000000	63.664937 
1651.000000	63.667607 
1650.000000	63.674020 
1649.000000	63.682150 
1648.000000	63.689422 
1647.000000	63.693404 
1646.000000	63.692164 
1645.000000	63.684964 
1644.000000	63.672018 
1643.000000	63.654637 
1642.000000	63.634777 
1641.000000	63.614606 
1640.000000	63.596081 
1639.000000	63.580656 
1638.000000	63.568925 
1637.000000	63.560867 
1636.000000	63.555836 
1635.000000	63.552951 
1634.000000	63.551163 
1633.000000	63.549613 
1632.000000	63.547945 
1631.000000	63.546419 
1630.000000	63.545656 
1629.000000	63.546633 
1628.000000	63.550281 
1627.000000	63.557434 
1626.000000	63.568401 
1625.000000	63.583087 
1624.000000	63.600635 
1623.000000	63.619446 
1622.000000	63.637685 
1621.000000	63.653469 
1620.000000	63.665008 
1619.000000	63.670992 
1618.000000	63.670969 
1617.000000	63.665223 
1616.000000	63.655042 
1615.000000	63.642430 
1614.000000	63.629508 
1613.000000	63.618636 
1612.000000	63.611960 
1611.000000	63.610720 
1610.000000	63.615202 
1609.000000	63.624429 
1608.000000	63.636469 
1607.000000	63.648533 
1606.000000	63.657641 
1605.000000	63.661336 
1604.000000	63.658118 
1603.000000	63.647985 
1602.000000	63.632535 
1601.000000	63.614511 
1600.000000	63.597273 
1599.000000	63.584208 
1598.000000	63.577985 
1597.000000	63.580060 
1596.000000	63.590383 
1595.000000	63.607811 
1594.000000	63.630008 
1593.000000	63.654255 
1592.000000	63.677620 
1591.000000	63.697433 
1590.000000	63.711476 
1589.000000	63.717961 
1588.000000	63.715600 
1587.000000	63.703680 
1586.000000	63.682079 
1585.000000	63.651394 
1584.000000	63.613080 
1583.000000	63.569736 
1582.000000	63.524436 
1581.000000	63.480949 
1580.000000	63.442897 
1579.000000	63.413715 
1578.000000	63.395881 
1577.000000	63.390827 
1576.000000	63.398647 
1575.000000	63.418412 
1574.000000	63.448023 
1573.000000	63.484835 
1572.000000	63.525605 
1571.000000	63.567113 
1570.000000	63.606095 
1569.000000	63.639807 
1568.000000	63.665890 
1567.000000	63.682937 
1566.000000	63.690567 
1565.000000	63.689470 
1564.000000	63.681483 
1563.000000	63.669037 
1562.000000	63.655209 
1561.000000	63.642573 
1560.000000	63.633131 
1559.000000	63.627505 
1558.000000	63.625407 
1557.000000	63.625311 
1556.000000	63.625335 
1555.000000	63.623428 
1554.000000	63.618206 
1553.000000	63.609266 
1552.000000	63.597393 
1551.000000	63.584518 
1550.000000	63.573122 
1549.000000	63.565826 
1548.000000	63.564753 
1547.000000	63.570857 
1546.000000	63.583779 
1545.000000	63.601994 
1544.000000	63.622760 
1543.000000	63.643050 
1542.000000	63.659787 
1541.000000	63.670277 
1540.000000	63.672614 
1539.000000	63.666224 
1538.000000	63.651561 
1537.000000	63.629889 
1536.000000	63.603138 
1535.000000	63.573670 
1534.000000	63.543891 
1533.000000	63.516235 
1532.000000	63.492512 
1531.000000	63.474059 
1530.000000	63.461422 
1529.000000	63.454604 
1528.000000	63.452720 
1527.000000	63.454246 
1526.000000	63.457298 
1525.000000	63.460183 
1524.000000	63.461494 
1523.000000	63.460803 
1522.000000	63.458299 
1521.000000	63.454985 
1520.000000	63.452219 
1519.000000	63.451242 
1518.000000	63.452792 
1517.000000	63.456773 
1516.000000	63.462328 
1515.000000	63.467931 
1514.000000	63.471722 
1513.000000	63.472127 
1512.000000	63.468360 
1511.000000	63.460707 
1510.000000	63.450217 
1509.000000	63.439035 
1508.000000	63.429403 
1507.000000	63.423919 
1506.000000	63.424515 
1505.000000	63.432741 
1504.000000	63.449144 
1503.000000	63.473415 
1502.000000	63.504505 
1501.000000	63.540387 
1500.000000	63.578081 
1499.000000	63.613963 
1498.000000	63.644194 
1497.000000	63.665413 
1496.000000	63.675189 
1495.000000	63.672614 
1494.000000	63.658332 
1493.000000	63.634467 
1492.000000	63.603806 
1491.000000	63.569498 
1490.000000	63.534069 
1489.000000	63.499426 
1488.000000	63.466310 
1487.000000	63.434839 
1486.000000	63.405013 
1485.000000	63.376808 
1484.000000	63.351058 
1483.000000	63.328933 
1482.000000	63.312387 
1481.000000	63.303303 
1480.000000	63.303089 
1479.000000	63.311862 
1478.000000	63.328361 
1477.000000	63.349795 
1476.000000	63.372230 
1475.000000	63.391399 
1474.000000	63.403439 
1473.000000	63.405585 
1472.000000	63.396787 
1471.000000	63.377737 
1470.000000	63.350582 
1469.000000	63.318586 
1468.000000	63.285350 
1467.000000	63.254356 
1466.000000	63.228321 
1465.000000	63.209080 
1464.000000	63.197493 
1463.000000	63.193678 
1462.000000	63.196921 
1461.000000	63.206171 
1460.000000	63.220000 
1459.000000	63.236808 
1458.000000	63.254570 
1457.000000	63.271522 
1456.000000	63.285946 
1455.000000	63.296771 
1454.000000	63.303375 
1453.000000	63.306045 
1452.000000	63.305759 
1451.000000	63.303899 
1450.000000	63.301730 
1449.000000	63.300037 
1448.000000	63.299059 
1447.000000	63.298463 
1446.000000	63.297700 
1445.000000	63.296079 
1444.000000	63.293528 
1443.000000	63.290572 
1442.000000	63.288307 
1441.000000	63.288068 
1440.000000	63.291144 
1439.000000	63.298058 
1438.000000	63.308334 
1437.000000	63.320517 
1436.000000	63.332462 
1435.000000	63.341546 
1434.000000	63.345599 
1433.000000	63.343405 
1432.000000	63.335061 
1431.000000	63.322114 
1430.000000	63.307213 
1429.000000	63.293361 
1428.000000	63.283443 
1427.000000	63.279652 
1426.000000	63.282942 
1425.000000	63.292694 
1424.000000	63.307213 
1423.000000	63.324236 
1422.000000	63.341426 
1421.000000	63.356757 
1420.000000	63.369107 
1419.000000	63.378357 
1418.000000	63.385295 
1417.000000	63.391089 
1416.000000	63.397026 
1415.000000	63.404035 
1414.000000	63.412523 
1413.000000	63.422155 
1412.000000	63.432097 
1411.000000	63.441038 
1410.000000	63.447928 
1409.000000	63.451838 
1408.000000	63.452291 
1407.000000	63.449311 
1406.000000	63.443374 
1405.000000	63.434886 
1404.000000	63.424372 
1403.000000	63.412070 
1402.000000	63.398003 
1401.000000	63.382196 
1400.000000	63.364744 
1399.000000	63.346123 
1398.000000	63.327145 
1397.000000	63.309121 
1396.000000	63.293528 
1395.000000	63.281869 
1394.000000	63.275003 
1393.000000	63.273286 
1392.000000	63.276410 
1391.000000	63.283395 
1390.000000	63.292717 
1389.000000	63.302850 
1388.000000	63.312506 
1387.000000	63.320779 
1386.000000	63.327288 
1385.000000	63.332128 
1384.000000	63.335561 
1383.000000	63.338017 
1382.000000	63.339686 
1381.000000	63.340735 
1380.000000	63.341069 
1379.000000	63.340616 
1378.000000	63.339185 
1377.000000	63.336873 
1376.000000	63.333654 
1375.000000	63.329648 
1374.000000	63.324737 
1373.000000	63.318705 
1372.000000	63.310956 
1371.000000	63.300848 
1370.000000	63.287830 
1369.000000	63.271665 
1368.000000	63.252782 
1367.000000	63.232254 
1366.000000	63.211798 
1365.000000	63.193511 
1364.000000	63.179564 
1363.000000	63.171839 
1362.000000	63.171458 
1361.000000	63.178443 
1360.000000	63.191819 
1359.000000	63.209724 
1358.000000	63.229775 
1357.000000	63.249540 
1356.000000	63.266730 
1355.000000	63.279843 
1354.000000	63.288187 
1353.000000	63.291954 
1352.000000	63.292145 
1351.000000	63.289952 
1350.000000	63.286614 
1349.000000	63.282752 
1348.000000	63.278722 
1347.000000	63.274121 
1346.000000	63.267922 
1345.000000	63.259005 
1344.000000	63.246488 
1343.000000	63.230061 
1342.000000	63.210344 
1341.000000	63.188934 
1340.000000	63.168168 
1339.000000	63.150787 
1338.000000	63.139390 
1337.000000	63.135886 
1336.000000	63.140892 
1335.000000	63.153600 
1334.000000	63.171672 
1333.000000	63.191795 
1332.000000	63.210296 
1331.000000	63.223814 
1330.000000	63.230276 
1329.000000	63.228940 
1328.000000	63.220930 
1327.000000	63.208866 
1326.000000	63.196539 
1325.000000	63.187813 
1324.000000	63.185787 
1323.000000	63.192439 
1322.000000	63.207888 
1321.000000	63.230633 
1320.000000	63.257551 
1319.000000	63.284778 
1318.000000	63.308167 
1317.000000	63.324332 
1316.000000	63.330841 
1315.000000	63.326740 
1314.000000	63.312554 
1313.000000	63.290143 
1312.000000	63.262534 
1311.000000	63.233208 
1310.000000	63.205862 
1309.000000	63.183856 
1308.000000	63.169598 
1307.000000	63.164210 
1306.000000	63.167405 
1305.000000	63.177561 
1304.000000	63.191819 
1303.000000	63.206791 
1302.000000	63.218808 
1301.000000	63.225030 
1300.000000	63.223600 
1299.000000	63.214421 
1298.000000	63.198685 
1297.000000	63.178610 
1296.000000	63.157105 
1295.000000	63.136935 
1294.000000	63.120245 
1293.000000	63.108229 
1292.000000	63.101172 
1291.000000	63.098454 
1290.000000	63.099098 
1289.000000	63.102149 
1288.000000	63.106894 
1287.000000	63.113141 
1286.000000	63.120770 
1285.000000	63.129830 
1284.000000	63.140177 
1283.000000	63.151311 
1282.000000	63.162422 
1281.000000	63.172316 
1280.000000	63.179755 
1279.000000	63.183760 
1278.000000	63.183689 
1277.000000	63.179254 
1276.000000	63.170409 
1275.000000	63.157391 
1274.000000	63.140535 
1273.000000	63.120460 
1272.000000	63.097953 
1271.000000	63.073921 
1270.000000	63.049626 
1269.000000	63.026571 
1268.000000	63.006234 
1267.000000	62.989926 
1266.000000	62.978410 
1265.000000	62.971735 
1264.000000	62.969422 
1263.000000	62.970161 
1262.000000	62.972593 
1261.000000	62.975263 
1260.000000	62.977290 
1259.000000	62.978553 
1258.000000	62.979507 
1257.000000	62.981009 
1256.000000	62.984132 
1255.000000	62.989640 
1254.000000	62.997889 
1253.000000	63.008546 
1252.000000	63.020920 
1251.000000	63.033890 
1250.000000	63.046216 
1249.000000	63.056659 
1248.000000	63.064289 
1247.000000	63.068485 
1246.000000	63.068962 
1245.000000	63.065910 
1244.000000	63.059830 
1243.000000	63.051366 
1242.000000	63.041067 
1241.000000	63.029670 
1240.000000	63.017797 
1239.000000	63.006186 
1238.000000	62.995481 
1237.000000	62.986373 
1236.000000	62.979674 
1235.000000	62.976217 
1234.000000	62.976765 
1233.000000	62.981939 
1232.000000	62.991976 
1231.000000	63.006877 
1230.000000	63.025999 
1229.000000	63.048315 
1228.000000	63.072252 
1227.000000	63.096261 
1226.000000	63.118672 
1225.000000	63.138127 
1224.000000	63.153362 
1223.000000	63.163590 
1222.000000	63.168263 
1221.000000	63.167262 
1220.000000	63.160657 
1219.000000	63.149118 
1218.000000	63.133621 
1217.000000	63.115620 
1216.000000	63.096499 
1215.000000	63.077640 
1214.000000	63.060235 
1213.000000	63.044953 
1212.000000	63.032221 
1211.000000	63.021993 
1210.000000	63.014292 
1209.000000	63.009095 
1208.000000	63.006544 
1207.000000	63.006925 
1206.000000	63.010406 
1205.000000	63.016867 
1204.000000	63.025689 
1203.000000	63.035631 
1202.000000	63.045001 
1201.000000	63.051867 
1200.000000	63.054537 
1199.000000	63.052010 
1198.000000	63.044095 
1197.000000	63.031458 
1196.000000	63.015604 
1195.000000	62.998461 
1194.000000	62.981796 
1193.000000	62.966775 
1192.000000	62.954068 
1191.000000	62.943768 
1190.000000	62.935662 
1189.000000	62.929320 
1188.000000	62.924599 
1187.000000	62.921476 
1186.000000	62.920475 
1185.000000	62.922191 
1184.000000	62.926769 
1183.000000	62.933969 
1182.000000	62.942957 
1181.000000	62.952613 
1180.000000	62.961554 
1179.000000	62.968683 
1178.000000	62.973356 
1177.000000	62.975454 
1176.000000	62.975335 
1175.000000	62.973713 
1174.000000	62.971019 
1173.000000	62.967443 
1172.000000	62.962794 
1171.000000	62.956357 
1170.000000	62.947273 
1169.000000	62.934803 
1168.000000	62.918782 
1167.000000	62.899756 
1166.000000	62.879204 
1165.000000	62.859344 
1164.000000	62.842917 
1163.000000	62.832665 
1162.000000	62.830901 
1161.000000	62.838792 
1160.000000	62.856340 
1159.000000	62.882208 
1158.000000	62.913894 
1157.000000	62.948179 
1156.000000	62.981653 
1155.000000	63.011288 
1154.000000	63.034725 
1153.000000	63.050675 
1152.000000	63.058686 
1151.000000	63.059234 
1150.000000	63.053011 
1149.000000	63.040828 
1148.000000	63.023233 
1147.000000	63.000869 
1146.000000	62.974452 
1145.000000	62.944912 
1144.000000	62.913870 
1143.000000	62.883496 
1142.000000	62.856364 
1141.000000	62.834858 
1140.000000	62.820863 
1139.000000	62.815332 
1138.000000	62.817811 
1137.000000	62.826776 
1136.000000	62.839722 
1135.000000	62.853837 
1134.000000	62.866449 
1133.000000	62.875819 
1132.000000	62.881207 
1131.000000	62.883043 
1130.000000	62.882518 
1129.000000	62.881374 
1128.000000	62.881207 
1127.000000	62.883138 
1126.000000	62.887406 
1125.000000	62.893486 
1124.000000	62.900161 
1123.000000	62.906193 
1122.000000	62.910699 
1121.000000	62.913417 
1120.000000	62.914824 
1119.000000	62.916088 
1118.000000	62.918806 
1117.000000	62.924480 
1116.000000	62.934041 
1115.000000	62.947654 
1114.000000	62.964391 
1113.000000	62.982463 
1112.000000	62.999510 
1111.000000	63.013124 
1110.000000	63.021302 
1109.000000	63.022875 
1108.000000	63.017964 
1107.000000	63.007807 
1106.000000	62.994647 
1105.000000	62.981367 
1104.000000	62.970948 
1103.000000	62.966060 
1102.000000	62.968301 
1101.000000	62.978100 
1100.000000	62.994194 
1099.000000	63.013958 
1098.000000	63.033676 
1097.000000	63.049340 
1096.000000	63.057351 
1095.000000	63.055229 
1094.000000	63.042140 
1093.000000	63.019180 
1092.000000	62.988901 
1091.000000	62.954926 
1090.000000	62.921023 
1089.000000	62.890410 
1088.000000	62.865066 
1087.000000	62.845492 
1086.000000	62.830924 
1085.000000	62.819766 
1084.000000	62.810087 
1083.000000	62.800431 
1082.000000	62.790060 
1081.000000	62.779116 
1080.000000	62.768459 
1079.000000	62.759566 
1078.000000	62.753391 
1077.000000	62.750840 
1076.000000	62.752056 
1075.000000	62.756776 
1074.000000	62.764406 
1073.000000	62.774300 
1072.000000	62.785959 
1071.000000	62.799024 
1070.000000	62.813329 
1069.000000	62.828588 
1068.000000	62.844157 
1067.000000	62.858796 
1066.000000	62.870979 
1065.000000	62.878894 
1064.000000	62.881040 
1063.000000	62.876820 
1062.000000	62.866568 
1061.000000	62.851810 
1060.000000	62.834811 
1059.000000	62.818479 
1058.000000	62.805747 
1057.000000	62.798643 
1056.000000	62.797904 
1055.000000	62.803173 
1054.000000	62.812542 
1053.000000	62.823343 
1052.000000	62.832474 
1051.000000	62.837123 
1050.000000	62.835478 
1049.000000	62.827348 
1048.000000	62.813878 
1047.000000	62.797331 
1046.000000	62.780594 
1045.000000	62.766385 
1044.000000	62.756586 
1043.000000	62.751698 
1042.000000	62.751054 
1041.000000	62.753105 
1040.000000	62.755846 
1039.000000	62.757587 
1038.000000	62.757706 
1037.000000	62.756824 
1036.000000	62.756752 
1035.000000	62.759828 
1034.000000	62.768673 
1033.000000	62.785029 
1032.000000	62.809562 
1031.000000	62.841153 
1030.000000	62.877225 
1029.000000	62.913823 
1028.000000	62.946820 
1027.000000	62.972235 
1026.000000	62.987041 
1025.000000	62.989640 
1024.000000	62.980103 
1023.000000	62.960100 
1022.000000	62.932395 
1021.000000	62.900376 
1020.000000	62.867617 
1019.000000	62.837314 
1018.000000	62.811994 
1017.000000	62.793326 
1016.000000	62.782073 
1015.000000	62.777948 
1014.000000	62.779784 
1013.000000	62.785768 
1012.000000	62.793636 
1011.000000	62.801027 
1010.000000	62.806010 
1009.000000	62.807154 
1008.000000	62.804007 
1007.000000	62.796998 
1006.000000	62.787508 
1005.000000	62.777590 
1004.000000	62.769365 
1003.000000	62.764954 
1002.000000	62.765765 
1001.000000	62.772393 
1000.000000	62.784123 
999.000000	 62.799382 
998.000000	 62.815880 
997.000000	 62.830758 
996.000000	 62.841677 
995.000000	 62.847065 
994.000000	 62.846493 
993.000000	 62.840890 
992.000000	 62.831997 
991.000000	 62.822031 
990.000000	 62.813091 
989.000000	 62.806797 
988.000000	 62.803649 
987.000000	 62.803077 
986.000000	 62.803888 
985.000000	 62.804770 
984.000000	 62.804532 
983.000000	 62.802600 
982.000000	 62.799334 
981.000000	 62.795686 
980.000000	 62.792730 
979.000000	 62.791371 
978.000000	 62.791705 
977.000000	 62.792897 
976.000000	 62.793302 
975.000000	 62.790894 
974.000000	 62.783694 
973.000000	 62.770676 
972.000000	 62.751913 
971.000000	 62.728834 
970.000000	 62.703728 
969.000000	 62.679433 
968.000000	 62.658739 
967.000000	 62.643742 
966.000000	 62.635159 
965.000000	 62.632799 
964.000000	 62.635564 
963.000000	 62.641930 
962.000000	 62.650537 
961.000000	 62.660408 
960.000000	 62.671041 
959.000000	 62.682533 
958.000000	 62.695407 
957.000000	 62.710213 
956.000000	 62.727332 
955.000000	 62.746858 
954.000000	 62.768483 
953.000000	 62.791419 
952.000000	 62.814474 
951.000000	 62.836527 
950.000000	 62.856340 
949.000000	 62.873005 
948.000000	 62.885785 
947.000000	 62.894296 
946.000000	 62.898445 
945.000000	 62.898087 
944.000000	 62.893295 
943.000000	 62.884044 
942.000000	 62.870597 
941.000000	 62.853407 
940.000000	 62.833690 
939.000000	 62.813234 
938.000000	 62.794661 
937.000000	 62.781143 
936.000000	 62.775969 
935.000000	 62.781572 
934.000000	 62.799215 
933.000000	 62.828373 
932.000000	 62.866568 
931.000000	 62.909555 
930.000000	 62.952375 
929.000000	 62.990164 
928.000000	 63.019251 
927.000000	 63.037657 
926.000000	 63.045716 
925.000000	 63.045382 
924.000000	 63.039612 
923.000000	 63.031363 
922.000000	 63.022923 
921.000000	 63.015246 
920.000000	 63.008117 
919.000000	 63.000392 
918.000000	 62.991023 
917.000000	 62.979269 
916.000000	 62.965703 
915.000000	 62.951374 
914.000000	 62.937855 
913.000000	 62.926125 
912.000000	 62.916207 
911.000000	 62.906742 
910.000000	 62.895154 
909.000000	 62.878561 
908.000000	 62.854552 
907.000000	 62.822127 
906.000000	 62.782406 
905.000000	 62.738656 
904.000000	 62.695527 
903.000000	 62.657761 
902.000000	 62.628817 
901.000000	 62.610077 
900.000000	 62.600493 
899.000000	 62.597060 
898.000000	 62.595987 
897.000000	 62.593579 
896.000000	 62.587594 
895.000000	 62.577795 
894.000000	 62.565994 
893.000000	 62.555217 
892.000000	 62.548995 
891.000000	 62.550401 
890.000000	 62.560939 
889.000000	 62.580442 
888.000000	 62.606358 
887.000000	 62.634658 
886.000000	 62.660288 
885.000000	 62.678360 
884.000000	 62.685322 
883.000000	 62.679672 
882.000000	 62.662744 
881.000000	 62.638115 
880.000000	 62.611699 
879.000000	 62.590312 
878.000000	 62.580537 
877.000000	 62.587261 
876.000000	 62.612366 
875.000000	 62.654542 
874.000000	 62.709307 
873.000000	 62.770056 
872.000000	 62.829446 
871.000000	 62.880825 
870.000000	 62.919902 
869.000000	 62.945055 
868.000000	 62.956905 
867.000000	 62.957978 
866.000000	 62.951660 
865.000000	 62.941193 
864.000000	 62.929224 
863.000000	 62.917256 
862.000000	 62.906122 
861.000000	 62.895464 
860.000000	 62.884831 
859.000000	 62.872934 
858.000000	 62.858724 
857.000000	 62.840819 
856.000000	 62.818026 
855.000000	 62.789392 
854.000000	 62.754535 
853.000000	 62.714004 
852.000000	 62.669277 
851.000000	 62.622928 
850.000000	 62.578344 
849.000000	 62.539196 
848.000000	 62.508821 
847.000000	 62.489414 
846.000000	 62.481784 
845.000000	 62.485170 
844.000000	 62.497615 
843.000000	 62.516045 
842.000000	 62.537312 
841.000000	 62.558770 
840.000000	 62.578415 
839.000000	 62.594914 
838.000000	 62.607479 
837.000000	 62.615704 
836.000000	 62.619519 
835.000000	 62.618494 
834.000000	 62.612605 
833.000000	 62.601947 
832.000000	 62.587499 
831.000000	 62.571287 
830.000000	 62.556338 
829.000000	 62.546539 
828.000000	 62.545752 
827.000000	 62.557029 
826.000000	 62.581443 
825.000000	 62.617611 
824.000000	 62.661743 
823.000000	 62.708115 
822.000000	 62.750411 
821.000000	 62.783026 
820.000000	 62.802433 
819.000000	 62.807703 
818.000000	 62.799906 
817.000000	 62.781810 
816.000000	 62.756896 
815.000000	 62.728643 
814.000000	 62.700104 
813.000000	 62.673330 
812.000000	 62.649893 
811.000000	 62.630581 
810.000000	 62.615752 
809.000000	 62.605047 
808.000000	 62.597751 
807.000000	 62.592911 
806.000000	 62.589645 
805.000000	 62.587332 
804.000000	 62.585449 
803.000000	 62.583756 
802.000000	 62.582015 
801.000000	 62.579941 
800.000000	 62.576937 
799.000000	 62.572336 
798.000000	 62.565660 
797.000000	 62.556886 
796.000000	 62.546420 
795.000000	 62.535524 
794.000000	 62.526226 
793.000000	 62.520813 
792.000000	 62.521338 
791.000000	 62.529063 
790.000000	 62.543773 
789.000000	 62.563586 
788.000000	 62.585401 
787.000000	 62.605500 
786.000000	 62.620306 
785.000000	 62.627458 
784.000000	 62.626004 
783.000000	 62.616515 
782.000000	 62.601041 
781.000000	 62.582397 
780.000000	 62.563490 
779.000000	 62.546634 
778.000000	 62.532997 
777.000000	 62.522912 
776.000000	 62.515234 
775.000000	 62.508153 
774.000000	 62.499451 
773.000000	 62.487602 
772.000000	 62.471938 
771.000000	 62.453079 
770.000000	 62.433004 
769.000000	 62.414646 
768.000000	 62.401485 
767.000000	 62.396717 
766.000000	 62.402391 
765.000000	 62.418985 
764.000000	 62.445068 
763.000000	 62.477517 
762.000000	 62.511920 
761.000000	 62.543630 
760.000000	 62.568664 
759.000000	 62.584328 
758.000000	 62.589716 
757.000000	 62.585544 
756.000000	 62.573719 
755.000000	 62.556982 
754.000000	 62.537908 
753.000000	 62.518930 
752.000000	 62.502193 
751.000000	 62.489700 
750.000000	 62.483263 
749.000000	 62.484550 
748.000000	 62.495088 
747.000000	 62.515640 
746.000000	 62.545704 
745.000000	 62.583303 
744.000000	 62.624907 
743.000000	 62.665629 
742.000000	 62.699794 
741.000000	 62.722182 
740.000000	 62.729120 
739.000000	 62.719178 
738.000000	 62.693762 
737.000000	 62.656641 
736.000000	 62.613344 
735.000000	 62.570309 
734.000000	 62.533235 
733.000000	 62.506389 
732.000000	 62.491607 
731.000000	 62.488508 
730.000000	 62.494444 
729.000000	 62.505483 
728.000000	 62.516999 
727.000000	 62.524938 
726.000000	 62.526154 
725.000000	 62.518835 
724.000000	 62.502527 
723.000000	 62.477898 
722.000000	 62.446045 
721.000000	 62.408065 
720.000000	 62.364697 
719.000000	 62.316584 
718.000000	 62.264180 
717.000000	 62.208342 
716.000000	 62.150669 
715.000000	 62.093782 
714.000000	 62.041282 
713.000000	 61.997437 
712.000000	 61.966109 
711.000000	 61.950206 
710.000000	 61.950922 
709.000000	 61.967921 
708.000000	 61.998248 
707.000000	 62.037897 
706.000000	 62.081861 
705.000000	 62.125706 
704.000000	 62.166023 
703.000000	 62.201261 
702.000000	 62.231135 
701.000000	 62.256717 
700.000000	 62.279725 
699.000000	 62.301850 
698.000000	 62.324070 
697.000000	 62.346243 
696.000000	 62.367677 
695.000000	 62.387061 
694.000000	 62.403345 
693.000000	 62.415933 
692.000000	 62.425231 
691.000000	 62.432146 
690.000000	 62.437939 
689.000000	 62.443447 
688.000000	 62.448740 
687.000000	 62.452363 
686.000000	 62.451291 
685.000000	 62.441897 
684.000000	 62.420868 
683.000000	 62.386107 
682.000000	 62.337803 
681.000000	 62.278890 
680.000000	 62.214875 
679.000000	 62.152886 
678.000000	 62.100529 
677.000000	 62.063980 
676.000000	 62.047147 
675.000000	 62.050676 
674.000000	 62.072110 
673.000000	 62.106251 
672.000000	 62.146306 
671.000000	 62.185668 
670.000000	 62.218832 
669.000000	 62.241768 
668.000000	 62.252688 
667.000000	 62.251758 
666.000000	 62.240672 
665.000000	 62.221813 
664.000000	 62.198066 
663.000000	 62.172341 
662.000000	 62.147521 
661.000000	 62.126040 
660.000000	 62.109994 
659.000000	 62.100529 
658.000000	 62.097835 
657.000000	 62.100934 
656.000000	 62.107872 
655.000000	 62.116026 
654.000000	 62.122392 
653.000000	 62.124538 
652.000000	 62.121272 
651.000000	 62.113165 
650.000000	 62.102341 
649.000000	 62.091374 
648.000000	 62.082791 
647.000000	 62.077808 
646.000000	 62.075996 
645.000000	 62.074947 
644.000000	 62.071156 
643.000000	 62.060785 
642.000000	 62.041234 
641.000000	 62.011671 
640.000000	 61.973166 
639.000000	 61.929464 
638.000000	 61.886143 
637.000000	 61.849617 
636.000000	 61.825489 
635.000000	 61.817884 
634.000000	 61.828279 
633.000000	 61.854410 
632.000000	 61.890387 
631.000000	 61.927628 
630.000000	 61.956572 
629.000000	 61.968207 
628.000000	 61.956214 
627.000000	 61.917901 
626.000000	 61.855220 
625.000000	 61.774682 
624.000000	 61.685562 
623.000000	 61.598086 
622.000000	 61.521029 
621.000000	 61.459207 
620.000000	 61.414217 
619.000000	 61.383914 
618.000000	 61.366009 
617.000000	 61.358547 
616.000000	 61.363267 
615.000000	 61.384534 
614.000000	 61.429643 
613.000000	 61.505770 
612.000000	 61.617493 
611.000000	 61.763048 
610.000000	 61.935257 
609.000000	 62.121510 
608.000000	 62.306451 
607.000000	 62.474584 
606.000000	 62.613368 
605.000000	 62.714672 
604.000000	 62.775969 
603.000000	 62.798619 
602.000000	 62.786006 
601.000000	 62.741875 
600.000000	 62.669110 
599.000000	 62.570858 
598.000000	 62.452363 
597.000000	 62.322425 
596.000000	 62.195324 
595.000000	 62.088131 
594.000000	 62.018942 
593.000000	 62.001562 
592.000000	 62.043190 
591.000000	 62.139701 
590.000000	 62.275409 
589.000000	 62.424683 
588.000000	 62.557458 
587.000000	 62.644743 
586.000000	 62.664842 
585.000000	 62.608456 
584.000000	 62.480235 
583.000000	 62.298727 
582.000000	 62.091946 
581.000000	 61.891555 
580.000000	 61.725544 
579.000000	 61.613941 
578.000000	 61.564779 
577.000000	 61.572885 
576.000000	 61.621975 
575.000000	 61.688899 
574.000000	 61.750078 
573.000000	 61.785030 
572.000000	 61.783695 
571.000000	 61.746287 
570.000000	 61.685585 
569.000000	 61.621212 
568.000000	 61.576509 
567.000000	 61.571145 
566.000000	 61.616778 
565.000000	 61.714291 
564.000000	 61.852836 
563.000000	 62.013196 
562.000000	 62.171769 
561.000000	 62.306451 
560.000000	 62.401461 
559.000000	 62.451052 
558.000000	 62.458205 
557.000000	 62.432622 
556.000000	 62.386584 
555.000000	 62.331175 
554.000000	 62.273287 
553.000000	 62.214994 
552.000000	 62.154793 
551.000000	 62.090420 
550.000000	 62.023568 
549.000000	 61.961054 
548.000000	 61.912798 
547.000000	 61.889982 
546.000000	 61.901402 
545.000000	 61.950564 
544.000000	 62.033295 
543.000000	 62.138128 
542.000000	 62.248682 
541.000000	 62.346649 
540.000000	 62.417221 
539.000000	 62.449932 
538.000000	 62.442159 
537.000000	 62.395906 
536.000000	 62.317228 
535.000000	 62.212085 
534.000000	 62.084317 
533.000000	 61.935806 
532.000000	 61.767983 
531.000000	 61.583638 
530.000000	 61.388182 
529.000000	 61.194944 
528.000000	 61.024928 
527.000000	 60.902857 
526.000000	 60.852003 
525.000000	 60.888433 
524.000000	 61.016058 
523.000000	 61.224174 
522.000000	 61.488366 
521.000000	 61.773586 
520.000000	 62.041711 
519.000000	 62.259888 
518.000000	 62.406659 
517.000000	 62.473797 
516.000000	 62.467837 
515.000000	 62.406253 
514.000000	 62.312722 
513.000000	 62.212514 
512.000000	 62.124180 
511.000000	 62.060880 
510.000000	 62.021803 
509.000000	 61.998820 
508.000000	 61.972737 
507.000000	 61.922860 
506.000000	 61.826944 
505.000000	 61.668133 
504.000000	 61.437606 
503.000000	 61.137485 
502.000000	 60.782384 
501.000000	 60.397505 
500.000000	 60.016989 
499.000000	 59.678483 
498.000000	 59.420084 
497.000000	 59.274101 
496.000000	 59.262132 
495.000000	 59.391140 
494.000000	 59.651994 
493.000000	 60.019922 
492.000000	 60.456156 
491.000000	 60.914349 
490.000000	 61.345696 
489.000000	 61.707353 
488.000000	 61.965870 
487.000000	 62.104320 
486.000000	 62.122702 
485.000000	 62.037682 
484.000000	 61.880016 
483.000000	 61.686229 
482.000000	 61.494064 
481.000000	 61.332702 
480.000000	 61.223149 
479.000000	 61.169743 
478.000000	 61.164832 
477.000000	 61.188387 
476.000000	 61.216235 
475.000000	 61.223769 
474.000000	 61.192464 
473.000000	 61.113524 
472.000000	 60.989665 
471.000000	 60.833263 
470.000000	 60.663247 
469.000000	 60.501122 
468.000000	 60.366559 
467.000000	 60.273599 
466.000000	 60.229206 
465.000000	 60.232710 
464.000000	 60.278248 
463.000000	 60.356926 
462.000000	 60.460400 
461.000000	 60.580182 
460.000000	 60.711026 
459.000000	 60.851383 
458.000000	 61.000227 
457.000000	 61.154484 
456.000000	 61.306548 
455.000000	 61.443972 
454.000000	 61.549854 
453.000000	 61.607646 
452.000000	 61.603164 
451.000000	 61.528134 
450.000000	 61.386227 
449.000000	 61.195588 
448.000000	 60.982751 
447.000000	 60.777449 
446.000000	 60.607433 
445.000000	 60.492897 
444.000000	 60.439848 
443.000000	 60.439586 
442.000000	 60.470747 
441.000000	 60.505843 
440.000000	 60.519051 
439.000000	 60.493326 
438.000000	 60.423088 
437.000000	 60.315871 
436.000000	 60.187315 
435.000000	 60.058045 
434.000000	 59.946823 
433.000000	 59.867668 
432.000000	 59.823107 
431.000000	 59.811115 
430.000000	 59.823179 
429.000000	 59.856510 
428.000000	 59.916377 
427.000000	 60.018777 
426.000000	 60.181570 
425.000000	 60.425972 
424.000000	 60.766077 
423.000000	 61.205768 
422.000000	 61.733007 
421.000000	 62.320399 
420.000000	 62.926673 
419.000000	 63.506174 
418.000000	 64.016127 
417.000000	 64.414167 
416.000000	 64.664220 
415.000000	 64.742803 
414.000000	 64.643454 
413.000000	 64.375853 
412.000000	 63.971614 
411.000000	 63.475441 
410.000000	 62.948846 
409.000000	 62.481284 
408.000000	 62.160897 
407.000000	 62.065958 
406.000000	 62.229061 
405.000000	 62.628030 
404.000000	 63.179874 
403.000000	 63.754296 
402.000000	 64.206504 
401.000000	 64.407920 
400.000000	 64.287424 
399.000000	 63.850736 
398.000000	 63.179349 
397.000000	 62.400865 
396.000000	 61.674213 
395.000000	 61.143541 
394.000000	 60.930252 
393.000000	 61.108803 
392.000000	 61.700630 
391.000000	 62.666296 
390.000000	 63.937807 
389.000000	 65.414214 
388.000000	 66.947245 
387.000000	 68.343210 
386.000000	 69.373226 
385.000000	 69.809675 
384.000000	 69.444632 
383.000000	 68.168759 
382.000000	 66.013550 
381.000000	 63.178110 
380.000000	 60.038208 
379.000000	 57.052540 
378.000000	 54.656577 
377.000000	 53.184080 
376.000000	 52.761459 
375.000000	 53.346920 
374.000000	 54.769206 
373.000000	 56.776976 
372.000000	 59.108710 
371.000000	 61.529231 
370.000000	 63.864374 

