PE IR       SPECTRUM    SPECTRUM    ASCII       PEDS        1.60        
  -1
BZ6DA6~1.ASC
17/04/07
19:25:00.00
17/04/07
19:25:00.00
tln
$BZ1503107-1_t0075$<tbV0>[-7.8,2.6,8.0,0.0,27,1,0]
370.000000
64









2002,4.07    
MIRTGS : RIGHTBACK : INTERNAL 2
MIR : ON : INTERNAL 2
OPTKBR

0.200000
8
8.000000
FILLER
RATIO
SPECTRUM
UNLOCKED 256

DOUBLE
64
COMBINED
1
0
0


1.000000
RATIO


1
0
TRUE
51149
0
LEFT NOT FITTED RIGHT NOT FITTED 0
NONE
NONE
15600
12.000000
4.427000
51148
TRUE
1 0 8 72 0 0 0 0 

15798.010000






#HDR
-1
-1
#GR
CM-1
%T
0.00002384185791015625
0.0
5000.000000
-1.000000
4631
8
80.398893
48.991632
#DATA
5000.000000	64.680647 
4999.000000	64.803910 
4998.000000	64.868354 
4997.000000	64.871811 
4996.000000	64.823269 
4995.000000	64.741420 
4994.000000	64.649868 
4993.000000	64.572525 
4992.000000	64.527344 
4991.000000	64.523816 
4990.000000	64.560770 
4989.000000	64.629197 
4988.000000	64.713764 
4987.000000	64.797854 
4986.000000	64.867019 
4985.000000	64.912605 
4984.000000	64.930605 
4983.000000	64.921498 
4982.000000	64.888334 
4981.000000	64.835095 
4980.000000	64.766097 
4979.000000	64.685440 
4978.000000	64.598107 
4977.000000	64.509439 
4976.000000	64.425063 
4975.000000	64.349961 
4974.000000	64.287281 
4973.000000	64.238381 
4972.000000	64.202165 
4971.000000	64.176917 
4970.000000	64.159035 
4969.000000	64.146900 
4968.000000	64.140772 
4967.000000	64.143919 
4966.000000	64.160776 
4965.000000	64.196252 
4964.000000	64.253139 
4963.000000	64.330983 
4962.000000	64.424848 
4961.000000	64.525842 
4960.000000	64.622426 
4959.000000	64.702749 
4958.000000	64.757609 
4957.000000	64.781403 
4956.000000	64.773130 
4955.000000	64.735937 
4954.000000	64.676117 
4953.000000	64.601993 
4952.000000	64.522147 
4951.000000	64.444684 
4950.000000	64.375829 
4949.000000	64.319825 
4948.000000	64.278578 
4947.000000	64.252495 
4946.000000	64.240837 
4945.000000	64.241909 
4944.000000	64.254212 
4943.000000	64.275860 
4942.000000	64.305925 
4941.000000	64.343190 
4940.000000	64.387226 
4939.000000	64.437031 
4938.000000	64.491486 
4937.000000	64.548683 
4936.000000	64.605903 
4935.000000	64.659905 
4934.000000	64.707279 
4933.000000	64.745140 
4932.000000	64.771533 
4931.000000	64.785861 
4930.000000	64.789247 
4929.000000	64.784288 
4928.000000	64.774060 
4927.000000	64.761400 
4926.000000	64.748334 
4925.000000	64.735484 
4924.000000	64.722371 
4923.000000	64.707589 
4922.000000	64.689707 
4921.000000	64.667773 
4920.000000	64.642310 
4919.000000	64.615297 
4918.000000	64.588761 
4917.000000	64.565229 
4916.000000	64.546203 
4915.000000	64.532780 
4914.000000	64.525270 
4913.000000	64.523577 
4912.000000	64.527511 
4911.000000	64.537024 
4910.000000	64.552593 
4909.000000	64.574193 
4908.000000	64.601039 
4907.000000	64.630746 
4906.000000	64.659547 
4905.000000	64.682340 
4904.000000	64.693856 
4903.000000	64.689660 
4902.000000	64.667487 
4901.000000	64.628386 
4900.000000	64.576768 
4899.000000	64.519524 
4898.000000	64.464688 
4897.000000	64.419913 
4896.000000	64.391136 
4895.000000	64.381694 
4894.000000	64.391827 
4893.000000	64.419269 
4892.000000	64.459514 
4891.000000	64.506840 
4890.000000	64.555025 
4889.000000	64.598059 
4888.000000	64.631032 
4887.000000	64.650511 
4886.000000	64.654994 
4885.000000	64.644527 
4884.000000	64.620876 
4883.000000	64.587092 
4882.000000	64.547514 
4881.000000	64.507079 
4880.000000	64.471364 
4879.000000	64.446020 
4878.000000	64.436507 
4877.000000	64.447093 
4876.000000	64.480280 
4875.000000	64.536237 
4874.000000	64.612054 
4873.000000	64.702057 
4872.000000	64.798045 
4871.000000	64.890480 
4870.000000	64.969944 
4869.000000	65.028405 
4868.000000	65.060782 
4867.000000	65.065193 
4866.000000	65.044116 
4865.000000	65.002417 
4864.000000	64.946699 
4863.000000	64.883279 
4862.000000	64.817762 
4861.000000	64.753508 
4860.000000	64.692425 
4859.000000	64.634919 
4858.000000	64.581036 
4857.000000	64.531278 
4856.000000	64.486861 
4855.000000	64.450216 
4854.000000	64.424014 
4853.000000	64.411234 
4852.000000	64.413905 
4851.000000	64.432621 
4850.000000	64.465689 
4849.000000	64.509534 
4848.000000	64.558768 
4847.000000	64.607214 
4846.000000	64.648747 
4845.000000	64.678621 
4844.000000	64.694285 
4843.000000	64.695572 
4842.000000	64.684438 
4841.000000	64.664936 
4840.000000	64.641642 
4839.000000	64.618778 
4838.000000	64.599132 
4837.000000	64.584016 
4836.000000	64.572858 
4835.000000	64.564180 
4834.000000	64.556097 
4833.000000	64.547157 
4832.000000	64.537072 
4831.000000	64.527082 
4830.000000	64.519500 
4829.000000	64.516425 
4828.000000	64.519357 
4827.000000	64.528393 
4826.000000	64.541888 
4825.000000	64.556789 
4824.000000	64.569354 
4823.000000	64.576268 
4822.000000	64.575433 
4821.000000	64.566612 
4820.000000	64.551305 
4819.000000	64.532446 
4818.000000	64.513611 
4817.000000	64.498162 
4816.000000	64.488220 
4815.000000	64.483857 
4814.000000	64.483666 
4813.000000	64.485073 
4812.000000	64.485168 
4811.000000	64.481925 
4810.000000	64.474844 
4809.000000	64.465451 
4808.000000	64.456796 
4807.000000	64.452719 
4806.000000	64.455986 
4805.000000	64.467883 
4804.000000	64.487624 
4803.000000	64.512372 
4802.000000	64.537715 
4801.000000	64.559245 
4800.000000	64.573693 
4799.000000	64.579582 
4798.000000	64.577245 
4797.000000	64.568614 
4796.000000	64.556384 
4795.000000	64.543056 
4794.000000	64.530205 
4793.000000	64.518189 
4792.000000	64.506173 
4791.000000	64.492988 
4790.000000	64.477753 
4789.000000	64.460396 
4788.000000	64.441752 
4787.000000	64.423298 
4786.000000	64.407086 
4785.000000	64.394545 
4784.000000	64.386940 
4783.000000	64.384531 
4782.000000	64.387774 
4781.000000	64.396882 
4780.000000	64.412927 
4779.000000	64.437317 
4778.000000	64.471936 
4777.000000	64.518094 
4776.000000	64.576339 
4775.000000	64.645481 
4774.000000	64.722347 
4773.000000	64.802217 
4772.000000	64.878940 
4771.000000	64.946126 
4770.000000	64.997982 
4769.000000	65.030574 
4768.000000	65.042042 
4767.000000	65.032935 
4766.000000	65.005636 
4765.000000	64.963817 
4764.000000	64.911890 
4763.000000	64.854049 
4762.000000	64.794325 
4761.000000	64.736104 
4760.000000	64.682340 
4759.000000	64.635658 
4758.000000	64.598488 
4757.000000	64.572954 
4756.000000	64.560723 
4755.000000	64.562678 
4754.000000	64.578270 
4753.000000	64.605760 
4752.000000	64.641404 
4751.000000	64.680886 
4750.000000	64.718985 
4749.000000	64.751482 
4748.000000	64.775586 
4747.000000	64.790654 
4746.000000	64.797854 
4745.000000	64.799737 
4744.000000	64.799475 
4743.000000	64.799284 
4742.000000	64.799642 
4741.000000	64.799165 
4740.000000	64.795351 
4739.000000	64.784789 
4738.000000	64.764523 
4737.000000	64.733481 
4736.000000	64.693021 
4735.000000	64.647126 
4734.000000	64.601635 
4733.000000	64.562654 
4732.000000	64.535617 
4731.000000	64.524006 
4730.000000	64.529109 
4729.000000	64.549016 
4728.000000	64.580154 
4727.000000	64.617848 
4726.000000	64.657497 
4725.000000	64.695000 
4724.000000	64.727687 
4723.000000	64.754009 
4722.000000	64.773607 
4721.000000	64.786672 
4720.000000	64.793443 
4719.000000	64.793825 
4718.000000	64.786982 
4717.000000	64.771771 
4716.000000	64.746546 
4715.000000	64.710116 
4714.000000	64.662051 
4713.000000	64.603590 
4712.000000	64.537811 
4711.000000	64.469766 
4710.000000	64.406108 
4709.000000	64.354300 
4708.000000	64.321398 
4707.000000	64.312744 
4706.000000	64.330673 
4705.000000	64.374089 
4704.000000	64.438247 
4703.000000	64.515781 
4702.000000	64.597868 
4701.000000	64.675927 
4700.000000	64.743256 
4699.000000	64.795684 
4698.000000	64.831423 
4697.000000	64.850902 
4696.000000	64.856100 
4695.000000	64.849042 
4694.000000	64.831805 
4693.000000	64.805316 
4692.000000	64.770460 
4691.000000	64.727520 
4690.000000	64.677262 
4689.000000	64.621162 
4688.000000	64.562153 
4687.000000	64.504122 
4686.000000	64.451503 
4685.000000	64.408516 
4684.000000	64.378547 
4683.000000	64.363479 
4682.000000	64.363503 
4681.000000	64.376997 
4680.000000	64.401149 
4679.000000	64.432096 
4678.000000	64.466190 
4677.000000	64.500355 
4676.000000	64.532923 
4675.000000	64.563298 
4674.000000	64.592051 
4673.000000	64.620280 
4672.000000	64.648723 
4671.000000	64.677357 
4670.000000	64.705014 
4669.000000	64.729237 
4668.000000	64.747667 
4667.000000	64.758968 
4666.000000	64.763498 
4665.000000	64.763617 
4664.000000	64.763164 
4663.000000	64.766645 
4662.000000	64.777517 
4661.000000	64.797282 
4660.000000	64.824151 
4659.000000	64.853191 
4658.000000	64.877581 
4657.000000	64.890313 
4656.000000	64.885878 
4655.000000	64.862060 
4654.000000	64.821076 
4653.000000	64.769339 
4652.000000	64.716124 
4651.000000	64.671754 
4650.000000	64.645218 
4649.000000	64.642095 
4648.000000	64.663767 
4647.000000	64.706516 
4646.000000	64.763379 
4645.000000	64.824700 
4644.000000	64.880418 
4643.000000	64.921879 
4642.000000	64.942908 
4641.000000	64.941024 
4640.000000	64.917325 
4639.000000	64.876246 
4638.000000	64.823913 
4637.000000	64.767837 
4636.000000	64.715385 
4635.000000	64.673042 
4634.000000	64.645385 
4633.000000	64.635229 
4632.000000	64.643359 
4631.000000	64.668393 
4630.000000	64.707040 
4629.000000	64.754104 
4628.000000	64.803361 
4627.000000	64.848041 
4626.000000	64.882469 
4625.000000	64.902472 
4624.000000	64.907073 
4623.000000	64.898252 
4622.000000	64.881157 
4621.000000	64.862680 
4620.000000	64.850163 
4619.000000	64.849996 
4618.000000	64.865684 
4617.000000	64.897584 
4616.000000	64.941954 
4615.000000	64.992570 
4614.000000	65.041232 
4613.000000	65.080213 
4612.000000	65.102791 
4611.000000	65.104985 
4610.000000	65.085434 
4609.000000	65.045666 
4608.000000	64.989447 
4607.000000	64.922118 
4606.000000	64.849781 
4605.000000	64.778614 
4604.000000	64.714598 
4603.000000	64.663195 
4602.000000	64.629030 
4601.000000	64.615511 
4600.000000	64.624071 
4599.000000	64.654135 
4598.000000	64.702892 
4597.000000	64.765739 
4596.000000	64.835977 
4595.000000	64.906430 
4594.000000	64.970326 
4593.000000	65.022444 
4592.000000	65.059137 
4591.000000	65.078687 
4590.000000	65.081238 
4589.000000	65.068197 
4588.000000	65.041732 
4587.000000	65.004706 
4586.000000	64.960908 
4585.000000	64.914441 
4584.000000	64.870262 
4583.000000	64.833235 
4582.000000	64.807987 
4581.000000	64.797568 
4580.000000	64.802742 
4579.000000	64.821386 
4578.000000	64.848732 
4577.000000	64.877986 
4576.000000	64.901661 
4575.000000	64.913034 
4574.000000	64.907312 
4573.000000	64.883279 
4572.000000	64.842915 
4571.000000	64.790678 
4570.000000	64.732074 
4569.000000	64.672923 
4568.000000	64.617443 
4567.000000	64.568209 
4566.000000	64.525318 
4565.000000	64.487552 
4564.000000	64.452648 
4563.000000	64.418768 
4562.000000	64.384746 
4561.000000	64.349937 
4560.000000	64.314913 
4559.000000	64.280891 
4558.000000	64.249730 
4557.000000	64.222669 
4556.000000	64.200758 
4555.000000	64.184236 
4554.000000	64.173221 
4553.000000	64.167571 
4552.000000	64.167165 
4551.000000	64.171814 
4550.000000	64.181542 
4549.000000	64.196300 
4548.000000	64.215803 
4547.000000	64.239311 
4546.000000	64.265727 
4545.000000	64.293837 
4544.000000	64.322471 
4543.000000	64.350581 
4542.000000	64.377570 
4541.000000	64.402794 
4540.000000	64.425253 
4539.000000	64.443230 
4538.000000	64.455127 
4537.000000	64.458703 
4536.000000	64.451766 
4535.000000	64.432787 
4534.000000	64.401865 
4533.000000	64.360880 
4532.000000	64.313459 
4531.000000	64.264822 
4530.000000	64.220881 
4529.000000	64.187216 
4528.000000	64.167952 
4527.000000	64.165186 
4526.000000	64.178919 
4525.000000	64.207315 
4524.000000	64.247012 
4523.000000	64.294219 
4522.000000	64.345002 
4521.000000	64.395570 
4520.000000	64.442491 
4519.000000	64.482593 
4518.000000	64.513564 
4517.000000	64.533996 
4516.000000	64.543986 
4515.000000	64.545178 
4514.000000	64.540481 
4513.000000	64.533734 
4512.000000	64.528274 
4511.000000	64.526700 
4510.000000	64.529538 
4509.000000	64.535832 
4508.000000	64.542865 
4507.000000	64.546728 
4506.000000	64.544081 
4505.000000	64.533329 
4504.000000	64.515089 
4503.000000	64.491820 
4502.000000	64.468121 
4501.000000	64.449620 
4500.000000	64.441418 
4499.000000	64.446592 
4498.000000	64.465928 
4497.000000	64.497733 
4496.000000	64.538049 
4495.000000	64.581823 
4494.000000	64.624142 
4493.000000	64.661550 
4492.000000	64.692521 
4491.000000	64.717483 
4490.000000	64.738297 
4489.000000	64.757275 
4488.000000	64.776468 
4487.000000	64.796471 
4486.000000	64.817261 
4485.000000	64.836430 
4484.000000	64.851284 
4483.000000	64.856910 
4482.000000	64.848566 
4481.000000	64.820742 
4480.000000	64.768576 
4479.000000	64.688944 
4478.000000	64.582562 
4477.000000	64.453315 
4476.000000	64.308714 
4475.000000	64.157557 
4474.000000	64.008784 
4473.000000	63.869833 
4472.000000	63.745594 
4471.000000	63.639044 
4470.000000	63.551807 
4469.000000	63.485050 
4468.000000	63.440370 
4467.000000	63.419294 
4466.000000	63.423371 
4465.000000	63.453412 
4464.000000	63.509535 
4463.000000	63.585996 
4462.000000	63.673329 
4461.000000	63.767862 
4460.000000	63.865685 
4459.000000	63.954067 
4458.000000	64.018034 
4457.000000	64.049458 
4456.000000	64.041829 
4455.000000	63.993334 
4454.000000	63.904714 
4453.000000	63.773465 
4452.000000	63.603782 
4451.000000	63.411235 
4450.000000	63.217139 
4449.000000	63.046932 
4448.000000	62.922120 
4447.000000	62.854766 
4446.000000	62.846946 
4445.000000	62.890720 
4444.000000	62.970805 
4443.000000	63.068532 
4442.000000	63.168025 
4441.000000	63.264036 
4440.000000	63.344264 
4439.000000	63.412928 
4438.000000	63.472557 
4437.000000	63.563036 
4436.000000	63.785195 
4435.000000	64.283847 
4434.000000	65.242075 
4433.000000	66.791486 
4432.000000	68.970084 
4431.000000	71.654105 
4430.000000	74.553251 
4429.000000	77.255487 
4428.000000	79.327750 
4427.000000	80.398893 
4426.000000	80.275511 
4425.000000	78.964471 
4424.000000	76.669740 
4423.000000	73.762273 
4422.000000	70.680379 
4421.000000	67.893218 
4420.000000	65.815639 
4419.000000	64.748787 
4418.000000	64.846634 
4417.000000	66.053056 
4416.000000	68.126273 
4415.000000	70.659780 
4414.000000	73.173379 
4413.000000	75.219869 
4412.000000	76.476287 
4411.000000	76.805353 
4410.000000	76.261806 
4409.000000	75.037169 
4408.000000	73.402714 
4407.000000	71.615552 
4406.000000	69.877552 
4405.000000	68.328642 
4404.000000	67.024421 
4403.000000	65.998601 
4402.000000	65.236854 
4401.000000	64.720582 
4400.000000	64.414310 
4399.000000	64.259338 
4398.000000	64.200592 
4397.000000	64.181113 
4396.000000	64.161276 
4395.000000	64.106893 
4394.000000	64.009189 
4393.000000	63.873767 
4392.000000	63.724327 
4391.000000	63.591098 
4390.000000	63.501763 
4389.000000	63.470816 
4388.000000	63.505196 
4387.000000	63.602089 
4386.000000	63.746237 
4385.000000	63.915038 
4384.000000	64.083170 
4383.000000	64.228653 
4382.000000	64.341807 
4381.000000	64.423799 
4380.000000	64.476656 
4379.000000	64.505958 
4378.000000	64.517664 
4377.000000	64.517712 
4376.000000	64.516949 
4375.000000	64.523839 
4374.000000	64.539933 
4373.000000	64.563441 
4372.000000	64.595222 
4371.000000	64.633560 
4370.000000	64.673304 
4369.000000	64.709782 
4368.000000	64.741015 
4367.000000	64.766049 
4366.000000	64.784646 
4365.000000	64.797496 
4364.000000	64.805817 
4363.000000	64.810800 
4362.000000	64.813065 
4361.000000	64.812588 
4360.000000	64.808583 
4359.000000	64.800000 
4358.000000	64.785695 
4357.000000	64.765453 
4356.000000	64.739775 
4355.000000	64.710307 
4354.000000	64.679026 
4353.000000	64.647579 
4352.000000	64.617180 
4351.000000	64.588284 
4350.000000	64.560985 
4349.000000	64.534187 
4348.000000	64.507389 
4347.000000	64.480400 
4346.000000	64.455056 
4345.000000	64.433836 
4344.000000	64.421176 
4343.000000	64.422249 
4342.000000	64.441752 
4341.000000	64.482474 
4340.000000	64.543700 
4339.000000	64.620709 
4338.000000	64.704585 
4337.000000	64.783430 
4336.000000	64.844536 
4335.000000	64.876866 
4334.000000	64.873409 
4333.000000	64.832997 
4332.000000	64.760780 
4331.000000	64.667606 
4330.000000	64.567923 
4329.000000	64.477205 
4328.000000	64.409279 
4327.000000	64.373683 
4326.000000	64.374828 
4325.000000	64.410924 
4324.000000	64.475536 
4323.000000	64.558434 
4322.000000	64.647912 
4321.000000	64.732742 
4320.000000	64.802813 
4319.000000	64.851355 
4318.000000	64.874386 
4317.000000	64.872169 
4316.000000	64.848065 
4315.000000	64.808344 
4314.000000	64.761018 
4313.000000	64.714026 
4312.000000	64.674377 
4311.000000	64.646482 
4310.000000	64.631915 
4309.000000	64.629220 
4308.000000	64.634823 
4307.000000	64.643931 
4306.000000	64.651989 
4305.000000	64.655971 
4304.000000	64.655065 
4303.000000	64.650034 
4302.000000	64.643025 
4301.000000	64.636421 
4300.000000	64.632201 
4299.000000	64.631009 
4298.000000	64.632463 
4297.000000	64.635586 
4296.000000	64.638781 
4295.000000	64.641666 
4294.000000	64.644098 
4293.000000	64.646387 
4292.000000	64.648461 
4291.000000	64.649486 
4290.000000	64.647984 
4289.000000	64.641809 
4288.000000	64.629149 
4287.000000	64.609098 
4286.000000	64.582300 
4285.000000	64.551424 
4284.000000	64.520692 
4283.000000	64.495253 
4282.000000	64.479541 
4281.000000	64.475965 
4280.000000	64.484214 
4279.000000	64.501118 
4278.000000	64.521098 
4277.000000	64.537525 
4276.000000	64.544177 
4275.000000	64.536929 
4274.000000	64.514422 
4273.000000	64.479041 
4272.000000	64.435720 
4271.000000	64.391565 
4270.000000	64.353966 
4269.000000	64.329457 
4268.000000	64.322590 
4267.000000	64.335250 
4266.000000	64.366245 
4265.000000	64.412021 
4264.000000	64.467167 
4263.000000	64.526128 
4262.000000	64.583969 
4261.000000	64.637446 
4260.000000	64.684796 
4259.000000	64.726281 
4258.000000	64.763402 
4257.000000	64.798188 
4256.000000	64.832091 
4255.000000	64.864969 
4254.000000	64.894843 
4253.000000	64.918231 
4252.000000	64.931297 
4251.000000	64.930701 
4250.000000	64.915060 
4249.000000	64.885878 
4248.000000	64.847588 
4247.000000	64.806962 
4246.000000	64.771819 
4245.000000	64.749360 
4244.000000	64.744758 
4243.000000	64.760303 
4242.000000	64.794659 
4241.000000	64.843702 
4240.000000	64.900565 
4239.000000	64.957475 
4238.000000	65.006279 
4237.000000	65.040397 
4236.000000	65.055155 
4235.000000	65.048170 
4234.000000	65.020084 
4233.000000	64.973783 
4232.000000	64.914989 
4231.000000	64.851355 
4230.000000	64.791321 
4229.000000	64.742779 
4228.000000	64.711880 
4227.000000	64.702057 
4226.000000	64.712882 
4225.000000	64.740371 
4224.000000	64.778113 
4223.000000	64.818716 
4222.000000	64.855170 
4221.000000	64.882302 
4220.000000	64.897799 
4219.000000	64.902210 
4218.000000	64.898157 
4217.000000	64.889574 
4216.000000	64.880418 
4215.000000	64.874029 
4214.000000	64.872717 
4213.000000	64.877390 
4212.000000	64.888119 
4211.000000	64.903974 
4210.000000	64.924287 
4209.000000	64.947700 
4208.000000	64.972376 
4207.000000	64.995741 
4206.000000	65.014553 
4205.000000	65.025353 
4204.000000	65.025305 
4203.000000	65.012669 
4202.000000	64.987516 
4201.000000	64.951753 
4200.000000	64.908957 
4199.000000	64.863634 
4198.000000	64.820528 
4197.000000	64.783596 
4196.000000	64.755344 
4195.000000	64.736676 
4194.000000	64.726972 
4193.000000	64.724326 
4192.000000	64.726257 
4191.000000	64.730024 
4190.000000	64.733934 
4189.000000	64.737176 
4188.000000	64.740848 
4187.000000	64.746546 
4186.000000	64.756870 
4185.000000	64.774250 
4184.000000	64.800405 
4183.000000	64.835715 
4182.000000	64.878535 
4181.000000	64.925551 
4180.000000	64.971733 
4179.000000	65.011572 
4178.000000	65.039587 
4177.000000	65.051746 
4176.000000	65.046310 
4175.000000	65.024137 
4174.000000	64.988899 
4173.000000	64.946389 
4172.000000	64.903569 
4171.000000	64.867329 
4170.000000	64.842891 
4169.000000	64.832997 
4168.000000	64.837694 
4167.000000	64.854454 
4166.000000	64.878940 
4165.000000	64.906024 
4164.000000	64.930868 
4163.000000	64.949774 
4162.000000	64.960384 
4161.000000	64.961814 
4160.000000	64.954161 
4159.000000	64.938473 
4158.000000	64.916133 
4157.000000	64.888906 
4156.000000	64.858722 
4155.000000	64.827680 
4154.000000	64.798212 
4153.000000	64.772462 
4152.000000	64.752435 
4151.000000	64.739561 
4150.000000	64.734506 
4149.000000	64.737105 
4148.000000	64.746165 
4147.000000	64.760231 
4146.000000	64.777708 
4145.000000	64.797139 
4144.000000	64.817333 
4143.000000	64.837241 
4142.000000	64.856100 
4141.000000	64.872884 
4140.000000	64.886641 
4139.000000	64.896273 
4138.000000	64.901065 
4137.000000	64.901041 
4136.000000	64.897298 
4135.000000	64.892268 
4134.000000	64.889192 
4133.000000	64.891552 
4132.000000	64.901971 
4131.000000	64.921236 
4130.000000	64.947962 
4129.000000	64.978647 
4128.000000	65.008330 
4127.000000	65.031814 
4126.000000	65.044808 
4125.000000	65.045380 
4124.000000	65.034031 
4123.000000	65.013551 
4122.000000	64.988183 
4121.000000	64.962458 
4120.000000	64.940023 
4119.000000	64.922785 
4118.000000	64.910793 
4117.000000	64.902448 
4116.000000	64.895558 
4115.000000	64.887905 
4114.000000	64.878010 
4113.000000	64.865374 
4112.000000	64.850187 
4111.000000	64.833426 
4110.000000	64.815759 
4109.000000	64.798259 
4108.000000	64.782071 
4107.000000	64.768958 
4106.000000	64.761042 
4105.000000	64.760923 
4104.000000	64.770841 
4103.000000	64.792037 
4102.000000	64.824104 
4101.000000	64.864492 
4100.000000	64.908719 
4099.000000	64.950966 
4098.000000	64.985299 
4097.000000	65.006780 
4096.000000	65.012836 
4095.000000	65.003395 
4094.000000	64.981222 
4093.000000	64.950704 
4092.000000	64.916777 
4091.000000	64.883971 
4090.000000	64.855456 
4089.000000	64.832830 
4088.000000	64.816236 
4087.000000	64.805054 
4086.000000	64.798498 
4085.000000	64.795947 
4084.000000	64.797115 
4083.000000	64.801716 
4082.000000	64.809656 
4081.000000	64.820432 
4080.000000	64.833617 
4079.000000	64.848184 
4078.000000	64.863085 
4077.000000	64.877128 
4076.000000	64.889287 
4075.000000	64.898824 
4074.000000	64.905524 
4073.000000	64.909505 
4072.000000	64.911556 
4071.000000	64.912724 
4070.000000	64.914631 
4069.000000	64.918994 
4068.000000	64.927649 
4067.000000	64.942026 
4066.000000	64.962863 
4065.000000	64.989876 
4064.000000	65.021514 
4063.000000	65.055155 
4062.000000	65.087366 
4061.000000	65.114426 
4060.000000	65.133309 
4059.000000	65.142035 
4058.000000	65.139865 
4057.000000	65.127539 
4056.000000	65.107154 
4055.000000	65.081739 
4054.000000	65.054941 
4053.000000	65.030145 
4052.000000	65.010118 
4051.000000	64.996600 
4050.000000	64.990067 
4049.000000	64.989924 
4048.000000	64.994573 
4047.000000	65.002441 
4046.000000	65.012264 
4045.000000	65.023612 
4044.000000	65.036654 
4043.000000	65.052223 
4042.000000	65.070748 
4041.000000	65.092158 
4040.000000	65.115380 
4039.000000	65.138149 
4038.000000	65.157532 
4037.000000	65.170407 
4036.000000	65.174341 
4035.000000	65.168261 
4034.000000	65.152907 
4033.000000	65.130472 
4032.000000	65.104031 
4031.000000	65.077066 
4030.000000	65.052342 
4029.000000	65.031337 
4028.000000	65.013885 
4027.000000	64.998865 
4026.000000	64.984369 
4025.000000	64.968562 
4024.000000	64.950084 
4023.000000	64.928221 
4022.000000	64.903402 
4021.000000	64.876794 
4020.000000	64.850449 
4019.000000	64.826798 
4018.000000	64.808630 
4017.000000	64.798569 
4016.000000	64.798903 
4015.000000	64.810705 
4014.000000	64.833664 
4013.000000	64.865851 
4012.000000	64.903807 
4011.000000	64.943003 
4010.000000	64.978408 
4009.000000	65.005326 
4008.000000	65.020084 
4007.000000	65.020775 
4006.000000	65.007472 
4005.000000	64.982151 
4004.000000	64.948081 
4003.000000	64.909052 
4002.000000	64.869022 
4001.000000	64.831161 
4000.000000	64.797735 
3999.000000	64.770030 
3998.000000	64.748716 
3997.000000	64.734435 
3996.000000	64.727759 
3995.000000	64.729809 
3994.000000	64.741468 
3993.000000	64.763522 
3992.000000	64.795780 
3991.000000	64.836978 
3990.000000	64.884090 
3989.000000	64.932990 
3988.000000	64.978790 
3987.000000	65.016508 
3986.000000	65.042233 
3985.000000	65.053749 
3984.000000	65.051174 
3983.000000	65.036821 
3982.000000	65.014958 
3981.000000	64.990735 
3980.000000	64.969587 
3979.000000	64.956235 
3978.000000	64.953684 
3977.000000	64.963626 
3976.000000	64.985489 
3975.000000	65.017271 
3974.000000	65.055251 
3973.000000	65.094876 
3972.000000	65.131092 
3971.000000	65.159153 
3970.000000	65.175557 
3969.000000	65.178489 
3968.000000	65.168046 
3967.000000	65.146684 
3966.000000	65.117645 
3965.000000	65.084695 
3964.000000	65.050554 
3963.000000	65.016865 
3962.000000	64.983630 
3961.000000	64.949703 
3960.000000	64.913606 
3959.000000	64.874458 
3958.000000	64.833068 
3957.000000	64.792013 
3956.000000	64.755320 
3955.000000	64.727425 
3954.000000	64.711928 
3953.000000	64.710426 
3952.000000	64.721727 
3951.000000	64.741826 
3950.000000	64.764785 
3949.000000	64.784026 
3948.000000	64.794063 
3947.000000	64.791464 
3946.000000	64.775347 
3945.000000	64.747619 
3944.000000	64.711976 
3943.000000	64.673399 
3942.000000	64.637017 
3941.000000	64.607286 
3940.000000	64.587354 
3939.000000	64.578723 
3938.000000	64.581179 
3937.000000	64.593172 
3936.000000	64.612197 
3935.000000	64.635109 
3934.000000	64.658641 
3933.000000	64.679908 
3932.000000	64.696931 
3931.000000	64.708375 
3930.000000	64.713668 
3929.000000	64.713215 
3928.000000	64.708256 
3927.000000	64.700579 
3926.000000	64.692354 
3925.000000	64.686131 
3924.000000	64.684295 
3923.000000	64.688777 
3922.000000	64.700603 
3921.000000	64.719963 
3920.000000	64.745688 
3919.000000	64.775633 
3918.000000	64.806342 
3917.000000	64.833879 
3916.000000	64.854335 
3915.000000	64.864993 
3914.000000	64.864730 
3913.000000	64.854264 
3912.000000	64.836144 
3911.000000	64.814019 
3910.000000	64.792203 
3909.000000	64.774990 
3908.000000	64.765548 
3907.000000	64.765596 
3906.000000	64.775133 
3905.000000	64.792943 
3904.000000	64.816403 
3903.000000	64.842462 
3902.000000	64.868021 
3901.000000	64.890623 
3900.000000	64.908885 
3899.000000	64.922738 
3898.000000	64.933323 
3897.000000	64.942526 
3896.000000	64.952540 
3895.000000	64.964842 
3894.000000	64.979863 
3893.000000	64.996099 
3892.000000	65.010595 
3891.000000	65.018963 
3890.000000	65.016722 
3889.000000	65.000343 
3888.000000	64.968514 
3887.000000	64.923119 
3886.000000	64.868640 
3885.000000	64.812207 
3884.000000	64.762115 
3883.000000	64.726090 
3882.000000	64.709305 
3881.000000	64.713859 
3880.000000	64.738321 
3879.000000	64.778280 
3878.000000	64.827275 
3877.000000	64.878797 
3876.000000	64.927673 
3875.000000	64.970731 
3874.000000	65.006852 
3873.000000	65.036535 
3872.000000	65.060901 
3871.000000	65.080785 
3870.000000	65.096116 
3869.000000	65.106129 
3868.000000	65.109777 
3867.000000	65.106749 
3866.000000	65.097689 
3865.000000	65.085077 
3864.000000	65.071821 
3863.000000	65.061497 
3862.000000	65.055966 
3861.000000	65.055489 
3860.000000	65.057563 
3859.000000	65.057778 
3858.000000	65.050411 
3857.000000	65.030479 
3856.000000	64.994692 
3855.000000	64.942908 
3854.000000	64.877772 
3853.000000	64.804100 
3852.000000	64.728021 
3851.000000	64.655852 
3850.000000	64.593076 
3849.000000	64.543533 
3848.000000	64.509844 
3847.000000	64.493227 
3846.000000	64.494061 
3845.000000	64.511728 
3844.000000	64.544391 
3843.000000	64.588952 
3842.000000	64.640879 
3841.000000	64.694690 
3840.000000	64.743733 
3839.000000	64.781665 
3838.000000	64.803433 
3837.000000	64.806437 
3836.000000	64.791154 
3835.000000	64.760708 
3834.000000	64.720320 
3833.000000	64.676070 
3832.000000	64.633798 
3831.000000	64.598131 
3830.000000	64.571666 
3829.000000	64.555287 
3828.000000	64.548873 
3827.000000	64.551496 
3826.000000	64.562177 
3825.000000	64.580321 
3824.000000	64.605832 
3823.000000	64.638924 
3822.000000	64.679670 
3821.000000	64.727640 
3820.000000	64.781236 
3819.000000	64.837408 
3818.000000	64.891839 
3817.000000	64.939546 
3816.000000	64.975881 
3815.000000	64.997506 
3814.000000	65.002965 
3813.000000	64.993453 
3812.000000	64.972424 
3811.000000	64.945244 
3810.000000	64.917922 
3809.000000	64.896106 
3808.000000	64.884042 
3807.000000	64.884018 
3806.000000	64.896178 
3805.000000	64.918947 
3804.000000	64.949464 
3803.000000	64.984798 
3802.000000	65.022182 
3801.000000	65.059661 
3800.000000	65.095543 
3799.000000	65.128016 
3798.000000	65.155005 
3797.000000	65.174150 
3796.000000	65.183234 
3795.000000	65.180492 
3794.000000	65.165328 
3793.000000	65.138459 
3792.000000	65.102219 
3791.000000	65.060043 
3790.000000	65.015697 
3789.000000	64.972805 
3788.000000	64.934468 
3787.000000	64.902901 
3786.000000	64.879298 
3785.000000	64.864110 
3784.000000	64.857125 
3783.000000	64.857888 
3782.000000	64.865541 
3781.000000	64.878964 
3780.000000	64.896273 
3779.000000	64.915537 
3778.000000	64.934325 
3777.000000	64.950942 
3776.000000	64.964365 
3775.000000	64.974689 
3774.000000	64.982986 
3773.000000	64.990735 
3772.000000	64.999103 
3771.000000	65.008139 
3770.000000	65.016531 
3769.000000	65.021920 
3768.000000	65.021705 
3767.000000	65.013766 
3766.000000	64.997291 
3765.000000	64.973139 
3764.000000	64.944005 
3763.000000	64.913845 
3762.000000	64.887237 
3761.000000	64.868187 
3760.000000	64.859652 
3759.000000	64.863252 
3758.000000	64.879131 
3757.000000	64.905762 
3756.000000	64.940762 
3755.000000	64.981031 
3754.000000	65.023183 
3753.000000	65.063810 
3752.000000	65.099978 
3751.000000	65.128827 
3750.000000	65.148806 
3749.000000	65.159559 
3748.000000	65.162158 
3747.000000	65.158915 
3746.000000	65.152359 
3745.000000	65.145063 
3744.000000	65.138316 
3743.000000	65.132355 
3742.000000	65.126180 
3741.000000	65.118408 
3740.000000	65.107917 
3739.000000	65.094852 
3738.000000	65.080904 
3737.000000	65.069270 
3736.000000	65.064215 
3735.000000	65.069818 
3734.000000	65.088748 
3733.000000	65.121173 
3732.000000	65.164470 
3731.000000	65.213346 
3730.000000	65.260863 
3729.000000	65.299344 
3728.000000	65.322470 
3727.000000	65.325975 
3726.000000	65.308570 
3725.000000	65.272045 
3724.000000	65.220665 
3723.000000	65.160679 
3722.000000	65.099072 
3721.000000	65.042495 
3720.000000	64.996242 
3719.000000	64.963221 
3718.000000	64.944291 
3717.000000	64.937686 
3716.000000	64.939951 
3715.000000	64.947009 
3714.000000	64.955258 
3713.000000	64.962458 
3712.000000	64.968156 
3711.000000	64.973926 
3710.000000	64.982628 
3709.000000	64.997529 
3708.000000	65.021109 
3707.000000	65.053844 
3706.000000	65.093898 
3705.000000	65.137171 
3704.000000	65.178036 
3703.000000	65.210843 
3702.000000	65.231013 
3701.000000	65.236496 
3700.000000	65.227961 
3699.000000	65.208721 
3698.000000	65.183663 
3697.000000	65.158200 
3696.000000	65.136575 
3695.000000	65.121316 
3694.000000	65.112376 
3693.000000	65.107917 
3692.000000	65.104532 
3691.000000	65.098667 
3690.000000	65.087389 
3689.000000	65.069770 
3688.000000	65.046691 
3687.000000	65.020895 
3686.000000	64.996290 
3685.000000	64.977049 
3684.000000	64.966654 
3683.000000	64.967083 
3682.000000	64.978599 
3681.000000	64.999389 
3680.000000	65.026283 
3679.000000	65.055036 
3678.000000	65.081262 
3677.000000	65.101051 
3676.000000	65.111899 
3675.000000	65.112781 
3674.000000	65.104293 
3673.000000	65.088295 
3672.000000	65.067744 
3671.000000	65.045762 
3670.000000	65.025234 
3669.000000	65.008211 
3668.000000	64.995670 
3667.000000	64.987349 
3666.000000	64.982223 
3665.000000	64.978599 
3664.000000	64.974641 
3663.000000	64.968943 
3662.000000	64.960956 
3661.000000	64.951181 
3660.000000	64.941143 
3659.000000	64.933013 
3658.000000	64.929056 
3657.000000	64.931249 
3656.000000	64.940619 
3655.000000	64.956927 
3654.000000	64.978528 
3653.000000	65.002489 
3652.000000	65.025353 
3651.000000	65.043640 
3650.000000	65.054750 
3649.000000	65.057468 
3648.000000	65.052437 
3647.000000	65.041756 
3646.000000	65.028762 
3645.000000	65.017151 
3644.000000	65.010213 
3643.000000	65.010046 
3642.000000	65.017080 
3641.000000	65.030264 
3640.000000	65.047144 
3639.000000	65.064907 
3638.000000	65.080785 
3637.000000	65.092968 
3636.000000	65.100574 
3635.000000	65.103745 
3634.000000	65.103292 
3633.000000	65.100145 
3632.000000	65.094757 
3631.000000	65.087008 
3630.000000	65.076279 
3629.000000	65.061879 
3628.000000	65.043401 
3627.000000	65.021467 
3626.000000	64.997577 
3625.000000	64.974308 
3624.000000	64.954447 
3623.000000	64.940929 
3622.000000	64.935755 
3621.000000	64.939999 
3620.000000	64.952898 
3619.000000	64.972782 
3618.000000	64.997053 
3617.000000	65.022993 
3616.000000	65.048122 
3615.000000	65.070462 
3614.000000	65.088772 
3613.000000	65.102338 
3612.000000	65.110683 
3611.000000	65.113091 
3610.000000	65.108728 
3609.000000	65.096521 
3608.000000	65.075874 
3607.000000	65.046787 
3606.000000	65.010309 
3605.000000	64.968800 
3604.000000	64.925932 
3603.000000	64.885830 
3602.000000	64.852619 
3601.000000	64.829516 
3600.000000	64.818239 
3599.000000	64.818406 
3598.000000	64.827752 
3597.000000	64.842724 
3596.000000	64.859175 
3595.000000	64.873123 
3594.000000	64.881801 
3593.000000	64.883589 
3592.000000	64.878439 
3591.000000	64.867258 
3590.000000	64.851427 
3589.000000	64.832353 
3588.000000	64.811420 
3587.000000	64.789915 
3586.000000	64.769220 
3585.000000	64.751100 
3584.000000	64.737629 
3583.000000	64.731192 
3582.000000	64.733910 
3581.000000	64.747381 
3580.000000	64.771890 
3579.000000	64.806342 
3578.000000	64.848089 
3577.000000	64.893317 
3576.000000	64.937710 
3575.000000	64.977264 
3574.000000	65.009140 
3573.000000	65.032076 
3572.000000	65.046596 
3571.000000	65.054297 
3570.000000	65.057873 
3569.000000	65.059614 
3568.000000	65.061330 
3567.000000	65.063095 
3566.000000	65.064001 
3565.000000	65.061902 
3564.000000	65.054535 
3563.000000	65.040135 
3562.000000	65.018248 
3561.000000	64.990329 
3560.000000	64.959812 
3559.000000	64.931631 
3558.000000	64.911127 
3557.000000	64.902734 
3556.000000	64.908671 
3555.000000	64.928340 
3554.000000	64.958214 
3553.000000	64.992666 
3552.000000	65.025186 
3551.000000	65.049791 
3550.000000	65.062332 
3549.000000	65.061187 
3548.000000	65.047597 
3547.000000	65.024971 
3546.000000	64.997911 
3545.000000	64.971542 
3544.000000	64.950156 
3543.000000	64.936614 
3542.000000	64.931774 
3541.000000	64.934992 
3540.000000	64.944052 
3539.000000	64.956140 
3538.000000	64.968514 
3537.000000	64.978694 
3536.000000	64.985466 
3535.000000	64.988493 
3534.000000	64.988684 
3533.000000	64.987516 
3532.000000	64.986872 
3531.000000	64.988374 
3530.000000	64.992952 
3529.000000	65.000581 
3528.000000	65.010118 
3527.000000	65.019655 
3526.000000	65.026998 
3525.000000	65.029931 
3524.000000	65.027022 
3523.000000	65.017747 
3522.000000	65.002632 
3521.000000	64.983224 
3520.000000	64.961314 
3519.000000	64.938879 
3518.000000	64.917707 
3517.000000	64.899063 
3516.000000	64.883804 
3515.000000	64.872550 
3514.000000	64.865660 
3513.000000	64.863586 
3512.000000	64.866757 
3511.000000	64.875698 
3510.000000	64.890265 
3509.000000	64.909887 
3508.000000	64.933252 
3507.000000	64.958477 
3506.000000	64.983105 
3505.000000	65.004611 
3504.000000	65.020966 
3503.000000	65.030431 
3502.000000	65.032148 
3501.000000	65.025854 
3500.000000	65.012001 
3499.000000	64.991521 
3498.000000	64.965510 
3497.000000	64.935278 
3496.000000	64.902234 
3495.000000	64.868283 
3494.000000	64.835476 
3493.000000	64.806008 
3492.000000	64.781904 
3491.000000	64.764738 
3490.000000	64.755368 
3489.000000	64.753365 
3488.000000	64.757466 
3487.000000	64.765524 
3486.000000	64.775443 
3485.000000	64.785265 
3484.000000	64.794421 
3483.000000	64.803028 
3482.000000	64.812707 
3481.000000	64.825534 
3480.000000	64.843845 
3479.000000	64.869022 
3478.000000	64.901208 
3477.000000	64.938879 
3476.000000	64.978933 
3475.000000	65.017342 
3474.000000	65.049719 
3473.000000	65.072274 
3472.000000	65.082430 
3471.000000	65.079307 
3470.000000	65.063810 
3469.000000	65.038275 
3468.000000	65.006113 
3467.000000	64.971017 
3466.000000	64.936542 
3465.000000	64.905524 
3464.000000	64.879941 
3463.000000	64.860844 
3462.000000	64.848613 
3461.000000	64.843273 
3460.000000	64.844417 
3459.000000	64.851856 
3458.000000	64.865040 
3457.000000	64.883613 
3456.000000	64.906978 
3455.000000	64.934039 
3454.000000	64.963269 
3453.000000	64.992547 
3452.000000	65.019130 
3451.000000	65.040326 
3450.000000	65.053772 
3449.000000	65.058016 
3448.000000	65.053033 
3447.000000	65.040111 
3446.000000	65.021610 
3445.000000	65.000343 
3444.000000	64.978957 
3443.000000	64.958858 
3442.000000	64.940094 
3441.000000	64.921355 
3440.000000	64.900565 
3439.000000	64.875817 
3438.000000	64.846229 
3437.000000	64.812588 
3436.000000	64.777708 
3435.000000	64.745616 
3434.000000	64.720892 
3433.000000	64.707040 
3432.000000	64.705991 
3431.000000	64.717054 
3430.000000	64.737629 
3429.000000	64.763712 
3428.000000	64.791202 
3427.000000	64.816927 
3426.000000	64.839291 
3425.000000	64.858412 
3424.000000	64.875435 
3423.000000	64.891552 
3422.000000	64.907360 
3421.000000	64.921903 
3420.000000	64.932870 
3419.000000	64.937162 
3418.000000	64.932084 
3417.000000	64.916300 
3416.000000	64.890766 
3415.000000	64.858698 
3414.000000	64.824867 
3413.000000	64.794278 
3412.000000	64.771080 
3411.000000	64.757418 
3410.000000	64.752674 
3409.000000	64.753866 
3408.000000	64.756822 
3407.000000	64.757466 
3406.000000	64.752721 
3405.000000	64.741802 
3404.000000	64.726209 
3403.000000	64.709711 
3402.000000	64.696693 
3401.000000	64.691567 
3400.000000	64.697360 
3399.000000	64.714956 
3398.000000	64.743065 
3397.000000	64.778375 
3396.000000	64.816451 
3395.000000	64.852380 
3394.000000	64.881944 
3393.000000	64.902067 
3392.000000	64.911246 
3391.000000	64.909553 
3390.000000	64.898467 
3389.000000	64.880681 
3388.000000	64.859390 
3387.000000	64.837884 
3386.000000	64.819049 
3385.000000	64.805150 
3384.000000	64.797639 
3383.000000	64.797210 
3382.000000	64.803647 
3381.000000	64.815974 
3380.000000	64.832735 
3379.000000	64.851951 
3378.000000	64.871740 
3377.000000	64.890313 
3376.000000	64.906644 
3375.000000	64.920234 
3374.000000	64.931464 
3373.000000	64.941430 
3372.000000	64.951491 
3371.000000	64.962816 
3370.000000	64.976024 
3369.000000	64.990973 
3368.000000	65.006518 
3367.000000	65.020966 
3366.000000	65.032291 
3365.000000	65.038871 
3364.000000	65.040016 
3363.000000	65.036439 
3362.000000	65.029859 
3361.000000	65.022397 
3360.000000	65.015888 
3359.000000	65.010881 
3358.000000	65.006494 
3357.000000	65.000557 
3356.000000	64.989995 
3355.000000	64.972114 
3354.000000	64.945530 
3353.000000	64.911127 
3352.000000	64.872097 
3351.000000	64.833617 
3350.000000	64.801430 
3349.000000	64.780926 
3348.000000	64.775705 
3347.000000	64.787101 
3346.000000	64.813208 
3345.000000	64.849781 
3344.000000	64.891099 
3343.000000	64.931011 
3342.000000	64.964222 
3341.000000	64.986920 
3340.000000	64.997267 
3339.000000	64.995336 
3338.000000	64.982771 
3337.000000	64.962482 
3336.000000	64.938020 
3335.000000	64.913344 
3334.000000	64.892005 
3333.000000	64.877271 
3332.000000	64.871358 
3331.000000	64.875435 
3330.000000	64.889144 
3329.000000	64.910721 
3328.000000	64.937043 
3327.000000	64.963960 
3326.000000	64.987039 
3325.000000	65.001964 
3324.000000	65.005588 
3323.000000	64.996266 
3322.000000	64.974474 
3321.000000	64.942312 
3320.000000	64.903831 
3319.000000	64.863896 
3318.000000	64.827895 
3317.000000	64.800524 
3316.000000	64.785242 
3315.000000	64.783740 
3314.000000	64.795565 
3313.000000	64.818525 
3312.000000	64.848709 
3311.000000	64.881205 
3310.000000	64.910864 
3309.000000	64.933300 
3308.000000	64.945363 
3307.000000	64.945697 
3306.000000	64.934921 
3305.000000	64.915370 
3304.000000	64.890813 
3303.000000	64.865326 
3302.000000	64.842820 
3301.000000	64.825963 
3300.000000	64.816260 
3299.000000	64.813637 
3298.000000	64.816951 
3297.000000	64.824414 
3296.000000	64.834380 
3295.000000	64.845108 
3294.000000	64.855599 
3293.000000	64.864945 
3292.000000	64.872550 
3291.000000	64.877772 
3290.000000	64.879965 
3289.000000	64.878630 
3288.000000	64.873695 
3287.000000	64.865446 
3286.000000	64.854550 
3285.000000	64.842319 
3284.000000	64.830446 
3283.000000	64.820718 
3282.000000	64.814734 
3281.000000	64.813327 
3280.000000	64.816427 
3279.000000	64.823031 
3278.000000	64.831447 
3277.000000	64.839506 
3276.000000	64.845252 
3275.000000	64.847421 
3274.000000	64.846038 
3273.000000	64.842247 
3272.000000	64.838075 
3271.000000	64.835882 
3270.000000	64.837670 
3269.000000	64.844703 
3268.000000	64.856815 
3267.000000	64.872455 
3266.000000	64.889049 
3265.000000	64.903688 
3264.000000	64.913988 
3263.000000	64.918804 
3262.000000	64.918398 
3261.000000	64.914488 
3260.000000	64.909410 
3259.000000	64.905452 
3258.000000	64.903974 
3257.000000	64.905095 
3256.000000	64.907503 
3255.000000	64.909148 
3254.000000	64.907741 
3253.000000	64.901876 
3252.000000	64.891076 
3251.000000	64.876246 
3250.000000	64.859390 
3249.000000	64.843153 
3248.000000	64.830136 
3247.000000	64.822506 
3246.000000	64.821290 
3245.000000	64.826488 
3244.000000	64.837169 
3243.000000	64.851784 
3242.000000	64.868760 
3241.000000	64.886355 
3240.000000	64.903378 
3239.000000	64.919137 
3238.000000	64.932990 
3237.000000	64.944601 
3236.000000	64.953851 
3235.000000	64.960670 
3234.000000	64.964962 
3233.000000	64.966630 
3232.000000	64.965867 
3231.000000	64.962911 
3230.000000	64.958405 
3229.000000	64.953041 
3228.000000	64.947700 
3227.000000	64.943361 
3226.000000	64.940786 
3225.000000	64.940404 
3224.000000	64.942026 
3223.000000	64.944863 
3222.000000	64.947938 
3221.000000	64.950132 
3220.000000	64.950609 
3219.000000	64.949202 
3218.000000	64.946126 
3217.000000	64.942145 
3216.000000	64.937806 
3215.000000	64.933538 
3214.000000	64.929175 
3213.000000	64.923977 
3212.000000	64.916729 
3211.000000	64.905977 
3210.000000	64.890575 
3209.000000	64.870071 
3208.000000	64.845132 
3207.000000	64.817523 
3206.000000	64.790129 
3205.000000	64.766311 
3204.000000	64.749598 
3203.000000	64.742732 
3202.000000	64.747238 
3201.000000	64.763164 
3200.000000	64.788889 
3199.000000	64.821457 
3198.000000	64.857268 
3197.000000	64.892745 
3196.000000	64.924907 
3195.000000	64.951825 
3194.000000	64.972901 
3193.000000	64.988613 
3192.000000	65.000057 
3191.000000	65.008330 
3190.000000	65.014147 
3189.000000	65.017175 
3188.000000	65.016603 
3187.000000	65.011096 
3186.000000	64.999556 
3185.000000	64.981746 
3184.000000	64.958715 
3183.000000	64.932942 
3182.000000	64.907932 
3181.000000	64.887642 
3180.000000	64.875555 
3179.000000	64.873766 
3178.000000	64.882612 
3177.000000	64.900135 
3176.000000	64.922714 
3175.000000	64.945578 
3174.000000	64.963841 
3173.000000	64.973568 
3172.000000	64.972591 
3171.000000	64.960741 
3170.000000	64.940047 
3169.000000	64.913916 
3168.000000	64.886617 
3167.000000	64.862513 
3166.000000	64.845037 
3165.000000	64.836311 
3164.000000	64.836525 
3163.000000	64.844369 
3162.000000	64.857292 
3161.000000	64.872050 
3160.000000	64.885377 
3159.000000	64.895009 
3158.000000	64.899682 
3157.000000	64.899396 
3156.000000	64.895200 
3155.000000	64.888477 
3154.000000	64.880537 
3153.000000	64.872455 
3152.000000	64.864516 
3151.000000	64.856529 
3150.000000	64.848065 
3149.000000	64.838957 
3148.000000	64.829230 
3147.000000	64.819121 
3146.000000	64.809131 
3145.000000	64.799642 
3144.000000	64.790916 
3143.000000	64.782738 
3142.000000	64.774560 
3141.000000	64.765429 
3140.000000	64.754486 
3139.000000	64.741158 
3138.000000	64.725351 
3137.000000	64.707684 
3136.000000	64.689326 
3135.000000	64.671897 
3134.000000	64.657020 
3133.000000	64.646220 
3132.000000	64.640235 
3131.000000	64.639377 
3130.000000	64.643073 
3129.000000	64.650607 
3128.000000	64.660906 
3127.000000	64.673185 
3126.000000	64.686703 
3125.000000	64.701247 
3124.000000	64.716839 
3123.000000	64.733552 
3122.000000	64.751267 
3121.000000	64.769673 
3120.000000	64.788103 
3119.000000	64.805698 
3118.000000	64.821600 
3117.000000	64.834976 
3116.000000	64.845323 
3115.000000	64.852619 
3114.000000	64.857220 
3113.000000	64.859580 
3112.000000	64.859962 
3111.000000	64.858508 
3110.000000	64.854979 
3109.000000	64.849066 
3108.000000	64.840364 
3107.000000	64.828944 
3106.000000	64.815163 
3105.000000	64.799904 
3104.000000	64.784479 
3103.000000	64.770436 
3102.000000	64.759135 
3101.000000	64.751362 
3100.000000	64.747238 
3099.000000	64.746069 
3098.000000	64.746570 
3097.000000	64.747071 
3096.000000	64.745998 
3095.000000	64.742255 
3094.000000	64.735889 
3093.000000	64.727973 
3092.000000	64.720559 
3091.000000	64.716124 
3090.000000	64.717006 
3089.000000	64.724874 
3088.000000	64.740109 
3087.000000	64.761590 
3086.000000	64.786911 
3085.000000	64.812946 
3084.000000	64.836311 
3083.000000	64.854431 
3082.000000	64.865946 
3081.000000	64.871168 
3080.000000	64.871835 
3079.000000	64.870667 
3078.000000	64.870595 
3077.000000	64.874172 
3076.000000	64.882874 
3075.000000	64.896821 
3074.000000	64.914965 
3073.000000	64.935588 
3072.000000	64.956712 
3071.000000	64.976596 
3070.000000	64.994239 
3069.000000	65.009355 
3068.000000	65.022158 
3067.000000	65.033221 
3066.000000	65.043067 
3065.000000	65.051794 
3064.000000	65.058898 
3063.000000	65.063238 
3062.000000	65.063357 
3061.000000	65.057921 
3060.000000	65.046072 
3059.000000	65.027666 
3058.000000	65.003514 
3057.000000	64.975380 
3056.000000	64.945793 
3055.000000	64.917397 
3054.000000	64.892721 
3053.000000	64.873480 
3052.000000	64.860701 
3051.000000	64.854431 
3050.000000	64.853835 
3049.000000	64.857411 
3048.000000	64.863181 
3047.000000	64.869236 
3046.000000	64.873814 
3045.000000	64.875364 
3044.000000	64.872765 
3043.000000	64.865398 
3042.000000	64.853024 
3041.000000	64.835929 
3040.000000	64.815115 
3039.000000	64.792203 
3038.000000	64.769482 
3037.000000	64.749288 
3036.000000	64.733958 
3035.000000	64.725208 
3034.000000	64.723944 
3033.000000	64.730048 
3032.000000	64.742469 
3031.000000	64.759516 
3030.000000	64.779019 
3029.000000	64.798974 
3028.000000	64.817595 
3027.000000	64.833545 
3026.000000	64.846086 
3025.000000	64.854836 
3024.000000	64.859843 
3023.000000	64.861249 
3022.000000	64.859628 
3021.000000	64.855647 
3020.000000	64.850091 
3019.000000	64.843726 
3018.000000	64.837288 
3017.000000	64.831280 
3016.000000	64.825844 
3015.000000	64.820623 
3014.000000	64.815211 
3013.000000	64.809226 
3012.000000	64.802837 
3011.000000	64.796972 
3010.000000	64.793014 
3009.000000	64.792752 
3008.000000	64.797496 
3007.000000	64.807724 
3006.000000	64.822649 
3005.000000	64.840126 
3004.000000	64.856791 
3003.000000	64.868974 
3002.000000	64.873456 
3001.000000	64.868402 
3000.000000	64.853978 
2999.000000	64.832425 
2998.000000	64.807510 
2997.000000	64.784002 
2996.000000	64.766454 
2995.000000	64.758276 
2994.000000	64.760851 
2993.000000	64.773440 
2992.000000	64.793181 
2991.000000	64.815926 
2990.000000	64.837336 
2989.000000	64.853549 
2988.000000	64.862251 
2987.000000	64.862799 
2986.000000	64.856433 
2985.000000	64.845681 
2984.000000	64.833760 
2983.000000	64.823675 
2982.000000	64.817500 
2981.000000	64.815807 
2980.000000	64.817929 
2979.000000	64.821982 
2978.000000	64.825630 
2977.000000	64.826488 
2976.000000	64.823031 
2975.000000	64.814949 
2974.000000	64.803147 
2973.000000	64.789700 
2972.000000	64.777088 
2971.000000	64.767837 
2970.000000	64.763808 
2969.000000	64.765596 
2968.000000	64.772701 
2967.000000	64.783358 
2966.000000	64.794921 
2965.000000	64.804601 
2964.000000	64.809989 
2963.000000	64.809274 
2962.000000	64.801645 
2961.000000	64.787244 
2960.000000	64.767289 
2959.000000	64.743971 
2958.000000	64.720082 
2957.000000	64.698648 
2956.000000	64.682221 
2955.000000	64.672708 
2954.000000	64.670705 
2953.000000	64.675450 
2952.000000	64.684915 
2951.000000	64.696049 
2950.000000	64.705705 
2949.000000	64.711022 
2948.000000	64.710474 
2947.000000	64.703917 
2946.000000	64.693045 
2945.000000	64.680671 
2944.000000	64.670228 
2943.000000	64.664983 
2942.000000	64.667296 
2941.000000	64.678359 
2940.000000	64.697647 
2939.000000	64.723396 
2938.000000	64.752721 
2937.000000	64.782595 
2936.000000	64.809918 
2935.000000	64.832115 
2934.000000	64.846992 
2933.000000	64.853143 
2932.000000	64.849829 
2931.000000	64.837002 
2930.000000	64.815378 
2929.000000	64.786577 
2928.000000	64.752936 
2927.000000	64.717555 
2926.000000	64.683890 
2925.000000	64.655518 
2924.000000	64.635348 
2923.000000	64.625215 
2922.000000	64.625477 
2921.000000	64.635062 
2920.000000	64.651560 
2919.000000	64.671969 
2918.000000	64.692926 
2917.000000	64.711976 
2916.000000	64.727377 
2915.000000	64.738917 
2914.000000	64.747285 
2913.000000	64.753937 
2912.000000	64.760494 
2911.000000	64.768218 
2910.000000	64.777708 
2909.000000	64.788532 
2908.000000	64.799666 
2907.000000	64.809465 
2906.000000	64.816427 
2905.000000	64.819312 
2904.000000	64.817810 
2903.000000	64.812350 
2902.000000	64.804077 
2901.000000	64.794659 
2900.000000	64.785933 
2899.000000	64.779424 
2898.000000	64.776158 
2897.000000	64.776563 
2896.000000	64.780449 
2895.000000	64.787268 
2894.000000	64.796185 
2893.000000	64.806461 
2892.000000	64.817285 
2891.000000	64.828300 
2890.000000	64.839148 
2889.000000	64.849758 
2888.000000	64.859819 
2887.000000	64.868974 
2886.000000	64.876604 
2885.000000	64.881825 
2884.000000	64.883708 
2883.000000	64.881491 
2882.000000	64.874839 
2881.000000	64.864134 
2880.000000	64.850497 
2879.000000	64.835453 
2878.000000	64.820671 
2877.000000	64.807510 
2876.000000	64.796566 
2875.000000	64.787602 
2874.000000	64.779710 
2873.000000	64.771556 
2872.000000	64.762020 
2871.000000	64.750504 
2870.000000	64.736938 
2869.000000	64.722299 
2868.000000	64.707899 
2867.000000	64.695596 
2866.000000	64.686894 
2865.000000	64.683079 
2864.000000	64.684557 
2863.000000	64.691329 
2862.000000	64.702677 
2861.000000	64.717745 
2860.000000	64.735531 
2859.000000	64.754915 
2858.000000	64.774584 
2857.000000	64.793324 
2856.000000	64.809727 
2855.000000	64.822483 
2854.000000	64.830303 
2853.000000	64.832186 
2852.000000	64.827775 
2851.000000	64.817190 
2850.000000	64.801311 
2849.000000	64.781785 
2848.000000	64.760756 
2847.000000	64.740896 
2846.000000	64.724898 
2845.000000	64.715266 
2844.000000	64.713644 
2843.000000	64.720582 
2842.000000	64.734840 
2841.000000	64.753818 
2840.000000	64.773702 
2839.000000	64.790034 
2838.000000	64.798903 
2837.000000	64.797425 
2836.000000	64.784908 
2835.000000	64.762854 
2834.000000	64.734959 
2833.000000	64.706397 
2832.000000	64.682698 
2831.000000	64.668703 
2830.000000	64.667391 
2829.000000	64.679169 
2828.000000	64.701962 
2827.000000	64.731788 
2826.000000	64.763450 
2825.000000	64.791989 
2824.000000	64.813518 
2823.000000	64.826083 
2822.000000	64.829754 
2821.000000	64.826369 
2820.000000	64.818811 
2819.000000	64.810156 
2818.000000	64.803028 
2817.000000	64.798903 
2816.000000	64.798116 
2815.000000	64.799857 
2814.000000	64.802932 
2813.000000	64.806175 
2812.000000	64.808917 
2811.000000	64.811086 
2810.000000	64.813327 
2809.000000	64.816164 
2808.000000	64.820146 
2807.000000	64.824938 
2806.000000	64.829397 
2805.000000	64.831876 
2804.000000	64.830613 
2803.000000	64.824318 
2802.000000	64.812660 
2801.000000	64.796638 
2800.000000	64.778423 
2799.000000	64.761090 
2798.000000	64.747881 
2797.000000	64.741468 
2796.000000	64.743471 
2795.000000	64.754128 
2794.000000	64.772200 
2793.000000	64.795517 
2792.000000	64.821481 
2791.000000	64.847350 
2790.000000	64.870905 
2789.000000	64.890575 
2788.000000	64.905595 
2787.000000	64.915752 
2786.000000	64.921259 
2785.000000	64.922690 
2784.000000	64.920496 
2783.000000	64.915513 
2782.000000	64.908218 
2781.000000	64.899110 
2780.000000	64.888191 
2779.000000	64.875602 
2778.000000	64.860987 
2777.000000	64.843940 
2776.000000	64.824032 
2775.000000	64.801168 
2774.000000	64.775943 
2773.000000	64.749646 
2772.000000	64.724421 
2771.000000	64.702939 
2770.000000	64.687919 
2769.000000	64.681386 
2768.000000	64.684295 
2767.000000	64.695978 
2766.000000	64.714288 
2765.000000	64.735817 
2764.000000	64.756608 
2763.000000	64.772868 
2762.000000	64.781808 
2761.000000	64.782309 
2760.000000	64.774703 
2759.000000	64.760899 
2758.000000	64.743995 
2757.000000	64.727473 
2756.000000	64.714455 
2755.000000	64.707207 
2754.000000	64.706850 
2753.000000	64.713120 
2752.000000	64.724874 
2751.000000	64.740276 
2750.000000	64.757251 
2749.000000	64.774107 
2748.000000	64.789628 
2747.000000	64.803338 
2746.000000	64.815330 
2745.000000	64.826226 
2744.000000	64.836788 
2743.000000	64.847612 
2742.000000	64.858675 
2741.000000	64.869451 
2740.000000	64.878797 
2739.000000	64.885210 
2738.000000	64.886975 
2737.000000	64.882779 
2736.000000	64.872074 
2735.000000	64.855241 
2734.000000	64.833641 
2733.000000	64.809441 
2732.000000	64.785265 
2731.000000	64.763951 
2730.000000	64.747691 
2729.000000	64.737915 
2728.000000	64.734792 
2727.000000	64.737272 
2726.000000	64.743399 
2725.000000	64.750671 
2724.000000	64.756774 
2723.000000	64.759874 
2722.000000	64.759349 
2721.000000	64.755487 
2720.000000	64.749479 
2719.000000	64.742946 
2718.000000	64.737462 
2717.000000	64.734125 
2716.000000	64.733338 
2715.000000	64.734840 
2714.000000	64.737892 
2713.000000	64.741587 
2712.000000	64.745235 
2711.000000	64.748430 
2710.000000	64.751267 
2709.000000	64.754176 
2708.000000	64.757537 
2707.000000	64.761686 
2706.000000	64.766478 
2705.000000	64.771556 
2704.000000	64.776325 
2703.000000	64.780211 
2702.000000	64.782857 
2701.000000	64.784097 
2700.000000	64.783859 
2699.000000	64.782166 
2698.000000	64.778971 
2697.000000	64.774441 
2696.000000	64.769029 
2695.000000	64.763426 
2694.000000	64.758682 
2693.000000	64.755940 
2692.000000	64.756369 
2691.000000	64.760589 
2690.000000	64.768576 
2689.000000	64.779520 
2688.000000	64.791774 
2687.000000	64.803385 
2686.000000	64.812564 
2685.000000	64.817976 
2684.000000	64.819097 
2683.000000	64.816474 
2682.000000	64.811325 
2681.000000	64.805293 
2680.000000	64.799880 
2679.000000	64.795994 
2678.000000	64.794135 
2677.000000	64.793968 
2676.000000	64.794874 
2675.000000	64.796352 
2674.000000	64.797735 
2673.000000	64.798665 
2672.000000	64.798641 
2671.000000	64.797306 
2670.000000	64.794254 
2669.000000	64.788913 
2668.000000	64.780902 
2667.000000	64.770030 
2666.000000	64.756512 
2665.000000	64.741158 
2664.000000	64.725184 
2663.000000	64.709997 
2662.000000	64.696907 
2661.000000	64.686918 
2660.000000	64.680504 
2659.000000	64.677476 
2658.000000	64.677095 
2657.000000	64.678502 
2656.000000	64.680862 
2655.000000	64.683532 
2654.000000	64.686155 
2653.000000	64.688777 
2652.000000	64.691233 
2651.000000	64.693713 
2650.000000	64.696097 
2649.000000	64.698410 
2648.000000	64.700698 
2647.000000	64.703369 
2646.000000	64.706993 
2645.000000	64.712238 
2644.000000	64.719867 
2643.000000	64.730048 
2642.000000	64.742445 
2641.000000	64.755821 
2640.000000	64.768266 
2639.000000	64.777541 
2638.000000	64.781522 
2637.000000	64.778995 
2636.000000	64.769816 
2635.000000	64.755296 
2634.000000	64.737796 
2633.000000	64.720439 
2632.000000	64.706301 
2631.000000	64.697837 
2630.000000	64.696311 
2629.000000	64.701676 
2628.000000	64.712643 
2627.000000	64.727115 
2626.000000	64.742732 
2625.000000	64.757466 
2624.000000	64.769864 
2623.000000	64.779281 
2622.000000	64.785790 
2621.000000	64.789819 
2620.000000	64.792037 
2619.000000	64.792966 
2618.000000	64.792871 
2617.000000	64.791727 
2616.000000	64.789438 
2615.000000	64.785861 
2614.000000	64.781117 
2613.000000	64.775776 
2612.000000	64.770650 
2611.000000	64.766979 
2610.000000	64.766001 
2609.000000	64.768528 
2608.000000	64.774799 
2607.000000	64.784169 
2606.000000	64.795112 
2605.000000	64.805483 
2604.000000	64.812898 
2603.000000	64.815378 
2602.000000	64.811801 
2601.000000	64.802312 
2600.000000	64.788651 
2599.000000	64.773678 
2598.000000	64.761018 
2597.000000	64.753866 
2596.000000	64.754390 
2595.000000	64.762926 
2594.000000	64.777898 
2593.000000	64.796042 
2592.000000	64.813494 
2591.000000	64.826607 
2590.000000	64.832782 
2589.000000	64.831161 
2588.000000	64.822673 
2587.000000	64.809513 
2586.000000	64.794492 
2585.000000	64.780521 
2584.000000	64.769673 
2583.000000	64.762926 
2582.000000	64.760208 
2581.000000	64.760518 
2580.000000	64.762353 
2579.000000	64.763975 
2578.000000	64.764046 
2577.000000	64.761519 
2576.000000	64.755702 
2575.000000	64.746046 
2574.000000	64.732432 
2573.000000	64.715003 
2572.000000	64.694356 
2571.000000	64.671540 
2570.000000	64.647960 
2569.000000	64.625382 
2568.000000	64.605593 
2567.000000	64.590167 
2566.000000	64.580202 
2565.000000	64.576029 
2564.000000	64.577341 
2563.000000	64.583039 
2562.000000	64.591693 
2561.000000	64.601540 
2560.000000	64.610910 
2559.000000	64.618539 
2558.000000	64.623856 
2557.000000	64.626908 
2556.000000	64.628386 
2555.000000	64.629530 
2554.000000	64.631700 
2553.000000	64.636039 
2552.000000	64.643120 
2551.000000	64.652848 
2550.000000	64.664268 
2549.000000	64.675736 
2548.000000	64.685106 
2547.000000	64.690399 
2546.000000	64.690256 
2545.000000	64.684271 
2544.000000	64.673113 
2543.000000	64.658403 
2542.000000	64.642500 
2541.000000	64.627861 
2540.000000	64.616489 
2539.000000	64.609837 
2538.000000	64.608407 
2537.000000	64.611959 
2536.000000	64.619851 
2535.000000	64.631175 
2534.000000	64.645051 
2533.000000	64.660811 
2532.000000	64.677906 
2531.000000	64.695858 
2530.000000	64.714097 
2529.000000	64.731621 
2528.000000	64.747071 
2527.000000	64.758968 
2526.000000	64.766025 
2525.000000	64.767384 
2524.000000	64.762830 
2523.000000	64.752912 
2522.000000	64.738869 
2521.000000	64.722514 
2520.000000	64.705562 
2519.000000	64.689445 
2518.000000	64.675068 
2517.000000	64.662766 
2516.000000	64.652419 
2515.000000	64.643740 
2514.000000	64.636516 
2513.000000	64.630866 
2512.000000	64.627504 
2511.000000	64.627170 
2510.000000	64.631032 
2509.000000	64.639759 
2508.000000	64.653658 
2507.000000	64.672231 
2506.000000	64.693999 
2505.000000	64.716958 
2504.000000	64.738559 
2503.000000	64.756131 
2502.000000	64.767169 
2501.000000	64.769864 
2500.000000	64.763236 
2499.000000	64.747500 
2498.000000	64.723920 
2497.000000	64.694738 
2496.000000	64.662814 
2495.000000	64.631319 
2494.000000	64.603281 
2493.000000	64.581370 
2492.000000	64.567470 
2491.000000	64.562535 
2490.000000	64.566850 
2489.000000	64.579510 
2488.000000	64.598703 
2487.000000	64.622163 
2486.000000	64.647078 
2485.000000	64.670777 
2484.000000	64.691019 
2483.000000	64.706516 
2482.000000	64.716672 
2481.000000	64.721965 
2480.000000	64.723563 
2479.000000	64.723014 
2478.000000	64.721846 
2477.000000	64.721226 
2476.000000	64.721965 
2475.000000	64.724016 
2474.000000	64.726853 
2473.000000	64.729690 
2472.000000	64.731788 
2471.000000	64.732360 
2470.000000	64.730882 
2469.000000	64.727163 
2468.000000	64.721274 
2467.000000	64.713573 
2466.000000	64.704680 
2465.000000	64.695525 
2464.000000	64.687299 
2463.000000	64.681410 
2462.000000	64.679074 
2461.000000	64.680933 
2460.000000	64.686632 
2459.000000	64.695024 
2458.000000	64.704036 
2457.000000	64.711403 
2456.000000	64.715051 
2455.000000	64.713621 
2454.000000	64.707016 
2453.000000	64.696455 
2452.000000	64.684128 
2451.000000	64.672684 
2450.000000	64.664411 
2449.000000	64.660668 
2448.000000	64.661240 
2447.000000	64.664697 
2446.000000	64.668416 
2445.000000	64.669537 
2444.000000	64.665627 
2443.000000	64.655375 
2442.000000	64.639019 
2441.000000	64.618420 
2440.000000	64.596486 
2439.000000	64.576649 
2438.000000	64.562296 
2437.000000	64.556169 
2436.000000	64.559721 
2435.000000	64.572906 
2434.000000	64.594197 
2433.000000	64.620804 
2432.000000	64.649176 
2431.000000	64.675903 
2430.000000	64.698004 
2429.000000	64.713621 
2428.000000	64.722061 
2427.000000	64.723992 
2426.000000	64.721059 
2425.000000	64.715504 
2424.000000	64.709639 
2423.000000	64.705324 
2422.000000	64.703798 
2421.000000	64.705419 
2420.000000	64.709997 
2419.000000	64.716553 
2418.000000	64.723706 
2417.000000	64.730000 
2416.000000	64.734148 
2415.000000	64.735031 
2414.000000	64.731860 
2413.000000	64.724421 
2412.000000	64.712905 
2411.000000	64.698123 
2410.000000	64.681243 
2409.000000	64.664077 
2408.000000	64.648246 
2407.000000	64.635205 
2406.000000	64.625549 
2405.000000	64.619183 
2404.000000	64.615130 
2403.000000	64.611697 
2402.000000	64.606666 
2401.000000	64.597940 
2400.000000	64.584302 
2399.000000	64.565515 
2398.000000	64.542698 
2397.000000	64.517807 
2396.000000	64.493608 
2395.000000	64.472937 
2394.000000	64.457964 
2393.000000	64.449882 
2392.000000	64.448714 
2391.000000	64.453577 
2390.000000	64.462924 
2389.000000	64.474987 
2388.000000	64.488506 
2387.000000	64.502978 
2386.000000	64.518427 
2385.000000	64.535403 
2384.000000	64.554643 
2383.000000	64.576601 
2382.000000	64.601135 
2381.000000	64.627456 
2380.000000	64.654183 
2379.000000	64.679455 
2378.000000	64.701771 
2377.000000	64.719843 
2376.000000	64.733219 
2375.000000	64.741921 
2374.000000	64.746809 
2373.000000	64.748573 
2372.000000	64.747834 
2371.000000	64.744424 
2370.000000	64.738059 
2369.000000	64.727926 
2368.000000	64.713168 
2367.000000	64.693331 
2366.000000	64.668798 
2365.000000	64.640641 
2364.000000	64.610505 
2363.000000	64.580297 
2362.000000	64.551758 
2361.000000	64.526176 
2360.000000	64.504265 
2359.000000	64.485931 
2358.000000	64.470744 
2357.000000	64.458274 
2356.000000	64.448451 
2355.000000	64.441418 
2354.000000	64.437651 
2353.000000	64.437627 
2352.000000	64.441657 
2351.000000	64.449095 
2350.000000	64.458894 
2349.000000	64.469480 
2348.000000	64.479494 
2347.000000	64.487743 
2346.000000	64.494037 
2345.000000	64.499163 
2344.000000	64.504837 
2343.000000	64.513111 
2342.000000	64.525866 
2341.000000	64.543962 
2340.000000	64.567112 
2339.000000	64.593577 
2338.000000	64.620304 
2337.000000	64.643645 
2336.000000	64.660120 
2335.000000	64.667320 
2334.000000	64.664173 
2333.000000	64.651322 
2332.000000	64.631009 
2331.000000	64.606642 
2330.000000	64.582157 
2329.000000	64.561152 
2328.000000	64.546656 
2327.000000	64.540266 
2326.000000	64.542126 
2325.000000	64.550924 
2324.000000	64.564251 
2323.000000	64.579129 
2322.000000	64.592528 
2321.000000	64.602088 
2320.000000	64.606189 
2319.000000	64.604568 
2318.000000	64.598059 
2317.000000	64.588642 
2316.000000	64.578676 
2315.000000	64.570665 
2314.000000	64.566612 
2313.000000	64.567756 
2312.000000	64.574217 
2311.000000	64.585113 
2310.000000	64.598679 
2309.000000	64.612627 
2308.000000	64.624452 
2307.000000	64.631819 
2306.000000	64.633107 
2305.000000	64.627313 
2304.000000	64.614319 
2303.000000	64.595031 
2302.000000	64.571189 
2301.000000	64.545154 
2300.000000	64.519619 
2299.000000	64.497113 
2298.000000	64.479827 
2297.000000	64.469218 
2296.000000	64.465999 
2295.000000	64.469766 
2294.000000	64.479446 
2293.000000	64.493346 
2292.000000	64.509487 
2291.000000	64.525938 
2290.000000	64.541125 
2289.000000	64.553761 
2288.000000	64.563107 
2287.000000	64.568758 
2286.000000	64.570736 
2285.000000	64.569306 
2284.000000	64.565014 
2283.000000	64.558672 
2282.000000	64.551329 
2281.000000	64.544105 
2280.000000	64.537930 
2279.000000	64.533472 
2278.000000	64.530920 
2277.000000	64.529967 
2276.000000	64.530158 
2275.000000	64.531016 
2274.000000	64.532256 
2273.000000	64.533996 
2272.000000	64.536595 
2271.000000	64.540719 
2270.000000	64.547061 
2269.000000	64.555954 
2268.000000	64.567208 
2267.000000	64.580106 
2266.000000	64.593625 
2265.000000	64.606451 
2264.000000	64.617419 
2263.000000	64.625692 
2262.000000	64.631056 
2261.000000	64.633536 
2260.000000	64.633679 
2259.000000	64.631724 
2258.000000	64.627885 
2257.000000	64.622092 
2256.000000	64.613914 
2255.000000	64.602994 
2254.000000	64.589071 
2253.000000	64.572143 
2252.000000	64.552712 
2251.000000	64.531612 
2250.000000	64.510035 
2249.000000	64.489293 
2248.000000	64.470601 
2247.000000	64.454793 
2246.000000	64.442372 
2245.000000	64.433288 
2244.000000	64.427042 
2243.000000	64.422750 
2242.000000	64.419722 
2241.000000	64.417290 
2240.000000	64.415478 
2239.000000	64.414572 
2238.000000	64.415574 
2237.000000	64.419579 
2236.000000	64.427804 
2235.000000	64.441013 
2234.000000	64.459419 
2233.000000	64.482378 
2232.000000	64.508509 
2231.000000	64.535570 
2230.000000	64.561057 
2229.000000	64.582490 
2228.000000	64.597797 
2227.000000	64.605712 
2226.000000	64.605927 
2225.000000	64.599180 
2224.000000	64.587140 
2223.000000	64.572048 
2222.000000	64.556217 
2221.000000	64.541769 
2220.000000	64.530277 
2219.000000	64.522695 
2218.000000	64.519095 
2217.000000	64.518809 
2216.000000	64.520907 
2215.000000	64.524221 
2214.000000	64.527678 
2213.000000	64.530301 
2212.000000	64.531421 
2211.000000	64.530730 
2210.000000	64.528012 
2209.000000	64.523196 
2208.000000	64.516043 
2207.000000	64.506340 
2206.000000	64.493942 
2205.000000	64.478683 
2204.000000	64.460682 
2203.000000	64.440560 
2202.000000	64.419412 
2201.000000	64.398813 
2200.000000	64.380550 
2199.000000	64.366459 
2198.000000	64.357972 
2197.000000	64.355921 
2196.000000	64.360404 
2195.000000	64.370632 
2194.000000	64.385366 
2193.000000	64.402842 
2192.000000	64.421367 
2191.000000	64.439558 
2190.000000	64.456486 
2189.000000	64.471578 
2188.000000	64.484763 
2187.000000	64.495944 
2186.000000	64.504909 
2185.000000	64.511227 
2184.000000	64.514088 
2183.000000	64.512944 
2182.000000	64.507079 
2181.000000	64.496517 
2180.000000	64.481496 
2179.000000	64.462947 
2178.000000	64.442157 
2177.000000	64.420628 
2176.000000	64.400148 
2175.000000	64.382576 
2174.000000	64.369773 
2173.000000	64.363288 
2172.000000	64.364337 
2171.000000	64.373445 
2170.000000	64.390301 
2169.000000	64.413690 
2168.000000	64.441609 
2167.000000	64.471292 
2166.000000	64.499616 
2165.000000	64.523720 
2164.000000	64.541149 
2163.000000	64.550447 
2162.000000	64.551353 
2161.000000	64.544773 
2160.000000	64.532709 
2159.000000	64.517831 
2158.000000	64.503026 
2157.000000	64.490532 
2156.000000	64.482021 
2155.000000	64.477682 
2154.000000	64.476823 
2153.000000	64.477801 
2152.000000	64.478731 
2151.000000	64.477825 
2150.000000	64.473867 
2149.000000	64.466500 
2148.000000	64.456129 
2147.000000	64.443850 
2146.000000	64.431142 
2145.000000	64.419317 
2144.000000	64.409255 
2143.000000	64.401507 
2142.000000	64.395952 
2141.000000	64.392328 
2140.000000	64.390325 
2139.000000	64.389753 
2138.000000	64.390802 
2137.000000	64.393901 
2136.000000	64.399695 
2135.000000	64.408636 
2134.000000	64.420795 
2133.000000	64.435958 
2132.000000	64.453291 
2131.000000	64.471459 
2130.000000	64.488768 
2129.000000	64.503455 
2128.000000	64.513754 
2127.000000	64.518547 
2126.000000	64.517164 
2125.000000	64.509654 
2124.000000	64.496779 
2123.000000	64.479970 
2122.000000	64.461135 
2121.000000	64.442229 
2120.000000	64.425301 
2119.000000	64.411950 
2118.000000	64.403247 
2117.000000	64.399600 
2116.000000	64.400696 
2115.000000	64.405632 
2114.000000	64.413285 
2113.000000	64.422488 
2112.000000	64.432191 
2111.000000	64.441418 
2110.000000	64.449262 
2109.000000	64.455080 
2108.000000	64.458012 
2107.000000	64.457583 
2106.000000	64.453649 
2105.000000	64.446425 
2104.000000	64.436817 
2103.000000	64.426016 
2102.000000	64.415407 
2101.000000	64.406251 
2100.000000	64.399361 
2099.000000	64.395070 
2098.000000	64.393162 
2097.000000	64.393091 
2096.000000	64.394164 
2095.000000	64.395761 
2094.000000	64.397621 
2093.000000	64.399647 
2092.000000	64.401912 
2091.000000	64.404368 
2090.000000	64.406967 
2089.000000	64.409303 
2088.000000	64.410781 
2087.000000	64.410543 
2086.000000	64.408135 
2085.000000	64.403200 
2084.000000	64.396214 
2083.000000	64.388012 
2082.000000	64.380049 
2081.000000	64.373850 
2080.000000	64.370536 
2079.000000	64.370894 
2078.000000	64.374947 
2077.000000	64.382100 
2076.000000	64.391398 
2075.000000	64.401650 
2074.000000	64.411854 
2073.000000	64.421439 
2072.000000	64.430046 
2071.000000	64.437341 
2070.000000	64.442896 
2069.000000	64.446091 
2068.000000	64.446210 
2067.000000	64.442324 
2066.000000	64.433836 
2065.000000	64.420771 
2064.000000	64.403939 
2063.000000	64.385056 
2062.000000	64.366340 
2061.000000	64.350247 
2060.000000	64.338827 
2059.000000	64.333415 
2058.000000	64.334249 
2057.000000	64.340424 
2056.000000	64.350366 
2055.000000	64.361929 
2054.000000	64.373135 
2053.000000	64.382457 
2052.000000	64.389061 
2051.000000	64.392924 
2050.000000	64.394569 
2049.000000	64.394903 
2048.000000	64.394545 
2047.000000	64.393997 
2046.000000	64.393424 
2045.000000	64.392900 
2044.000000	64.392399 
2043.000000	64.392137 
2042.000000	64.392447 
2041.000000	64.393687 
2040.000000	64.396095 
2039.000000	64.399504 
2038.000000	64.403367 
2037.000000	64.406895 
2036.000000	64.409160 
2035.000000	64.409446 
2034.000000	64.407682 
2033.000000	64.404320 
2032.000000	64.400696 
2031.000000	64.398336 
2030.000000	64.398837 
2029.000000	64.403414 
2028.000000	64.412498 
2027.000000	64.425683 
2026.000000	64.441728 
2025.000000	64.459276 
2024.000000	64.476680 
2023.000000	64.492583 
2022.000000	64.505815 
2021.000000	64.515733 
2020.000000	64.521837 
2019.000000	64.523935 
2018.000000	64.521741 
2017.000000	64.515161 
2016.000000	64.504432 
2015.000000	64.490318 
2014.000000	64.474058 
2013.000000	64.457297 
2012.000000	64.441871 
2011.000000	64.429497 
2010.000000	64.421248 
2009.000000	64.417266 
2008.000000	64.416766 
2007.000000	64.418101 
2006.000000	64.419555 
2005.000000	64.419412 
2004.000000	64.416718 
2003.000000	64.411234 
2002.000000	64.403390 
2001.000000	64.393925 
2000.000000	64.383482 
1999.000000	64.372396 
1998.000000	64.360427 
1997.000000	64.347100 
1996.000000	64.332079 
1995.000000	64.315533 
1994.000000	64.298272 
1993.000000	64.281988 
1992.000000	64.268851 
1991.000000	64.261412 
1990.000000	64.261674 
1989.000000	64.270734 
1988.000000	64.288330 
1987.000000	64.312863 
1986.000000	64.341616 
1985.000000	64.371275 
1984.000000	64.398503 
1983.000000	64.420557 
1982.000000	64.435505 
1981.000000	64.442515 
1980.000000	64.441847 
1979.000000	64.434647 
1978.000000	64.422535 
1977.000000	64.407467 
1976.000000	64.391303 
1975.000000	64.375638 
1974.000000	64.361691 
1973.000000	64.350414 
1972.000000	64.342474 
1971.000000	64.338254 
1970.000000	64.337825 
1969.000000	64.341163 
1968.000000	64.347887 
1967.000000	64.357089 
1966.000000	64.367818 
1965.000000	64.378738 
1964.000000	64.388704 
1963.000000	64.396977 
1962.000000	64.403414 
1961.000000	64.408373 
1960.000000	64.412569 
1959.000000	64.416670 
1958.000000	64.421153 
1957.000000	64.425921 
1956.000000	64.430356 
1955.000000	64.433455 
1954.000000	64.434027 
1953.000000	64.431166 
1952.000000	64.424586 
1951.000000	64.414691 
1950.000000	64.402651 
1949.000000	64.389920 
1948.000000	64.378166 
1947.000000	64.368700 
1946.000000	64.362406 
1945.000000	64.359569 
1944.000000	64.359903 
1943.000000	64.362645 
1942.000000	64.366960 
1941.000000	64.371705 
1940.000000	64.375710 
1939.000000	64.377617 
1938.000000	64.376091 
1937.000000	64.370298 
1936.000000	64.359855 
1935.000000	64.345288 
1934.000000	64.327907 
1933.000000	64.309835 
1932.000000	64.293599 
1931.000000	64.281535 
1930.000000	64.275288 
1929.000000	64.275527 
1928.000000	64.281725 
1927.000000	64.292311 
1926.000000	64.305186 
1925.000000	64.318132 
1924.000000	64.329576 
1923.000000	64.338803 
1922.000000	64.346170 
1921.000000	64.352846 
1920.000000	64.360213 
1919.000000	64.369368 
1918.000000	64.380574 
1917.000000	64.393115 
1916.000000	64.405250 
1915.000000	64.414882 
1914.000000	64.419746 
1913.000000	64.418363 
1912.000000	64.410281 
1911.000000	64.396500 
1910.000000	64.379072 
1909.000000	64.360785 
1908.000000	64.344596 
1907.000000	64.332866 
1906.000000	64.326930 
1905.000000	64.326763 
1904.000000	64.331150 
1903.000000	64.338159 
1902.000000	64.345407 
1901.000000	64.350724 
1900.000000	64.352583 
1899.000000	64.350414 
1898.000000	64.344525 
1897.000000	64.335870 
1896.000000	64.325809 
1895.000000	64.315509 
1894.000000	64.305734 
1893.000000	64.296722 
1892.000000	64.288043 
1891.000000	64.279055 
1890.000000	64.269256 
1889.000000	64.258575 
1888.000000	64.247536 
1887.000000	64.237260 
1886.000000	64.229249 
1885.000000	64.224863 
1884.000000	64.225125 
1883.000000	64.230275 
1882.000000	64.239740 
1881.000000	64.252233 
1880.000000	64.266061 
1879.000000	64.279365 
1878.000000	64.290666 
1877.000000	64.298892 
1876.000000	64.303779 
1875.000000	64.305520 
1874.000000	64.304804 
1873.000000	64.302587 
1872.000000	64.299678 
1871.000000	64.296793 
1870.000000	64.294242 
1869.000000	64.292025 
1868.000000	64.289855 
1867.000000	64.287209 
1866.000000	64.283514 
1865.000000	64.278221 
1864.000000	64.271140 
1863.000000	64.262294 
1862.000000	64.252352 
1861.000000	64.242315 
1860.000000	64.233517 
1859.000000	64.227437 
1858.000000	64.225196 
1857.000000	64.227581 
1856.000000	64.234399 
1855.000000	64.244604 
1854.000000	64.256429 
1853.000000	64.267563 
1852.000000	64.275527 
1851.000000	64.278364 
1850.000000	64.274954 
1849.000000	64.265322 
1848.000000	64.250612 
1847.000000	64.232969 
1846.000000	64.214992 
1845.000000	64.199328 
1844.000000	64.188027 
1843.000000	64.182281 
1842.000000	64.182186 
1841.000000	64.186835 
1840.000000	64.194560 
1839.000000	64.203071 
1838.000000	64.210319 
1837.000000	64.214372 
1836.000000	64.214181 
1835.000000	64.209437 
1834.000000	64.200448 
1833.000000	64.188361 
1832.000000	64.174699 
1831.000000	64.161252 
1830.000000	64.149808 
1829.000000	64.141726 
1828.000000	64.137959 
1827.000000	64.138889 
1826.000000	64.144372 
1825.000000	64.153552 
1824.000000	64.165306 
1823.000000	64.178299 
1822.000000	64.191126 
1821.000000	64.202642 
1820.000000	64.212059 
1819.000000	64.218974 
1818.000000	64.223575 
1817.000000	64.226341 
1816.000000	64.227938 
1815.000000	64.229297 
1814.000000	64.231204 
1813.000000	64.234042 
1812.000000	64.237785 
1811.000000	64.242053 
1810.000000	64.246010 
1809.000000	64.248561 
1808.000000	64.248347 
1807.000000	64.244365 
1806.000000	64.235949 
1805.000000	64.223217 
1804.000000	64.207077 
1803.000000	64.189100 
1802.000000	64.171290 
1801.000000	64.155721 
1800.000000	64.144158 
1799.000000	64.137864 
1798.000000	64.137077 
1797.000000	64.141201 
1796.000000	64.148879 
1795.000000	64.158391 
1794.000000	64.167976 
1793.000000	64.176225 
1792.000000	64.182233 
1791.000000	64.185786 
1790.000000	64.187288 
1789.000000	64.187645 
1788.000000	64.187693 
1787.000000	64.188075 
1786.000000	64.189314 
1785.000000	64.191365 
1784.000000	64.193868 
1783.000000	64.195966 
1782.000000	64.196848 
1781.000000	64.195632 
1780.000000	64.191722 
1779.000000	64.185190 
1778.000000	64.176845 
1777.000000	64.168262 
1776.000000	64.161515 
1775.000000	64.158701 
1774.000000	64.161324 
1773.000000	64.169955 
1772.000000	64.184021 
1771.000000	64.201855 
1770.000000	64.220976 
1769.000000	64.238667 
1768.000000	64.252495 
1767.000000	64.260959 
1766.000000	64.263510 
1765.000000	64.260578 
1764.000000	64.253211 
1763.000000	64.242792 
1762.000000	64.230346 
1761.000000	64.216518 
1760.000000	64.201045 
1759.000000	64.183187 
1758.000000	64.161849 
1757.000000	64.136075 
1756.000000	64.105653 
1755.000000	64.071011 
1754.000000	64.033627 
1753.000000	63.995671 
1752.000000	63.959860 
1751.000000	63.928890 
1750.000000	63.905334 
1749.000000	63.890743 
1748.000000	63.885760 
1747.000000	63.889861 
1746.000000	63.901281 
1745.000000	63.917469 
1744.000000	63.935279 
1743.000000	63.951539 
1742.000000	63.963437 
1741.000000	63.968896 
1740.000000	63.966941 
1739.000000	63.957929 
1738.000000	63.943243 
1737.000000	63.925194 
1736.000000	63.906621 
1735.000000	63.890337 
1734.000000	63.878703 
1733.000000	63.873195 
1732.000000	63.874220 
1731.000000	63.880968 
1730.000000	63.891863 
1729.000000	63.905024 
1728.000000	63.918399 
1727.000000	63.930749 
1726.000000	63.941407 
1725.000000	63.950705 
1724.000000	63.959646 
1723.000000	63.969540 
1722.000000	63.981676 
1721.000000	63.996744 
1720.000000	64.014458 
1719.000000	64.033484 
1718.000000	64.052081 
1717.000000	64.068007 
1716.000000	64.079236 
1715.000000	64.084339 
1714.000000	64.082932 
1713.000000	64.075636 
1712.000000	64.063811 
1711.000000	64.049363 
1710.000000	64.034295 
1709.000000	64.020299 
1708.000000	64.008688 
1707.000000	64.000201 
1706.000000	63.994956 
1705.000000	63.992476 
1704.000000	63.992023 
1703.000000	63.992619 
1702.000000	63.993549 
1701.000000	63.994407 
1700.000000	63.995432 
1699.000000	63.997077 
1698.000000	64.000201 
1697.000000	64.005661 
1696.000000	64.014124 
1695.000000	64.025688 
1694.000000	64.039778 
1693.000000	64.055252 
1692.000000	64.070510 
1691.000000	64.083790 
1690.000000	64.093375 
1689.000000	64.098000 
1688.000000	64.097118 
1687.000000	64.090919 
1686.000000	64.080381 
1685.000000	64.067125 
1684.000000	64.053177 
1683.000000	64.040446 
1682.000000	64.030599 
1681.000000	64.024567 
1680.000000	64.022541 
1679.000000	64.023947 
1678.000000	64.027333 
1677.000000	64.030814 
1676.000000	64.032459 
1675.000000	64.030742 
1674.000000	64.024782 
1673.000000	64.014744 
1672.000000	64.001512 
1671.000000	63.986873 
1670.000000	63.972830 
1669.000000	63.961601 
1668.000000	63.954758 
1667.000000	63.953328 
1666.000000	63.957571 
1665.000000	63.967204 
1664.000000	63.981246 
1663.000000	63.998317 
1662.000000	64.016890 
1661.000000	64.035201 
1660.000000	64.051699 
1659.000000	64.064955 
1658.000000	64.073944 
1657.000000	64.078259 
1656.000000	64.077997 
1655.000000	64.073848 
1654.000000	64.066958 
1653.000000	64.058756 
1652.000000	64.050626 
1651.000000	64.043426 
1650.000000	64.037132 
1649.000000	64.031386 
1648.000000	64.025211 
1647.000000	64.017701 
1646.000000	64.008045 
1645.000000	63.995981 
1644.000000	63.981795 
1643.000000	63.966321 
1642.000000	63.950753 
1641.000000	63.936042 
1640.000000	63.923048 
1639.000000	63.912439 
1638.000000	63.904690 
1637.000000	63.900184 
1636.000000	63.899517 
1635.000000	63.903284 
1634.000000	63.912010 
1633.000000	63.926005 
1632.000000	63.945150 
1631.000000	63.968801 
1630.000000	63.995718 
1629.000000	64.024233 
1628.000000	64.052677 
1627.000000	64.079618 
1626.000000	64.104270 
1625.000000	64.126181 
1624.000000	64.145541 
1623.000000	64.162397 
1622.000000	64.176750 
1621.000000	64.187860 
1620.000000	64.194321 
1619.000000	64.194154 
1618.000000	64.185905 
1617.000000	64.168453 
1616.000000	64.141893 
1615.000000	64.107584 
1614.000000	64.068436 
1613.000000	64.028143 
1612.000000	63.990473 
1611.000000	63.958764 
1610.000000	63.935112 
1609.000000	63.920426 
1608.000000	63.914251 
1607.000000	63.915181 
1606.000000	63.921451 
1605.000000	63.931250 
1604.000000	63.943028 
1603.000000	63.955426 
1602.000000	63.967108 
1601.000000	63.976573 
1600.000000	63.982224 
1599.000000	63.982009 
1598.000000	63.974356 
1597.000000	63.958740 
1596.000000	63.936114 
1595.000000	63.909006 
1594.000000	63.881444 
1593.000000	63.858413 
1592.000000	63.844752 
1591.000000	63.844132 
1590.000000	63.857960 
1589.000000	63.885092 
1588.000000	63.921928 
1587.000000	63.963174 
1586.000000	64.002704 
1585.000000	64.034986 
1584.000000	64.055967 
1583.000000	64.063930 
1582.000000	64.059472 
1581.000000	64.045143 
1580.000000	64.024782 
1579.000000	64.002585 
1578.000000	63.982105 
1577.000000	63.965344 
1576.000000	63.952994 
1575.000000	63.944292 
1574.000000	63.937592 
1573.000000	63.930606 
1572.000000	63.921403 
1571.000000	63.908743 
1570.000000	63.892078 
1569.000000	63.871908 
1568.000000	63.849210 
1567.000000	63.825845 
1566.000000	63.804006 
1565.000000	63.786244 
1564.000000	63.774871 
1563.000000	63.771724 
1562.000000	63.777613 
1561.000000	63.792037 
1560.000000	63.813400 
1559.000000	63.838839 
1558.000000	63.864946 
1557.000000	63.888359 
1556.000000	63.906097 
1555.000000	63.916444 
1554.000000	63.918924 
1553.000000	63.914418 
1552.000000	63.904809 
1551.000000	63.892793 
1550.000000	63.881397 
1549.000000	63.873481 
1548.000000	63.871431 
1547.000000	63.876795 
1546.000000	63.890194 
1545.000000	63.911366 
1544.000000	63.938903 
1543.000000	63.970422 
1542.000000	64.002704 
1541.000000	64.032101 
1540.000000	64.055275 
1539.000000	64.069437 
1538.000000	64.072966 
1537.000000	64.065909 
1536.000000	64.049553 
1535.000000	64.026308 
1534.000000	63.999128 
1533.000000	63.971018 
1532.000000	63.944745 
1531.000000	63.922452 
1530.000000	63.905382 
1529.000000	63.894033 
1528.000000	63.888096 
1527.000000	63.886690 
1526.000000	63.888406 
1525.000000	63.891553 
1524.000000	63.894701 
1523.000000	63.896799 
1522.000000	63.897538 
1521.000000	63.897204 
1520.000000	63.896608 
1519.000000	63.896942 
1518.000000	63.899278 
1517.000000	63.904595 
1516.000000	63.913178 
1515.000000	63.924837 
1514.000000	63.938832 
1513.000000	63.954067 
1512.000000	63.969302 
1511.000000	63.983511 
1510.000000	63.995647 
1509.000000	64.004898 
1508.000000	64.010906 
1507.000000	64.013218 
1506.000000	64.011406 
1505.000000	64.004921 
1504.000000	63.993263 
1503.000000	63.976168 
1502.000000	63.953971 
1501.000000	63.927793 
1500.000000	63.899755 
1499.000000	63.872933 
1498.000000	63.850712 
1497.000000	63.836050 
1496.000000	63.830900 
1495.000000	63.835597 
1494.000000	63.848757 
1493.000000	63.867735 
1492.000000	63.889336 
1491.000000	63.910388 
1490.000000	63.928508 
1489.000000	63.942098 
1488.000000	63.950634 
1487.000000	63.954448 
1486.000000	63.954305 
1485.000000	63.951134 
1484.000000	63.945794 
1483.000000	63.939189 
1482.000000	63.931751 
1481.000000	63.923907 
1480.000000	63.915824 
1479.000000	63.907742 
1478.000000	63.899779 
1477.000000	63.891863 
1476.000000	63.883757 
1475.000000	63.875031 
1474.000000	63.865113 
1473.000000	63.853502 
1472.000000	63.839912 
1471.000000	63.824439 
1470.000000	63.807559 
1469.000000	63.790297 
1468.000000	63.774061 
1467.000000	63.760590 
1466.000000	63.751530 
1465.000000	63.748431 
1464.000000	63.752365 
1463.000000	63.763618 
1462.000000	63.781666 
1461.000000	63.804984 
1460.000000	63.831257 
1459.000000	63.857746 
1458.000000	63.881587 
1457.000000	63.900613 
1456.000000	63.913393 
1455.000000	63.919663 
1454.000000	63.920068 
1453.000000	63.916015 
1452.000000	63.909268 
1451.000000	63.901281 
1450.000000	63.893032 
1449.000000	63.884639 
1448.000000	63.875532 
1447.000000	63.864898 
1446.000000	63.852167 
1445.000000	63.837218 
1444.000000	63.820862 
1443.000000	63.804674 
1442.000000	63.790798 
1441.000000	63.781261 
1440.000000	63.777589 
1439.000000	63.780283 
1438.000000	63.789033 
1437.000000	63.802480 
1436.000000	63.818860 
1435.000000	63.836169 
1434.000000	63.853096 
1433.000000	63.868975 
1432.000000	63.884091 
1431.000000	63.899207 
1430.000000	63.915085 
1429.000000	63.932371 
1428.000000	63.950657 
1427.000000	63.968658 
1426.000000	63.983941 
1425.000000	63.993859 
1424.000000	63.995790 
1423.000000	63.988113 
1422.000000	63.970470 
1421.000000	63.944077 
1420.000000	63.911342 
1419.000000	63.875246 
1418.000000	63.838672 
1417.000000	63.803768 
1416.000000	63.771653 
1415.000000	63.742280 
1414.000000	63.714790 
1413.000000	63.688087 
1412.000000	63.661456 
1411.000000	63.635253 
1410.000000	63.610696 
1409.000000	63.590145 
1408.000000	63.576269 
1407.000000	63.571929 
1406.000000	63.578772 
1405.000000	63.597226 
1404.000000	63.626098 
1403.000000	63.662695 
1402.000000	63.703250 
1401.000000	63.743758 
1400.000000	63.780403 
1399.000000	63.810539 
1398.000000	63.832688 
1397.000000	63.846945 
1396.000000	63.854408 
1395.000000	63.856863 
1394.000000	63.856267 
1393.000000	63.853931 
1392.000000	63.850235 
1391.000000	63.844680 
1390.000000	63.836240 
1389.000000	63.823509 
1388.000000	63.805270 
1387.000000	63.781166 
1386.000000	63.751721 
1385.000000	63.718080 
1384.000000	63.682079 
1383.000000	63.645887 
1382.000000	63.611721 
1381.000000	63.581371 
1380.000000	63.556432 
1379.000000	63.538026 
1378.000000	63.526844 
1377.000000	63.523173 
1376.000000	63.526749 
1375.000000	63.536715 
1374.000000	63.551497 
1373.000000	63.568735 
1372.000000	63.585782 
1371.000000	63.599801 
1370.000000	63.608741 
1369.000000	63.611531 
1368.000000	63.608646 
1367.000000	63.601851 
1366.000000	63.593602 
1365.000000	63.586497 
1364.000000	63.582372 
1363.000000	63.581967 
1362.000000	63.584804 
1361.000000	63.589382 
1360.000000	63.594007 
1359.000000	63.597083 
1358.000000	63.597702 
1357.000000	63.595771 
1356.000000	63.592028 
1355.000000	63.587784 
1354.000000	63.584089 
1353.000000	63.581705 
1352.000000	63.580942 
1351.000000	63.581681 
1350.000000	63.583517 
1349.000000	63.586401 
1348.000000	63.590621 
1347.000000	63.596940 
1346.000000	63.606405 
1345.000000	63.619923 
1344.000000	63.637948 
1343.000000	63.660311 
1342.000000	63.686013 
1341.000000	63.713431 
1340.000000	63.740491 
1339.000000	63.764882 
1338.000000	63.784623 
1337.000000	63.798165 
1336.000000	63.804650 
1335.000000	63.803958 
1334.000000	63.796877 
1333.000000	63.785052 
1332.000000	63.770747 
1331.000000	63.756680 
1330.000000	63.745546 
1329.000000	63.739633 
1328.000000	63.740181 
1327.000000	63.747429 
1326.000000	63.760161 
1325.000000	63.775968 
1324.000000	63.791704 
1323.000000	63.804101 
1322.000000	63.810586 
1321.000000	63.809800 
1320.000000	63.801836 
1319.000000	63.788175 
1318.000000	63.771438 
1317.000000	63.754510 
1316.000000	63.739848 
1315.000000	63.729023 
1314.000000	63.722205 
1313.000000	63.718581 
1312.000000	63.716578 
1311.000000	63.714599 
1310.000000	63.711428 
1309.000000	63.706374 
1308.000000	63.699626 
1307.000000	63.691902 
1306.000000	63.683843 
1305.000000	63.675665 
1304.000000	63.667058 
1303.000000	63.657045 
1302.000000	63.644576 
1301.000000	63.628673 
1300.000000	63.609051 
1299.000000	63.586282 
1298.000000	63.561868 
1297.000000	63.538098 
1296.000000	63.517260 
1295.000000	63.501429 
1294.000000	63.491749 
1293.000000	63.488650 
1292.000000	63.491678 
1291.000000	63.499808 
1290.000000	63.511681 
1289.000000	63.525867 
1288.000000	63.540887 
1287.000000	63.555049 
1286.000000	63.566732 
1285.000000	63.574123 
1284.000000	63.575148 
1283.000000	63.568234 
1282.000000	63.552546 
1281.000000	63.528442 
1280.000000	63.497734 
1279.000000	63.463735 
1278.000000	63.430738 
1277.000000	63.403344 
1276.000000	63.385438 
1275.000000	63.379573 
1274.000000	63.386011 
1273.000000	63.402724 
1272.000000	63.425946 
1271.000000	63.450670 
1270.000000	63.472199 
1269.000000	63.486266 
1268.000000	63.490843 
1267.000000	63.485693 
1266.000000	63.473010 
1265.000000	63.456201 
1264.000000	63.439726 
1263.000000	63.427710 
1262.000000	63.423275 
1261.000000	63.428115 
1260.000000	63.442111 
1259.000000	63.463664 
1258.000000	63.490009 
1257.000000	63.517880 
1256.000000	63.544034 
1255.000000	63.565778 
1254.000000	63.581037 
1253.000000	63.588809 
1252.000000	63.588833 
1251.000000	63.581848 
1250.000000	63.569283 
1249.000000	63.553118 
1248.000000	63.536071 
1247.000000	63.520908 
1246.000000	63.510346 
1245.000000	63.506340 
1244.000000	63.510179 
1243.000000	63.521695 
1242.000000	63.539552 
1241.000000	63.561105 
1240.000000	63.582921 
1239.000000	63.601374 
1238.000000	63.613510 
1237.000000	63.617610 
1236.000000	63.613343 
1235.000000	63.601994 
1234.000000	63.586091 
1233.000000	63.568854 
1232.000000	63.553428 
1231.000000	63.542127 
1230.000000	63.535928 
1229.000000	63.534379 
1228.000000	63.535857 
1227.000000	63.538193 
1226.000000	63.539385 
1225.000000	63.537955 
1224.000000	63.533616 
1223.000000	63.527131 
1222.000000	63.520383 
1221.000000	63.515353 
1220.000000	63.513731 
1219.000000	63.516449 
1218.000000	63.523173 
1217.000000	63.532495 
1216.000000	63.542151 
1215.000000	63.549637 
1214.000000	63.552951 
1213.000000	63.550877 
1212.000000	63.543653 
1211.000000	63.532757 
1210.000000	63.520741 
1209.000000	63.510513 
1208.000000	63.504600 
1207.000000	63.504838 
1206.000000	63.511419 
1205.000000	63.523197 
1204.000000	63.537716 
1203.000000	63.551902 
1202.000000	63.562512 
1201.000000	63.567018 
1200.000000	63.564014 
1199.000000	63.553452 
1198.000000	63.536572 
1197.000000	63.515520 
1196.000000	63.492918 
1195.000000	63.471364 
1194.000000	63.452935 
1193.000000	63.438916 
1192.000000	63.430023 
1191.000000	63.426208 
1190.000000	63.427114 
1189.000000	63.431906 
1188.000000	63.439583 
1187.000000	63.449001 
1186.000000	63.458919 
1185.000000	63.468241 
1184.000000	63.475966 
1183.000000	63.481426 
1182.000000	63.484430 
1181.000000	63.484978 
1180.000000	63.483476 
1179.000000	63.480138 
1178.000000	63.475179 
1177.000000	63.468384 
1176.000000	63.459181 
1175.000000	63.446617 
1174.000000	63.429927 
1173.000000	63.408756 
1172.000000	63.383316 
1171.000000	63.354635 
1170.000000	63.324666 
1169.000000	63.295602 
1168.000000	63.269662 
1167.000000	63.248682 
1166.000000	63.233828 
1165.000000	63.225603 
1164.000000	63.224053 
1163.000000	63.228631 
1162.000000	63.238835 
1161.000000	63.253903 
1160.000000	63.273239 
1159.000000	63.296031 
1158.000000	63.321399 
1157.000000	63.348174 
1156.000000	63.375234 
1155.000000	63.401079 
1154.000000	63.424253 
1153.000000	63.443589 
1152.000000	63.458275 
1151.000000	63.468003 
1150.000000	63.472938 
1149.000000	63.474035 
1148.000000	63.472676 
1147.000000	63.470649 
1146.000000	63.470101 
1145.000000	63.472890 
1144.000000	63.480639 
1143.000000	63.494086 
1142.000000	63.512492 
1141.000000	63.533425 
1140.000000	63.553357 
1139.000000	63.568162 
1138.000000	63.574004 
1137.000000	63.568472 
1136.000000	63.551211 
1135.000000	63.523912 
1134.000000	63.489913 
1133.000000	63.453412 
1132.000000	63.418436 
1131.000000	63.388276 
1130.000000	63.365101 
1129.000000	63.349437 
1128.000000	63.340592 
1127.000000	63.336753 
1126.000000	63.335299 
1125.000000	63.333439 
1124.000000	63.328528 
1123.000000	63.319206 
1122.000000	63.305640 
1121.000000	63.289523 
1120.000000	63.273715 
1119.000000	63.261532 
1118.000000	63.255882 
1117.000000	63.258433 
1116.000000	63.269305 
1115.000000	63.287186 
1114.000000	63.309526 
1113.000000	63.333368 
1112.000000	63.355970 
1111.000000	63.375163 
1110.000000	63.390016 
1109.000000	63.400387 
1108.000000	63.407349 
1107.000000	63.412451 
1106.000000	63.417553 
1105.000000	63.424563 
1104.000000	63.434696 
1103.000000	63.448286 
1102.000000	63.464546 
1101.000000	63.482141 
1100.000000	63.498950 
1099.000000	63.512539 
1098.000000	63.520550 
1097.000000	63.521552 
1096.000000	63.515114 
1095.000000	63.502001 
1094.000000	63.484025 
1093.000000	63.463735 
1092.000000	63.444137 
1091.000000	63.427829 
1090.000000	63.416576 
1089.000000	63.410925 
1088.000000	63.410091 
1087.000000	63.412356 
1086.000000	63.415217 
1085.000000	63.416528 
1084.000000	63.414883 
1083.000000	63.410258 
1082.000000	63.403701 
1081.000000	63.397645 
1080.000000	63.394808 
1079.000000	63.398122 
1078.000000	63.409447 
1077.000000	63.429498 
1076.000000	63.457655 
1075.000000	63.491725 
1074.000000	63.528704 
1073.000000	63.564991 
1072.000000	63.597059 
1071.000000	63.621544 
1070.000000	63.635993 
1069.000000	63.638758 
1068.000000	63.629460 
1067.000000	63.608741 
1066.000000	63.578271 
1065.000000	63.540410 
1064.000000	63.498020 
1063.000000	63.454246 
1062.000000	63.412070 
1061.000000	63.373851 
1060.000000	63.341116 
1059.000000	63.314533 
1058.000000	63.294148 
1057.000000	63.279318 
1056.000000	63.269567 
1055.000000	63.264203 
1054.000000	63.263177 
1053.000000	63.266634 
1052.000000	63.275051 
1051.000000	63.288593 
1050.000000	63.306999 
1049.000000	63.329243 
1048.000000	63.353228 
1047.000000	63.376235 
1046.000000	63.395094 
1045.000000	63.406944 
1044.000000	63.409781 
1043.000000	63.402724 
1042.000000	63.386464 
1041.000000	63.363122 
1040.000000	63.335943 
1039.000000	63.308644 
1038.000000	63.284707 
1037.000000	63.266849 
1036.000000	63.256597 
1035.000000	63.253951 
1034.000000	63.257551 
1033.000000	63.264799 
1032.000000	63.272738 
1031.000000	63.278698 
1030.000000	63.280558 
1029.000000	63.277673 
1028.000000	63.270640 
1027.000000	63.261389 
1026.000000	63.252496 
1025.000000	63.246583 
1024.000000	63.245844 
1023.000000	63.250923 
1022.000000	63.260889 
1021.000000	63.273191 
1020.000000	63.284420 
1019.000000	63.290953 
1018.000000	63.289952 
1017.000000	63.280153 
1016.000000	63.262367 
1015.000000	63.239431 
1014.000000	63.215637 
1013.000000	63.195919 
1012.000000	63.184642 
1011.000000	63.184857 
1010.000000	63.197517 
1009.000000	63.221454 
1008.000000	63.253545 
1007.000000	63.289475 
1006.000000	63.324618 
1005.000000	63.354754 
1004.000000	63.376855 
1003.000000	63.389277 
1002.000000	63.392138 
1001.000000	63.386726 
1000.000000	63.375544 
999.000000	 63.361692 
998.000000	 63.348412 
997.000000	 63.338851 
996.000000	 63.335227 
995.000000	 63.338685 
994.000000	 63.349056 
993.000000	 63.365173 
992.000000	 63.385081 
991.000000	 63.406610 
990.000000	 63.427829 
989.000000	 63.447308 
988.000000	 63.464403 
987.000000	 63.478875 
986.000000	 63.490796 
985.000000	 63.499903 
984.000000	 63.505554 
983.000000	 63.506627 
982.000000	 63.501787 
981.000000	 63.489651 
980.000000	 63.469767 
979.000000	 63.442611 
978.000000	 63.409972 
977.000000	 63.374686 
976.000000	 63.339996 
975.000000	 63.309240 
974.000000	 63.284969 
973.000000	 63.268828 
972.000000	 63.261556 
971.000000	 63.263082 
970.000000	 63.272571 
969.000000	 63.289189 
968.000000	 63.311791 
967.000000	 63.339400 
966.000000	 63.370633 
965.000000	 63.403844 
964.000000	 63.436913 
963.000000	 63.467454 
962.000000	 63.492941 
961.000000	 63.510894 
960.000000	 63.519287 
959.000000	 63.516831 
958.000000	 63.503336 
957.000000	 63.479590 
956.000000	 63.447380 
955.000000	 63.409185 
954.000000	 63.368153 
953.000000	 63.327813 
952.000000	 63.291692 
951.000000	 63.263034 
950.000000	 63.244342 
949.000000	 63.237190 
948.000000	 63.241863 
947.000000	 63.257241 
946.000000	 63.280630 
945.000000	 63.308215 
944.000000	 63.335514 
943.000000	 63.358020 
942.000000	 63.372349 
941.000000	 63.376402 
940.000000	 63.370275 
939.000000	 63.355970 
938.000000	 63.337254 
937.000000	 63.318800 
936.000000	 63.305401 
935.000000	 63.300919 
934.000000	 63.307571 
933.000000	 63.325619 
932.000000	 63.353157 
931.000000	 63.386392 
930.000000	 63.420414 
929.000000	 63.449883 
928.000000	 63.469839 
927.000000	 63.476538 
926.000000	 63.467860 
925.000000	 63.443636 
924.000000	 63.405966 
923.000000	 63.358688 
922.000000	 63.307070 
921.000000	 63.256764 
920.000000	 63.213396 
919.000000	 63.181543 
918.000000	 63.164138 
917.000000	 63.162112 
916.000000	 63.174319 
915.000000	 63.198161 
914.000000	 63.229870 
913.000000	 63.265657 
912.000000	 63.301777 
911.000000	 63.335633 
910.000000	 63.365507 
909.000000	 63.390612 
908.000000	 63.410758 
907.000000	 63.425755 
906.000000	 63.435125 
905.000000	 63.438344 
904.000000	 63.435029 
903.000000	 63.425278 
902.000000	 63.409805 
901.000000	 63.390588 
900.000000	 63.370299 
899.000000	 63.351893 
898.000000	 63.337945 
897.000000	 63.329887 
896.000000	 63.327646 
895.000000	 63.330054 
894.000000	 63.335108 
893.000000	 63.340353 
892.000000	 63.344025 
891.000000	 63.345241 
890.000000	 63.344359 
889.000000	 63.342618 
888.000000	 63.341808 
887.000000	 63.343310 
886.000000	 63.348102 
885.000000	 63.356041 
884.000000	 63.366365 
883.000000	 63.378047 
882.000000	 63.390254 
881.000000	 63.402581 
880.000000	 63.415622 
879.000000	 63.430738 
878.000000	 63.449645 
877.000000	 63.473629 
876.000000	 63.503360 
875.000000	 63.538122 
874.000000	 63.575911 
873.000000	 63.613295 
872.000000	 63.645935 
871.000000	 63.669109 
870.000000	 63.678622 
869.000000	 63.671493 
868.000000	 63.646531 
867.000000	 63.604640 
866.000000	 63.549065 
865.000000	 63.485026 
864.000000	 63.419008 
863.000000	 63.357639 
862.000000	 63.307094 
861.000000	 63.271450 
860.000000	 63.252520 
859.000000	 63.249325 
858.000000	 63.258481 
857.000000	 63.275098 
856.000000	 63.293790 
855.000000	 63.310098 
854.000000	 63.320922 
853.000000	 63.325119 
852.000000	 63.323068 
851.000000	 63.316082 
850.000000	 63.305807 
849.000000	 63.293528 
848.000000	 63.279819 
847.000000	 63.264656 
846.000000	 63.247513 
845.000000	 63.228344 
844.000000	 63.207626 
843.000000	 63.186764 
842.000000	 63.167762 
841.000000	 63.152933 
840.000000	 63.144373 
839.000000	 63.142919 
838.000000	 63.148283 
837.000000	 63.158726 
836.000000	 63.171768 
835.000000	 63.184738 
834.000000	 63.195610 
833.000000	 63.203191 
832.000000	 63.207840 
831.000000	 63.211250 
830.000000	 63.216114 
829.000000	 63.225197 
828.000000	 63.240814 
827.000000	 63.263916 
826.000000	 63.294029 
825.000000	 63.329100 
824.000000	 63.365936 
823.000000	 63.400626 
822.000000	 63.429570 
821.000000	 63.449978 
820.000000	 63.460421 
819.000000	 63.460850 
818.000000	 63.452196 
817.000000	 63.436031 
816.000000	 63.414382 
815.000000	 63.389205 
814.000000	 63.362312 
813.000000	 63.335275 
812.000000	 63.309860 
811.000000	 63.287711 
810.000000	 63.270473 
809.000000	 63.259387 
808.000000	 63.255286 
807.000000	 63.257884 
806.000000	 63.266110 
805.000000	 63.277459 
804.000000	 63.288450 
803.000000	 63.295316 
802.000000	 63.294577 
801.000000	 63.283729 
800.000000	 63.261699 
799.000000	 63.229417 
798.000000	 63.189959 
797.000000	 63.147783 
796.000000	 63.108134 
795.000000	 63.075971 
794.000000	 63.055276 
793.000000	 63.048171 
792.000000	 63.054728 
791.000000	 63.073134 
790.000000	 63.100337 
789.000000	 63.132548 
788.000000	 63.166284 
787.000000	 63.198781 
786.000000	 63.228249 
785.000000	 63.254022 
784.000000	 63.276052 
783.000000	 63.294482 
782.000000	 63.309097 
781.000000	 63.319611 
780.000000	 63.324713 
779.000000	 63.322710 
778.000000	 63.311553 
777.000000	 63.290023 
776.000000	 63.257551 
775.000000	 63.215160 
774.000000	 63.165187 
773.000000	 63.111209 
772.000000	 63.057565 
771.000000	 63.008832 
770.000000	 62.969136 
769.000000	 62.941527 
768.000000	 62.928152 
767.000000	 62.929868 
766.000000	 62.946367 
765.000000	 62.976145 
764.000000	 63.016295 
763.000000	 63.063001 
762.000000	 63.111162 
761.000000	 63.155555 
760.000000	 63.191318 
759.000000	 63.215184 
758.000000	 63.225507 
757.000000	 63.223218 
756.000000	 63.211846 
755.000000	 63.196778 
754.000000	 63.184213 
753.000000	 63.179516 
752.000000	 63.186407 
751.000000	 63.205218 
750.000000	 63.233661 
749.000000	 63.266301 
748.000000	 63.296222 
747.000000	 63.316249 
746.000000	 63.321113 
745.000000	 63.307976 
744.000000	 63.277220 
743.000000	 63.232684 
742.000000	 63.180565 
741.000000	 63.128328 
740.000000	 63.082838 
739.000000	 63.049292 
738.000000	 63.029599 
737.000000	 63.022255 
736.000000	 63.022303 
735.000000	 63.022327 
734.000000	 63.014483 
733.000000	 62.992405 
732.000000	 62.953233 
731.000000	 62.897610 
730.000000	 62.830853 
729.000000	 62.761425 
728.000000	 62.699651 
727.000000	 62.654948 
726.000000	 62.634062 
725.000000	 62.639427 
724.000000	 62.669086 
723.000000	 62.717151 
722.000000	 62.775707 
721.000000	 62.836289 
720.000000	 62.892150 
719.000000	 62.939500 
718.000000	 62.977123 
717.000000	 63.005280 
716.000000	 63.025021 
715.000000	 63.037061 
714.000000	 63.040733 
713.000000	 63.033962 
712.000000	 63.014578 
711.000000	 62.980794 
710.000000	 62.931799 
709.000000	 62.868499 
708.000000	 62.794137 
707.000000	 62.713837 
706.000000	 62.633562 
705.000000	 62.559485 
704.000000	 62.496447 
703.000000	 62.448310 
702.000000	 62.417101 
701.000000	 62.404227 
700.000000	 62.409281 
699.000000	 62.432098 
698.000000	 62.471437 
697.000000	 62.527155 
696.000000	 62.598109 
695.000000	 62.684273 
694.000000	 62.785100 
693.000000	 62.899947 
692.000000	 63.026547 
691.000000	 63.160705 
690.000000	 63.295912 
689.000000	 63.423943 
688.000000	 63.536024 
687.000000	 63.625621 
686.000000	 63.689589 
685.000000	 63.729882 
684.000000	 63.752055 
683.000000	 63.763928 
682.000000	 63.772201 
681.000000	 63.781023 
680.000000	 63.789844 
679.000000	 63.794469 
678.000000	 63.787555 
677.000000	 63.762521 
676.000000	 63.714718 
675.000000	 63.644599 
674.000000	 63.557291 
673.000000	 63.461756 
672.000000	 63.369131 
671.000000	 63.290476 
670.000000	 63.233900 
669.000000	 63.202142 
668.000000	 63.193392 
667.000000	 63.202404 
666.000000	 63.221907 
665.000000	 63.244414 
664.000000	 63.264179 
663.000000	 63.278102 
662.000000	 63.285660 
661.000000	 63.288116 
660.000000	 63.287949 
659.000000	 63.287496 
658.000000	 63.288259 
657.000000	 63.290119 
656.000000	 63.291740 
655.000000	 63.290333 
654.000000	 63.282990 
653.000000	 63.266396 
652.000000	 63.238668 
651.000000	 63.197898 
650.000000	 63.144207 
649.000000	 63.076829 
648.000000	 62.995648 
647.000000	 62.899112 
646.000000	 62.786102 
645.000000	 62.655162 
644.000000	 62.505221 
643.000000	 62.338042 
642.000000	 62.158989 
641.000000	 61.978411 
640.000000	 61.809539 
639.000000	 61.668992 
638.000000	 61.573052 
637.000000	 61.535310 
636.000000	 61.562514 
635.000000	 61.653351 
634.000000	 61.797690 
633.000000	 61.978650 
632.000000	 62.175607 
631.000000	 62.367510 
630.000000	 62.536263 
629.000000	 62.669444 
628.000000	 62.761235 
627.000000	 62.811207 
626.000000	 62.823367 
625.000000	 62.803983 
624.000000	 62.760353 
623.000000	 62.699437 
622.000000	 62.628388 
621.000000	 62.555050 
620.000000	 62.488579 
619.000000	 62.439942 
618.000000	 62.421059 
617.000000	 62.442898 
616.000000	 62.513422 
615.000000	 62.635302 
614.000000	 62.804007 
613.000000	 63.006830 
612.000000	 63.225317 
611.000000	 63.438391 
610.000000	 63.625240 
609.000000	 63.768768 
608.000000	 63.859128 
607.000000	 63.894748 
606.000000	 63.881087 
605.000000	 63.828182 
604.000000	 63.748192 
603.000000	 63.651919 
602.000000	 63.547754 
601.000000	 63.439917 
600.000000	 63.329815 
599.000000	 63.216519 
598.000000	 63.100695 
597.000000	 62.984514 
596.000000	 62.871909 
595.000000	 62.768650 
594.000000	 62.680053 
593.000000	 62.611198 
592.000000	 62.563538 
591.000000	 62.537670 
590.000000	 62.531828 
589.000000	 62.544989 
588.000000	 62.575864 
587.000000	 62.625002 
586.000000	 62.693524 
585.000000	 62.782073 
584.000000	 62.888956 
583.000000	 63.009643 
582.000000	 63.136124 
581.000000	 63.257670 
580.000000	 63.362073 
579.000000	 63.438677 
578.000000	 63.480067 
577.000000	 63.483667 
576.000000	 63.451695 
575.000000	 63.390159 
574.000000	 63.307380 
573.000000	 63.212919 
572.000000	 63.115882 
571.000000	 63.024139 
570.000000	 62.943553 
569.000000	 62.879753 
568.000000	 62.836194 
567.000000	 62.814640 
566.000000	 62.814021 
565.000000	 62.830686 
564.000000	 62.858533 
563.000000	 62.889027 
562.000000	 62.914085 
561.000000	 62.926435 
560.000000	 62.922549 
559.000000	 62.902808 
558.000000	 62.872028 
557.000000	 62.838125 
556.000000	 62.810063 
555.000000	 62.795686 
554.000000	 62.799453 
553.000000	 62.821269 
552.000000	 62.858080 
551.000000	 62.904810 
550.000000	 62.955713 
549.000000	 63.005685 
548.000000	 63.051867 
547.000000	 63.093543 
546.000000	 63.130831 
545.000000	 63.164091 
544.000000	 63.193106 
543.000000	 63.216567 
542.000000	 63.232755 
541.000000	 63.239336 
540.000000	 63.234472 
539.000000	 63.217258 
538.000000	 63.188815 
537.000000	 63.152241 
536.000000	 63.112020 
535.000000	 63.073778 
534.000000	 63.043093 
533.000000	 63.025021 
532.000000	 63.023495 
531.000000	 63.039898 
530.000000	 63.072991 
529.000000	 63.117122 
528.000000	 63.162970 
527.000000	 63.198304 
526.000000	 63.210582 
525.000000	 63.188791 
524.000000	 63.126683 
523.000000	 63.024783 
522.000000	 62.891125 
521.000000	 62.739729 
520.000000	 62.588047 
519.000000	 62.453389 
518.000000	 62.349367 
517.000000	 62.284064 
516.000000	 62.258076 
515.000000	 62.265443 
514.000000	 62.295198 
513.000000	 62.334299 
512.000000	 62.370634 
511.000000	 62.394261 
510.000000	 62.400174 
509.000000	 62.386941 
508.000000	 62.357902 
507.000000	 62.317895 
506.000000	 62.273931 
505.000000	 62.232565 
504.000000	 62.200522 
503.000000	 62.183713 
502.000000	 62.186980 
501.000000	 62.213635 
500.000000	 62.264966 
499.000000	 62.339735 
498.000000	 62.434077 
497.000000	 62.541484 
496.000000	 62.653064 
495.000000	 62.758636 
494.000000	 62.848496 
493.000000	 62.914633 
492.000000	 62.952375 
491.000000	 62.960743 
490.000000	 62.942671 
489.000000	 62.904095 
488.000000	 62.853693 
487.000000	 62.800192 
486.000000	 62.750649 
485.000000	 62.709760 
484.000000	 62.680029 
483.000000	 62.662339 
482.000000	 62.657237 
481.000000	 62.665104 
480.000000	 62.686967 
479.000000	 62.723374 
478.000000	 62.773799 
477.000000	 62.835264 
476.000000	 62.901830 
475.000000	 62.965178 
474.000000	 63.015675 
473.000000	 63.044142 
472.000000	 63.043713 
471.000000	 63.010287 
470.000000	 62.943696 
469.000000	 62.847971 
468.000000	 62.730979 
467.000000	 62.602591 
466.000000	 62.473845 
465.000000	 62.355899 
464.000000	 62.258601 
463.000000	 62.190151 
462.000000	 62.155246 
461.000000	 62.154459 
460.000000	 62.183880 
459.000000	 62.234902 
458.000000	 62.296414 
457.000000	 62.354874 
456.000000	 62.399196 
455.000000	 62.421870 
454.000000	 62.421083 
453.000000	 62.400484 
452.000000	 62.367010 
451.000000	 62.328386 
450.000000	 62.290716 
449.000000	 62.256002 
448.000000	 62.224721 
447.000000	 62.196993 
446.000000	 62.174606 
445.000000	 62.162065 
444.000000	 62.169313 
443.000000	 62.209558 
442.000000	 62.294220 
441.000000	 62.429189 
440.000000	 62.612199 
439.000000	 62.830805 
438.000000	 63.064336 
437.000000	 63.286519 
436.000000	 63.469815 
435.000000	 63.591575 
434.000000	 63.640332 
433.000000	 63.616824 
432.000000	 63.534498 
431.000000	 63.414144 
430.000000	 63.279628 
429.000000	 63.151025 
428.000000	 63.043022 
427.000000	 62.959957 
426.000000	 62.898588 
425.000000	 62.848997 
424.000000	 62.802100 
423.000000	 62.747335 
422.000000	 62.676644 
421.000000	 62.582468 
420.000000	 62.458992 
419.000000	 62.298989 
418.000000	 62.095737 
417.000000	 61.841869 
416.000000	 61.535000 
415.000000	 61.180400 
414.000000	 60.796904 
413.000000	 60.424804 
412.000000	 60.118246 
411.000000	 59.931898 
410.000000	 59.906101 
409.000000	 60.057067 
408.000000	 60.366415 
407.000000	 60.775351 
406.000000	 61.201286 
405.000000	 61.558771 
404.000000	 61.776041 
403.000000	 61.817169 
402.000000	 61.679410 
401.000000	 61.384963 
400.000000	 60.976696 
399.000000	 60.516023 
398.000000	 60.049867 
397.000000	 59.585714 
396.000000	 59.128522 
395.000000	 58.697199 
394.000000	 58.314561 
393.000000	 58.007836 
392.000000	 57.815432 
391.000000	 57.775235 
390.000000	 57.898998 
389.000000	 58.158206 
388.000000	 58.473134 
387.000000	 58.723664 
386.000000	 58.769917 
385.000000	 58.487629 
384.000000	 57.812190 
383.000000	 56.753420 
382.000000	 55.394840 
381.000000	 53.881072 
380.000000	 52.367091 
379.000000	 51.019334 
378.000000	 49.943208 
377.000000	 49.246525 
376.000000	 48.991632 
375.000000	 49.287295 
374.000000	 50.223851 
373.000000	 51.965069 
372.000000	 54.677438 
371.000000	 58.529400 
370.000000	 63.621354 

