PE IR       SPECTRUM    SPECTRUM    ASCII       PEDS        1.60        
  -1
BZ6134~1.ASC
17/04/07
17:17:31.00
17/04/07
17:17:31.00
tln
$BZ1503107-1_t0049$<tbV0>[2.6,-2.6,8.0,0.0,27,1,0]
370.000000
64









2002,4.07    
MIRTGS : RIGHTBACK : INTERNAL 2
MIR : ON : INTERNAL 2
OPTKBR

0.200000
8
8.000000
FILLER
RATIO
SPECTRUM
UNLOCKED 256

DOUBLE
64
COMBINED
1
0
0


1.000000
RATIO


1
0
TRUE
51149
0
LEFT NOT FITTED RIGHT NOT FITTED 0
NONE
NONE
15600
12.000000
4.427000
51148
TRUE
1 0 8 72 0 0 0 0 

15798.010000






#HDR
-1
-1
#GR
CM-1
%T
0.00002384185791015625
0.0
5000.000000
-1.000000
4631
8
83.060145
55.719113
#DATA
5000.000000	67.533540 
4999.000000	67.873120 
4998.000000	67.980337 
4997.000000	67.830061 
4996.000000	67.440128 
4995.000000	66.867280 
4994.000000	66.194653 
4993.000000	65.516734 
4992.000000	64.916753 
4991.000000	64.453887 
4990.000000	64.151644 
4989.000000	64.002275 
4988.000000	63.970017 
4987.000000	64.006209 
4986.000000	64.062476 
4985.000000	64.103531 
4984.000000	64.112567 
4983.000000	64.091968 
4982.000000	64.057135 
4981.000000	64.028716 
4980.000000	64.025521 
4979.000000	64.057970 
4978.000000	64.124917 
4977.000000	64.214181 
4976.000000	64.308476 
4975.000000	64.390301 
4974.000000	64.446616 
4973.000000	64.473700 
4972.000000	64.477229 
4971.000000	64.472341 
4970.000000	64.476656 
4969.000000	64.507651 
4968.000000	64.578247 
4967.000000	64.691901 
4966.000000	64.843392 
4965.000000	65.016269 
4964.000000	65.186929 
4963.000000	65.329217 
4962.000000	65.422344 
4961.000000	65.452980 
4960.000000	65.417313 
4959.000000	65.325021 
4958.000000	65.197205 
4957.000000	65.060162 
4956.000000	64.939117 
4955.000000	64.852643 
4954.000000	64.807915 
4953.000000	64.799952 
4952.000000	64.812660 
4951.000000	64.823794 
4950.000000	64.810943 
4949.000000	64.756679 
4948.000000	64.654803 
4947.000000	64.510226 
4946.000000	64.340829 
4945.000000	64.171123 
4944.000000	64.030170 
4943.000000	63.941884 
4942.000000	63.924050 
4941.000000	63.984346 
4940.000000	64.119935 
4939.000000	64.318227 
4938.000000	64.559698 
4937.000000	64.821743 
4936.000000	65.081071 
4935.000000	65.316152 
4934.000000	65.509462 
4933.000000	65.648674 
4932.000000	65.726852 
4931.000000	65.742182 
4930.000000	65.698933 
4929.000000	65.606546 
4928.000000	65.479373 
4927.000000	65.334916 
4926.000000	65.191674 
4925.000000	65.066719 
4924.000000	64.974617 
4923.000000	64.924979 
4922.000000	64.921259 
4921.000000	64.960646 
4920.000000	65.035033 
4919.000000	65.132331 
4918.000000	65.238595 
4917.000000	65.339994 
4916.000000	65.424132 
4915.000000	65.482044 
4914.000000	65.507888 
4913.000000	65.500140 
4912.000000	65.461301 
4911.000000	65.396928 
4910.000000	65.315079 
4909.000000	65.224409 
4908.000000	65.133738 
4907.000000	65.050363 
4906.000000	64.980173 
4905.000000	64.925932 
4904.000000	64.887452 
4903.000000	64.863657 
4902.000000	64.853620 
4901.000000	64.856314 
4900.000000	64.870786 
4899.000000	64.896130 
4898.000000	64.931201 
4897.000000	64.973258 
4896.000000	65.018177 
4895.000000	65.060114 
4894.000000	65.093064 
4893.000000	65.112209 
4892.000000	65.115237 
4891.000000	65.102434 
4890.000000	65.077209 
4889.000000	65.045881 
4888.000000	65.015721 
4887.000000	64.993762 
4886.000000	64.984726 
4885.000000	64.990448 
4884.000000	65.008831 
4883.000000	65.035319 
4882.000000	65.062832 
4881.000000	65.084314 
4880.000000	65.092706 
4879.000000	65.082430 
4878.000000	65.050125 
4877.000000	64.995217 
4876.000000	64.919710 
4875.000000	64.827728 
4874.000000	64.725589 
4873.000000	64.620995 
4872.000000	64.521646 
4871.000000	64.434814 
4870.000000	64.366149 
4869.000000	64.319729 
4868.000000	64.297890 
4867.000000	64.301729 
4866.000000	64.330029 
4865.000000	64.380693 
4864.000000	64.450287 
4863.000000	64.534974 
4862.000000	64.628982 
4861.000000	64.726471 
4860.000000	64.821195 
4859.000000	64.907836 
4858.000000	64.981698 
4857.000000	65.040183 
4856.000000	65.082740 
4855.000000	65.110802 
4854.000000	65.127778 
4853.000000	65.137076 
4852.000000	65.141510 
4851.000000	65.142560 
4850.000000	65.140771 
4849.000000	65.135645 
4848.000000	65.126371 
4847.000000	65.112900 
4846.000000	65.096163 
4845.000000	65.077400 
4844.000000	65.057849 
4843.000000	65.038084 
4842.000000	65.017843 
4841.000000	64.995360 
4840.000000	64.968037 
4839.000000	64.933753 
4838.000000	64.891338 
4837.000000	64.841413 
4836.000000	64.786219 
4835.000000	64.729309 
4834.000000	64.674735 
4833.000000	64.625811 
4832.000000	64.585041 
4831.000000	64.552712 
4830.000000	64.528751 
4829.000000	64.512872 
4828.000000	64.505815 
4827.000000	64.508724 
4826.000000	64.523863 
4825.000000	64.553403 
4824.000000	64.598035 
4823.000000	64.655637 
4822.000000	64.721655 
4821.000000	64.789533 
4820.000000	64.851760 
4819.000000	64.901423 
4818.000000	64.934158 
4817.000000	64.948797 
4816.000000	64.947724 
4815.000000	64.935708 
4814.000000	64.918398 
4813.000000	64.900541 
4812.000000	64.885282 
4811.000000	64.873409 
4810.000000	64.863371 
4809.000000	64.852666 
4808.000000	64.839792 
4807.000000	64.824867 
4806.000000	64.810228 
4805.000000	64.799737 
4804.000000	64.798116 
4803.000000	64.808726 
4802.000000	64.832043 
4801.000000	64.864945 
4800.000000	64.901447 
4799.000000	64.933109 
4798.000000	64.950847 
4797.000000	64.947104 
4796.000000	64.917778 
4795.000000	64.862799 
4794.000000	64.786672 
4793.000000	64.696836 
4792.000000	64.602494 
4791.000000	64.512968 
4790.000000	64.436769 
4789.000000	64.380002 
4788.000000	64.346623 
4787.000000	64.338803 
4786.000000	64.357161 
4785.000000	64.400577 
4784.000000	64.466142 
4783.000000	64.548563 
4782.000000	64.640998 
4781.000000	64.734029 
4780.000000	64.818978 
4779.000000	64.887928 
4778.000000	64.937043 
4777.000000	64.966440 
4776.000000	64.981150 
4775.000000	64.989590 
4774.000000	65.001344 
4773.000000	65.025115 
4772.000000	65.065193 
4771.000000	65.120720 
4770.000000	65.185189 
4769.000000	65.248489 
4768.000000	65.298771 
4767.000000	65.325522 
4766.000000	65.322327 
4765.000000	65.288662 
4764.000000	65.229344 
4763.000000	65.153455 
4762.000000	65.072226 
4761.000000	64.996314 
4760.000000	64.933562 
4759.000000	64.887714 
4758.000000	64.858818 
4757.000000	64.843368 
4756.000000	64.836215 
4755.000000	64.831972 
4754.000000	64.825916 
4753.000000	64.815711 
4752.000000	64.801478 
4751.000000	64.785647 
4750.000000	64.770960 
4749.000000	64.760708 
4748.000000	64.757370 
4747.000000	64.762663 
4746.000000	64.776539 
4745.000000	64.798712 
4744.000000	64.829087 
4743.000000	64.867830 
4742.000000	64.914846 
4741.000000	64.969539 
4740.000000	65.030241 
4739.000000	65.093469 
4738.000000	65.154170 
4737.000000	65.206789 
4736.000000	65.246152 
4735.000000	65.268921 
4734.000000	65.273785 
4733.000000	65.262365 
4732.000000	65.237784 
4731.000000	65.204739 
4730.000000	65.167474 
4729.000000	65.128612 
4728.000000	65.088820 
4727.000000	65.047812 
4726.000000	65.004730 
4725.000000	64.959359 
4724.000000	64.912843 
4723.000000	64.868593 
4722.000000	64.830780 
4721.000000	64.803028 
4720.000000	64.787364 
4719.000000	64.782977 
4718.000000	64.786553 
4717.000000	64.793062 
4716.000000	64.796829 
4715.000000	64.792990 
4714.000000	64.778590 
4713.000000	64.753198 
4712.000000	64.718389 
4711.000000	64.677357 
4710.000000	64.634108 
4709.000000	64.592623 
4708.000000	64.556217 
4707.000000	64.527058 
4706.000000	64.506340 
4705.000000	64.494824 
4704.000000	64.492344 
4703.000000	64.499115 
4702.000000	64.515113 
4701.000000	64.541602 
4700.000000	64.579272 
4699.000000	64.629817 
4698.000000	64.694857 
4697.000000	64.775252 
4696.000000	64.870691 
4695.000000	64.977717 
4694.000000	65.089702 
4693.000000	65.196800 
4692.000000	65.287613 
4691.000000	65.351176 
4690.000000	65.379452 
4689.000000	65.369939 
4688.000000	65.326738 
4687.000000	65.259599 
4686.000000	65.182137 
4685.000000	65.108895 
4684.000000	65.052318 
4683.000000	65.020489 
4682.000000	65.015530 
4681.000000	65.034151 
4680.000000	65.068769 
4679.000000	65.109992 
4678.000000	65.148639 
4677.000000	65.177655 
4676.000000	65.193080 
4675.000000	65.193676 
4674.000000	65.180516 
4673.000000	65.155291 
4672.000000	65.120029 
4671.000000	65.076279 
4670.000000	65.025639 
4669.000000	64.970111 
4668.000000	64.912700 
4667.000000	64.857792 
4666.000000	64.810466 
4665.000000	64.775919 
4664.000000	64.758372 
4663.000000	64.760255 
4662.000000	64.780998 
4661.000000	64.816856 
4660.000000	64.861464 
4659.000000	64.907073 
4658.000000	64.945840 
4657.000000	64.971351 
4656.000000	64.980006 
4655.000000	64.971494 
4654.000000	64.948534 
4653.000000	64.915871 
4652.000000	64.878606 
4651.000000	64.841413 
4650.000000	64.807367 
4649.000000	64.778184 
4648.000000	64.754962 
4647.000000	64.738631 
4646.000000	64.730477 
4645.000000	64.732170 
4644.000000	64.745473 
4643.000000	64.771437 
4642.000000	64.809393 
4641.000000	64.856719 
4640.000000	64.908599 
4639.000000	64.959430 
4638.000000	65.003800 
4637.000000	65.037703 
4636.000000	65.059256 
4635.000000	65.069437 
4634.000000	65.071678 
4633.000000	65.070056 
4632.000000	65.067958 
4631.000000	65.067076 
4630.000000	65.066719 
4629.000000	65.064096 
4628.000000	65.055036 
4627.000000	65.035629 
4626.000000	65.003228 
4625.000000	64.957785 
4624.000000	64.901852 
4623.000000	64.839649 
4622.000000	64.776825 
4621.000000	64.718842 
4620.000000	64.670276 
4619.000000	64.634013 
4618.000000	64.611124 
4617.000000	64.600539 
4616.000000	64.600586 
4615.000000	64.608836 
4614.000000	64.624071 
4613.000000	64.645791 
4612.000000	64.675164 
4611.000000	64.713501 
4610.000000	64.762401 
4609.000000	64.822030 
4608.000000	64.891076 
4607.000000	64.965891 
4606.000000	65.041327 
4605.000000	65.111303 
4604.000000	65.169763 
4603.000000	65.211677 
4602.000000	65.233635 
4601.000000	65.234088 
4600.000000	65.213680 
4599.000000	65.174794 
4598.000000	65.121293 
4597.000000	65.057897 
4596.000000	64.990019 
4595.000000	64.923644 
4594.000000	64.864540 
4593.000000	64.818120 
4592.000000	64.788913 
4591.000000	64.779973 
4590.000000	64.791774 
4589.000000	64.822673 
4588.000000	64.868617 
4587.000000	64.924287 
4586.000000	64.983558 
4585.000000	65.040874 
4584.000000	65.091943 
4583.000000	65.134263 
4582.000000	65.166878 
4581.000000	65.190029 
4580.000000	65.204501 
4579.000000	65.211224 
4578.000000	65.210723 
4577.000000	65.203285 
4576.000000	65.188741 
4575.000000	65.166974 
4574.000000	65.138244 
4573.000000	65.103435 
4572.000000	65.064191 
4571.000000	65.022969 
4570.000000	64.982867 
4569.000000	64.947128 
4568.000000	64.918971 
4567.000000	64.901161 
4566.000000	64.895606 
4565.000000	64.903163 
4564.000000	64.923477 
4563.000000	64.954447 
4562.000000	64.992809 
4561.000000	65.034365 
4560.000000	65.075016 
4559.000000	65.110921 
4558.000000	65.139770 
4557.000000	65.160441 
4556.000000	65.173459 
4555.000000	65.180587 
4554.000000	65.183973 
4553.000000	65.185308 
4552.000000	65.185976 
4551.000000	65.186643 
4550.000000	65.187335 
4549.000000	65.187788 
4548.000000	65.187740 
4547.000000	65.187168 
4546.000000	65.186429 
4545.000000	65.186023 
4544.000000	65.186452 
4543.000000	65.188026 
4542.000000	65.190482 
4541.000000	65.193319 
4540.000000	65.195703 
4539.000000	65.197372 
4538.000000	65.198183 
4537.000000	65.199136 
4536.000000	65.202116 
4535.000000	65.209174 
4534.000000	65.222287 
4533.000000	65.241932 
4532.000000	65.266895 
4531.000000	65.293931 
4530.000000	65.318512 
4529.000000	65.335655 
4528.000000	65.341520 
4527.000000	65.333867 
4526.000000	65.312981 
4525.000000	65.281724 
4524.000000	65.245008 
4523.000000	65.208220 
4522.000000	65.175938 
4521.000000	65.150594 
4520.000000	65.132164 
4519.000000	65.118503 
4518.000000	65.106225 
4517.000000	65.092515 
4516.000000	65.075445 
4515.000000	65.055131 
4514.000000	65.032529 
4513.000000	65.008163 
4512.000000	64.982295 
4511.000000	64.953184 
4510.000000	64.919590 
4509.000000	64.881086 
4508.000000	64.839839 
4507.000000	64.801168 
4506.000000	64.772176 
4505.000000	64.760231 
4504.000000	64.770054 
4503.000000	64.801383 
4502.000000	64.848542 
4501.000000	64.901328 
4500.000000	64.947056 
4499.000000	64.973926 
4498.000000	64.973711 
4497.000000	64.944028 
4496.000000	64.889049 
4495.000000	64.818382 
4494.000000	64.745020 
4493.000000	64.681696 
4492.000000	64.638304 
4491.000000	64.619541 
4490.000000	64.623308 
4489.000000	64.642548 
4488.000000	64.667892 
4487.000000	64.691042 
4486.000000	64.706897 
4485.000000	64.715218 
4484.000000	64.720988 
4483.000000	64.731121 
4482.000000	64.750909 
4481.000000	64.781618 
4480.000000	64.818596 
4479.000000	64.852738 
4478.000000	64.872670 
4477.000000	64.868450 
4476.000000	64.835548 
4475.000000	64.776015 
4474.000000	64.699244 
4473.000000	64.617872 
4472.000000	64.544034 
4471.000000	64.488697 
4470.000000	64.458751 
4469.000000	64.456629 
4468.000000	64.481306 
4467.000000	64.520978 
4466.000000	64.558672 
4465.000000	64.589762 
4464.000000	64.620447 
4463.000000	64.655756 
4462.000000	64.703655 
4461.000000	64.767789 
4460.000000	64.850401 
4459.000000	64.963483 
4458.000000	65.114974 
4457.000000	65.298700 
4456.000000	65.498542 
4455.000000	65.691471 
4454.000000	65.852975 
4453.000000	65.959167 
4452.000000	65.998959 
4451.000000	65.987920 
4450.000000	65.945959 
4449.000000	65.899991 
4448.000000	65.849614 
4447.000000	65.764045 
4446.000000	65.585517 
4445.000000	65.247106 
4444.000000	64.723873 
4443.000000	64.061117 
4442.000000	63.412332 
4441.000000	63.018751 
4440.000000	63.194918 
4439.000000	64.224052 
4438.000000	66.293644 
4437.000000	69.373559 
4436.000000	73.166561 
4435.000000	77.123689 
4434.000000	80.531835 
4433.000000	82.682895 
4432.000000	83.060145 
4431.000000	81.465458 
4430.000000	78.112959 
4429.000000	73.544883 
4428.000000	68.503022 
4427.000000	63.752508 
4426.000000	59.891939 
4425.000000	57.265067 
4424.000000	55.935573 
4423.000000	55.719113 
4422.000000	56.311655 
4421.000000	57.352089 
4420.000000	58.533740 
4419.000000	59.637975 
4418.000000	60.544300 
4417.000000	61.240887 
4416.000000	61.776781 
4415.000000	62.235260 
4414.000000	62.685108 
4413.000000	63.169002 
4412.000000	63.685226 
4411.000000	64.206409 
4410.000000	64.682984 
4409.000000	65.074682 
4408.000000	65.351438 
4407.000000	65.507054 
4406.000000	65.551757 
4405.000000	65.507769 
4404.000000	65.401673 
4403.000000	65.253520 
4402.000000	65.079164 
4401.000000	64.900636 
4400.000000	64.734840 
4399.000000	64.601325 
4398.000000	64.510893 
4397.000000	64.460515 
4396.000000	64.442300 
4395.000000	64.452791 
4394.000000	64.482760 
4393.000000	64.513993 
4392.000000	64.536762 
4391.000000	64.552497 
4390.000000	64.568901 
4389.000000	64.597344 
4388.000000	64.643120 
4387.000000	64.702558 
4386.000000	64.769864 
4385.000000	64.837431 
4384.000000	64.897656 
4383.000000	64.944577 
4382.000000	64.976668 
4381.000000	64.995837 
4380.000000	65.003442 
4379.000000	65.001845 
4378.000000	64.995431 
4377.000000	64.988994 
4376.000000	64.987325 
4375.000000	64.993977 
4374.000000	65.011453 
4373.000000	65.039539 
4372.000000	65.075492 
4371.000000	65.114498 
4370.000000	65.150547 
4369.000000	65.178775 
4368.000000	65.196681 
4367.000000	65.205240 
4366.000000	65.208172 
4365.000000	65.212035 
4364.000000	65.224170 
4363.000000	65.251445 
4362.000000	65.298175 
4361.000000	65.364432 
4360.000000	65.445423 
4359.000000	65.532112 
4358.000000	65.612578 
4357.000000	65.674662 
4356.000000	65.708112 
4355.000000	65.707111 
4354.000000	65.671348 
4353.000000	65.606045 
4352.000000	65.520763 
4351.000000	65.427708 
4350.000000	65.338683 
4349.000000	65.263414 
4348.000000	65.207195 
4347.000000	65.171313 
4346.000000	65.152668 
4345.000000	65.145897 
4344.000000	65.144610 
4343.000000	65.143489 
4342.000000	65.138936 
4341.000000	65.129208 
4340.000000	65.114402 
4339.000000	65.095233 
4338.000000	65.072631 
4337.000000	65.046739 
4336.000000	65.017938 
4335.000000	64.987039 
4334.000000	64.955949 
4333.000000	64.927840 
4332.000000	64.907097 
4331.000000	64.898300 
4330.000000	64.904713 
4329.000000	64.927649 
4328.000000	64.965653 
4327.000000	65.014719 
4326.000000	65.068507 
4325.000000	65.120220 
4324.000000	65.164208 
4323.000000	65.197157 
4322.000000	65.218448 
4321.000000	65.229868 
4320.000000	65.234231 
4319.000000	65.234589 
4318.000000	65.233230 
4317.000000	65.231013 
4316.000000	65.227484 
4315.000000	65.221476 
4314.000000	65.212631 
4313.000000	65.201258 
4312.000000	65.188813 
4311.000000	65.177536 
4310.000000	65.170025 
4309.000000	65.168261 
4308.000000	65.173196 
4307.000000	65.184259 
4306.000000	65.199565 
4305.000000	65.216135 
4304.000000	65.230679 
4303.000000	65.240192 
4302.000000	65.242576 
4301.000000	65.237188 
4300.000000	65.224575 
4299.000000	65.206241 
4298.000000	65.184235 
4297.000000	65.160846 
4296.000000	65.137791 
4295.000000	65.116286 
4294.000000	65.096831 
4293.000000	65.079474 
4292.000000	65.064072 
4291.000000	65.050506 
4290.000000	65.039229 
4289.000000	65.031433 
4288.000000	65.029025 
4287.000000	65.033793 
4286.000000	65.047097 
4285.000000	65.069031 
4284.000000	65.098071 
4283.000000	65.130853 
4282.000000	65.162682 
4281.000000	65.188598 
4280.000000	65.204167 
4279.000000	65.206265 
4278.000000	65.193915 
4277.000000	65.168404 
4276.000000	65.132832 
4275.000000	65.091514 
4274.000000	65.049147 
4273.000000	65.009999 
4272.000000	64.977407 
4271.000000	64.953756 
4270.000000	64.940214 
4269.000000	64.937305 
4268.000000	64.945101 
4267.000000	64.963150 
4266.000000	64.990115 
4265.000000	65.023851 
4264.000000	65.061378 
4263.000000	65.098810 
4262.000000	65.131735 
4261.000000	65.155839 
4260.000000	65.167570 
4259.000000	65.164709 
4258.000000	65.146636 
4257.000000	65.114617 
4256.000000	65.071535 
4255.000000	65.021181 
4254.000000	64.967703 
4253.000000	64.914941 
4252.000000	64.866113 
4251.000000	64.823818 
4250.000000	64.790034 
4249.000000	64.766073 
4248.000000	64.752769 
4247.000000	64.750337 
4246.000000	64.758992 
4245.000000	64.777994 
4244.000000	64.806461 
4243.000000	64.842891 
4242.000000	64.885401 
4241.000000	64.931988 
4240.000000	64.980220 
4239.000000	65.027236 
4238.000000	65.069890 
4237.000000	65.104985 
4236.000000	65.130066 
4235.000000	65.143918 
4234.000000	65.147066 
4233.000000	65.141820 
4232.000000	65.132021 
4231.000000	65.122413 
4230.000000	65.117335 
4229.000000	65.119934 
4228.000000	65.130758 
4227.000000	65.147995 
4226.000000	65.167355 
4225.000000	65.183472 
4224.000000	65.190911 
4223.000000	65.185856 
4222.000000	65.167236 
4221.000000	65.137362 
4220.000000	65.101003 
4219.000000	65.064644 
4218.000000	65.035057 
4217.000000	65.017676 
4216.000000	65.015649 
4215.000000	65.028882 
4214.000000	65.054798 
4213.000000	65.088129 
4212.000000	65.122628 
4211.000000	65.151858 
4210.000000	65.170311 
4209.000000	65.174508 
4208.000000	65.163612 
4207.000000	65.139150 
4206.000000	65.104341 
4205.000000	65.063261 
4204.000000	65.019869 
4203.000000	64.977431 
4202.000000	64.937925 
4201.000000	64.902472 
4200.000000	64.871573 
4199.000000	64.845514 
4198.000000	64.825010 
4197.000000	64.811110 
4196.000000	64.805459 
4195.000000	64.809226 
4194.000000	64.823174 
4193.000000	64.847016 
4192.000000	64.879488 
4191.000000	64.918041 
4190.000000	64.959406 
4189.000000	65.000391 
4188.000000	65.037751 
4187.000000	65.069007 
4186.000000	65.092206 
4185.000000	65.105748 
4184.000000	65.108704 
4183.000000	65.100383 
4182.000000	65.081405 
4181.000000	65.053963 
4180.000000	65.021705 
4179.000000	64.989829 
4178.000000	64.963865 
4177.000000	64.948725 
4176.000000	64.947533 
4175.000000	64.960861 
4174.000000	64.986133 
4173.000000	65.018129 
4172.000000	65.050315 
4171.000000	65.076589 
4170.000000	65.092325 
4169.000000	65.095591 
4168.000000	65.087461 
4167.000000	65.071630 
4166.000000	65.053081 
4165.000000	65.036654 
4164.000000	65.025877 
4163.000000	65.021967 
4162.000000	65.023899 
4161.000000	65.028429 
4160.000000	65.031719 
4159.000000	65.029573 
4158.000000	65.018987 
4157.000000	64.998602 
4156.000000	64.968538 
4155.000000	64.930963 
4154.000000	64.889192 
4153.000000	64.847707 
4152.000000	64.811086 
4151.000000	64.783835 
4150.000000	64.769673 
4149.000000	64.771223 
4148.000000	64.789247 
4147.000000	64.822506 
4146.000000	64.867806 
4145.000000	64.920210 
4144.000000	64.973783 
4143.000000	65.022444 
4142.000000	65.061044 
4141.000000	65.086364 
4140.000000	65.097451 
4139.000000	65.095853 
4138.000000	65.084815 
4137.000000	65.068840 
4136.000000	65.052175 
4135.000000	65.038013 
4134.000000	65.027999 
4133.000000	65.022611 
4132.000000	65.021014 
4131.000000	65.022182 
4130.000000	65.025162 
4129.000000	65.029811 
4128.000000	65.036106 
4127.000000	65.044236 
4126.000000	65.053796 
4125.000000	65.063118 
4124.000000	65.070104 
4123.000000	65.072298 
4122.000000	65.067934 
4121.000000	65.056467 
4120.000000	65.039324 
4119.000000	65.019679 
4118.000000	65.001988 
4117.000000	64.990854 
4116.000000	64.989900 
4115.000000	65.000867 
4114.000000	65.022873 
4113.000000	65.052986 
4112.000000	65.086698 
4111.000000	65.119314 
4110.000000	65.146923 
4109.000000	65.167307 
4108.000000	65.180468 
4107.000000	65.187978 
4106.000000	65.192580 
4105.000000	65.196466 
4104.000000	65.200948 
4103.000000	65.205121 
4102.000000	65.206861 
4101.000000	65.202140 
4100.000000	65.187001 
4099.000000	65.157914 
4098.000000	65.113353 
4097.000000	65.054249 
4096.000000	64.984059 
4095.000000	64.908409 
4094.000000	64.834046 
4093.000000	64.767551 
4092.000000	64.714384 
4091.000000	64.678168 
4090.000000	64.660406 
4089.000000	64.660310 
4088.000000	64.675450 
4087.000000	64.702272 
4086.000000	64.736938 
4085.000000	64.775538 
4084.000000	64.814758 
4083.000000	64.851498 
4082.000000	64.883470 
4081.000000	64.908862 
4080.000000	64.926791 
4079.000000	64.936852 
4078.000000	64.939141 
4077.000000	64.934802 
4076.000000	64.925241 
4075.000000	64.912319 
4074.000000	64.897489 
4073.000000	64.881992 
4072.000000	64.866471 
4071.000000	64.851403 
4070.000000	64.837408 
4069.000000	64.825391 
4068.000000	64.817404 
4067.000000	64.816117 
4066.000000	64.824676 
4065.000000	64.845752 
4064.000000	64.880895 
4063.000000	64.929556 
4062.000000	64.988613 
4061.000000	65.052318 
4060.000000	65.113472 
4059.000000	65.164566 
4058.000000	65.199398 
4057.000000	65.213894 
4056.000000	65.207338 
4055.000000	65.181851 
4054.000000	65.142083 
4053.000000	65.093803 
4052.000000	65.042710 
4051.000000	64.993524 
4050.000000	64.949774 
4049.000000	64.913368 
4048.000000	64.885401 
4047.000000	64.866137 
4046.000000	64.856028 
4045.000000	64.855360 
4044.000000	64.863896 
4043.000000	64.881205 
4042.000000	64.905834 
4041.000000	64.935708 
4040.000000	64.967727 
4039.000000	64.998841 
4038.000000	65.026426 
4037.000000	65.048789 
4036.000000	65.065288 
4035.000000	65.076255 
4034.000000	65.082550 
4033.000000	65.085029 
4032.000000	65.084242 
4031.000000	65.080428 
4030.000000	65.073609 
4029.000000	65.064167 
4028.000000	65.052795 
4027.000000	65.041112 
4026.000000	65.030860 
4025.000000	65.024256 
4024.000000	65.022540 
4023.000000	65.025568 
4022.000000	65.031433 
4021.000000	65.037059 
4020.000000	65.038394 
4019.000000	65.031433 
4018.000000	65.013241 
4017.000000	64.983129 
4016.000000	64.942646 
4015.000000	64.895272 
4014.000000	64.845895 
4013.000000	64.799594 
4012.000000	64.760828 
4011.000000	64.732575 
4010.000000	64.715862 
4009.000000	64.709997 
4008.000000	64.712882 
4007.000000	64.721846 
4006.000000	64.734029 
4005.000000	64.747405 
4004.000000	64.760923 
4003.000000	64.775204 
4002.000000	64.791321 
4001.000000	64.811420 
4000.000000	64.837718 
3999.000000	64.872407 
3998.000000	64.916443 
3997.000000	64.969468 
3996.000000	65.029549 
3995.000000	65.093159 
3994.000000	65.156030 
3993.000000	65.213537 
3992.000000	65.261626 
3991.000000	65.297532 
3990.000000	65.320444 
3989.000000	65.330958 
3988.000000	65.331101 
3987.000000	65.323615 
3986.000000	65.311455 
3985.000000	65.297412 
3984.000000	65.283584 
3983.000000	65.271782 
3982.000000	65.263319 
3981.000000	65.258908 
3980.000000	65.258502 
3979.000000	65.261316 
3978.000000	65.265417 
3977.000000	65.267753 
3976.000000	65.264534 
3975.000000	65.251564 
3974.000000	65.225815 
3973.000000	65.186095 
3972.000000	65.134167 
3971.000000	65.074348 
3970.000000	65.013289 
3969.000000	64.958524 
3968.000000	64.917135 
3967.000000	64.893651 
3966.000000	64.889669 
3965.000000	64.903545 
3964.000000	64.930963 
3963.000000	64.966011 
3962.000000	65.002989 
3961.000000	65.037417 
3960.000000	65.066766 
3959.000000	65.090107 
3958.000000	65.107917 
3957.000000	65.121006 
3956.000000	65.129899 
3955.000000	65.134239 
3954.000000	65.133070 
3953.000000	65.125131 
3952.000000	65.110278 
3951.000000	65.089607 
3950.000000	65.065622 
3949.000000	65.041589 
3948.000000	65.021133 
3947.000000	65.006852 
3946.000000	64.999675 
3945.000000	64.998793 
3944.000000	65.001583 
3943.000000	65.004825 
3942.000000	65.005397 
3941.000000	65.001726 
3940.000000	64.994215 
3939.000000	64.985322 
3938.000000	64.978480 
3937.000000	64.977240 
3936.000000	64.983868 
3935.000000	64.998316 
3934.000000	65.017962 
3933.000000	65.038323 
3932.000000	65.054082 
3931.000000	65.061235 
3930.000000	65.058135 
3929.000000	65.046525 
3928.000000	65.030956 
3927.000000	65.017747 
3926.000000	65.013170 
3925.000000	65.021538 
3924.000000	65.043616 
3923.000000	65.076136 
3922.000000	65.112376 
3921.000000	65.144276 
3920.000000	65.164351 
3919.000000	65.167999 
3918.000000	65.154719 
3917.000000	65.128517 
3916.000000	65.096497 
3915.000000	65.067005 
3914.000000	65.047430 
3913.000000	65.041923 
3912.000000	65.050768 
3911.000000	65.070581 
3910.000000	65.095114 
3909.000000	65.117406 
3908.000000	65.131402 
3907.000000	65.133619 
3906.000000	65.123701 
3905.000000	65.104126 
3904.000000	65.079617 
3903.000000	65.055680 
3902.000000	65.037536 
3901.000000	65.028977 
3900.000000	65.032219 
3899.000000	65.047645 
3898.000000	65.074372 
3897.000000	65.110325 
3896.000000	65.152788 
3895.000000	65.198636 
3894.000000	65.244674 
3893.000000	65.287756 
3892.000000	65.324831 
3891.000000	65.353178 
3890.000000	65.370869 
3889.000000	65.376400 
3888.000000	65.369105 
3887.000000	65.348887 
3886.000000	65.316653 
3885.000000	65.273976 
3884.000000	65.223288 
3883.000000	65.167856 
3882.000000	65.111756 
3881.000000	65.059471 
3880.000000	65.015459 
3879.000000	64.983224 
3878.000000	64.965057 
3877.000000	64.961266 
3876.000000	64.970350 
3875.000000	64.988803 
3874.000000	65.012001 
3873.000000	65.035223 
3872.000000	65.054702 
3871.000000	65.068411 
3870.000000	65.076231 
3869.000000	65.079689 
3868.000000	65.081524 
3867.000000	65.084314 
3866.000000	65.089988 
3865.000000	65.099263 
3864.000000	65.111541 
3863.000000	65.125083 
3862.000000	65.137815 
3861.000000	65.148305 
3860.000000	65.155887 
3859.000000	65.161085 
3858.000000	65.165257 
3857.000000	65.170240 
3856.000000	65.177488 
3855.000000	65.187573 
3854.000000	65.199661 
3853.000000	65.211582 
3852.000000	65.220403 
3851.000000	65.223526 
3850.000000	65.218853 
3849.000000	65.205597 
3848.000000	65.184807 
3847.000000	65.159225 
3846.000000	65.132975 
3845.000000	65.110588 
3844.000000	65.096235 
3843.000000	65.092706 
3842.000000	65.101027 
3841.000000	65.120029 
3840.000000	65.146541 
3839.000000	65.175890 
3838.000000	65.203022 
3837.000000	65.223169 
3836.000000	65.232801 
3835.000000	65.230011 
3834.000000	65.214514 
3833.000000	65.187859 
3832.000000	65.152835 
3831.000000	65.113115 
3830.000000	65.072774 
3829.000000	65.035748 
3828.000000	65.005636 
3827.000000	64.985108 
3826.000000	64.976167 
3825.000000	64.979386 
3824.000000	64.994001 
3823.000000	65.017652 
3822.000000	65.046763 
3821.000000	65.076708 
3820.000000	65.102553 
3819.000000	65.119647 
3818.000000	65.124583 
3817.000000	65.115809 
3816.000000	65.093922 
3815.000000	65.061402 
3814.000000	65.022087 
3813.000000	64.980649 
3812.000000	64.941954 
3811.000000	64.910078 
3810.000000	64.888048 
3809.000000	64.877438 
3808.000000	64.878630 
3807.000000	64.891004 
3806.000000	64.912867 
3805.000000	64.941716 
3804.000000	64.974308 
3803.000000	65.006947 
3802.000000	65.035653 
3801.000000	65.056467 
3800.000000	65.066218 
3799.000000	65.062904 
3798.000000	65.046548 
3797.000000	65.019202 
3796.000000	64.984917 
3795.000000	64.949154 
3794.000000	64.917993 
3793.000000	64.897108 
3792.000000	64.890909 
3791.000000	64.901828 
3790.000000	64.929986 
3789.000000	64.973163 
3788.000000	65.027189 
3787.000000	65.086555 
3786.000000	65.145397 
3785.000000	65.198278 
3784.000000	65.240740 
3783.000000	65.270042 
3782.000000	65.285348 
3781.000000	65.287470 
3780.000000	65.278649 
3779.000000	65.261673 
3778.000000	65.240168 
3777.000000	65.217065 
3776.000000	65.194845 
3775.000000	65.174841 
3774.000000	65.157723 
3773.000000	65.143251 
3772.000000	65.131068 
3771.000000	65.120530 
3770.000000	65.111160 
3769.000000	65.102601 
3768.000000	65.094852 
3767.000000	65.088033 
3766.000000	65.082597 
3765.000000	65.079212 
3764.000000	65.078830 
3763.000000	65.082621 
3762.000000	65.091729 
3761.000000	65.106892 
3760.000000	65.127921 
3759.000000	65.153598 
3758.000000	65.181517 
3757.000000	65.208601 
3756.000000	65.231513 
3755.000000	65.247106 
3754.000000	65.253257 
3753.000000	65.249562 
3752.000000	65.237164 
3751.000000	65.218758 
3750.000000	65.197610 
3749.000000	65.177059 
3748.000000	65.159511 
3747.000000	65.146374 
3746.000000	65.137696 
3745.000000	65.132570 
3744.000000	65.129899 
3743.000000	65.128922 
3742.000000	65.129423 
3741.000000	65.131878 
3740.000000	65.137290 
3739.000000	65.146565 
3738.000000	65.160036 
3737.000000	65.176939 
3736.000000	65.195488 
3735.000000	65.212821 
3734.000000	65.225458 
3733.000000	65.230035 
3732.000000	65.224075 
3731.000000	65.206623 
3730.000000	65.178561 
3729.000000	65.142750 
3728.000000	65.103316 
3727.000000	65.065288 
3726.000000	65.033602 
3725.000000	65.012478 
3724.000000	65.004253 
3723.000000	65.009474 
3722.000000	65.026807 
3721.000000	65.053296 
3720.000000	65.085029 
3719.000000	65.117907 
3718.000000	65.148401 
3717.000000	65.174126 
3716.000000	65.193819 
3715.000000	65.207719 
3714.000000	65.216803 
3713.000000	65.222811 
3712.000000	65.227460 
3711.000000	65.232324 
3710.000000	65.238261 
3709.000000	65.245699 
3708.000000	65.254354 
3707.000000	65.263390 
3706.000000	65.271425 
3705.000000	65.276908 
3704.000000	65.278363 
3703.000000	65.274739 
3702.000000	65.265274 
3701.000000	65.250205 
3700.000000	65.230202 
3699.000000	65.206670 
3698.000000	65.181112 
3697.000000	65.155386 
3696.000000	65.130758 
3695.000000	65.108060 
3694.000000	65.087342 
3693.000000	65.068316 
3692.000000	65.050363 
3691.000000	65.032863 
3690.000000	65.015459 
3689.000000	64.998269 
3688.000000	64.981865 
3687.000000	64.967417 
3686.000000	64.956188 
3685.000000	64.949154 
3684.000000	64.947152 
3683.000000	64.950418 
3682.000000	64.958548 
3681.000000	64.970636 
3680.000000	64.985084 
3679.000000	65.000009 
3678.000000	65.013337 
3677.000000	65.023398 
3676.000000	65.028762 
3675.000000	65.028929 
3674.000000	65.024042 
3673.000000	65.015172 
3672.000000	65.003824 
3671.000000	64.991950 
3670.000000	64.981675 
3669.000000	64.974999 
3668.000000	64.973258 
3667.000000	64.977335 
3666.000000	64.987444 
3665.000000	65.003156 
3664.000000	65.023446 
3663.000000	65.046691 
3662.000000	65.070962 
3661.000000	65.094256 
3660.000000	65.114617 
3659.000000	65.130448 
3658.000000	65.140724 
3657.000000	65.145373 
3656.000000	65.145277 
3655.000000	65.142202 
3654.000000	65.138316 
3653.000000	65.135788 
3652.000000	65.136218 
3651.000000	65.140390 
3650.000000	65.148043 
3649.000000	65.158104 
3648.000000	65.169215 
3647.000000	65.179991 
3646.000000	65.189766 
3645.000000	65.198802 
3644.000000	65.207910 
3643.000000	65.218591 
3642.000000	65.231966 
3641.000000	65.248441 
3640.000000	65.266990 
3639.000000	65.285539 
3638.000000	65.301036 
3637.000000	65.309977 
3636.000000	65.309047 
3635.000000	65.296339 
3634.000000	65.271186 
3633.000000	65.234756 
3632.000000	65.189433 
3631.000000	65.138578 
3630.000000	65.085911 
3629.000000	65.035009 
3628.000000	64.988923 
3627.000000	64.949989 
3626.000000	64.919972 
3625.000000	64.900016 
3624.000000	64.890456 
3623.000000	64.890861 
3622.000000	64.899945 
3621.000000	64.916038 
3620.000000	64.936137 
3619.000000	64.957571 
3618.000000	64.977622 
3617.000000	64.994859 
3616.000000	65.008759 
3615.000000	65.020370 
3614.000000	65.031695 
3613.000000	65.045285 
3612.000000	65.063309 
3611.000000	65.086603 
3610.000000	65.114378 
3609.000000	65.144085 
3608.000000	65.171980 
3607.000000	65.194034 
3606.000000	65.206766 
3605.000000	65.208363 
3604.000000	65.198993 
3603.000000	65.180492 
3602.000000	65.155768 
3601.000000	65.128207 
3600.000000	65.100717 
3599.000000	65.075039 
3598.000000	65.051579 
3597.000000	65.029978 
3596.000000	65.009617 
3595.000000	64.990091 
3594.000000	64.971780 
3593.000000	64.955878 
3592.000000	64.944267 
3591.000000	64.938688 
3590.000000	64.940285 
3589.000000	64.948868 
3588.000000	64.962792 
3587.000000	64.979219 
3586.000000	64.994406 
3585.000000	65.004706 
3584.000000	65.007328 
3583.000000	65.001010 
3582.000000	64.986467 
3581.000000	64.966082 
3580.000000	64.944005 
3579.000000	64.925050 
3578.000000	64.914083 
3577.000000	64.914941 
3576.000000	64.929842 
3575.000000	64.959025 
3574.000000	65.000295 
3573.000000	65.049433 
3572.000000	65.100765 
3571.000000	65.148019 
3570.000000	65.185403 
3569.000000	65.208601 
3568.000000	65.215134 
3567.000000	65.205144 
3566.000000	65.181112 
3565.000000	65.147495 
3564.000000	65.109896 
3563.000000	65.073895 
3562.000000	65.044236 
3561.000000	65.024065 
3560.000000	65.014600 
3559.000000	65.015244 
3558.000000	65.023946 
3557.000000	65.038132 
3556.000000	65.055227 
3555.000000	65.073180 
3554.000000	65.090489 
3553.000000	65.106225 
3552.000000	65.119504 
3551.000000	65.129423 
3550.000000	65.134716 
3549.000000	65.133976 
3548.000000	65.125894 
3547.000000	65.110111 
3546.000000	65.087270 
3545.000000	65.059614 
3544.000000	65.030097 
3543.000000	65.002179 
3542.000000	64.979076 
3541.000000	64.962816 
3540.000000	64.953970 
3539.000000	64.951300 
3538.000000	64.952373 
3537.000000	64.954257 
3536.000000	64.954304 
3535.000000	64.950776 
3534.000000	64.943194 
3533.000000	64.931988 
3532.000000	64.918518 
3531.000000	64.904499 
3530.000000	64.891624 
3529.000000	64.881062 
3528.000000	64.873886 
3527.000000	64.871001 
3526.000000	64.873528 
3525.000000	64.882636 
3524.000000	64.899373 
3523.000000	64.924120 
3522.000000	64.956164 
3521.000000	64.993429 
3520.000000	65.032243 
3519.000000	65.068006 
3518.000000	65.096402 
3517.000000	65.114188 
3516.000000	65.120220 
3515.000000	65.115666 
3514.000000	65.103530 
3513.000000	65.087962 
3512.000000	65.073347 
3511.000000	65.063309 
3510.000000	65.060162 
3509.000000	65.064716 
3508.000000	65.076518 
3507.000000	65.094280 
3506.000000	65.116477 
3505.000000	65.141558 
3504.000000	65.168237 
3503.000000	65.195512 
3502.000000	65.222477 
3501.000000	65.247917 
3500.000000	65.270233 
3499.000000	65.287518 
3498.000000	65.297770 
3497.000000	65.299153 
3496.000000	65.290498 
3495.000000	65.271496 
3494.000000	65.242791 
3493.000000	65.206360 
3492.000000	65.165257 
3491.000000	65.123391 
3490.000000	65.085172 
3489.000000	65.054869 
3488.000000	65.035867 
3487.000000	65.030193 
3486.000000	65.037989 
3485.000000	65.057277 
3484.000000	65.084290 
3483.000000	65.114283 
3482.000000	65.142631 
3481.000000	65.165233 
3480.000000	65.179705 
3479.000000	65.185379 
3478.000000	65.183281 
3477.000000	65.175509 
3476.000000	65.164422 
3475.000000	65.151643 
3474.000000	65.137839 
3473.000000	65.122652 
3472.000000	65.105247 
3471.000000	65.085124 
3470.000000	65.062761 
3469.000000	65.039944 
3468.000000	65.019536 
3467.000000	65.004849 
3466.000000	64.998626 
3465.000000	65.002274 
3464.000000	65.015387 
3463.000000	65.035676 
3462.000000	65.059137 
3461.000000	65.081310 
3460.000000	65.097808 
3459.000000	65.105748 
3458.000000	65.103912 
3457.000000	65.093159 
3456.000000	65.075850 
3455.000000	65.055513 
3454.000000	65.035915 
3453.000000	65.020370 
3452.000000	65.011191 
3451.000000	65.009403 
3450.000000	65.014767 
3449.000000	65.025997 
3448.000000	65.041255 
3447.000000	65.058636 
3446.000000	65.076351 
3445.000000	65.093326 
3444.000000	65.109038 
3443.000000	65.123677 
3442.000000	65.137767 
3441.000000	65.151381 
3440.000000	65.163707 
3439.000000	65.173339 
3438.000000	65.177941 
3437.000000	65.174698 
3436.000000	65.160965 
3435.000000	65.135169 
3434.000000	65.097641 
3433.000000	65.050768 
3432.000000	64.998984 
3431.000000	64.948225 
3430.000000	64.904689 
3429.000000	64.873933 
3428.000000	64.859414 
3427.000000	64.861965 
3426.000000	64.879131 
3425.000000	64.906096 
3424.000000	64.936494 
3423.000000	64.963579 
3422.000000	64.982151 
3421.000000	64.989089 
3420.000000	64.984321 
3419.000000	64.970350 
3418.000000	64.951992 
3417.000000	64.935040 
3416.000000	64.924979 
3415.000000	64.925718 
3414.000000	64.939236 
3413.000000	64.965009 
3412.000000	65.000462 
3411.000000	65.041065 
3410.000000	65.081763 
3409.000000	65.117526 
3408.000000	65.144157 
3407.000000	65.159177 
3406.000000	65.161800 
3405.000000	65.153098 
3404.000000	65.135836 
3403.000000	65.113687 
3402.000000	65.090584 
3401.000000	65.069937 
3400.000000	65.054535 
3399.000000	65.045928 
3398.000000	65.044260 
3397.000000	65.048384 
3396.000000	65.056443 
3395.000000	65.066337 
3394.000000	65.076136 
3393.000000	65.084314 
3392.000000	65.089702 
3391.000000	65.091848 
3390.000000	65.090751 
3389.000000	65.086436 
3388.000000	65.078830 
3387.000000	65.067982 
3386.000000	65.053963 
3385.000000	65.037035 
3384.000000	65.017628 
3383.000000	64.996552 
3382.000000	64.975142 
3381.000000	64.954781 
3380.000000	64.937567 
3379.000000	64.925909 
3378.000000	64.922547 
3377.000000	64.929771 
3376.000000	64.949250 
3375.000000	64.981412 
3374.000000	65.024852 
3373.000000	65.076470 
3372.000000	65.131354 
3371.000000	65.183496 
3370.000000	65.226554 
3369.000000	65.255284 
3368.000000	65.266084 
3367.000000	65.257763 
3366.000000	65.231752 
3365.000000	65.191793 
3364.000000	65.142917 
3363.000000	65.090394 
3362.000000	65.038919 
3361.000000	64.991950 
3360.000000	64.951395 
3359.000000	64.917683 
3358.000000	64.890432 
3357.000000	64.869022 
3356.000000	64.852738 
3355.000000	64.841175 
3354.000000	64.834070 
3353.000000	64.831304 
3352.000000	64.832472 
3351.000000	64.836955 
3350.000000	64.843535 
3349.000000	64.851045 
3348.000000	64.858150 
3347.000000	64.864110 
3346.000000	64.868402 
3345.000000	64.871191 
3344.000000	64.873099 
3343.000000	64.874935 
3342.000000	64.877462 
3341.000000	64.881396 
3340.000000	64.887166 
3339.000000	64.894962 
3338.000000	64.904832 
3337.000000	64.916777 
3336.000000	64.930915 
3335.000000	64.947414 
3334.000000	64.966273 
3333.000000	64.987230 
3332.000000	65.009737 
3331.000000	65.032815 
3330.000000	65.055370 
3329.000000	65.076255 
3328.000000	65.094137 
3327.000000	65.108180 
3326.000000	65.117597 
3325.000000	65.121769 
3324.000000	65.120077 
3323.000000	65.112018 
3322.000000	65.097427 
3321.000000	65.076470 
3320.000000	65.050292 
3319.000000	65.020942 
3318.000000	64.991426 
3317.000000	64.965224 
3316.000000	64.945840 
3315.000000	64.936161 
3314.000000	64.937543 
3313.000000	64.949607 
3312.000000	64.969992 
3311.000000	64.994931 
3310.000000	65.019989 
3309.000000	65.041065 
3308.000000	65.055203 
3307.000000	65.060925 
3306.000000	65.058445 
3305.000000	65.049433 
3304.000000	65.035915 
3303.000000	65.020132 
3302.000000	65.004181 
3301.000000	64.989376 
3300.000000	64.976406 
3299.000000	64.965415 
3298.000000	64.956450 
3297.000000	64.949321 
3296.000000	64.943909 
3295.000000	64.940547 
3294.000000	64.939737 
3293.000000	64.942359 
3292.000000	64.949131 
3291.000000	64.960575 
3290.000000	64.976549 
3289.000000	64.996194 
3288.000000	65.017986 
3287.000000	65.039873 
3286.000000	65.059471 
3285.000000	65.074706 
3284.000000	65.084123 
3283.000000	65.086984 
3282.000000	65.083503 
3281.000000	65.074563 
3280.000000	65.061450 
3279.000000	65.045595 
3278.000000	65.028047 
3277.000000	65.009450 
3276.000000	64.990043 
3275.000000	64.970040 
3274.000000	64.949822 
3273.000000	64.930200 
3272.000000	64.912605 
3271.000000	64.898800 
3270.000000	64.890742 
3269.000000	64.889931 
3268.000000	64.897394 
3267.000000	64.913201 
3266.000000	64.936709 
3265.000000	64.966130 
3264.000000	64.998984 
3263.000000	65.032291 
3262.000000	65.062904 
3261.000000	65.087866 
3260.000000	65.104961 
3259.000000	65.112781 
3258.000000	65.111184 
3257.000000	65.101194 
3256.000000	65.084791 
3255.000000	65.064549 
3254.000000	65.043187 
3253.000000	65.023303 
3252.000000	65.007042 
3251.000000	64.995694 
3250.000000	64.989757 
3249.000000	64.988923 
3248.000000	64.992070 
3247.000000	64.997482 
3246.000000	65.003371 
3245.000000	65.007686 
3244.000000	65.008497 
3243.000000	65.004253 
3242.000000	64.993715 
3241.000000	64.976620 
3240.000000	64.953422 
3239.000000	64.925742 
3238.000000	64.895868 
3237.000000	64.867115 
3236.000000	64.843034 
3235.000000	64.827322 
3234.000000	64.822959 
3233.000000	64.832043 
3232.000000	64.855408 
3231.000000	64.892292 
3230.000000	64.940309 
3229.000000	64.995551 
3228.000000	65.053153 
3227.000000	65.107727 
3226.000000	65.154361 
3225.000000	65.189170 
3224.000000	65.209817 
3223.000000	65.216159 
3222.000000	65.210008 
3221.000000	65.194797 
3220.000000	65.174651 
3219.000000	65.153861 
3218.000000	65.135669 
3217.000000	65.122008 
3216.000000	65.113067 
3215.000000	65.107655 
3214.000000	65.103793 
3213.000000	65.099501 
3212.000000	65.093302 
3211.000000	65.084886 
3210.000000	65.075206 
3209.000000	65.065956 
3208.000000	65.059280 
3207.000000	65.056848 
3206.000000	65.059638 
3205.000000	65.067338 
3204.000000	65.078735 
3203.000000	65.091967 
3202.000000	65.105152 
3201.000000	65.116810 
3200.000000	65.126228 
3199.000000	65.133333 
3198.000000	65.138435 
3197.000000	65.142083 
3196.000000	65.144371 
3195.000000	65.144896 
3194.000000	65.142989 
3193.000000	65.137767 
3192.000000	65.128660 
3191.000000	65.115737 
3190.000000	65.099835 
3189.000000	65.082597 
3188.000000	65.066027 
3187.000000	65.052270 
3186.000000	65.043115 
3185.000000	65.039563 
3184.000000	65.041756 
3183.000000	65.049052 
3182.000000	65.060186 
3181.000000	65.073370 
3180.000000	65.086674 
3179.000000	65.098190 
3178.000000	65.106272 
3177.000000	65.109658 
3176.000000	65.107679 
3175.000000	65.100312 
3174.000000	65.088152 
3173.000000	65.072584 
3172.000000	65.055680 
3171.000000	65.039849 
3170.000000	65.027475 
3169.000000	65.020418 
3168.000000	65.019726 
3167.000000	65.025353 
3166.000000	65.036225 
3165.000000	65.050411 
3164.000000	65.065598 
3163.000000	65.079569 
3162.000000	65.090656 
3161.000000	65.097904 
3160.000000	65.101003 
3159.000000	65.100026 
3158.000000	65.095019 
3157.000000	65.085864 
3156.000000	65.072464 
3155.000000	65.054750 
3154.000000	65.033054 
3153.000000	65.008378 
3152.000000	64.982771 
3151.000000	64.959263 
3150.000000	64.941143 
3149.000000	64.931416 
3148.000000	64.932084 
3147.000000	64.943718 
3146.000000	64.964890 
3145.000000	64.992570 
3144.000000	65.022397 
3143.000000	65.049552 
3142.000000	65.069890 
3141.000000	65.080761 
3140.000000	65.081143 
3139.000000	65.072154 
3138.000000	65.056562 
3137.000000	65.038466 
3136.000000	65.022182 
3135.000000	65.011405 
3134.000000	65.009212 
3133.000000	65.016627 
3132.000000	65.033173 
3131.000000	65.056276 
3130.000000	65.082430 
3129.000000	65.107178 
3128.000000	65.126037 
3127.000000	65.135145 
3126.000000	65.131926 
3125.000000	65.115594 
3124.000000	65.087103 
3123.000000	65.049242 
3122.000000	65.005946 
3121.000000	64.961767 
3120.000000	64.921307 
3119.000000	64.888429 
3118.000000	64.865779 
3117.000000	64.854454 
3116.000000	64.854121 
3115.000000	64.862942 
3114.000000	64.878273 
3113.000000	64.897012 
3112.000000	64.916324 
3111.000000	64.933609 
3110.000000	64.947772 
3109.000000	64.958548 
3108.000000	64.967322 
3107.000000	64.976024 
3106.000000	64.987158 
3105.000000	65.002942 
3104.000000	65.024614 
3103.000000	65.052413 
3102.000000	65.084791 
3101.000000	65.119242 
3100.000000	65.151882 
3099.000000	65.178799 
3098.000000	65.196251 
3097.000000	65.201735 
3096.000000	65.194153 
3095.000000	65.174293 
3094.000000	65.144538 
3093.000000	65.108394 
3092.000000	65.070176 
3091.000000	65.034294 
3090.000000	65.004348 
3089.000000	64.982676 
3088.000000	64.970207 
3087.000000	64.966535 
3086.000000	64.969873 
3085.000000	64.977645 
3084.000000	64.987063 
3083.000000	64.995503 
3082.000000	65.001201 
3081.000000	65.003418 
3080.000000	65.001988 
3079.000000	64.997553 
3078.000000	64.991068 
3077.000000	64.983415 
3076.000000	64.975047 
3075.000000	64.965987 
3074.000000	64.956235 
3073.000000	64.945793 
3072.000000	64.934873 
3071.000000	64.924407 
3070.000000	64.915966 
3069.000000	64.911603 
3068.000000	64.913392 
3067.000000	64.923048 
3066.000000	64.941406 
3065.000000	64.968180 
3064.000000	65.001869 
3063.000000	65.039777 
3062.000000	65.078425 
3061.000000	65.114331 
3060.000000	65.144562 
3059.000000	65.166878 
3058.000000	65.180230 
3057.000000	65.184807 
3056.000000	65.181589 
3055.000000	65.172147 
3054.000000	65.158009 
3053.000000	65.140771 
3052.000000	65.121364 
3051.000000	65.100765 
3050.000000	65.079402 
3049.000000	65.057659 
3048.000000	65.035986 
3047.000000	65.015006 
3046.000000	64.995431 
3045.000000	64.978098 
3044.000000	64.963936 
3043.000000	64.953637 
3042.000000	64.947867 
3041.000000	64.947032 
3040.000000	64.951324 
3039.000000	64.960622 
3038.000000	64.974498 
3037.000000	64.992165 
3036.000000	65.012145 
3035.000000	65.032696 
3034.000000	65.051746 
3033.000000	65.067315 
3032.000000	65.078163 
3031.000000	65.083909 
3030.000000	65.085291 
3029.000000	65.083742 
3028.000000	65.081453 
3027.000000	65.080308 
3026.000000	65.081524 
3025.000000	65.085148 
3024.000000	65.090107 
3023.000000	65.094280 
3022.000000	65.095233 
3021.000000	65.090918 
3020.000000	65.080308 
3019.000000	65.063929 
3018.000000	65.043568 
3017.000000	65.022253 
3016.000000	65.003275 
3015.000000	64.989805 
3014.000000	64.983844 
3013.000000	64.986348 
3012.000000	64.997005 
3011.000000	65.014505 
3010.000000	65.036797 
3009.000000	65.061402 
3008.000000	65.085721 
3007.000000	65.107154 
3006.000000	65.123724 
3005.000000	65.133833 
3004.000000	65.136981 
3003.000000	65.133476 
3002.000000	65.124440 
3001.000000	65.111804 
3000.000000	65.097570 
2999.000000	65.083861 
2998.000000	65.071773 
2997.000000	65.061593 
2996.000000	65.052485 
2995.000000	65.042757 
2994.000000	65.030217 
2993.000000	65.013313 
2992.000000	64.991188 
2991.000000	64.964270 
2990.000000	64.934134 
2989.000000	64.903354 
2988.000000	64.874744 
2987.000000	64.850783 
2986.000000	64.833307 
2985.000000	64.823055 
2984.000000	64.819884 
2983.000000	64.822864 
2982.000000	64.830565 
2981.000000	64.841341 
2980.000000	64.853692 
2979.000000	64.866399 
2978.000000	64.878726 
2977.000000	64.890551 
2976.000000	64.901781 
2975.000000	64.912676 
2974.000000	64.923453 
2973.000000	64.933896 
2972.000000	64.943695 
2971.000000	64.951729 
2970.000000	64.956569 
2969.000000	64.956450 
2968.000000	64.949941 
2967.000000	64.936089 
2966.000000	64.914941 
2965.000000	64.887881 
2964.000000	64.857769 
2963.000000	64.828324 
2962.000000	64.803218 
2961.000000	64.785671 
2960.000000	64.777827 
2959.000000	64.780139 
2958.000000	64.791393 
2957.000000	64.809083 
2956.000000	64.830088 
2955.000000	64.851140 
2954.000000	64.869689 
2953.000000	64.884066 
2952.000000	64.893865 
2951.000000	64.899492 
2950.000000	64.901781 
2949.000000	64.901638 
2948.000000	64.899396 
2947.000000	64.895033 
2946.000000	64.888072 
2945.000000	64.877820 
2944.000000	64.863920 
2943.000000	64.846611 
2942.000000	64.827203 
2941.000000	64.807891 
2940.000000	64.791846 
2939.000000	64.782309 
2938.000000	64.782404 
2937.000000	64.794087 
2936.000000	64.817619 
2935.000000	64.851212 
2934.000000	64.891028 
2933.000000	64.931845 
2932.000000	64.967656 
2931.000000	64.993071 
2930.000000	65.004158 
2929.000000	64.999413 
2928.000000	64.980196 
2927.000000	64.950251 
2926.000000	64.915347 
2925.000000	64.881610 
2924.000000	64.854478 
2923.000000	64.837455 
2922.000000	64.831495 
2921.000000	64.835286 
2920.000000	64.846134 
2919.000000	64.860630 
2918.000000	64.875888 
2917.000000	64.890170 
2916.000000	64.902901 
2915.000000	64.914608 
2914.000000	64.925932 
2913.000000	64.937591 
2912.000000	64.949727 
2911.000000	64.961624 
2910.000000	64.972043 
2909.000000	64.979100 
2908.000000	64.980864 
2907.000000	64.975905 
2906.000000	64.963650 
2905.000000	64.944791 
2904.000000	64.921498 
2903.000000	64.896917 
2902.000000	64.874839 
2901.000000	64.859080 
2900.000000	64.852714 
2899.000000	64.857411 
2898.000000	64.872980 
2897.000000	64.897561 
2896.000000	64.927840 
2895.000000	64.959788 
2894.000000	64.989352 
2893.000000	65.012884 
2892.000000	65.028071 
2891.000000	65.033912 
2890.000000	65.030980 
2889.000000	65.020775 
2888.000000	65.005517 
2887.000000	64.987587 
2886.000000	64.968967 
2885.000000	64.951586 
2884.000000	64.936661 
2883.000000	64.925241 
2882.000000	64.917755 
2881.000000	64.914298 
2880.000000	64.914560 
2879.000000	64.917898 
2878.000000	64.923262 
2877.000000	64.929389 
2876.000000	64.934992 
2875.000000	64.938902 
2874.000000	64.940166 
2873.000000	64.938306 
2872.000000	64.933466 
2871.000000	64.926266 
2870.000000	64.917969 
2869.000000	64.910054 
2868.000000	64.904069 
2867.000000	64.901041 
2866.000000	64.901375 
2865.000000	64.904356 
2864.000000	64.908456 
2863.000000	64.911770 
2862.000000	64.912438 
2861.000000	64.909219 
2860.000000	64.901757 
2859.000000	64.891123 
2858.000000	64.879274 
2857.000000	64.868831 
2856.000000	64.862370 
2855.000000	64.861845 
2854.000000	64.867901 
2853.000000	64.879965 
2852.000000	64.896202 
2851.000000	64.914083 
2850.000000	64.930939 
2849.000000	64.944529 
2848.000000	64.953494 
2847.000000	64.957380 
2846.000000	64.956426 
2845.000000	64.951372 
2844.000000	64.943408 
2843.000000	64.933753 
2842.000000	64.923691 
2841.000000	64.914417 
2840.000000	64.906930 
2839.000000	64.902329 
2838.000000	64.901018 
2837.000000	64.903426 
2836.000000	64.909458 
2835.000000	64.918637 
2834.000000	64.930152 
2833.000000	64.943099 
2832.000000	64.956450 
2831.000000	64.969277 
2830.000000	64.980578 
2829.000000	64.989495 
2828.000000	64.995169 
2827.000000	64.997029 
2826.000000	64.994621 
2825.000000	64.987826 
2824.000000	64.976978 
2823.000000	64.962744 
2822.000000	64.946174 
2821.000000	64.928531 
2820.000000	64.910912 
2819.000000	64.894032 
2818.000000	64.877986 
2817.000000	64.862704 
2816.000000	64.847898 
2815.000000	64.833712 
2814.000000	64.820647 
2813.000000	64.810109 
2812.000000	64.803767 
2811.000000	64.803457 
2810.000000	64.810419 
2809.000000	64.824867 
2808.000000	64.845466 
2807.000000	64.869642 
2806.000000	64.893674 
2805.000000	64.913392 
2804.000000	64.925193 
2803.000000	64.926719 
2802.000000	64.917469 
2801.000000	64.898943 
2800.000000	64.874315 
2799.000000	64.847898 
2798.000000	64.824128 
2797.000000	64.806842 
2796.000000	64.798569 
2795.000000	64.800214 
2794.000000	64.811038 
2793.000000	64.828991 
2792.000000	64.851307 
2791.000000	64.875030 
2790.000000	64.897656 
2789.000000	64.917278 
2788.000000	64.932918 
2787.000000	64.944171 
2786.000000	64.951276 
2785.000000	64.954590 
2784.000000	64.954352 
2783.000000	64.950942 
2782.000000	64.944434 
2781.000000	64.935111 
2780.000000	64.923310 
2779.000000	64.909696 
2778.000000	64.895057 
2777.000000	64.880466 
2776.000000	64.866709 
2775.000000	64.854478 
2774.000000	64.843988 
2773.000000	64.835143 
2772.000000	64.827632 
2771.000000	64.820957 
2770.000000	64.814925 
2769.000000	64.809608 
2768.000000	64.805579 
2767.000000	64.803600 
2766.000000	64.804506 
2765.000000	64.808893 
2764.000000	64.816808 
2763.000000	64.827728 
2762.000000	64.840435 
2761.000000	64.853501 
2760.000000	64.865279 
2759.000000	64.874601 
2758.000000	64.881014 
2757.000000	64.884948 
2756.000000	64.887428 
2755.000000	64.889931 
2754.000000	64.893889 
2753.000000	64.900112 
2752.000000	64.908623 
2751.000000	64.918661 
2750.000000	64.928627 
2749.000000	64.936828 
2748.000000	64.941811 
2747.000000	64.942932 
2746.000000	64.940357 
2745.000000	64.935231 
2744.000000	64.929437 
2743.000000	64.924812 
2742.000000	64.922881 
2741.000000	64.924359 
2740.000000	64.928889 
2739.000000	64.935255 
2738.000000	64.941668 
2737.000000	64.946246 
2736.000000	64.947581 
2735.000000	64.945101 
2734.000000	64.939308 
2733.000000	64.931392 
2732.000000	64.923119 
2731.000000	64.916276 
2730.000000	64.912247 
2729.000000	64.911699 
2728.000000	64.914393 
2727.000000	64.919400 
2726.000000	64.925241 
2725.000000	64.930343 
2724.000000	64.933443 
2723.000000	64.933967 
2722.000000	64.932131 
2721.000000	64.928579 
2720.000000	64.924621 
2719.000000	64.921760 
2718.000000	64.921402 
2717.000000	64.924550 
2716.000000	64.931726 
2715.000000	64.942979 
2714.000000	64.957904 
2713.000000	64.975571 
2712.000000	64.994597 
2711.000000	65.013313 
2710.000000	65.029740 
2709.000000	65.042018 
2708.000000	65.048503 
2707.000000	65.048241 
2706.000000	65.041089 
2705.000000	65.027928 
2704.000000	65.010643 
2703.000000	64.991641 
2702.000000	64.973735 
2701.000000	64.959263 
2700.000000	64.949727 
2699.000000	64.945292 
2698.000000	64.944934 
2697.000000	64.946532 
2696.000000	64.947342 
2695.000000	64.944839 
2694.000000	64.937090 
2693.000000	64.923667 
2692.000000	64.905476 
2691.000000	64.884948 
2690.000000	64.865207 
2689.000000	64.849615 
2688.000000	64.840984 
2687.000000	64.840888 
2686.000000	64.849305 
2685.000000	64.864683 
2684.000000	64.884209 
2683.000000	64.904594 
2682.000000	64.922595 
2681.000000	64.935541 
2680.000000	64.942073 
2679.000000	64.942026 
2678.000000	64.936399 
2677.000000	64.926934 
2676.000000	64.915776 
2675.000000	64.904856 
2674.000000	64.895582 
2673.000000	64.888620 
2672.000000	64.883613 
2671.000000	64.879918 
2670.000000	64.876651 
2669.000000	64.873194 
2668.000000	64.869570 
2667.000000	64.866352 
2666.000000	64.864492 
2665.000000	64.864778 
2664.000000	64.867734 
2663.000000	64.873075 
2662.000000	64.879870 
2661.000000	64.886713 
2660.000000	64.892125 
2659.000000	64.894866 
2658.000000	64.894151 
2657.000000	64.889764 
2656.000000	64.882206 
2655.000000	64.872574 
2654.000000	64.862513 
2653.000000	64.853739 
2652.000000	64.848041 
2651.000000	64.846682 
2650.000000	64.850258 
2649.000000	64.858436 
2648.000000	64.869999 
2647.000000	64.883041 
2646.000000	64.895129 
2645.000000	64.904093 
2644.000000	64.908289 
2643.000000	64.907026 
2642.000000	64.900851 
2641.000000	64.891409 
2640.000000	64.881062 
2639.000000	64.872288 
2638.000000	64.867401 
2637.000000	64.867639 
2636.000000	64.873170 
2635.000000	64.883184 
2634.000000	64.896202 
2633.000000	64.910268 
2632.000000	64.923620 
2631.000000	64.934873 
2630.000000	64.943122 
2629.000000	64.947867 
2628.000000	64.949131 
2627.000000	64.947342 
2626.000000	64.943051 
2625.000000	64.937067 
2624.000000	64.930272 
2623.000000	64.923787 
2622.000000	64.918637 
2621.000000	64.915752 
2620.000000	64.915800 
2619.000000	64.918947 
2618.000000	64.924573 
2617.000000	64.931607 
2616.000000	64.938402 
2615.000000	64.943170 
2614.000000	64.944267 
2613.000000	64.940404 
2612.000000	64.930987 
2611.000000	64.916181 
2610.000000	64.896917 
2609.000000	64.874768 
2608.000000	64.851880 
2607.000000	64.830493 
2606.000000	64.812970 
2605.000000	64.801263 
2604.000000	64.796686 
2603.000000	64.799690 
2602.000000	64.809584 
2601.000000	64.824724 
2600.000000	64.842724 
2599.000000	64.860963 
2598.000000	64.876723 
2597.000000	64.887905 
2596.000000	64.893293 
2595.000000	64.892864 
2594.000000	64.887619 
2593.000000	64.879131 
2592.000000	64.869308 
2591.000000	64.859628 
2590.000000	64.851164 
2589.000000	64.844226 
2588.000000	64.838552 
2587.000000	64.833450 
2586.000000	64.828443 
2585.000000	64.823198 
2584.000000	64.818000 
2583.000000	64.813423 
2582.000000	64.810395 
2581.000000	64.809584 
2580.000000	64.811182 
2579.000000	64.814805 
2578.000000	64.819359 
2577.000000	64.823198 
2576.000000	64.824509 
2575.000000	64.821720 
2574.000000	64.813995 
2573.000000	64.801406 
2572.000000	64.785099 
2571.000000	64.766907 
2570.000000	64.749240 
2569.000000	64.734363 
2568.000000	64.724040 
2567.000000	64.719152 
2566.000000	64.719676 
2565.000000	64.724540 
2564.000000	64.732384 
2563.000000	64.741492 
2562.000000	64.750599 
2561.000000	64.759087 
2560.000000	64.767193 
2559.000000	64.775729 
2558.000000	64.786028 
2557.000000	64.799165 
2556.000000	64.815759 
2555.000000	64.835619 
2554.000000	64.857769 
2553.000000	64.880561 
2552.000000	64.902067 
2551.000000	64.920401 
2550.000000	64.934182 
2549.000000	64.942479 
2548.000000	64.945054 
2547.000000	64.942359 
2546.000000	64.935255 
2545.000000	64.924812 
2544.000000	64.912295 
2543.000000	64.898848 
2542.000000	64.885497 
2541.000000	64.873266 
2540.000000	64.863085 
2539.000000	64.855694 
2538.000000	64.851784 
2537.000000	64.851951 
2536.000000	64.856481 
2535.000000	64.865303 
2534.000000	64.877963 
2533.000000	64.893627 
2532.000000	64.911103 
2531.000000	64.929056 
2530.000000	64.946007 
2529.000000	64.960718 
2528.000000	64.972209 
2527.000000	64.979839 
2526.000000	64.983391 
2525.000000	64.982986 
2524.000000	64.979171 
2523.000000	64.972639 
2522.000000	64.964056 
2521.000000	64.954090 
2520.000000	64.943051 
2519.000000	64.931321 
2518.000000	64.918923 
2517.000000	64.905834 
2516.000000	64.891934 
2515.000000	64.877176 
2514.000000	64.861607 
2513.000000	64.845442 
2512.000000	64.829134 
2511.000000	64.813256 
2510.000000	64.798545 
2509.000000	64.785861 
2508.000000	64.776086 
2507.000000	64.770030 
2506.000000	64.768600 
2505.000000	64.772343 
2504.000000	64.781546 
2503.000000	64.796113 
2502.000000	64.815521 
2501.000000	64.838790 
2500.000000	64.864659 
2499.000000	64.891600 
2498.000000	64.918017 
2497.000000	64.942383 
2496.000000	64.963459 
2495.000000	64.980220 
2494.000000	64.992046 
2493.000000	64.998531 
2492.000000	64.999628 
2491.000000	64.995646 
2490.000000	64.987182 
2489.000000	64.975333 
2488.000000	64.961457 
2487.000000	64.947152 
2486.000000	64.934206 
2485.000000	64.924049 
2484.000000	64.917612 
2483.000000	64.914846 
2482.000000	64.914989 
2481.000000	64.916443 
2480.000000	64.917206 
2479.000000	64.915204 
2478.000000	64.909076 
2477.000000	64.898395 
2476.000000	64.883685 
2475.000000	64.866423 
2474.000000	64.848542 
2473.000000	64.831781 
2472.000000	64.817380 
2471.000000	64.805531 
2470.000000	64.795613 
2469.000000	64.786458 
2468.000000	64.776849 
2467.000000	64.766168 
2466.000000	64.754581 
2465.000000	64.743113 
2464.000000	64.733552 
2463.000000	64.727640 
2462.000000	64.726877 
2461.000000	64.731717 
2460.000000	64.741730 
2459.000000	64.755415 
2458.000000	64.770770 
2457.000000	64.785766 
2456.000000	64.798688 
2455.000000	64.808654 
2454.000000	64.815592 
2453.000000	64.819979 
2452.000000	64.822769 
2451.000000	64.824843 
2450.000000	64.826846 
2449.000000	64.828944 
2448.000000	64.831137 
2447.000000	64.833259 
2446.000000	64.835166 
2445.000000	64.836978 
2444.000000	64.839053 
2443.000000	64.841938 
2442.000000	64.846134 
2441.000000	64.852023 
2440.000000	64.859867 
2439.000000	64.869570 
2438.000000	64.880752 
2437.000000	64.892649 
2436.000000	64.904522 
2435.000000	64.915633 
2434.000000	64.925289 
2433.000000	64.932870 
2432.000000	64.937734 
2431.000000	64.939284 
2430.000000	64.936995 
2429.000000	64.930367 
2428.000000	64.919233 
2427.000000	64.903759 
2426.000000	64.884829 
2425.000000	64.863824 
2424.000000	64.842486 
2423.000000	64.822793 
2422.000000	64.806461 
2421.000000	64.794421 
2420.000000	64.786863 
2419.000000	64.783120 
2418.000000	64.781832 
2417.000000	64.781522 
2416.000000	64.780902 
2415.000000	64.779496 
2414.000000	64.777779 
2413.000000	64.776992 
2412.000000	64.778733 
2411.000000	64.784598 
2410.000000	64.795351 
2409.000000	64.810633 
2408.000000	64.828777 
2407.000000	64.847135 
2406.000000	64.862680 
2405.000000	64.872789 
2404.000000	64.875721 
2403.000000	64.871406 
2402.000000	64.861178 
2401.000000	64.847660 
2400.000000	64.833760 
2399.000000	64.822196 
2398.000000	64.814591 
2397.000000	64.811277 
2396.000000	64.811158 
2395.000000	64.812088 
2394.000000	64.811682 
2393.000000	64.808130 
2392.000000	64.800453 
2391.000000	64.788770 
2390.000000	64.774274 
2389.000000	64.758753 
2388.000000	64.743971 
2387.000000	64.731287 
2386.000000	64.721345 
2385.000000	64.714121 
2384.000000	64.709329 
2383.000000	64.706659 
2382.000000	64.706158 
2381.000000	64.708256 
2380.000000	64.713668 
2379.000000	64.723014 
2378.000000	64.736247 
2377.000000	64.752626 
2376.000000	64.770531 
2375.000000	64.787673 
2374.000000	64.801597 
2373.000000	64.810299 
2372.000000	64.812874 
2371.000000	64.809679 
2370.000000	64.802503 
2369.000000	64.793825 
2368.000000	64.786362 
2367.000000	64.782404 
2366.000000	64.783167 
2365.000000	64.788651 
2364.000000	64.797711 
2363.000000	64.808344 
2362.000000	64.818310 
2361.000000	64.825606 
2360.000000	64.828944 
2359.000000	64.827942 
2358.000000	64.823007 
2357.000000	64.815092 
2356.000000	64.805531 
2355.000000	64.795804 
2354.000000	64.786958 
2353.000000	64.779877 
2352.000000	64.774727 
2351.000000	64.771413 
2350.000000	64.769482 
2349.000000	64.768457 
2348.000000	64.767956 
2347.000000	64.767551 
2346.000000	64.767313 
2345.000000	64.767313 
2344.000000	64.768028 
2343.000000	64.769887 
2342.000000	64.773225 
2341.000000	64.777994 
2340.000000	64.783763 
2339.000000	64.789557 
2338.000000	64.794111 
2337.000000	64.796066 
2336.000000	64.794301 
2335.000000	64.788198 
2334.000000	64.778065 
2333.000000	64.765095 
2332.000000	64.751315 
2331.000000	64.739155 
2330.000000	64.731121 
2329.000000	64.729046 
2328.000000	64.733767 
2327.000000	64.744734 
2326.000000	64.760208 
2325.000000	64.777421 
2324.000000	64.793300 
2323.000000	64.805126 
2322.000000	64.810943 
2321.000000	64.810156 
2320.000000	64.803528 
2319.000000	64.793014 
2318.000000	64.781165 
2317.000000	64.770460 
2316.000000	64.762735 
2315.000000	64.758682 
2314.000000	64.757728 
2313.000000	64.758205 
2312.000000	64.757823 
2311.000000	64.754462 
2310.000000	64.746809 
2309.000000	64.734697 
2308.000000	64.719223 
2307.000000	64.702582 
2306.000000	64.687609 
2305.000000	64.676952 
2304.000000	64.672589 
2303.000000	64.675498 
2302.000000	64.685392 
2301.000000	64.700984 
2300.000000	64.720392 
2299.000000	64.741444 
2298.000000	64.762234 
2297.000000	64.781427 
2296.000000	64.798235 
2295.000000	64.812636 
2294.000000	64.824914 
2293.000000	64.835453 
2292.000000	64.844632 
2291.000000	64.852595 
2290.000000	64.859080 
2289.000000	64.863729 
2288.000000	64.865732 
2287.000000	64.864158 
2286.000000	64.858245 
2285.000000	64.847421 
2284.000000	64.831757 
2283.000000	64.812111 
2282.000000	64.789986 
2281.000000	64.767456 
2280.000000	64.746880 
2279.000000	64.730596 
2278.000000	64.720273 
2277.000000	64.716672 
2276.000000	64.719581 
2275.000000	64.727878 
2274.000000	64.739704 
2273.000000	64.753031 
2272.000000	64.765858 
2271.000000	64.776825 
2270.000000	64.785027 
2269.000000	64.790368 
2268.000000	64.793252 
2267.000000	64.794373 
2266.000000	64.794397 
2265.000000	64.793825 
2264.000000	64.792990 
2263.000000	64.791846 
2262.000000	64.790439 
2261.000000	64.788460 
2260.000000	64.785790 
2259.000000	64.782023 
2258.000000	64.776730 
2257.000000	64.769244 
2256.000000	64.758992 
2255.000000	64.745283 
2254.000000	64.727878 
2253.000000	64.706921 
2252.000000	64.683103 
2251.000000	64.657950 
2250.000000	64.633560 
2249.000000	64.612197 
2248.000000	64.595985 
2247.000000	64.586496 
2246.000000	64.584589 
2245.000000	64.589953 
2244.000000	64.601349 
2243.000000	64.616870 
2242.000000	64.634370 
2241.000000	64.652085 
2240.000000	64.668750 
2239.000000	64.683818 
2238.000000	64.697170 
2237.000000	64.709019 
2236.000000	64.719462 
2235.000000	64.728188 
2234.000000	64.734506 
2233.000000	64.737510 
2232.000000	64.736318 
2231.000000	64.730644 
2230.000000	64.720940 
2229.000000	64.708662 
2228.000000	64.695906 
2227.000000	64.685201 
2226.000000	64.679002 
2225.000000	64.679098 
2224.000000	64.686298 
2223.000000	64.700245 
2222.000000	64.719676 
2221.000000	64.742469 
2220.000000	64.766383 
2219.000000	64.789271 
2218.000000	64.809370 
2217.000000	64.825630 
2216.000000	64.837574 
2215.000000	64.845132 
2214.000000	64.848828 
2213.000000	64.849281 
2212.000000	64.847230 
2211.000000	64.843416 
2210.000000	64.838433 
2209.000000	64.832735 
2208.000000	64.826703 
2207.000000	64.820694 
2206.000000	64.815020 
2205.000000	64.809775 
2204.000000	64.805054 
2203.000000	64.800620 
2202.000000	64.796066 
2201.000000	64.790773 
2200.000000	64.784026 
2199.000000	64.775347 
2198.000000	64.764571 
2197.000000	64.752006 
2196.000000	64.738368 
2195.000000	64.724707 
2194.000000	64.712095 
2193.000000	64.701175 
2192.000000	64.692234 
2191.000000	64.684748 
2190.000000	64.677882 
2189.000000	64.670348 
2188.000000	64.661240 
2187.000000	64.650392 
2186.000000	64.638781 
2185.000000	64.628052 
2184.000000	64.620518 
2183.000000	64.618420 
2182.000000	64.623069 
2181.000000	64.634609 
2180.000000	64.651513 
2179.000000	64.671063 
2178.000000	64.689826 
2177.000000	64.704489 
2176.000000	64.712572 
2175.000000	64.712977 
2174.000000	64.706087 
2173.000000	64.693760 
2172.000000	64.678835 
2171.000000	64.664316 
2170.000000	64.652848 
2169.000000	64.646077 
2168.000000	64.644432 
2167.000000	64.647197 
2166.000000	64.652800 
2165.000000	64.659476 
2164.000000	64.665460 
2163.000000	64.669704 
2162.000000	64.671683 
2161.000000	64.671778 
2160.000000	64.670562 
2159.000000	64.668989 
2158.000000	64.667868 
2157.000000	64.667654 
2156.000000	64.668416 
2155.000000	64.669775 
2154.000000	64.671325 
2153.000000	64.672565 
2152.000000	64.673209 
2151.000000	64.673304 
2150.000000	64.673042 
2149.000000	64.672994 
2148.000000	64.673662 
2147.000000	64.675474 
2146.000000	64.678597 
2145.000000	64.682984 
2144.000000	64.688301 
2143.000000	64.694094 
2142.000000	64.699625 
2141.000000	64.704203 
2140.000000	64.707136 
2139.000000	64.707779 
2138.000000	64.705824 
2137.000000	64.701294 
2136.000000	64.694547 
2135.000000	64.686417 
2134.000000	64.678072 
2133.000000	64.671111 
2132.000000	64.666914 
2131.000000	64.666843 
2130.000000	64.671611 
2129.000000	64.681124 
2128.000000	64.694547 
2127.000000	64.710283 
2126.000000	64.726424 
2125.000000	64.740872 
2124.000000	64.751958 
2123.000000	64.758658 
2122.000000	64.760756 
2121.000000	64.758658 
2120.000000	64.753293 
2119.000000	64.745736 
2118.000000	64.736795 
2117.000000	64.726829 
2116.000000	64.715909 
2115.000000	64.703655 
2114.000000	64.689803 
2113.000000	64.674162 
2112.000000	64.657139 
2111.000000	64.639759 
2110.000000	64.623427 
2109.000000	64.609956 
2108.000000	64.600992 
2107.000000	64.597773 
2106.000000	64.600777 
2105.000000	64.609718 
2104.000000	64.623498 
2103.000000	64.640450 
2102.000000	64.658713 
2101.000000	64.676523 
2100.000000	64.692378 
2099.000000	64.705085 
2098.000000	64.714002 
2097.000000	64.718770 
2096.000000	64.719295 
2095.000000	64.715671 
2094.000000	64.708137 
2093.000000	64.697217 
2092.000000	64.683723 
2091.000000	64.668750 
2090.000000	64.653468 
2089.000000	64.639067 
2088.000000	64.626646 
2087.000000	64.616823 
2086.000000	64.609813 
2085.000000	64.605355 
2084.000000	64.602971 
2083.000000	64.602065 
2082.000000	64.602351 
2081.000000	64.603805 
2080.000000	64.606595 
2079.000000	64.610958 
2078.000000	64.617013 
2077.000000	64.624381 
2076.000000	64.632153 
2075.000000	64.638829 
2074.000000	64.642858 
2073.000000	64.642786 
2072.000000	64.637970 
2071.000000	64.629006 
2070.000000	64.617586 
2069.000000	64.606261 
2068.000000	64.597964 
2067.000000	64.595246 
2066.000000	64.599585 
2065.000000	64.611053 
2064.000000	64.628267 
2063.000000	64.648771 
2062.000000	64.669656 
2061.000000	64.688181 
2060.000000	64.702153 
2059.000000	64.710450 
2058.000000	64.712882 
2057.000000	64.710068 
2056.000000	64.703106 
2055.000000	64.693260 
2054.000000	64.681649 
2053.000000	64.668965 
2052.000000	64.655852 
2051.000000	64.642453 
2050.000000	64.629125 
2049.000000	64.616060 
2048.000000	64.603590 
2047.000000	64.592075 
2046.000000	64.581751 
2045.000000	64.572811 
2044.000000	64.565324 
2043.000000	64.559316 
2042.000000	64.554595 
2041.000000	64.551091 
2040.000000	64.548826 
2039.000000	64.547801 
2038.000000	64.548158 
2037.000000	64.550042 
2036.000000	64.553666 
2035.000000	64.559102 
2034.000000	64.566254 
2033.000000	64.574813 
2032.000000	64.584279 
2031.000000	64.593768 
2030.000000	64.602398 
2029.000000	64.609360 
2028.000000	64.614033 
2027.000000	64.616227 
2026.000000	64.616203 
2025.000000	64.614701 
2024.000000	64.612746 
2023.000000	64.611625 
2022.000000	64.612483 
2021.000000	64.616203 
2020.000000	64.623022 
2019.000000	64.632701 
2018.000000	64.644336 
2017.000000	64.656567 
2016.000000	64.667868 
2015.000000	64.676737 
2014.000000	64.682078 
2013.000000	64.683294 
2012.000000	64.680385 
2011.000000	64.673972 
2010.000000	64.665222 
2009.000000	64.655709 
2008.000000	64.647030 
2007.000000	64.640665 
2006.000000	64.637708 
2005.000000	64.638662 
2004.000000	64.643383 
2003.000000	64.651203 
2002.000000	64.661073 
2001.000000	64.671802 
2000.000000	64.682292 
1999.000000	64.691686 
1998.000000	64.699435 
1997.000000	64.705538 
1996.000000	64.710164 
1995.000000	64.713740 
1994.000000	64.716839 
1993.000000	64.720034 
1992.000000	64.723753 
1991.000000	64.727902 
1990.000000	64.732170 
1989.000000	64.735794 
1988.000000	64.737892 
1987.000000	64.737462 
1986.000000	64.733719 
1985.000000	64.726233 
1984.000000	64.715051 
1983.000000	64.700508 
1982.000000	64.683413 
1981.000000	64.664793 
1980.000000	64.645671 
1979.000000	64.627051 
1978.000000	64.609813 
1977.000000	64.594697 
1976.000000	64.582324 
1975.000000	64.573216 
1974.000000	64.567732 
1973.000000	64.565753 
1972.000000	64.566969 
1971.000000	64.570236 
1970.000000	64.574170 
1969.000000	64.576888 
1968.000000	64.576840 
1967.000000	64.573025 
1966.000000	64.565443 
1965.000000	64.555072 
1964.000000	64.543724 
1963.000000	64.533495 
1962.000000	64.526343 
1961.000000	64.523530 
1960.000000	64.525270 
1959.000000	64.530706 
1958.000000	64.538311 
1957.000000	64.546275 
1956.000000	64.553260 
1955.000000	64.558482 
1954.000000	64.562106 
1953.000000	64.564943 
1952.000000	64.567947 
1951.000000	64.571976 
1950.000000	64.577198 
1949.000000	64.583158 
1948.000000	64.588737 
1947.000000	64.592504 
1946.000000	64.593338 
1945.000000	64.590501 
1944.000000	64.584064 
1943.000000	64.574527 
1942.000000	64.562940 
1941.000000	64.550662 
1940.000000	64.538812 
1939.000000	64.528465 
1938.000000	64.520311 
1937.000000	64.514732 
1936.000000	64.512014 
1935.000000	64.512181 
1934.000000	64.515161 
1933.000000	64.520692 
1932.000000	64.528536 
1931.000000	64.538097 
1930.000000	64.548683 
1929.000000	64.559483 
1928.000000	64.569759 
1927.000000	64.578890 
1926.000000	64.586329 
1925.000000	64.591741 
1924.000000	64.595031 
1923.000000	64.596080 
1922.000000	64.595103 
1921.000000	64.592432 
1920.000000	64.588570 
1919.000000	64.584326 
1918.000000	64.580464 
1917.000000	64.577794 
1916.000000	64.576983 
1915.000000	64.578318 
1914.000000	64.581775 
1913.000000	64.586925 
1912.000000	64.593076 
1911.000000	64.599347 
1910.000000	64.604735 
1909.000000	64.608383 
1908.000000	64.609551 
1907.000000	64.607810 
1906.000000	64.602756 
1905.000000	64.594006 
1904.000000	64.581394 
1903.000000	64.564943 
1902.000000	64.545035 
1901.000000	64.522480 
1900.000000	64.498639 
1899.000000	64.475321 
1898.000000	64.454507 
1897.000000	64.438152 
1896.000000	64.427518 
1895.000000	64.423179 
1894.000000	64.424729 
1893.000000	64.431023 
1892.000000	64.440107 
1891.000000	64.450168 
1890.000000	64.459347 
1889.000000	64.466595 
1888.000000	64.471483 
1887.000000	64.474368 
1886.000000	64.476084 
1885.000000	64.477729 
1884.000000	64.480352 
1883.000000	64.484500 
1882.000000	64.490413 
1881.000000	64.497923 
1880.000000	64.506626 
1879.000000	64.515924 
1878.000000	64.525341 
1877.000000	64.534306 
1876.000000	64.542412 
1875.000000	64.549279 
1874.000000	64.554643 
1873.000000	64.558291 
1872.000000	64.560222 
1871.000000	64.560556 
1870.000000	64.559483 
1869.000000	64.557623 
1868.000000	64.555597 
1867.000000	64.554166 
1866.000000	64.553713 
1865.000000	64.554524 
1864.000000	64.556431 
1863.000000	64.559030 
1862.000000	64.561748 
1861.000000	64.563894 
1860.000000	64.565062 
1859.000000	64.565205 
1858.000000	64.564776 
1857.000000	64.564347 
1856.000000	64.564585 
1855.000000	64.565968 
1854.000000	64.568662 
1853.000000	64.572334 
1852.000000	64.576387 
1851.000000	64.579963 
1850.000000	64.582371 
1849.000000	64.583182 
1848.000000	64.582443 
1847.000000	64.580655 
1846.000000	64.578628 
1845.000000	64.577221 
1844.000000	64.577054 
1843.000000	64.578318 
1842.000000	64.580583 
1841.000000	64.582920 
1840.000000	64.584350 
1839.000000	64.583587 
1838.000000	64.579749 
1837.000000	64.572286 
1836.000000	64.561295 
1835.000000	64.547348 
1834.000000	64.531326 
1833.000000	64.514350 
1832.000000	64.497709 
1831.000000	64.482522 
1830.000000	64.469623 
1829.000000	64.459633 
1828.000000	64.452815 
1827.000000	64.449143 
1826.000000	64.448237 
1825.000000	64.449715 
1824.000000	64.452934 
1823.000000	64.457273 
1822.000000	64.462232 
1821.000000	64.467358 
1820.000000	64.472270 
1819.000000	64.476680 
1818.000000	64.480161 
1817.000000	64.482355 
1816.000000	64.482831 
1815.000000	64.481282 
1814.000000	64.477562 
1813.000000	64.471912 
1812.000000	64.464879 
1811.000000	64.457535 
1810.000000	64.451050 
1809.000000	64.446544 
1808.000000	64.444971 
1807.000000	64.446496 
1806.000000	64.450836 
1805.000000	64.457011 
1804.000000	64.463758 
1803.000000	64.469814 
1802.000000	64.474225 
1801.000000	64.476704 
1800.000000	64.477777 
1799.000000	64.478540 
1798.000000	64.480328 
1797.000000	64.484214 
1796.000000	64.490771 
1795.000000	64.499807 
1794.000000	64.510393 
1793.000000	64.520931 
1792.000000	64.529776 
1791.000000	64.535689 
1790.000000	64.537811 
1789.000000	64.536380 
1788.000000	64.532232 
1787.000000	64.526820 
1786.000000	64.521694 
1785.000000	64.517998 
1784.000000	64.516282 
1783.000000	64.516425 
1782.000000	64.517545 
1781.000000	64.518260 
1780.000000	64.517021 
1779.000000	64.512372 
1778.000000	64.503335 
1777.000000	64.489722 
1776.000000	64.471888 
1775.000000	64.451217 
1774.000000	64.429640 
1773.000000	64.409542 
1772.000000	64.393234 
1771.000000	64.382719 
1770.000000	64.379215 
1769.000000	64.382767 
1768.000000	64.392399 
1767.000000	64.406108 
1766.000000	64.421153 
1765.000000	64.434766 
1764.000000	64.444518 
1763.000000	64.449000 
1762.000000	64.448070 
1761.000000	64.442729 
1760.000000	64.434909 
1759.000000	64.427042 
1758.000000	64.421081 
1757.000000	64.418554 
1756.000000	64.419627 
1755.000000	64.423322 
1754.000000	64.427709 
1753.000000	64.430475 
1752.000000	64.429521 
1751.000000	64.423346 
1750.000000	64.411520 
1749.000000	64.394903 
1748.000000	64.375209 
1747.000000	64.354634 
1746.000000	64.335489 
1745.000000	64.319682 
1744.000000	64.308357 
1743.000000	64.301776 
1742.000000	64.299464 
1741.000000	64.300441 
1740.000000	64.303326 
1739.000000	64.306807 
1738.000000	64.309716 
1737.000000	64.311099 
1736.000000	64.310574 
1735.000000	64.307999 
1734.000000	64.303445 
1733.000000	64.297175 
1732.000000	64.289617 
1731.000000	64.281272 
1730.000000	64.272546 
1729.000000	64.263892 
1728.000000	64.255619 
1727.000000	64.248251 
1726.000000	64.242172 
1725.000000	64.237952 
1724.000000	64.236235 
1723.000000	64.237833 
1722.000000	64.243316 
1721.000000	64.253258 
1720.000000	64.267754 
1719.000000	64.286398 
1718.000000	64.308333 
1717.000000	64.332246 
1716.000000	64.356637 
1715.000000	64.379978 
1714.000000	64.400887 
1713.000000	64.418220 
1712.000000	64.430809 
1711.000000	64.437961 
1710.000000	64.439010 
1709.000000	64.433526 
1708.000000	64.421319 
1707.000000	64.402770 
1706.000000	64.378786 
1705.000000	64.350891 
1704.000000	64.321088 
1703.000000	64.291787 
1702.000000	64.265370 
1701.000000	64.243793 
1700.000000	64.228510 
1699.000000	64.220023 
1698.000000	64.217948 
1697.000000	64.221215 
1696.000000	64.228200 
1695.000000	64.236974 
1694.000000	64.245653 
1693.000000	64.252543 
1692.000000	64.256262 
1691.000000	64.255714 
1690.000000	64.250540 
1689.000000	64.240956 
1688.000000	64.227867 
1687.000000	64.212703 
1686.000000	64.197516 
1685.000000	64.184498 
1684.000000	64.175701 
1683.000000	64.172625 
1682.000000	64.175868 
1681.000000	64.185237 
1680.000000	64.199471 
1679.000000	64.216589 
1678.000000	64.234256 
1677.000000	64.250302 
1676.000000	64.263105 
1675.000000	64.271855 
1674.000000	64.276528 
1673.000000	64.277815 
1672.000000	64.276862 
1671.000000	64.274811 
1670.000000	64.272356 
1669.000000	64.269685 
1668.000000	64.266705 
1667.000000	64.263081 
1666.000000	64.258599 
1665.000000	64.253425 
1664.000000	64.248251 
1663.000000	64.244151 
1662.000000	64.242362 
1661.000000	64.243865 
1660.000000	64.248919 
1659.000000	64.257097 
1658.000000	64.267277 
1657.000000	64.277720 
1656.000000	64.286756 
1655.000000	64.293050 
1654.000000	64.296174 
1653.000000	64.296483 
1652.000000	64.295077 
1651.000000	64.293313 
1650.000000	64.292621 
1649.000000	64.293789 
1648.000000	64.297056 
1647.000000	64.302039 
1646.000000	64.307975 
1645.000000	64.313983 
1644.000000	64.319396 
1643.000000	64.324021 
1642.000000	64.327812 
1641.000000	64.331030 
1640.000000	64.333820 
1639.000000	64.336323 
1638.000000	64.338350 
1637.000000	64.339566 
1636.000000	64.339232 
1635.000000	64.336585 
1634.000000	64.330959 
1633.000000	64.321899 
1632.000000	64.309215 
1631.000000	64.292860 
1630.000000	64.273190 
1629.000000	64.250850 
1628.000000	64.226555 
1627.000000	64.201426 
1626.000000	64.176726 
1625.000000	64.154100 
1624.000000	64.135408 
1623.000000	64.122772 
1622.000000	64.117956 
1621.000000	64.122295 
1620.000000	64.136290 
1619.000000	64.159321 
1618.000000	64.189577 
1617.000000	64.224028 
1616.000000	64.258861 
1615.000000	64.290070 
1614.000000	64.313936 
1613.000000	64.328002 
1612.000000	64.331412 
1611.000000	64.325237 
1610.000000	64.312052 
1609.000000	64.295482 
1608.000000	64.279603 
1607.000000	64.267826 
1606.000000	64.262294 
1605.000000	64.263796 
1604.000000	64.271473 
1603.000000	64.283275 
1602.000000	64.296483 
1601.000000	64.308214 
1600.000000	64.316201 
1599.000000	64.318895 
1598.000000	64.316129 
1597.000000	64.308500 
1596.000000	64.297580 
1595.000000	64.285326 
1594.000000	64.273858 
1593.000000	64.264559 
1592.000000	64.258313 
1591.000000	64.255309 
1590.000000	64.254808 
1589.000000	64.255905 
1588.000000	64.257240 
1587.000000	64.257502 
1586.000000	64.255619 
1585.000000	64.250946 
1584.000000	64.243125 
1583.000000	64.232134 
1582.000000	64.218235 
1581.000000	64.202070 
1580.000000	64.184403 
1579.000000	64.166355 
1578.000000	64.149188 
1577.000000	64.134430 
1576.000000	64.123535 
1575.000000	64.117789 
1574.000000	64.118027 
1573.000000	64.124464 
1572.000000	64.136433 
1571.000000	64.152812 
1570.000000	64.171862 
1569.000000	64.191865 
1568.000000	64.211130 
1567.000000	64.228153 
1566.000000	64.241862 
1565.000000	64.251494 
1564.000000	64.256644 
1563.000000	64.257121 
1562.000000	64.252996 
1561.000000	64.244723 
1560.000000	64.233112 
1559.000000	64.219403 
1558.000000	64.205241 
1557.000000	64.192318 
1556.000000	64.182329 
1555.000000	64.176583 
1554.000000	64.175748 
1553.000000	64.179849 
1552.000000	64.188075 
1551.000000	64.198923 
1550.000000	64.210724 
1549.000000	64.221811 
1548.000000	64.230895 
1547.000000	64.237165 
1546.000000	64.240550 
1545.000000	64.241266 
1544.000000	64.239883 
1543.000000	64.237022 
1542.000000	64.233160 
1541.000000	64.228606 
1540.000000	64.223074 
1539.000000	64.216637 
1538.000000	64.209055 
1537.000000	64.200353 
1536.000000	64.190673 
1535.000000	64.180541 
1534.000000	64.170527 
1533.000000	64.161229 
1532.000000	64.153218 
1531.000000	64.146709 
1530.000000	64.141821 
1529.000000	64.138340 
1528.000000	64.136147 
1527.000000	64.135217 
1526.000000	64.135622 
1525.000000	64.137744 
1524.000000	64.141964 
1523.000000	64.148640 
1522.000000	64.157891 
1521.000000	64.169478 
1520.000000	64.182710 
1519.000000	64.196324 
1518.000000	64.208889 
1517.000000	64.218878 
1516.000000	64.225006 
1515.000000	64.226555 
1514.000000	64.223384 
1513.000000	64.216136 
1512.000000	64.206027 
1511.000000	64.194703 
1510.000000	64.183950 
1509.000000	64.175438 
1508.000000	64.170551 
1507.000000	64.169907 
1506.000000	64.173674 
1505.000000	64.180946 
1504.000000	64.190220 
1503.000000	64.199542 
1502.000000	64.206862 
1501.000000	64.210605 
1500.000000	64.210009 
1499.000000	64.205527 
1498.000000	64.198660 
1497.000000	64.191722 
1496.000000	64.187383 
1495.000000	64.188027 
1494.000000	64.195084 
1493.000000	64.208769 
1492.000000	64.227843 
1491.000000	64.249992 
1490.000000	64.272189 
1489.000000	64.291667 
1488.000000	64.306235 
1487.000000	64.314770 
1486.000000	64.317083 
1485.000000	64.314055 
1484.000000	64.307117 
1483.000000	64.297771 
1482.000000	64.287519 
1481.000000	64.277625 
1480.000000	64.269161 
1479.000000	64.263129 
1478.000000	64.259815 
1477.000000	64.259314 
1476.000000	64.260959 
1475.000000	64.263629 
1474.000000	64.265894 
1473.000000	64.266109 
1472.000000	64.263153 
1471.000000	64.256596 
1470.000000	64.246678 
1469.000000	64.234399 
1468.000000	64.221358 
1467.000000	64.209246 
1466.000000	64.199519 
1465.000000	64.192748 
1464.000000	64.188742 
1463.000000	64.186358 
1462.000000	64.183974 
1461.000000	64.179563 
1460.000000	64.171457 
1459.000000	64.158725 
1458.000000	64.141201 
1457.000000	64.119768 
1456.000000	64.095950 
1455.000000	64.071846 
1454.000000	64.049482 
1453.000000	64.030694 
1452.000000	64.016842 
1451.000000	64.008855 
1450.000000	64.007067 
1449.000000	64.011359 
1448.000000	64.021277 
1447.000000	64.036178 
1446.000000	64.055156 
1445.000000	64.077115 
1444.000000	64.100551 
1443.000000	64.123892 
1442.000000	64.145278 
1441.000000	64.162898 
1440.000000	64.175081 
1439.000000	64.180707 
1438.000000	64.179086 
1437.000000	64.170432 
1436.000000	64.155888 
1435.000000	64.137244 
1434.000000	64.116930 
1433.000000	64.097738 
1432.000000	64.082574 
1431.000000	64.073777 
1430.000000	64.072990 
1429.000000	64.080977 
1428.000000	64.097142 
1427.000000	64.119982 
1426.000000	64.147067 
1425.000000	64.175391 
1424.000000	64.201879 
1423.000000	64.223694 
1422.000000	64.238667 
1421.000000	64.245676 
1420.000000	64.244580 
1419.000000	64.236068 
1418.000000	64.221620 
1417.000000	64.203119 
1416.000000	64.182758 
1415.000000	64.162564 
1414.000000	64.144396 
1413.000000	64.129662 
1412.000000	64.119315 
1411.000000	64.113879 
1410.000000	64.113235 
1409.000000	64.116907 
1408.000000	64.124083 
1407.000000	64.133810 
1406.000000	64.144897 
1405.000000	64.156150 
1404.000000	64.166235 
1403.000000	64.174008 
1402.000000	64.178609 
1401.000000	64.179563 
1400.000000	64.176940 
1399.000000	64.171433 
1398.000000	64.164161 
1397.000000	64.156556 
1396.000000	64.150142 
1395.000000	64.146184 
1394.000000	64.145231 
1393.000000	64.147043 
1392.000000	64.150762 
1391.000000	64.154839 
1390.000000	64.157581 
1389.000000	64.157629 
1388.000000	64.154148 
1387.000000	64.147114 
1386.000000	64.137291 
1385.000000	64.125823 
1384.000000	64.113998 
1383.000000	64.103031 
1382.000000	64.093804 
1381.000000	64.086890 
1380.000000	64.082694 
1379.000000	64.081501 
1378.000000	64.083409 
1377.000000	64.088392 
1376.000000	64.096045 
1375.000000	64.105629 
1374.000000	64.115715 
1373.000000	64.124369 
1372.000000	64.129376 
1371.000000	64.128828 
1370.000000	64.121484 
1369.000000	64.107251 
1368.000000	64.087462 
1367.000000	64.064669 
1366.000000	64.042091 
1365.000000	64.023017 
1364.000000	64.010024 
1363.000000	64.004588 
1362.000000	64.006757 
1361.000000	64.015197 
1360.000000	64.027523 
1359.000000	64.041018 
1358.000000	64.052677 
1357.000000	64.060139 
1356.000000	64.061450 
1355.000000	64.055776 
1354.000000	64.043164 
1353.000000	64.024901 
1352.000000	64.002990 
1351.000000	63.980150 
1350.000000	63.959550 
1349.000000	63.944196 
1348.000000	63.936567 
1347.000000	63.938236 
1346.000000	63.949680 
1345.000000	63.969922 
1344.000000	63.996815 
1343.000000	64.027404 
1342.000000	64.058446 
1341.000000	64.086961 
1340.000000	64.110612 
1339.000000	64.127922 
1338.000000	64.138555 
1337.000000	64.142990 
1336.000000	64.142346 
1335.000000	64.138221 
1334.000000	64.132356 
1333.000000	64.126515 
1332.000000	64.122223 
1331.000000	64.120650 
1330.000000	64.122319 
1329.000000	64.127349 
1328.000000	64.135265 
1327.000000	64.145183 
1326.000000	64.155817 
1325.000000	64.165759 
1324.000000	64.173698 
1323.000000	64.178490 
1322.000000	64.179372 
1321.000000	64.176106 
1320.000000	64.168834 
1319.000000	64.157938 
1318.000000	64.144039 
1317.000000	64.127898 
1316.000000	64.110183 
1315.000000	64.091753 
1314.000000	64.073443 
1313.000000	64.056134 
1312.000000	64.040827 
1311.000000	64.028859 
1310.000000	64.021253 
1309.000000	64.018917 
1308.000000	64.022564 
1307.000000	64.032411 
1306.000000	64.048147 
1305.000000	64.068675 
1304.000000	64.092564 
1303.000000	64.117908 
1302.000000	64.142537 
1301.000000	64.164376 
1300.000000	64.181733 
1299.000000	64.193344 
1298.000000	64.198803 
1297.000000	64.198231 
1296.000000	64.192652 
1295.000000	64.183211 
1294.000000	64.171600 
1293.000000	64.159369 
1292.000000	64.147949 
1291.000000	64.138221 
1290.000000	64.130830 
1289.000000	64.125514 
1288.000000	64.121556 
1287.000000	64.117836 
1286.000000	64.113140 
1285.000000	64.106345 
1284.000000	64.096689 
1283.000000	64.084124 
1282.000000	64.069199 
1281.000000	64.052891 
1280.000000	64.036536 
1279.000000	64.021325 
1278.000000	64.008045 
1277.000000	63.997054 
1276.000000	63.988113 
1275.000000	63.980460 
1274.000000	63.973259 
1273.000000	63.965988 
1272.000000	63.958477 
1271.000000	63.950991 
1270.000000	63.944172 
1269.000000	63.938951 
1268.000000	63.936138 
1267.000000	63.935971 
1266.000000	63.938069 
1265.000000	63.941407 
1264.000000	63.944625 
1263.000000	63.946270 
1262.000000	63.945341 
1261.000000	63.941574 
1260.000000	63.935494 
1259.000000	63.928413 
1258.000000	63.921809 
1257.000000	63.917160 
1256.000000	63.915371 
1255.000000	63.916587 
1254.000000	63.920187 
1253.000000	63.925027 
1252.000000	63.929915 
1251.000000	63.933777 
1250.000000	63.935995 
1249.000000	63.936328 
1248.000000	63.934993 
1247.000000	63.932561 
1246.000000	63.929414 
1245.000000	63.925814 
1244.000000	63.921713 
1243.000000	63.916873 
1242.000000	63.911128 
1241.000000	63.904333 
1240.000000	63.896656 
1239.000000	63.888502 
1238.000000	63.880324 
1237.000000	63.872599 
1236.000000	63.865756 
1235.000000	63.859939 
1234.000000	63.855123 
1233.000000	63.850903 
1232.000000	63.846898 
1231.000000	63.842558 
1230.000000	63.837432 
1229.000000	63.831329 
1228.000000	63.824176 
1227.000000	63.816380 
1226.000000	63.808870 
1225.000000	63.802886 
1224.000000	63.799715 
1223.000000	63.800621 
1222.000000	63.806414 
1221.000000	63.817000 
1220.000000	63.831615 
1219.000000	63.848423 
1218.000000	63.865208 
1217.000000	63.879632 
1216.000000	63.890075 
1215.000000	63.895750 
1214.000000	63.897347 
1213.000000	63.896703 
1212.000000	63.896155 
1211.000000	63.898015 
1210.000000	63.903617 
1209.000000	63.913106 
1208.000000	63.925075 
1207.000000	63.937067 
1206.000000	63.946175 
1205.000000	63.949871 
1204.000000	63.946437 
1203.000000	63.935494 
1202.000000	63.917827 
1201.000000	63.895297 
1200.000000	63.870239 
1199.000000	63.844943 
1198.000000	63.821148 
1197.000000	63.800048 
1196.000000	63.782501 
1195.000000	63.769149 
1194.000000	63.760447 
1193.000000	63.757014 
1192.000000	63.759231 
1191.000000	63.767504 
1190.000000	63.781428 
1189.000000	63.799786 
1188.000000	63.820648 
1187.000000	63.841533 
1186.000000	63.859724 
1185.000000	63.873124 
1184.000000	63.880228 
1183.000000	63.880991 
1182.000000	63.876485 
1181.000000	63.868999 
1180.000000	63.861370 
1179.000000	63.856625 
1178.000000	63.857316 
1177.000000	63.864612 
1176.000000	63.878273 
1175.000000	63.896322 
1174.000000	63.915467 
1173.000000	63.931822 
1172.000000	63.941454 
1171.000000	63.941121 
1170.000000	63.928914 
1169.000000	63.904261 
1168.000000	63.868165 
1167.000000	63.822770 
1166.000000	63.771510 
1165.000000	63.718605 
1164.000000	63.668680 
1163.000000	63.626217 
1162.000000	63.595032 
1161.000000	63.577485 
1160.000000	63.574266 
1159.000000	63.584208 
1158.000000	63.604903 
1157.000000	63.633179 
1156.000000	63.665843 
1155.000000	63.700056 
1154.000000	63.733363 
1153.000000	63.763618 
1152.000000	63.788986 
1151.000000	63.807702 
1150.000000	63.818502 
1149.000000	63.820791 
1148.000000	63.815140 
1147.000000	63.803172 
1146.000000	63.787388 
1145.000000	63.770651 
1144.000000	63.755559 
1143.000000	63.744044 
1142.000000	63.737010 
1141.000000	63.734221 
1140.000000	63.734531 
1139.000000	63.736152 
1138.000000	63.737058 
1137.000000	63.735485 
1136.000000	63.730335 
1135.000000	63.721346 
1134.000000	63.708972 
1133.000000	63.694715 
1132.000000	63.680577 
1131.000000	63.669013 
1130.000000	63.662171 
1129.000000	63.661766 
1128.000000	63.668632 
1127.000000	63.682675 
1126.000000	63.702821 
1125.000000	63.726902 
1124.000000	63.752174 
1123.000000	63.775730 
1122.000000	63.794922 
1121.000000	63.807773 
1120.000000	63.813114 
1119.000000	63.811254 
1118.000000	63.803696 
1117.000000	63.792920 
1116.000000	63.781428 
1115.000000	63.771390 
1114.000000	63.763856 
1113.000000	63.758921 
1112.000000	63.755726 
1111.000000	63.753056 
1110.000000	63.749551 
1109.000000	63.744807 
1108.000000	63.739180 
1107.000000	63.733696 
1106.000000	63.729763 
1105.000000	63.728451 
1104.000000	63.730597 
1103.000000	63.736367 
1102.000000	63.745355 
1101.000000	63.756775 
1100.000000	63.769316 
1099.000000	63.781595 
1098.000000	63.791680 
1097.000000	63.797760 
1096.000000	63.797760 
1095.000000	63.789963 
1094.000000	63.773107 
1093.000000	63.747048 
1092.000000	63.713169 
1091.000000	63.674688 
1090.000000	63.636255 
1089.000000	63.603234 
1088.000000	63.580703 
1087.000000	63.572692 
1086.000000	63.580751 
1085.000000	63.603878 
1084.000000	63.638782 
1083.000000	63.680577 
1082.000000	63.723802 
1081.000000	63.763451 
1080.000000	63.795971 
1079.000000	63.819479 
1078.000000	63.833808 
1077.000000	63.840103 
1076.000000	63.840055 
1075.000000	63.835406 
1074.000000	63.827800 
1073.000000	63.818144 
1072.000000	63.807058 
1071.000000	63.794851 
1070.000000	63.782143 
1069.000000	63.769531 
1068.000000	63.757872 
1067.000000	63.747835 
1066.000000	63.739848 
1065.000000	63.733959 
1064.000000	63.729667 
1063.000000	63.726282 
1062.000000	63.722872 
1061.000000	63.718533 
1060.000000	63.712549 
1059.000000	63.704609 
1058.000000	63.694691 
1057.000000	63.682913 
1056.000000	63.669657 
1055.000000	63.655591 
1054.000000	63.641691 
1053.000000	63.629174 
1052.000000	63.619709 
1051.000000	63.615012 
1050.000000	63.616895 
1049.000000	63.626742 
1048.000000	63.645243 
1047.000000	63.671779 
1046.000000	63.704609 
1045.000000	63.740849 
1044.000000	63.777136 
1043.000000	63.809967 
1042.000000	63.836312 
1041.000000	63.854169 
1040.000000	63.862705 
1039.000000	63.862538 
1038.000000	63.855147 
1037.000000	63.842797 
1036.000000	63.827919 
1035.000000	63.812899 
1034.000000	63.800001 
1033.000000	63.791108 
1032.000000	63.787794 
1031.000000	63.791346 
1030.000000	63.802695 
1029.000000	63.822054 
1028.000000	63.848948 
1027.000000	63.881921 
1026.000000	63.918375 
1025.000000	63.955092 
1024.000000	63.988375 
1023.000000	64.015007 
1022.000000	64.032411 
1021.000000	64.039635 
1020.000000	64.037299 
1019.000000	64.027619 
1018.000000	64.013719 
1017.000000	63.999009 
1016.000000	63.986444 
1015.000000	63.977837 
1014.000000	63.973784 
1013.000000	63.973450 
1012.000000	63.975119 
1011.000000	63.976287 
1010.000000	63.974571 
1009.000000	63.968062 
1008.000000	63.955688 
1007.000000	63.937473 
1006.000000	63.914299 
1005.000000	63.887929 
1004.000000	63.860440 
1003.000000	63.833880 
1002.000000	63.809990 
1001.000000	63.789963 
1000.000000	63.774633 
999.000000	 63.764572 
998.000000	 63.760113 
997.000000	 63.761138 
996.000000	 63.767385 
995.000000	 63.778328 
994.000000	 63.792896 
993.000000	 63.809227 
992.000000	 63.825392 
991.000000	 63.839340 
990.000000	 63.849639 
989.000000	 63.855361 
988.000000	 63.856816 
987.000000	 63.855457 
986.000000	 63.853502 
985.000000	 63.853406 
984.000000	 63.857221 
983.000000	 63.865876 
982.000000	 63.879060 
981.000000	 63.895297 
980.000000	 63.912463 
979.000000	 63.928151 
978.000000	 63.940668 
977.000000	 63.949084 
976.000000	 63.953471 
975.000000	 63.954496 
974.000000	 63.953042 
973.000000	 63.949751 
972.000000	 63.944625 
971.000000	 63.937044 
970.000000	 63.926219 
969.000000	 63.911271 
968.000000	 63.892078 
967.000000	 63.869166 
966.000000	 63.844108 
965.000000	 63.818883 
964.000000	 63.795471 
963.000000	 63.775300 
962.000000	 63.759040 
961.000000	 63.746690 
960.000000	 63.737893 
959.000000	 63.732266 
958.000000	 63.729667 
957.000000	 63.730311 
956.000000	 63.734555 
955.000000	 63.742351 
954.000000	 63.753032 
953.000000	 63.765072 
952.000000	 63.776206 
951.000000	 63.783740 
950.000000	 63.785123 
949.000000	 63.778638 
948.000000	 63.763785 
947.000000	 63.741612 
946.000000	 63.714432 
945.000000	 63.685679 
944.000000	 63.659000 
943.000000	 63.637375 
942.000000	 63.622951 
941.000000	 63.616609 
940.000000	 63.617920 
939.000000	 63.625597 
938.000000	 63.637876 
937.000000	 63.652992 
936.000000	 63.669395 
935.000000	 63.686013 
934.000000	 63.701987 
933.000000	 63.716411 
932.000000	 63.728260 
931.000000	 63.736367 
930.000000	 63.739490 
929.000000	 63.736581 
928.000000	 63.727283 
927.000000	 63.712310 
926.000000	 63.693666 
925.000000	 63.674592 
924.000000	 63.659095 
923.000000	 63.650870 
922.000000	 63.652515 
921.000000	 63.664627 
920.000000	 63.685512 
919.000000	 63.711404 
918.000000	 63.737201 
917.000000	 63.757419 
916.000000	 63.767910 
915.000000	 63.766574 
914.000000	 63.753676 
913.000000	 63.732504 
912.000000	 63.708090 
911.000000	 63.686585 
910.000000	 63.673615 
909.000000	 63.673067 
908.000000	 63.686513 
907.000000	 63.712358 
906.000000	 63.746476 
905.000000	 63.782787 
904.000000	 63.814711 
903.000000	 63.836383 
902.000000	 63.844108 
901.000000	 63.836812 
900.000000	 63.816142 
899.000000	 63.785958 
898.000000	 63.751602 
897.000000	 63.718390 
896.000000	 63.691163 
895.000000	 63.673162 
894.000000	 63.666009 
893.000000	 63.669753 
892.000000	 63.683247 
891.000000	 63.704562 
890.000000	 63.731527 
889.000000	 63.761925 
888.000000	 63.793659 
887.000000	 63.824772 
886.000000	 63.853526 
885.000000	 63.878011 
884.000000	 63.896489 
883.000000	 63.907337 
882.000000	 63.909411 
881.000000	 63.902306 
880.000000	 63.886427 
879.000000	 63.863158 
878.000000	 63.834691 
877.000000	 63.803935 
876.000000	 63.773870 
875.000000	 63.747215 
874.000000	 63.726091 
873.000000	 63.711977 
872.000000	 63.705301 
871.000000	 63.705849 
870.000000	 63.712525 
869.000000	 63.724040 
868.000000	 63.738846 
867.000000	 63.755846 
866.000000	 63.773918 
865.000000	 63.792252 
864.000000	 63.810157 
863.000000	 63.827085 
862.000000	 63.842511 
861.000000	 63.856148 
860.000000	 63.867640 
859.000000	 63.876724 
858.000000	 63.883161 
857.000000	 63.886523 
856.000000	 63.886427 
855.000000	 63.882374 
854.000000	 63.873863 
853.000000	 63.861107 
852.000000	 63.845133 
851.000000	 63.828039 
850.000000	 63.812708 
849.000000	 63.802671 
848.000000	 63.801169 
847.000000	 63.810420 
846.000000	 63.830614 
845.000000	 63.859534 
844.000000	 63.892459 
843.000000	 63.922905 
842.000000	 63.944149 
841.000000	 63.950490 
840.000000	 63.938951 
839.000000	 63.909864 
838.000000	 63.867354 
837.000000	 63.818168 
836.000000	 63.770604 
835.000000	 63.732481 
834.000000	 63.709497 
833.000000	 63.704371 
832.000000	 63.715934 
831.000000	 63.739967 
830.000000	 63.769841 
829.000000	 63.798165 
828.000000	 63.818430 
827.000000	 63.825964 
826.000000	 63.819241 
825.000000	 63.799738 
824.000000	 63.771629 
823.000000	 63.740658 
822.000000	 63.712525 
821.000000	 63.691735 
820.000000	 63.680720 
819.000000	 63.679480 
818.000000	 63.685870 
817.000000	 63.696312 
816.000000	 63.706803 
815.000000	 63.714051 
814.000000	 63.715720 
813.000000	 63.711214 
812.000000	 63.701105 
811.000000	 63.687491 
810.000000	 63.673043 
809.000000	 63.660621 
808.000000	 63.652467 
807.000000	 63.649725 
806.000000	 63.651895 
805.000000	 63.657236 
804.000000	 63.663101 
803.000000	 63.666844 
802.000000	 63.666391 
801.000000	 63.661265 
800.000000	 63.652515 
799.000000	 63.642764 
798.000000	 63.635396 
797.000000	 63.633584 
796.000000	 63.639450 
795.000000	 63.653445 
794.000000	 63.674402 
793.000000	 63.699674 
792.000000	 63.725590 
791.000000	 63.748431 
790.000000	 63.764882 
789.000000	 63.772964 
788.000000	 63.772106 
787.000000	 63.762879 
786.000000	 63.747048 
785.000000	 63.726782 
784.000000	 63.704419 
783.000000	 63.682198 
782.000000	 63.661909 
781.000000	 63.645124 
780.000000	 63.632655 
779.000000	 63.624978 
778.000000	 63.622069 
777.000000	 63.623619 
776.000000	 63.628983 
775.000000	 63.637423 
774.000000	 63.648056 
773.000000	 63.660049 
772.000000	 63.672208 
771.000000	 63.683152 
770.000000	 63.690996 
769.000000	 63.693904 
768.000000	 63.690185 
767.000000	 63.678741 
766.000000	 63.659453 
765.000000	 63.633394 
764.000000	 63.602924 
763.000000	 63.571286 
762.000000	 63.541960 
761.000000	 63.518071 
760.000000	 63.501739 
759.000000	 63.493680 
758.000000	 63.492941 
757.000000	 63.497400 
756.000000	 63.504123 
755.000000	 63.510560 
754.000000	 63.514661 
753.000000	 63.515830 
752.000000	 63.514685 
751.000000	 63.512921 
750.000000	 63.512730 
749.000000	 63.516235 
748.000000	 63.524651 
747.000000	 63.537979 
746.000000	 63.555073 
745.000000	 63.573694 
744.000000	 63.591146 
743.000000	 63.604640 
742.000000	 63.611793 
741.000000	 63.611125 
740.000000	 63.602232 
739.000000	 63.585591 
738.000000	 63.562345 
737.000000	 63.534355 
736.000000	 63.503932 
735.000000	 63.473653 
734.000000	 63.446021 
733.000000	 63.423418 
732.000000	 63.407778 
731.000000	 63.400411 
730.000000	 63.401627 
729.000000	 63.410544 
728.000000	 63.425445 
727.000000	 63.443613 
726.000000	 63.462495 
725.000000	 63.479804 
724.000000	 63.494253 
723.000000	 63.505649 
722.000000	 63.514637 
721.000000	 63.522195 
720.000000	 63.528919 
719.000000	 63.534879 
718.000000	 63.538718 
717.000000	 63.537979 
716.000000	 63.529491 
715.000000	 63.510227 
714.000000	 63.478255 
713.000000	 63.433432 
712.000000	 63.377833 
711.000000	 63.315415 
710.000000	 63.251352 
709.000000	 63.191151 
708.000000	 63.139700 
707.000000	 63.100624 
706.000000	 63.075709 
705.000000	 63.064908 
704.000000	 63.066363 
703.000000	 63.077163 
702.000000	 63.093566 
701.000000	 63.112330 
700.000000	 63.130235 
699.000000	 63.145923 
698.000000	 63.159513 
697.000000	 63.173246 
696.000000	 63.190054 
695.000000	 63.213419 
694.000000	 63.246107 
693.000000	 63.288521 
692.000000	 63.338685 
691.000000	 63.391375 
690.000000	 63.439297 
689.000000	 63.474845 
688.000000	 63.492083 
687.000000	 63.488817 
686.000000	 63.467526 
685.000000	 63.435673 
684.000000	 63.403916 
683.000000	 63.383674 
682.000000	 63.383626 
681.000000	 63.407731 
680.000000	 63.453340 
679.000000	 63.512063 
678.000000	 63.571381 
677.000000	 63.618087 
676.000000	 63.641095 
675.000000	 63.634347 
674.000000	 63.597774 
673.000000	 63.537025 
672.000000	 63.461804 
671.000000	 63.382744 
670.000000	 63.309621 
669.000000	 63.248944 
668.000000	 63.203668 
667.000000	 63.173651 
666.000000	 63.156819 
665.000000	 63.150691 
664.000000	 63.153839 
663.000000	 63.166546 
662.000000	 63.189435 
661.000000	 63.222599 
660.000000	 63.264608 
659.000000	 63.311648 
658.000000	 63.357520 
657.000000	 63.394403 
656.000000	 63.414549 
655.000000	 63.411831 
654.000000	 63.384222 
653.000000	 63.333773 
652.000000	 63.265275 
651.000000	 63.185954 
650.000000	 63.104557 
649.000000	 63.029956 
648.000000	 62.969326 
647.000000	 62.928152 
646.000000	 62.909793 
645.000000	 62.915563 
644.000000	 62.945914 
643.000000	 62.998557 
642.000000	 63.068437 
641.000000	 63.147139 
640.000000	 63.223934 
639.000000	 63.286256 
638.000000	 63.321542 
637.000000	 63.319993 
636.000000	 63.276576 
635.000000	 63.193011 
634.000000	 63.078212 
633.000000	 62.946629 
632.000000	 62.816405 
631.000000	 62.705731 
630.000000	 62.631201 
629.000000	 62.605929 
628.000000	 62.638854 
627.000000	 62.733292 
626.000000	 62.886881 
625.000000	 63.093018 
624.000000	 63.339257 
623.000000	 63.608694 
622.000000	 63.878941 
621.000000	 64.124155 
620.000000	 64.316892 
619.000000	 64.433717 
618.000000	 64.457058 
617.000000	 64.378881 
616.000000	 64.203357 
615.000000	 63.949179 
614.000000	 63.644933 
613.000000	 63.325095 
612.000000	 63.024663 
611.000000	 62.774443 
610.000000	 62.595939 
609.000000	 62.499690 
608.000000	 62.484216 
607.000000	 62.537741 
606.000000	 62.640357 
605.000000	 62.767958 
604.000000	 62.894487 
603.000000	 62.996315 
602.000000	 63.054275 
601.000000	 63.057398 
600.000000	 63.001894 
599.000000	 62.894082 
598.000000	 62.746858 
597.000000	 62.580895 
596.000000	 62.419962 
595.000000	 62.289834 
594.000000	 62.214159 
593.000000	 62.211418 
592.000000	 62.291789 
591.000000	 62.455248 
590.000000	 62.691640 
589.000000	 62.981343 
588.000000	 63.297557 
587.000000	 63.610768 
586.000000	 63.892531 
585.000000	 64.120650 
584.000000	 64.281892 
583.000000	 64.372205 
582.000000	 64.395499 
581.000000	 64.363169 
580.000000	 64.291143 
579.000000	 64.195084 
578.000000	 64.087700 
577.000000	 63.978528 
576.000000	 63.873553 
575.000000	 63.776588 
574.000000	 63.690662 
573.000000	 63.618659 
572.000000	 63.564658 
571.000000	 63.534212 
570.000000	 63.533210 
569.000000	 63.564276 
568.000000	 63.627481 
567.000000	 63.718438 
566.000000	 63.830089 
565.000000	 63.951396 
564.000000	 64.071798 
563.000000	 64.181947 
562.000000	 64.277243 
561.000000	 64.356684 
560.000000	 64.425444 
559.000000	 64.492440 
558.000000	 64.568185 
557.000000	 64.661121 
556.000000	 64.775490 
555.000000	 64.910030 
554.000000	 65.056204 
553.000000	 65.199780 
552.000000	 65.323662 
551.000000	 65.411210 
550.000000	 65.450310 
549.000000	 65.435075 
548.000000	 65.366220 
547.000000	 65.250182 
546.000000	 65.098786 
545.000000	 64.925765 
544.000000	 64.745378 
543.000000	 64.568710 
542.000000	 64.404726 
541.000000	 64.257550 
540.000000	 64.127659 
539.000000	 64.012455 
538.000000	 63.907623 
537.000000	 63.809823 
536.000000	 63.717603 
535.000000	 63.632941 
534.000000	 63.559412 
533.000000	 63.501930 
532.000000	 63.463997 
531.000000	 63.447046 
530.000000	 63.448143 
529.000000	 63.463377 
528.000000	 63.488578 
527.000000	 63.521242 
526.000000	 63.561081 
525.000000	 63.611602 
524.000000	 63.678479 
523.000000	 63.766646 
522.000000	 63.877558 
521.000000	 64.007949 
520.000000	 64.148902 
519.000000	 64.286613 
518.000000	 64.404606 
517.000000	 64.487600 
516.000000	 64.524364 
515.000000	 64.511346 
514.000000	 64.453172 
513.000000	 64.361357 
512.000000	 64.252877 
511.000000	 64.147090 
510.000000	 64.062070 
509.000000	 64.011764 
508.000000	 64.003682 
507.000000	 64.039659 
506.000000	 64.114379 
505.000000	 64.217901 
504.000000	 64.335799 
503.000000	 64.452743 
502.000000	 64.551568 
501.000000	 64.615559 
500.000000	 64.630556 
499.000000	 64.587306 
498.000000	 64.483904 
497.000000	 64.326786 
496.000000	 64.130783 
495.000000	 63.916516 
494.000000	 63.707304 
493.000000	 63.524651 
492.000000	 63.384389 
491.000000	 63.294124 
490.000000	 63.253402 
489.000000	 63.253879 
488.000000	 63.282728 
487.000000	 63.324618 
486.000000	 63.364577 
485.000000	 63.390779 
484.000000	 63.393545 
483.000000	 63.369369 
482.000000	 63.318014 
481.000000	 63.246083 
480.000000	 63.163566 
479.000000	 63.085007 
478.000000	 63.026475 
477.000000	 63.003253 
476.000000	 63.027215 
475.000000	 63.101696 
474.000000	 63.220167 
473.000000	 63.365626 
472.000000	 63.513994 
471.000000	 63.639020 
470.000000	 63.718819 
469.000000	 63.740825 
468.000000	 63.705372 
467.000000	 63.624978 
466.000000	 63.521575 
465.000000	 63.420987 
464.000000	 63.346958 
463.000000	 63.315606 
462.000000	 63.332295 
461.000000	 63.392758 
460.000000	 63.483929 
459.000000	 63.588738 
458.000000	 63.689565 
457.000000	 63.773202 
456.000000	 63.832330 
455.000000	 63.864803 
454.000000	 63.874793 
453.000000	 63.868832 
452.000000	 63.856196 
451.000000	 63.846039 
450.000000	 63.846182 
449.000000	 63.861608 
448.000000	 63.894581 
447.000000	 63.945317 
446.000000	 64.009523 
445.000000	 64.079308 
444.000000	 64.145636 
443.000000	 64.200162 
442.000000	 64.236927 
441.000000	 64.252996 
440.000000	 64.249110 
439.000000	 64.228200 
438.000000	 64.194631 
437.000000	 64.152288 
436.000000	 64.103603 
435.000000	 64.049768 
434.000000	 63.989281 
433.000000	 63.922905 
432.000000	 63.854622 
431.000000	 63.794112 
430.000000	 63.756012 
429.000000	 63.756155 
428.000000	 63.810873 
427.000000	 63.925361 
426.000000	 64.090943 
425.000000	 64.281129 
424.000000	 64.458966 
423.000000	 64.576458 
422.000000	 64.586162 
421.000000	 64.450192 
420.000000	 64.150309 
419.000000	 63.698339 
418.000000	 63.137078 
417.000000	 62.536358 
416.000000	 61.979556 
415.000000	 61.549758 
414.000000	 61.310029 
413.000000	 61.287736 
412.000000	 61.466455 
411.000000	 61.794781 
410.000000	 62.195992 
409.000000	 62.572813 
408.000000	 62.839365 
407.000000	 62.949466 
406.000000	 62.897348 
405.000000	 62.715506 
404.000000	 62.455320 
403.000000	 62.167596 
402.000000	 61.882591 
401.000000	 61.611580 
400.000000	 61.330580 
399.000000	 60.982060 
398.000000	 60.514497 
397.000000	 59.900546 
396.000000	 59.174394 
395.000000	 58.443737 
394.000000	 57.842183 
393.000000	 57.489204 
392.000000	 57.472991 
391.000000	 57.824969 
390.000000	 58.488154 
389.000000	 59.339165 
388.000000	 60.216832 
387.000000	 60.986733 
386.000000	 61.580204 
385.000000	 62.045192 
384.000000	 62.519335 
383.000000	 63.213014 
382.000000	 64.411878 
381.000000	 66.318273 
380.000000	 69.006562 
379.000000	 72.286558 
378.000000	 75.744104 
377.000000	 78.754281 
376.000000	 80.612683 
375.000000	 80.725765 
374.000000	 78.738689 
373.000000	 74.746036 
372.000000	 69.270730 
371.000000	 63.283228 
370.000000	 57.987642 

